Time (s),Acceleration x (m/s^2),Acceleration y (m/s^2),Acceleration z (m/s^2),Absolute acceleration (m/s^2)
0.0,-0.4740519287109375,3.447650390625,-6.459556079101562,7.3373621408616065
0.002486943546381497,-0.9337386474609375,3.778050219726562,-5.042188696289062,6.369395432340757
0.004973887092762994,-1.3742717529296875,4.07971962890625,-2.5522189697265625,5.004653511564562
0.007460830639144491,-1.6998831787109374,4.2137949218749995,0.737414111328125,4.60319997789253
0.009947774185525988,-1.9105729248046874,4.247313745117188,4.65432802734375,6.584279181244952
0.012434717731907486,-2.039859814453125,4.094084838867187,8.719682446289061,9.846594370369102
0.014921661278288981,-1.9680337646484374,3.88818349609375,12.574347119140624,13.308092773599538
0.01740860482467048,-1.8722656982421875,3.5673604736328124,16.041151123046873,16.539346085806415
0.019895548371051976,-1.5610194824218748,3.1938650146484373,18.780117822265623,19.113617684113983
0.022382491917433474,-1.2880804931640624,2.7437551025390623,20.676325537109374,20.897315165736007
0.02486943546381497,-0.9050082275390624,2.375048046875,21.58612216796875,21.735237826335144
0.027356379010196465,-0.5315127685546874,2.0446482177734375,21.471200488281248,21.574882214407328
0.029843322556577963,-0.1580173095703125,1.66636435546875,20.389021337890625,20.45761302675021
0.032330266102959464,0.1197100830078125,1.4413093994140624,18.488025219726563,18.544508076895934
0.03481720964934096,0.39743747558593745,1.2976572998046874,15.974113476562499,16.03166156007643
0.03730415319572245,0.5458779785156249,1.2641384765625,13.029245434570312,13.1018039005942
0.03979109674210395,0.6416460449218749,1.369483349609375,9.95987890625,10.074044973047563
0.04227804028848545,0.6416460449218749,1.5897499023437498,7.072471704101562,7.277284548805488
0.04476498383486695,0.5267243652343749,1.8052280517578123,4.438849877929687,4.820754620863964
0.04725192738124844,0.37828386230468747,2.0542250244140625,2.346317626953125,3.1413604597307914
0.04973887092762994,0.08140285644531249,2.370259643554687,0.948103857421875,2.554145283134788
0.05222581447401144,-0.15322890625,2.6910826660156246,0.2920926025390625,2.7112216990682216
0.05471275802039293,-0.4644751220703125,2.96881005859375,0.38307226562499996,3.0292432493480486
0.05719970156677443,-0.7709329345703124,3.1938650146484373,1.2641384765625,3.520391655672166
0.059686645113155926,-1.0295067138671874,3.438073583984375,2.7341782958984373,4.511758525957574
0.062173588659537427,-1.16837041015625,3.5386300537109374,4.668693237304687,5.9735825612784055
0.06466053220591893,-1.3455413330078123,3.6008792968749996,6.900089184570312,7.898610253995296
0.06714747575230041,-1.407790576171875,3.5003228271484375,9.251195214843749,9.990933244885717
0.06963441929868192,-1.3407529296874998,3.4572271972656248,11.501744775390625,12.084708154945417
0.07212136284506342,-1.2785036865234374,3.2321722412109373,13.527239379882811,13.96666439469213
0.0746083063914449,-1.149216796875,3.0119056884765625,15.064316845703123,15.405385978619035
0.0770952499378264,-0.9864110839843749,2.7629087158203123,16.132130786132812,16.3967165950826
0.0795821934842079,-0.7996633544921875,2.5043349365234375,16.57266389160156,16.779879124082026
0.0820691370305894,-0.5410895751953124,2.24097275390625,16.424223388671873,16.58522989690319
0.0845560805769709,-0.3112462158203125,2.1021090576171875,15.715539697265624,15.858559981073642
0.0870430241233524,-0.12449848632812499,1.9297265380859374,14.551957690429687,14.679877963012732
0.0895299676697339,0.076614453125,1.7908628417968748,12.976572998046874,13.099790313825473
0.09201691121611538,0.1580173095703125,1.7477672119140624,11.238382592773437,11.374572651256779
0.09450385476249688,0.2442085693359375,1.8148048583984373,9.423577734375,9.599842280746696
0.09699079830887838,0.21068974609375,1.848323681640625,7.68059892578125,7.902676158108384
0.09947774185525989,0.16280571289062498,1.9919757812499999,6.138733056640625,6.455890082237206
0.10196468540164137,0.0430956298828125,2.221819140625,4.951209033203125,5.427044169475207
0.10445162894802287,-0.1197100830078125,2.403778466796875,4.204218115234375,4.84437110282387
0.10693857249440437,-0.2920926025390625,2.5905261962890624,3.902548706054687,4.693189796422795
0.10942551604078586,-0.49799394531249996,2.7916391357421872,4.084508032226562,4.972368942375314
0.11191245958716736,-0.699106884765625,2.959233251953125,4.716577270507813,5.611765588873317
0.11439940313354886,-0.833182177734375,3.0693665283203124,5.659892724609374,6.492271488512585
0.11688634667993036,-0.9624690673828125,3.1172505615234374,6.909665991210937,7.641144016381574
0.11937329022631185,-1.0773907470703123,3.246537451171875,8.355763793945313,9.028818572988476
0.12186023377269335,-1.139639990234375,3.2130186279296873,9.80665,10.382324028523891
0.12434717731907485,-1.0438719238281249,3.1411925781249996,11.176133349609374,11.656016302943089
0.12683412086545634,-1.0007762939453124,3.0550013183593747,12.363657373046875,12.77476457253897
0.12932106441183785,-0.9145850341796874,2.896984008789062,13.268665600585937,13.611997243318026
0.13180800795821934,-0.7709329345703124,2.7246014892578123,13.80975517578125,14.097061001495598
0.13429495150460083,-0.6416460449218749,2.5761609863281247,13.972560888671874,14.222544528391744
0.13678189505098234,-0.49320554199218747,2.365471240234375,13.7522943359375,13.962961913479761
0.13926883859736383,-0.3687070556640625,2.2361843505859373,13.168109130859374,13.361720077330013
0.14175578214374532,-0.2442085693359375,2.1547814941406247,12.330138549804687,12.519386477388085
0.14424272569012683,-0.1292868896484375,2.0302830078125,11.3006318359375,11.482292631833213
0.14672966923650832,-0.05746083984375,1.9728221679687499,10.0748005859375,10.266300984334672
0.1492166127828898,0.033518823242187495,2.0638018310546875,8.930372192382812,9.165803238334348
0.15170355632927132,-0.033518823242187495,2.1308394775390624,7.781155395507812,8.067712171340201
0.1541904998756528,-0.0526724365234375,2.1883003173828124,6.904877587890625,7.2435327823087325
0.15667744342203432,-0.1580173095703125,2.27927998046875,6.133944653320312,6.54563699799235
0.1591643869684158,-0.22505495605468748,2.43250888671875,5.846640454101562,6.3364780293746295
0.1616513305147973,-0.4070142822265625,2.6001030029296874,5.7125651611328125,6.2896420384604355
0.1641382740611788,-0.47884033203125,2.6910826660156246,5.9950809570312495,6.588794249350049
0.1666252176075603,-0.6272808349609375,2.8203695556640622,6.517016918945312,7.1287779596678025
0.1691121611539418,-0.7326257080078125,2.858676782226562,7.235277416992187,7.813962674220571
0.1715991047003233,-0.814028564453125,2.959233251953125,8.188169677734374,8.7444740616334
0.1740860482467048,-0.8571241943359375,3.0550013183593747,9.246406811523437,9.775670507125358
0.17657299179308628,-0.9193734375,3.0262708984374997,10.232817895507813,10.710468017362043
0.1790599353394678,-0.9193734375,3.0166940917968748,11.18571015625,11.621781380696211
0.18154687888584928,-0.8906430175781249,2.920926025390625,11.880028637695311,12.266219232633405
0.18403382243223076,-0.7709329345703124,2.834734765625,12.464213842773436,12.805728620403961
0.18652076597861228,-0.6751648681640625,2.786850732421875,12.694057202148437,13.013895375921075
0.18900770952499377,-0.6272808349609375,2.6096798095703124,12.722787622070312,13.002816419172184
0.19149465307137528,-0.4836287353515625,2.47081611328125,12.401964599609375,12.654941918052097
0.19398159661775677,-0.33518823242187495,2.346317626953125,11.903970654296874,12.137630530546982
0.19646854016413826,-0.26815058593749996,2.2840683837890623,11.176133349609374,11.410294902710195
0.19895548371051977,-0.2537853759765625,2.2074539306640624,10.347739575195313,10.583618199327065
0.20144242725690126,-0.1484405029296875,2.1547814941406247,9.452308154296874,9.695939733423888
0.20392937080328274,-0.13407529296874998,2.1643583007812497,8.547299926757812,8.818092711936037
0.20641631434966426,-0.13407529296874998,2.2074539306640624,7.819462622070312,8.1261814364524
0.20890325789604575,-0.15322890625,2.2361843505859373,7.1586629638671875,7.501363541234338
0.21139020144242723,-0.296881005859375,2.29843359375,6.7277066650390625,7.115684948571686
0.21387714498880875,-0.32082302246093747,2.403778466796875,6.598419775390624,7.029951768073759
0.21636408853519024,-0.38307226562499996,2.5139117431640625,6.6271501953125,7.098282632041341
0.21885103208157172,-0.5506663818359374,2.5809493896484375,6.900089184570312,7.38754113159684
0.22133797562795324,-0.7613561279296874,2.5665841796874997,7.45075556640625,7.917119173998327
0.22382491917433472,-0.7134720947265625,2.8107927490234372,8.097190014648437,8.600818823881747
0.22631186272071624,-0.7422025146484375,2.91134921875,8.892064965820312,9.385927668730229
0.22879880626709773,-0.7900865478515624,2.920926025390625,9.6917283203125,10.15311003750317
0.2312857498134792,-0.8475473876953125,2.920926025390625,10.43871923828125,10.872764356678411
0.23377269335986073,-0.8283937744140625,2.901772412109375,11.133037719726563,11.534775604493634
0.23625963690624222,-0.7996633544921875,2.868253588867187,11.722011328125,12.094291616595742
0.2387465804526237,-0.718260498046875,2.8012159423828122,12.042834350585936,12.385175335640863
0.24123352399900522,-0.6464344482421874,2.748543505859375,12.215216870117187,12.537300031644431
0.2437204675453867,-0.5602431884765625,2.5617957763671875,12.076353173828124,12.357790094069236
0.2462074110917682,-0.430956298828125,2.528276953125,11.79862578125,12.074165727253368
0.2486943546381497,-0.40222587890625,2.442085693359375,11.286266625976562,11.554452931402889
0.2511812981845312,-0.3447650390625,2.35589443359375,10.678139404296875,10.940373058172899
0.2536682417309127,-0.24899697265624998,2.3032219970703123,9.888052856445311,10.155807223063897
0.2561551852772942,-0.22026655273437498,2.2601263671875,9.126696728515624,9.404960484989154
0.2586421288236757,-0.1867477294921875,2.2361843505859373,8.427589843749999,8.721219280510844
0.26112907237005717,-0.201112939453125,2.288856787109375,7.81467421875,8.145455478455949
0.2636160159164387,-0.22505495605468748,2.2744915771484373,7.287949853515625,7.637943095829032
0.2661029594628202,-0.296881005859375,2.346317626953125,7.0102224609374995,7.398416296074696
0.26858990300920166,-0.37828386230468747,2.427720483398437,6.919242797851562,7.342536777001066
0.2710768465555832,-0.4644751220703125,2.4947581298828125,7.038952880859375,7.482406893814123
0.2735637901019647,-0.5363011718749999,2.5665841796874997,7.326257080078125,7.7813248294729025
0.27605073364834615,-0.6703764648437499,2.6575638427734374,7.8529814453124995,8.317533754873226
0.27853767719472766,-0.6607996582031249,2.77727392578125,8.475473876953124,8.943353067279665
0.2810246207411092,-0.737414111328125,2.81558115234375,9.150638745117186,9.602367741378115
0.28351156428749064,-0.737414111328125,2.916137622070312,9.926360083007811,10.372090565549964
0.28599850783387215,-0.82360537109375,2.834734765625,10.548852514648438,10.95410134947373
0.28848545138025367,-0.7805097412109374,2.8730419921875,11.1474029296875,11.538117603049614
0.2909723949266351,-0.70868369140625,2.8012159423828122,11.587936035156249,11.942751143903045
0.29345933847301664,-0.70868369140625,2.8012159423828122,11.870451831054687,12.217064704900043
0.29594628201939815,-0.6081272216796875,2.7150246826171873,11.9518546875,12.27143056925655
0.2984332255657796,-0.584185205078125,2.5953145996093747,11.812990991210937,12.108826796317159
0.30092016911216113,-0.47884033203125,2.528276953125,11.544840405273437,11.828136471926461
0.30340711265854264,-0.39743747558593745,2.4756045166015626,11.080365283203124,11.360504789789546
0.30589405620492416,-0.316034619140625,2.375048046875,10.419565624999999,10.691495635276747
0.3083809997513056,-0.2920926025390625,2.3223756103515623,9.7683427734375,10.044862721977958
0.31086794329768713,-0.21068974609375,2.3319524169921872,9.0788126953125,9.375885675539788
0.31335488684406865,-0.17238251953125,2.288856787109375,8.398859423828124,8.706860556260395
0.3158418303904501,-0.26815058593749996,2.31758720703125,7.824251025390624,8.164681212837387
0.3183287739368316,-0.26336218261718747,2.3223756103515623,7.359775903320312,7.721987403634054
0.32081571748321314,-0.32082302246093747,2.360682836914062,7.1203557373046875,7.508343139069323
0.3233026610295946,-0.39743747558593745,2.35589443359375,7.015010864257812,7.410706616436335
0.3257896045759761,-0.4261678955078125,2.4851813232421875,7.182604980468749,7.612329445708969
0.3282765481223576,-0.5410895751953124,2.5761609863281247,7.4794859863281244,7.929192517245557
0.3307634916687391,-0.6177040283203125,2.6431986328124997,7.939172705078125,8.39038262060572
0.3332504352151206,-0.6607996582031249,2.729389892578125,8.590395556640624,9.0377608506499
0.3357373787615021,-0.7278373046875,2.7629087158203123,9.208099584960937,9.641188188216658
0.3382243223078836,-0.7661445312499999,2.8203695556640622,9.8449572265625,10.26959807714626
0.3407112658542651,-0.7517793212890624,2.863465185546875,10.544064111328124,10.951798619430262
0.3431982094006466,-0.7709329345703124,2.825157958984375,11.128249316406249,11.507119010895565
0.34568515294702806,-0.7661445312499999,2.7916391357421872,11.477802758789062,11.837237121754278
0.3481720964934096,-0.699106884765625,2.7437551025390623,11.774683764648437,12.110331137360008
0.3506590400397911,-0.6177040283203125,2.7246014892578123,11.875240234375,12.199440239862966
0.35314598358617255,-0.5602431884765625,2.6767174560546874,11.755530151367187,12.06943154873026
0.35563292713255407,-0.469263525390625,2.5474305664062498,11.434707128906249,11.724424841789991
0.3581198706789356,-0.411802685546875,2.50912333984375,10.979808813476561,11.270380781804572
0.36060681422531704,-0.373495458984375,2.408566870117187,10.338162768554687,10.621596050257153
0.36309375777169856,-0.316034619140625,2.39420166015625,9.777919580078125,10.071732263343058
0.36558070131808007,-0.24899697265624998,2.403778466796875,9.126696728515624,9.441225745851336
0.36806764486446153,-0.258573779296875,2.2744915771484373,8.456320263671875,8.760680609156267
0.37055458841084304,-0.258573779296875,2.31758720703125,7.8912886718749995,8.228639484410378
0.37304153195722456,-0.296881005859375,2.3319524169921872,7.455543969726562,7.817370164657797
0.3755284755036061,-0.373495458984375,2.29843359375,7.201758593749999,7.568858743919883
0.37801541904998753,-0.3687070556640625,2.408566870117187,7.105990527343749,7.512139551114693
0.38050236259636905,-0.43574470214843747,2.461239306640625,7.187393383789062,7.609612081002424
0.38298930614275056,-0.5315127685546874,2.5330653564453125,7.532158422851562,7.964442003687001
0.385476249689132,-0.565031591796875,2.6144682128906247,7.881711865234375,8.323225736607192
0.38796319323551354,-0.6464344482421874,2.7054478759765623,8.504204296874999,8.947559244201038
0.39045013678189505,-0.70868369140625,2.767697119140625,9.141061938476563,9.57712865533451
0.3929370803282765,-0.7230489013671875,2.7724855224609373,9.773131176757811,10.184476848819449
0.395424023874658,-0.7613561279296874,2.829946362304687,10.448296044921875,10.851504495201931
0.39791096742103954,-0.7613561279296874,2.7964275390625,10.989385620117186,11.365133806621092
0.400397910967421,-0.7613561279296874,2.806004345703125,11.429918725585937,11.793912226871157
0.4028848545138025,-0.689530078125,2.7629087158203123,11.707646118164062,12.04898725739043
0.40537179806018403,-0.6464344482421874,2.7198130859375,11.832144604492187,12.15791539121426
0.4078587416065655,-0.59376201171875,2.6958710693359373,11.731588134765625,12.051988811512246
0.410345685152947,-0.488417138671875,2.5953145996093747,11.49216796875,11.791697663791142
0.4128326286993285,-0.4213794921875,2.50912333984375,11.046846459960937,11.336052104720423
0.41531957224571,-0.38786066894531246,2.4756045166015626,10.481814868164061,10.777174794518178
0.4178065157920915,-0.36391865234375,2.418143676757812,9.835380419921874,10.134819368471746
0.420293459338473,-0.316034619140625,2.3319524169921872,9.198522778320312,9.494772312114108
0.42278040288485447,-0.27293898925781246,2.327164013671875,8.542511523437499,8.858029756466667
0.425267346431236,-0.26336218261718747,2.3319524169921872,7.958326318359375,8.297127183781148
0.4277542899776175,-0.316034619140625,2.29843359375,7.56567724609375,7.91341563785415
0.43024123352399896,-0.2825157958984375,2.3511060302734372,7.244854223632812,7.6220356508094635
0.43272817707038047,-0.38786066894531246,2.346317626953125,7.110778930664062,7.497920998906403
0.435215120616762,-0.45010991210937495,2.446874096679687,7.192181787109375,7.610339718883051
0.43770206416314344,-0.47884033203125,2.528276953125,7.431601953125,7.864488540583815
0.44018900770952496,-0.584185205078125,2.6048914062499997,7.8721350585937495,8.31247508104103
0.4426759512559065,-0.6416460449218749,2.6623522460937497,8.40843623046875,8.843168491615652
0.445162894802288,-0.6943184814453125,2.70065947265625,9.011775048828124,9.433330762334458
0.44764983834866945,-0.7278373046875,2.7629087158203123,9.667786303710937,10.081145953128116
0.45013678189505096,-0.7230489013671875,2.77727392578125,10.32379755859375,10.71526230212863
0.4526237254414325,-0.7757213378906249,2.8107927490234372,10.86009873046875,11.244734052326471
0.45511066898781394,-0.7326257080078125,2.7820623291015623,11.324573852539062,11.684287918938466
0.45759761253419545,-0.6703764648437499,2.806004345703125,11.698069311523437,12.048563840139938
0.46008455608057697,-0.63206923828125,2.748543505859375,11.812990991210937,12.144989052445208
0.4625714996269584,-0.59376201171875,2.6958710693359373,11.741164941406248,12.061311219363754
0.46505844317333994,-0.5315127685546874,2.6527754394531247,11.535263598632811,11.848292267041929
0.46754538671972146,-0.4644751220703125,2.5665841796874997,11.137826123046874,11.43915478685684
0.4700323302661029,-0.411802685546875,2.499546533203125,10.596736547851561,10.895326511309536
0.47251927381248443,-0.3495534423828125,2.437297290039062,9.993397729492187,10.292259415159192
0.47500621735886595,-0.26815058593749996,2.442085693359375,9.3852705078125,9.701494203227885
0.4774931609052474,-0.2825157958984375,2.3511060302734372,8.710105639648438,9.026264731014471
0.4799801044516289,-0.26815058593749996,2.3367408203125,8.106766821289062,8.441085871664056
0.48246704799801043,-0.316034619140625,2.308010400390625,7.632714892578124,7.980296142386606
0.4849539915443919,-0.32082302246093747,2.375048046875,7.302315063476562,7.685543957520666
0.4874409350907734,-0.354341845703125,2.398990063476562,7.163451367187499,7.562786983535635
0.4899278786371549,-0.44053310546874996,2.4660277099609376,7.1778165771484375,7.602395207991758
0.4924148221835364,-0.488417138671875,2.427720483398437,7.331045483398437,7.737997539836607
0.4949017657299179,-0.5746083984375,2.5617957763671875,7.766790185546874,8.19853658878674
0.4973887092762994,-0.59376201171875,2.6479870361328124,8.264784130859374,8.698910586952406
0.49987565282268087,-0.6751648681640625,2.70065947265625,8.911218579101561,9.335910547502893
0.5023625963690624,-0.7134720947265625,2.73896669921875,9.509768994140625,9.922030403667446
0.5048495399154439,-0.7230489013671875,2.7820623291015623,10.175357055664062,10.573578473110544
0.5073364834618254,-0.7852981445312499,2.7533319091796873,10.721235034179687,11.096955007389784
0.5098234270082069,-0.737414111328125,2.7820623291015623,11.219228979492186,11.582519124476727
0.5123103705545884,-0.718260498046875,2.81558115234375,11.602301245117188,11.960634997814111
0.5147973141009698,-0.6464344482421874,2.767697119140625,11.79862578125,12.136127684115335
0.5172842576473514,-0.622492431640625,2.7198130859375,11.774683764648437,12.100746167380018
0.5197712011937329,-0.5219359619140624,2.6671406494140624,11.602301245117188,11.916352234410658
0.5222581447401143,-0.45489831542968745,2.6192566162109374,11.267113012695312,11.57649659179294
0.5247450882864959,-0.39264907226562495,2.50912333984375,10.754753857421875,11.050547667976932
0.5272320318328774,-0.33518823242187495,2.43250888671875,10.165780249023436,10.458132658680267
0.5297189753792588,-0.2825157958984375,2.379836450195312,9.548076220703125,9.844246859001801
0.5322059189256404,-0.277727392578125,2.35589443359375,8.901641772460938,9.212306840962679
0.5346928624720219,-0.2346317626953125,2.3319524169921872,8.322244970703125,8.645971055443955
0.5371798060184033,-0.296881005859375,2.2840683837890623,7.762001782226562,8.09652878589048
0.5396667495647849,-0.3016694091796875,2.2936451904296873,7.3837179199218745,7.737641954303099
0.5421536931111663,-0.33039982910156246,2.3511060302734372,7.187393383789062,7.569378261521434
0.5446406366575478,-0.43574470214843747,2.39420166015625,7.1395093505859375,7.542855480655148
0.5471275802039294,-0.45968671875,2.480392919921875,7.331045483398437,7.752927756418883
0.5496145237503108,-0.5267243652343749,2.5474305664062498,7.690175732421874,8.118229107577756
0.5521014672966923,-0.5889736083984375,2.6048914062499997,8.14028564453125,8.567181539123968
0.5545884108430739,-0.6416460449218749,2.7246014892578123,8.686163623046875,9.12603974397288
0.5570753543894553,-0.7278373046875,2.748543505859375,9.361328491210937,9.783593903369772
0.5595622979358368,-0.7565677246093749,2.7581203125,9.9981861328125,10.399199407959724
0.5620492414822184,-0.737414111328125,2.839523168945312,10.611101757812499,11.009184888683384
0.5645361850285998,-0.7422025146484375,2.7916391357421872,11.142614526367186,11.510950096328578
0.5670231285749813,-0.6847416748046875,2.849099975585937,11.5304751953125,11.896978610631145
0.5695100721213628,-0.7038952880859375,2.7820623291015623,11.789048974609374,12.13330190448313
0.5719970156677443,-0.6368576416015624,2.7054478759765623,11.822567797851562,12.14488144034717
0.5744839592141258,-0.55545478515625,2.6958710693359373,11.650185278320311,11.970925939960818
0.5769709027605073,-0.5267243652343749,2.6001030029296874,11.3389390625,11.645149773440611
0.5794578463068888,-0.43574470214843747,2.5713725830078125,10.888829150390624,11.196804484873855
0.5819447898532703,-0.38786066894531246,2.4899697265625,10.36210478515625,10.66412681452497
0.5844317333996518,-0.3016694091796875,2.398990063476562,9.682151513671874,9.97948975102398
0.5869186769460333,-0.33518823242187495,2.370259643554687,9.064447485351561,9.37521680515786
0.5894056204924147,-0.28730419921875,2.346317626953125,8.441955053710936,8.766661578863147
0.5918925640387963,-0.26815058593749996,2.3223756103515623,7.948749511718749,8.285405965451751
0.5943795075851778,-0.3016694091796875,2.379836450195312,7.522581616210937,7.89581282292506
0.5968664511315592,-0.3591302490234375,2.346317626953125,7.254431030273437,7.63288611963448
0.5993533946779408,-0.4213794921875,2.39420166015625,7.129932543945312,7.532974203270685
0.6018403382243223,-0.469263525390625,2.461239306640625,7.249642626953125,7.670412335679919
0.6043272817707037,-0.5123591552734374,2.47081611328125,7.50821640625,7.920906373182581
0.6068142253170853,-0.5506663818359374,2.6048914062499997,7.972691528320312,8.405504322061221
0.6093011688634667,-0.622492431640625,2.6815058593749996,8.542511523437499,8.975102987118017
0.6117881124098483,-0.6847416748046875,2.7054478759765623,9.126696728515624,9.543841603103973
0.6142750559562298,-0.7278373046875,2.7198130859375,9.7683427734375,10.166004667709938
0.6167619995026112,-0.7565677246093749,2.748543505859375,10.429142431640624,10.811748146575061
0.6192489430489928,-0.737414111328125,2.844311572265625,10.970232006835937,11.356930843124722
0.6217358865953743,-0.7757213378906249,2.786850732421875,11.396399902343749,11.757814904692104
0.6242228301417557,-0.699106884765625,2.7964275390625,11.635820068359374,11.987537949086484
0.6267097736881373,-0.6368576416015624,2.7246014892578123,11.79862578125,12.125865381774174
0.6291967172345188,-0.5506663818359374,2.6575638427734374,11.698069311523437,12.00877615161959
0.6316836607809002,-0.488417138671875,2.6431986328124997,11.477802758789062,11.788341973471761
0.6341706043272818,-0.47884033203125,2.5426421630859375,11.085153686523437,11.383099291797745
0.6366575478736632,-0.38307226562499996,2.5139117431640625,10.534487304687499,10.837062304228546
0.6391444914200447,-0.36391865234375,2.427720483398437,9.931148486328125,10.23005248219839
0.6416314349664263,-0.28730419921875,2.370259643554687,9.289502441406249,9.591430033610493
0.6441183785128077,-0.296881005859375,2.35589443359375,8.657433203124999,8.97716695736741
0.6466053220591892,-0.26336218261718747,2.27927998046875,8.106766821289062,8.42520890918152
0.6490922656055708,-0.3064578125,2.3032219970703123,7.6087728759765625,7.9556377894438794
0.6515792091519522,-0.32082302246093747,2.375048046875,7.311891870117187,7.694643809624429
0.6540661526983337,-0.38307226562499996,2.384624853515625,7.182604980468749,7.577796141237238
0.6565530962447153,-0.4165910888671875,2.427720483398437,7.173028173828125,7.584174843934437
0.6590400397910967,-0.507570751953125,2.4947581298828125,7.4220251464843745,7.846521743416063
0.6615269833374782,-0.55545478515625,2.5713725830078125,7.824251025390624,8.254658750507103
0.6640139268838597,-0.6081272216796875,2.6479870361328124,8.327033374023436,8.75906038758584
0.6665008704302412,-0.6703764648437499,2.7150246826171873,8.916006982421875,9.344300088419281
0.6689878139766227,-0.7565677246093749,2.729389892578125,9.543287817382812,9.954712766978032
0.6714747575230042,-0.7613561279296874,2.7820623291015623,10.184933862304687,10.585481176406804
0.6739617010693857,-0.8044517578125,2.77727392578125,10.788272680664061,11.169029524620058
0.6764486446157671,-0.737414111328125,2.829946362304687,11.276689819335937,11.649725716368696
0.6789355881621487,-0.70868369140625,2.8203695556640622,11.659762084960937,12.01693675122219
0.6814225317085302,-0.689530078125,2.7198130859375,11.774683764648437,12.104379897729228
0.6839094752549116,-0.6272808349609375,2.7246014892578123,11.789048974609374,12.116047633073812
0.6863964188012932,-0.5602431884765625,2.6431986328124997,11.592724438476562,11.903429394472333
0.6888833623476747,-0.4740519287109375,2.518700146484375,11.257536206054686,11.545592106498788
0.6913703058940561,-0.39743747558593745,2.5522189697265625,10.730811840820312,11.037304969036674
0.6938572494404377,-0.39743747558593745,2.4564509033203126,10.165780249023436,10.465906346746005
0.6963441929868192,-0.316034619140625,2.370259643554687,9.509768994140625,9.805800068341071
0.6988311365332006,-0.277727392578125,2.35589443359375,8.820238916015624,9.133673172520611
0.7013180800795822,-0.316034619140625,2.288856787109375,8.29351455078125,8.609362745082375
0.7038050236259636,-0.296881005859375,2.346317626953125,7.738059765625,8.091409869397017
0.7062919671723451,-0.277727392578125,2.3415292236328122,7.436390356445312,7.801268688049884
0.7087789107187267,-0.3399766357421875,2.365471240234375,7.1778165771484375,7.565189298121591
0.7112658542651081,-0.4165910888671875,2.398990063476562,7.211335400390625,7.611311300749026
0.7137527978114896,-0.49320554199218747,2.442085693359375,7.302315063476562,7.715623080907922
0.7162397413578712,-0.5746083984375,2.5378537597656248,7.6470801025390625,8.077667399203824
0.7187266849042526,-0.59376201171875,2.5761609863281247,8.111555224609374,8.531499687389493
0.7212136284506341,-0.63206923828125,2.6479870361328124,8.705317236328124,9.12106874497832
0.7237005719970157,-0.699106884765625,2.7341782958984373,9.323021264648437,9.740801142163601
0.7261875155433971,-0.7757213378906249,2.7916391357421872,10.036493359375,10.44634824285715
0.7286744590897786,-0.7852981445312499,2.748543505859375,10.615890161132812,10.994012392781919
0.7311614026361601,-0.7517793212890624,2.77727392578125,11.094730493164063,11.461739279999643
0.7336483461825416,-0.699106884765625,2.767697119140625,11.496956372070311,11.84605012655755
0.7361352897289231,-0.70868369140625,2.73896669921875,11.712434521484374,12.049286019260782
0.7386222332753046,-0.612915625,2.710236279296875,11.79862578125,12.121411492848646
0.7411091768216861,-0.584185205078125,2.6288334228515624,11.659762084960937,11.966707542044563
0.7435961203680675,-0.5027823486328125,2.6048914062499997,11.372457885742186,11.677801492208689
0.7460830639144491,-0.39264907226562495,2.5522189697265625,10.965443603515624,11.265387183104933
0.7485700074608306,-0.39743747558593745,2.461239306640625,10.328585961914062,10.625222042112869
0.7510569510072121,-0.354341845703125,2.360682836914062,9.6917283203125,9.98138163957597
0.7535438945535936,-0.32082302246093747,2.308010400390625,9.069235888671875,9.363806866036175
0.7560308380999751,-0.32082302246093747,2.27927998046875,8.475473876953124,8.782465603691335
0.7585177816463566,-0.2825157958984375,2.2936451904296873,7.920019091796875,8.250292470509173
0.7610047251927381,-0.3064578125,2.308010400390625,7.513004809570312,7.865498691613915
0.7634916687391196,-0.3591302490234375,2.389413256835937,7.264007836914062,7.655330175926827
0.7659786122855011,-0.411802685546875,2.408566870117187,7.1395093505859375,7.546083062540046
0.7684655558318826,-0.45968671875,2.43250888671875,7.240065820312499,7.651598816314022
0.770952499378264,-0.5267243652343749,2.4947581298828125,7.517793212890624,7.938417441488718
0.7734394429246456,-0.5889736083984375,2.6096798095703124,7.896077075195312,8.336986973559078
0.7759263864710271,-0.6655880615234374,2.6479870361328124,8.480262280273436,8.908966895964896
0.7784133300174085,-0.699106884765625,2.6910826660156246,9.150638745117186,9.563726564226744
0.7809002735637901,-0.7230489013671875,2.806004345703125,9.7683427734375,10.189061813594112
0.7833872171101716,-0.74699091796875,2.7533319091796873,10.381258398437499,10.766120841267014
0.785874160656553,-0.7565677246093749,2.8107927490234372,10.93671318359375,11.31744873459017
0.7883611042029346,-0.7517793212890624,2.767697119140625,11.367669482421874,11.723874314952493
0.790848047749316,-0.6847416748046875,2.7437551025390623,11.698069311523437,12.03502757957496
0.7933349912956975,-0.6703764648437499,2.748543505859375,11.832144604492187,12.165670632966837
0.7958219348420791,-0.6272808349609375,2.6767174560546874,11.722011328125,12.040093320325552
0.7983088783884605,-0.5219359619140624,2.5761609863281247,11.458649145507811,11.756260579608856
0.800795821934842,-0.430956298828125,2.5665841796874997,11.094730493164063,11.39588181751927
0.8032827654812236,-0.36391865234375,2.528276953125,10.563217724609375,10.867667175375237
0.805769709027605,-0.3016694091796875,2.47081611328125,9.97903251953125,10.284795900937816
0.8082566525739865,-0.32082302246093747,2.39420166015625,9.299079248046874,9.60770544212779
0.8107435961203681,-0.2825157958984375,2.365471240234375,8.686163623046875,9.006925549245475
0.8132305396667495,-0.26336218261718747,2.31758720703125,8.125920434570313,8.454061332306217
0.815717483213131,-0.32561142578124996,2.2553379638671873,7.56567724609375,7.901395087193184
0.8182044267595125,-0.3447650390625,2.39420166015625,7.326257080078125,7.7152516047793
0.820691370305894,-0.3687070556640625,2.398990063476562,7.134720947265625,7.536268387796883
0.8231783138522755,-0.4213794921875,2.442085693359375,7.201758593749999,7.6162110036946
0.825665257398657,-0.49320554199218747,2.4947581298828125,7.4220251464843745,7.845605592197112
0.8281522009450385,-0.59376201171875,2.5522189697265625,7.809885815429687,8.237760098840111
0.83063914449142,-0.6368576416015624,2.6431986328124997,8.322244970703125,8.755104112491274
0.8331260880378015,-0.679953271484375,2.6958710693359373,8.896853369140624,9.32116179163701
0.835613031584183,-0.7134720947265625,2.748543505859375,9.524134204101562,9.938443850588106
0.8380999751305644,-0.7661445312499999,2.7964275390625,10.160991845703125,10.566586000806355
0.840586918676946,-0.7661445312499999,2.7581203125,10.807426293945312,11.18010143961359
0.8430738622233275,-0.7134720947265625,2.825157958984375,11.252747802734374,11.623893196133109
0.8455608057697089,-0.7038952880859375,2.7916391357421872,11.592724438476562,11.94487243746239
0.8480477493160905,-0.6560112548828124,2.748543505859375,11.803414184570311,12.136944779583134
0.850534692862472,-0.4836287353515625,3.4524387939453125,-3.6296097167968746,5.032623279748108
0.8530216364088534,-0.8954314208984374,3.7110125732421873,-2.806004345703125,4.737834118708529
0.855508579955235,-1.1731588134765625,3.8690298828125,-1.1252747802734375,4.196657856777614
0.8579955235016165,-1.455674609375,3.912125512695312,1.3024457031249999,4.372651301561719
0.8604824670479979,-1.6328455322265625,3.81156904296875,4.161122485351562,5.874451756507012
0.8629694105943795,-1.637633935546875,3.6679169433593746,7.283161450195312,8.317445540539993
0.8654563541407609,-1.5945383056640625,3.4668040039062498,10.347739575195313,11.028916389464275
0.8679432976871424,-1.5179238525390624,3.0980969482421874,13.115436694335937,13.561599360176814
0.870430241233524,-1.3311761230468748,2.829946362304687,15.461754321289062,15.774868398056215
0.8729171847799054,-1.0582371337890624,2.4899697265625,17.247828759765625,17.45873454740423
0.8754041283262869,-0.814028564453125,2.1835119140624997,18.23423984375,18.382542518977033
0.8778910718726685,-0.55545478515625,1.9393033447265624,18.50717883300781,18.61679606801753
0.8803780154190499,-0.33039982910156246,1.695094775390625,18.095376147460936,18.177600178866435
0.8828649589654315,-0.05746083984375,1.618480322265625,17.041927416992188,17.118705277786244
0.885351902511813,0.08140285644531249,1.5658078857421873,15.399505078125,15.479119400382165
0.8878388460581944,0.19632453613281248,1.5753846923828123,13.565546606445311,13.658127067212464
0.890325789604576,0.28730419921875,1.7621324218749999,11.4538607421875,11.592177546800073
0.8928127331509574,0.2537853759765625,1.924938134765625,9.337386474609374,9.537115917086917
0.8952996766973389,0.181959326171875,2.1643583007812497,7.3837179199218745,7.696547691758756
0.8977866202437205,0.062249243164062495,2.398990063476562,5.7700260009765625,6.249178213563713
0.9002735637901019,-0.12449848632812499,2.6623522460937497,4.496310717773437,5.226894816824107
0.9027605073364834,-0.33039982910156246,2.901772412109375,3.73495458984375,4.741237493201991
0.905247450882865,-0.45968671875,3.0837317382812497,3.4620156005859375,4.65899831849923
0.9077343944292464,-0.6560112548828124,3.189076611328125,3.6918589599609373,4.922436691283784
0.9102213379756279,-0.842758984375,3.284844677734375,4.261678955078125,5.446315706855453
0.9127082815220094,-0.9097966308593749,3.2800562744140622,5.248090039062499,6.255313591735681
0.9151952250683909,-0.9959878906249999,3.2417490478515623,6.449979272460937,7.287191597775776
0.9176821686147724,-1.024718310546875,3.1699229980468746,7.843404638671874,8.521587631155123
0.9201691121611539,-1.0199299072265624,2.9927520751953125,9.217676391601563,9.74486429148861
0.9226560557075354,-0.9624690673828125,2.81558115234375,10.520122094726561,10.932831875550638
0.9251429992539169,-0.86191259765625,2.6862942626953124,11.654973681640625,11.991558769047664
0.9276299428002984,-0.7805097412109374,2.437297290039062,12.425906616210936,12.6867162327748
0.9301168863466799,-0.689530078125,2.24097275390625,13.005303417968749,13.21496604633621
0.9326038298930613,-0.49799394531249996,2.1883003173828124,13.244723583984374,13.433516258402992
0.9350907734394429,-0.39743747558593745,2.1164742675781247,13.206416357421874,13.380839019953141
0.9375777169858244,-0.3016694091796875,2.068590234375,12.895170141601561,13.063517251147902
0.9400646605322058,-0.2442085693359375,2.020706201171875,12.258312499999999,12.426146495372079
0.9425516040785874,-0.2346317626953125,2.0925322509765625,11.583147631835937,11.772979756474102
0.9450385476249689,-0.1867477294921875,2.1978771240234374,10.793061083984375,11.016156595173927
0.9475254911713503,-0.2059013427734375,2.29843359375,9.90241806640625,10.16774684528108
0.9500124347177319,-0.26815058593749996,2.384624853515625,9.141061938476563,9.450785882232648
0.9524993782641133,-0.27293898925781246,2.5761609863281247,8.413224633789062,8.80303639989812
0.9549863218104948,-0.36391865234375,2.7054478759765623,7.8912886718749995,8.350109094976693
0.9574732653568764,-0.4261678955078125,2.806004345703125,7.536946826171874,8.053623217149452
0.9599602089032578,-0.51714755859375,2.887407202148437,7.350199096679687,7.913911088027779
0.9624471524496393,-0.5889736083984375,2.940079638671875,7.350199096679687,7.938286021173192
0.9649340959960209,-0.6464344482421874,2.9831752685546875,7.45075556640625,8.051768171595866
0.9674210395424023,-0.6847416748046875,2.940079638671875,7.733271362304687,8.301591739298498
0.9699079830887838,-0.70868369140625,2.93050283203125,8.135497241210937,8.676197023163958
0.9723949266351654,-0.6655880615234374,2.81558115234375,8.518569506835936,8.996473260999053
0.9748818701815468,-0.70868369140625,2.7198130859375,9.050082275390624,9.476476401502913
0.9773688137279283,-0.6464344482421874,2.6240450195312497,9.433154541015625,9.812639520286305
0.9798557572743098,-0.6368576416015624,2.5330653564453125,9.849745629882811,10.190166668366384
0.9823427008206913,-0.5793968017578125,2.4851813232421875,10.1131078125,10.430089956013202
0.9848296443670728,-0.49799394531249996,2.35589443359375,10.319009155273436,10.596234543384877
0.9873165879134543,-0.47884033203125,2.308010400390625,10.433930834960936,10.696873970494357
0.9898035314598358,-0.43574470214843747,2.346317626953125,10.520122094726561,10.78740231658926
0.9922904750062173,-0.430956298828125,2.2361843505859373,10.43871923828125,10.684245556751687
0.9947774185525988,-0.40222587890625,2.2936451904296873,10.328585961914062,10.58783650657165
0.9972643620989803,-0.40222587890625,2.2936451904296873,10.160991845703125,10.42441121626006
0.9997513056453617,-0.45968671875,2.418143676757812,10.036493359375,10.333921311565005
1.0022382491917432,-0.430956298828125,2.4851813232421875,9.878476049804688,10.19539791314965
1.0047251927381249,-0.469263525390625,2.5474305664062498,9.739612353515625,10.078177391953224
1.0072121362845063,-0.49320554199218747,2.6192566162109374,9.639055883789062,10.000757734243196
1.0096990798308878,-0.5363011718749999,2.6767174560546874,9.528922607421874,9.912255108941562
1.0121860233772693,-0.5602431884765625,2.7581203125,9.418789331054686,9.830294631965467
1.0146729669236507,-0.5698199951171875,2.839523168945312,9.423577734375,9.858570077329716
1.0171599104700322,-0.622492431640625,2.825157958984375,9.34696328125,9.784412956416874
1.0196468540164139,-0.5889736083984375,2.839523168945312,9.34696328125,9.786496018463547
1.0221337975627953,-0.603338818359375,2.767697119140625,9.270348828125,9.693478863037623
1.0246207411091768,-0.5746083984375,2.7629087158203123,9.255983618164063,9.676625037854482
1.0271076846555582,-0.5793968017578125,2.6288334228515624,9.251195214843749,9.634888620120968
1.0295946282019397,-0.5123591552734374,2.5857377929687497,9.13627353515625,9.508945574940256
1.0320815717483212,-0.49799394531249996,2.5713725830078125,9.131485131835937,9.499682923295543
1.0345685152947028,-0.43574470214843747,2.4899697265625,9.050082275390624,9.396478695553334
1.0370554588410843,-0.469263525390625,2.442085693359375,8.992621435546875,9.330124922691535
1.0395424023874658,-0.4644751220703125,2.35589443359375,8.939948999023438,9.256817154205889
1.0420293459338472,-0.40222587890625,2.346317626953125,8.916006982421875,9.228335308971412
1.0445162894802287,-0.4261678955078125,2.3511060302734372,8.916006982421875,9.230628318340269
1.0470032330266101,-0.45010991210937495,2.29843359375,9.04050546875,9.338957920900828
1.0494901765729918,-0.45010991210937495,2.4564509033203126,9.141061938476563,9.476062649458749
1.0519771201193733,-0.49799394531249996,2.4516625,9.260772021484375,9.592733990754772
1.0544640636657547,-0.49799394531249996,2.5522189697265625,9.442731347656249,9.794232738862704
1.0569510072121362,-0.5602431884765625,2.499546533203125,9.643844287109374,9.978243228940366
1.0594379507585177,-0.5602431884765625,2.6431986328124997,9.892841259765625,10.255178186343588
1.0619248943048991,-0.6177040283203125,2.6767174560546874,10.084377392578125,10.451843952245545
1.0644118378512808,-0.6512228515624999,2.767697119140625,10.266336718749999,10.652788750766204
1.0668987813976623,-0.6368576416015624,2.7964275390625,10.386046801757812,10.774765092808156
1.0693857249440437,-0.6416460449218749,2.786850732421875,10.457872851562499,10.841833388832914
1.0718726684904252,-0.6416460449218749,2.77727392578125,10.51533369140625,10.894824585435584
1.0743596120368066,-0.5746083984375,2.748543505859375,10.424354028320312,10.795916965358458
1.076846555583188,-0.5267243652343749,2.6671406494140624,10.295067138671874,10.64798033386848
1.0793334991295698,-0.5458779785156249,2.6096798095703124,10.031704956054687,10.379957408450164
1.0818204426759512,-0.4740519287109375,2.5809493896484375,9.777919580078125,10.123919018715844
1.0843073862223327,-0.44053310546874996,2.5330653564453125,9.485826977539062,9.828092539493369
1.0867943297687142,-0.411802685546875,2.4851813232421875,9.150638745117186,9.491042993520535
1.0892812733150956,-0.38786066894531246,2.442085693359375,8.757989672851561,9.100362714859218
1.0917682168614773,-0.36391865234375,2.384624853515625,8.556876733398436,8.890388737738277
1.0942551604078588,-0.39264907226562495,2.360682836914062,8.264784130859374,8.604281113501383
1.0967421039542402,-0.373495458984375,2.3319524169921872,8.130708837890625,8.466754226948504
1.0992290475006217,-0.39743747558593745,2.4133552734375,8.135497241210937,8.495207801141738
1.1017159910470031,-0.44053310546874996,2.403778466796875,8.207323291015625,8.563432485732449
1.1042029345933846,-0.49799394531249996,2.4516625,8.327033374023436,8.69471861508895
1.1066898781397663,-0.5458779785156249,2.4899697265625,8.595183959960938,8.9652171926951
1.1091768216861477,-0.59376201171875,2.5474305664062498,8.963891015625,9.337735162084206
1.1116637652325292,-0.603338818359375,2.6431986328124997,9.327809667968749,9.713832917241907
1.1141507087789106,-0.6416460449218749,2.6671406494140624,9.753977563476562,10.132394938982832
1.116637652325292,-0.699106884765625,2.6862942626953124,10.146626635742187,10.519456230588597
1.1191245958716736,-0.6703764648437499,2.77727392578125,10.611101757812499,10.989000663303843
1.1216115394180552,-0.6943184814453125,2.8012159423828122,10.817003100585938,11.195376053872506
1.1240984829644367,-0.6464344482421874,2.7341782958984373,10.989385620117186,11.342848176594567
1.1265854265108182,-0.6655880615234374,2.7198130859375,11.080365283203124,11.428686954295863
1.1290723700571996,-0.6177040283203125,2.7246014892578123,11.037269653320312,11.385356074448199
1.131559313603581,-0.5602431884765625,2.6671406494140624,10.845733520507812,11.182908712488805
1.1340462571499625,-0.49320554199218747,2.6192566162109374,10.577582934570312,10.908208728564452
1.1365332006963442,-0.4740519287109375,2.5139117431640625,10.141838232421874,10.459510515131518
1.1390201442427257,-0.4261678955078125,2.480392919921875,9.773131176757811,10.091980039143738
1.1415070877891071,-0.39264907226562495,2.418143676757812,9.270348828125,9.588584855468163
1.1439940313354886,-0.3112462158203125,2.422932080078125,8.801085302734375,9.133815006750531
1.14648097488187,-0.33039982910156246,2.35589443359375,8.336610180664062,8.669398591232268
1.1489679184282515,-0.3591302490234375,2.3511060302734372,8.020575561523437,8.365781878548994
1.1514548619746332,-0.3591302490234375,2.3127988037109373,7.771578588867187,8.116369053040238
1.1539418055210147,-0.373495458984375,2.375048046875,7.694964135742187,8.061812769669437
1.1564287490673961,-0.43574470214843747,2.389413256835937,7.671022119140624,8.04635007377497
1.1589156926137776,-0.5123591552734374,2.4133552734375,7.838616235351562,8.217706496641153
1.161402636160159,-0.5363011718749999,2.5043349365234375,8.17859287109375,8.570221337418998
1.1638895797065405,-0.5746083984375,2.5857377929687497,8.63827958984375,9.035269172407256
1.1663765232529222,-0.6464344482421874,2.6671406494140624,9.088389501953124,9.493700041545592
1.1688634667993036,-0.7230489013671875,2.6623522460937497,9.567229833984374,9.957048051120845
1.171350410345685,-0.7230489013671875,2.7581203125,10.0748005859375,10.47051260533122
1.1738373538920666,-0.7278373046875,2.748543505859375,10.568006127929687,10.943810673876625
1.176324297438448,-0.7278373046875,2.8107927490234372,10.970232006835937,11.347964280163431
1.1788112409848295,-0.718260498046875,2.786850732421875,11.228805786132812,11.591743377531465
1.1812981845312112,-0.6560112548828124,2.7724855224609373,11.4538607421875,11.80287899794844
1.1837851280775926,-0.6512228515624999,2.6958710693359373,11.367669482421874,11.70109915719311
1.186272071623974,-0.5506663818359374,2.6862942626953124,11.252747802734374,11.582044009665017
1.1887590151703555,-0.5267243652343749,2.6096798095703124,10.93671318359375,11.256090019434094
1.191245958716737,-0.4740519287109375,2.4851813232421875,10.520122094726561,10.82006563420298
1.1937329022631185,-0.3687070556640625,2.461239306640625,10.041281762695311,10.345094646995102
1.1962198458095001,-0.354341845703125,2.403778466796875,9.433154541015625,9.74105300548849
1.1987067893558816,-0.16280571289062498,2.3319524169921872,8.805873706054687,9.11086820792897
1.201193732902263,-0.28730419921875,2.375048046875,8.44674345703125,8.779001763113714
1.2036806764486445,-0.32561142578124996,2.3127988037109373,7.939172705078125,8.275598126305043
1.206167619995026,-0.354341845703125,2.29843359375,7.6231380859375,7.969980514767002
1.2086545635414074,-0.38307226562499996,2.360682836914062,7.484274389648437,7.857094307486654
1.2111415070877891,-0.430956298828125,2.4133552734375,7.4603323730468745,7.852806257871095
1.2136284506341706,-0.4836287353515625,2.4133552734375,7.589619262695312,7.9787530969545655
1.216115394180552,-0.507570751953125,2.4947581298828125,7.8721350585937495,8.273569760121411
1.2186023377269335,-0.6368576416015624,2.5043349365234375,8.245630517578125,8.641047607921962
1.221089281273315,-0.6464344482421874,2.6240450195312497,8.79150849609375,9.19750571607811
1.2235762248196966,-0.6943184814453125,2.6671406494140624,9.337386474609374,9.7356306202347
1.226063168366078,-0.7278373046875,2.806004345703125,9.950302099609374,10.3639721826957
1.2285501119124596,-0.7422025146484375,2.7724855224609373,10.505756884765624,10.890751501471616
1.231037055458841,-0.7805097412109374,2.7964275390625,10.927136376953124,11.306259851864565
1.2335239990052225,-0.7134720947265625,2.806004345703125,11.324573852539062,11.68882696251723
1.236010942551604,-0.6703764648437499,2.77727392578125,11.568782421875,11.916349348190694
1.2384978860979856,-0.6081272216796875,2.7150246826171873,11.616666455078125,11.945213153121454
1.240984829644367,-0.5363011718749999,2.6815058593749996,11.501744775390625,11.822361248880974
1.2434717731907485,-0.51714755859375,2.6336218261718747,11.238382592773437,11.554421180751607
1.24595871673713,-0.45489831542968745,2.5426421630859375,10.793061083984375,11.097843448594015
1.2484456602835114,-0.37828386230468747,2.4899697265625,10.347739575195313,10.649824516664166
1.250932603829893,-0.3591302490234375,2.418143676757812,9.734823950195311,10.037090749739372
1.2534195473762746,-0.32561142578124996,2.384624853515625,9.126696728515624,9.438699680936008
1.255906490922656,-0.3112462158203125,2.3319524169921872,8.513781103515624,8.832855991159251
1.2583934344690375,-0.2920926025390625,2.308010400390625,8.020575561523437,8.351159346753978
1.260880378015419,-0.32561142578124996,2.360682836914062,7.666233715820312,8.028074840376117
1.2633673215618004,-0.3591302490234375,2.3223756103515623,7.407659936523437,7.7714753262487966
1.2658542651081819,-0.4070142822265625,2.4133552734375,7.307103466796875,7.706082362409572
1.2683412086545636,-0.45010991210937495,2.39420166015625,7.378929516601562,7.7706757320999955
1.270828152200945,-0.5027823486328125,2.4851813232421875,7.6087728759765625,8.020121007670967
1.2733150957473265,-0.5793968017578125,2.5426421630859375,8.039729174804688,8.452098853397016
1.275802039293708,-0.6464344482421874,2.6336218261718747,8.552088330078124,8.971736522247046
1.2782889828400894,-0.6847416748046875,2.70065947265625,9.102754711914063,9.519589071684551
1.2807759263864709,-0.7422025146484375,2.7437551025390623,9.725247143554688,10.132101886512897
1.2832628699328525,-0.7757213378906249,2.7581203125,10.328585961914062,10.718612747223036
1.285749813479234,-0.7326257080078125,2.786850732421875,10.845733520507812,11.221996837938471
1.2882367570256155,-0.74699091796875,2.786850732421875,11.310208642578125,11.67241842871378
1.290723700571997,-0.6847416748046875,2.767697119140625,11.592724438476562,11.938185725266857
1.2932106441183784,-0.622492431640625,2.748543505859375,11.702857714843748,12.037394523937872
1.2956975876647598,-0.622492431640625,2.6527754394531247,11.616666455078125,11.931959348244233
1.2981845312111415,-0.5219359619140624,2.6288334228515624,11.420341918945311,11.730617710038125
1.300671474757523,-0.488417138671875,2.5139117431640625,11.022904443359375,11.316480279715883
1.3031584183039044,-0.39264907226562495,2.4899697265625,10.47702646484375,10.776001395609834
1.305645361850286,-0.38307226562499996,2.422932080078125,9.931148486328125,10.229616536452388
1.3081323053966674,-0.32082302246093747,2.422932080078125,9.342174877929686,9.656591465223805
1.3106192489430488,-0.2537853759765625,2.365471240234375,8.734047656249999,9.052262129825982
1.3131061924894305,-0.26336218261718747,2.3032219970703123,8.192958081054687,8.514619975368294
1.315593136035812,-0.27293898925781246,2.327164013671875,7.690175732421874,8.039215809636955
1.3180800795821934,-0.2920926025390625,2.379836450195312,7.445967163085937,7.822491074580419
1.3205670231285749,-0.3687070556640625,2.360682836914062,7.201758593749999,7.5877595634053305
1.3230539666749563,-0.4165910888671875,2.446874096679687,7.283161450195312,7.6944903463411185
1.3255409102213378,-0.51714755859375,2.47081611328125,7.455543969726562,7.871309277847989
1.3280278537677195,-0.5458779785156249,2.5570073730468748,7.79552060546875,8.22231177854089
1.330514797314101,-0.6368576416015624,2.5905261962890624,8.303091357421874,8.721108858340205
1.3330017408604824,-0.6464344482421874,2.6479870361328124,8.8872765625,9.295880675748988
1.3354886844068639,-0.70868369140625,2.6958710693359373,9.471461767578125,9.87312217141274
1.3379756279532453,-0.7565677246093749,2.7437551025390623,10.189722265624999,10.579746057217234
1.3404625714996268,-0.7852981445312499,2.786850732421875,10.716446630859375,11.100696310261885
1.3429495150460085,-0.7565677246093749,2.7964275390625,11.176133349609374,11.545490823321398
1.34543645859239,-0.7422025146484375,2.7820623291015623,11.506533178710937,11.861325438943663
1.3479234021387714,-0.6751648681640625,2.7437551025390623,11.664550488281249,12.001907254914714
1.3504103456851528,-0.612915625,2.7198130859375,11.712434521484374,12.039691491307611
1.3528972892315343,-0.565031591796875,2.6336218261718747,11.587936035156249,11.896868755176301
1.3553842327779158,-0.4644751220703125,2.5713725830078125,11.166556542968749,11.468202959792118
1.3578711763242974,-0.4070142822265625,2.518700146484375,10.730811840820312,11.029951668839091
1.360358119870679,-0.38786066894531246,2.4899697265625,10.199299072265624,10.506002413060397
1.3628450634170604,-0.37828386230468747,2.3367408203125,9.5001921875,9.790664325837696
1.3653320069634418,-0.296881005859375,2.370259643554687,8.916006982421875,9.230463131398103
1.3678189505098233,-0.2537853759765625,2.3127988037109373,8.350975390624999,8.669038891268782
1.370305894056205,-0.33039982910156246,2.35589443359375,7.848193041992187,8.200825364174202
1.3727928376025864,-0.32561142578124996,2.346317626953125,7.426813549804687,7.7954338372352785
1.3752797811489679,-0.354341845703125,2.3415292236328122,7.240065820312499,7.617537025259548
1.3777667246953493,-0.3687070556640625,2.403778466796875,7.225700610351562,7.623965183601492
1.3802536682417308,-0.5267243652343749,2.4851813232421875,7.364564306640625,7.790402569377814
1.3827406117881123,-0.5506663818359374,2.528276953125,7.651868505859374,8.077531147990076
1.385227555334494,-0.612915625,2.6001030029296874,8.087613208007811,8.517375686885927
1.3877144988808754,-0.6560112548828124,2.6527754394531247,8.647856396484375,9.069343336367544
1.3902014424272569,-0.699106884765625,2.710236279296875,9.323021264648437,9.734107900934251
1.3926883859736383,-0.7326257080078125,2.7533319091796873,9.969455712890625,10.368588343715286
1.3951753295200198,-0.7900865478515624,2.8107927490234372,10.577582934570312,10.973151478439174
1.3976622730664012,-0.7517793212890624,2.7916391357421872,11.042058056640624,11.414265957053363
1.400149216612783,-0.7230489013671875,2.767697119140625,11.49216796875,11.842840524090118
1.4026361601591644,-0.7326257080078125,2.748543505859375,11.736376538085937,12.07616520570043
1.4051231037055458,-0.6272808349609375,2.748543505859375,11.77947216796875,12.112140075373198
1.4076100472519273,-0.5506663818359374,2.6288334228515624,11.674127294921874,11.979117109671549
1.4100969907983087,-0.507570751953125,2.5570073730468748,11.386823095703125,11.681423500023122
1.4125839343446902,-0.430956298828125,2.5330653564453125,10.979808813476561,11.276450904962102
1.4150708778910719,-0.39264907226562495,2.437297290039062,10.357316381835936,10.64746890145399
1.4175578214374533,-0.3399766357421875,2.422932080078125,9.744400756835937,10.046866680082257
1.4200447649838348,-0.3399766357421875,2.346317626953125,9.074024291992187,9.378630356883985
1.4225317085302163,-0.277727392578125,2.288856787109375,8.52335791015625,8.829701465004806
1.4250186520765977,-0.32082302246093747,2.327164013671875,7.9295958984374995,8.270254583190724
1.4275055956229792,-0.33039982910156246,2.3415292236328122,7.551312036132812,7.912915810195448
1.4299925391693609,-0.3399766357421875,2.370259643554687,7.235277416992187,7.6212173693939285
1.4324794827157423,-0.4213794921875,2.375048046875,7.134720947265625,7.53144454249992
1.4349664262621238,-0.4261678955078125,2.461239306640625,7.235277416992187,7.654316252974626
1.4374533698085052,-0.5267243652343749,2.5426421630859375,7.532158422851562,7.967175047240246
1.4399403133548867,-0.5985504150390625,2.5905261962890624,7.905653881835937,8.340770460358618
1.4424272569012682,-0.6416460449218749,2.6431986328124997,8.44674345703125,8.873876474707432
1.4449142004476498,-0.6703764648437499,2.6623522460937497,9.0788126953125,9.484849184012589
1.4474011439940313,-0.7134720947265625,2.7533319091796873,9.734823950195311,10.141828058755324
1.4498880875404128,-0.7517793212890624,2.786850732421875,10.352527978515624,10.747397112727667
1.4523750310867942,-0.7565677246093749,2.7964275390625,10.941501586914061,11.318518395955836
1.4548619746331757,-0.7038952880859375,2.8107927490234372,11.362881079101562,11.72651230640878
1.4573489181795571,-0.699106884765625,2.767697119140625,11.659762084960937,12.00412219437634
1.4598358617259388,-0.6512228515624999,2.7341782958984373,11.81777939453125,12.147416679029607
1.4623228052723203,-0.5889736083984375,2.6862942626953124,11.707646118164062,12.026306349222178
1.4648097488187017,-0.5363011718749999,2.6144682128906247,11.49216796875,11.79800778119482
1.4672966923650832,-0.4740519287109375,2.5665841796874997,11.075576879882812,11.378949108100072
1.4697836359114647,-0.430956298828125,2.4756045166015626,10.539275708007812,10.834697665533694
1.4722705794578461,-0.37828386230468747,2.427720483398437,9.9981861328125,10.29566177437646
1.4747575230042278,-0.2920926025390625,2.375048046875,9.332598071289063,9.634498330149377
1.4772444665506093,-0.3064578125,2.3511060302734372,8.743624462890624,9.05939207146317
1.4797314100969907,-0.24899697265624998,2.31758720703125,8.12113203125,8.449023341403526
1.4822183536433722,-0.2825157958984375,2.2840683837890623,7.6279264892578125,7.967562116625005
1.4847052971897536,-0.3399766357421875,2.308010400390625,7.273584643554687,7.638555471299298
1.487192240736135,-0.36391865234375,2.389413256835937,7.196970190429687,7.591976845288752
1.4896791842825168,-0.4213794921875,2.4899697265625,7.206546997070312,7.6362182745529905
1.4921661278288982,-0.49320554199218747,2.480392919921875,7.345410693359375,7.768568658251572
1.4946530713752797,-0.5410895751953124,2.5426421630859375,7.733271362304687,8.158510468273553
1.4971400149216612,-0.6560112548828124,2.6096798095703124,8.2360537109375,8.664488456017425
1.4996269584680426,-0.6416460449218749,2.70065947265625,8.834604125976561,9.260426626075814
1.5021139020144243,-0.7230489013671875,2.7341782958984373,9.5001921875,9.91222388099494
1.5046008455608058,-0.737414111328125,2.77727392578125,10.103531005859374,10.504207196013033
1.5070877891071872,-0.7852981445312499,2.7964275390625,10.697293017578124,11.08461898582703
1.5095747326535687,-0.7422025146484375,2.8107927490234372,11.200075366210937,11.571218978980488
1.5120616761999501,-0.6847416748046875,2.7820623291015623,11.563994018554688,11.913635029888608
1.5145486197463316,-0.6607996582031249,2.7246014892578123,11.769895361328125,12.09919610057464
1.5170355632927133,-0.6081272216796875,2.6910826660156246,11.77947216796875,12.098252319613277
1.5195225068390947,-0.55545478515625,2.6048914062499997,11.602301245117188,11.904091037922884
1.5220094503854762,-0.45968671875,2.5953145996093747,11.262324609375,11.566629818459413
1.5244963939318577,-0.3687070556640625,2.5330653564453125,10.778695874023438,11.078476869028961
1.5269833374782391,-0.3495534423828125,2.499546533203125,10.180145458984374,10.488340290380055
1.5294702810246206,-0.32082302246093747,2.379836450195312,9.605537060546874,9.901156051843577
1.5319572245710023,-0.277727392578125,2.35589443359375,8.920795385742187,9.230815857826725
1.5344441681173837,-0.2920926025390625,2.3223756103515623,8.33182177734375,8.654363101547878
1.5369311116637652,-0.24899697265624998,2.360682836914062,7.785943798828124,8.139763128457899
1.5394180552101466,-0.3112462158203125,2.346317626953125,7.426813549804687,7.794847023320978
1.541904998756528,-0.33518823242187495,2.360682836914062,7.196970190429687,7.581659088193576
1.5443919423029095,-0.373495458984375,2.43250888671875,7.149086157226562,7.560822126283364
1.5468788858492912,-0.45968671875,2.446874096679687,7.311891870117187,7.724135384927105
1.5493658293956727,-0.5027823486328125,2.5426421630859375,7.632714892578124,8.060778863793681
1.5518527729420541,-0.5985504150390625,2.528276953125,8.054094384765625,8.462794060460153
1.5543397164884356,-0.6368576416015624,2.6815058593749996,8.652644799804687,9.08098691558995
1.556826660034817,-0.689530078125,2.7198130859375,9.275137231445312,9.690253124310992
1.5593136035811985,-0.7565677246093749,2.77727392578125,9.897629663085937,10.307701883947926
1.5618005471275802,-0.7230489013671875,2.77727392578125,10.529698901367187,10.913780698092024
1.5642874906739617,-0.7422025146484375,2.81558115234375,11.104307299804686,11.479721355794288
1.5667744342203431,-0.70868369140625,2.77727392578125,11.487379565429686,11.839568079686908
1.5692613777667246,-0.6560112548828124,2.7724855224609373,11.736376538085937,12.077233167514919
1.571748321313106,-0.612915625,2.748543505859375,11.77947216796875,12.111404605697942
1.5742352648594875,-0.5793968017578125,2.6431986328124997,11.631031665039062,11.941653874548969
1.5767222084058692,-0.507570751953125,2.5809493896484375,11.391611499023437,11.691353230693522
1.5792091519522506,-0.4644751220703125,2.5378537597656248,10.97502041015625,11.27419672740923
1.581696095498632,-0.36391865234375,2.4756045166015626,10.414777221679687,10.711145554298094
1.5841830390450136,-0.33518823242187495,2.437297290039062,9.7683427734375,10.073395146153779
1.586669982591395,-0.3112462158203125,2.327164013671875,9.05965908203125,9.358952357824199
1.5891569261377765,-0.28730419921875,2.370259643554687,8.489839086914062,8.819186028338812
1.5916438696841582,-0.277727392578125,2.35589443359375,7.934384301757812,8.281414452544146
1.5941308132305396,-0.277727392578125,2.31758720703125,7.517793212890624,7.871820485667054
1.596617756776921,-0.3399766357421875,2.375048046875,7.230489013671875,7.618163080076785
1.5991047003233025,-0.38307226562499996,2.384624853515625,7.173028173828125,7.568719392025809
1.601591643869684,-0.4740519287109375,2.39420166015625,7.249642626953125,7.649460441047153
1.6040785874160655,-0.49799394531249996,2.461239306640625,7.50821640625,7.91700767318072
1.6065655309624471,-0.5698199951171875,2.5953145996093747,7.886500268554687,8.322093437572908
1.6090524745088286,-0.6655880615234374,2.6575638427734374,8.451531860351562,8.884483318268812
1.61153941805521,-0.6703764648437499,2.710236279296875,9.074024291992187,9.4938244214804
1.6140263616015915,-0.7613561279296874,2.7341782958984373,9.701305126953125,10.107953070406746
1.616513305147973,-0.7805097412109374,2.8107927490234372,10.299855541992187,10.704988347494595
1.6190002486943544,-0.7326257080078125,2.8203695556640622,10.970232006835937,11.350648225645894
1.6214871922407361,-0.7326257080078125,2.786850732421875,11.334150659179686,11.69471028276535
1.6239741357871176,-0.7134720947265625,2.7533319091796873,11.659762084960937,12.001663672589446
1.626461079333499,-0.6512228515624999,2.7341782958984373,11.736376538085937,12.068237501801717
1.6289480228798805,-0.5985504150390625,2.6384102294921874,11.77947216796875,12.086167121729819
1.631434966426262,-0.5458779785156249,2.6479870361328124,11.496956372070311,11.810581015862171
1.6339219099726436,-0.4836287353515625,2.5617957763671875,11.137826123046874,11.438875167633219
1.636408853519025,-0.38786066894531246,2.5330653564453125,10.639832177734375,10.944079895947851
1.6388957970654066,-0.3447650390625,2.4516625,10.01733974609375,10.318750289387548
1.641382740611788,-0.316034619140625,2.384624853515625,9.342174877929686,9.646893024301676
1.6438696841581695,-0.296881005859375,2.3223756103515623,8.734047656249999,9.042408709455792
1.646356627704551,-0.2537853759765625,2.3319524169921872,8.202534887695313,8.531353214820848
1.6488435712509326,-0.277727392578125,2.346317626953125,7.671022119140624,8.026638104678938
1.651330514797314,-0.33039982910156246,2.327164013671875,7.297526660156249,7.666730186284825
1.6538174583436955,-0.3399766357421875,2.4133552734375,7.1778165771484375,7.580298055081085
1.656304401890077,-0.38786066894531246,2.4947581298828125,7.206546997070312,7.636005084212178
1.6587913454364585,-0.45968671875,2.5043349365234375,7.41244833984375,7.837563125394229
1.66127828898284,-0.5267243652343749,2.5570073730468748,7.752424975585937,8.180208937725016
1.6637652325292216,-0.63206923828125,3.447650390625,-7.067683300781249,7.889103369718278
1.666252176075603,-1.0534487304687499,3.81156904296875,-5.209782812499999,6.5406153953939485
1.6687391196219845,-1.4987702392578124,4.074931225585937,-2.2649147705078123,4.897061939674102
1.671226063168366,-1.8052280517578123,4.209006518554688,1.446097802734375,4.802684983127912
1.6737130067147474,-2.0302830078125,4.146757275390625,5.5545478515625,7.222925088086878
1.676199950261129,-2.0829554443359375,4.017470385742187,9.8449572265625,10.835218247744223
1.6786868938075106,-2.001552587890625,3.83072265625,13.881581225585936,14.538877059585403
1.681173837353892,-1.8626888916015625,3.4907460205078125,17.37232724609375,17.817201565676868
1.6836607809002735,-1.5658078857421873,3.0693665283203124,20.044256298828124,20.338263834293635
1.686147724446655,-1.235408056640625,2.7054478759765623,21.7968119140625,21.99878839602435
1.6886346679930364,-0.9050082275390624,2.288856787109375,22.457611572265623,22.59208318890865
1.6911216115394179,-0.469263525390625,1.944091748046875,22.060174096679685,22.150642928748216
1.6936085550857995,-0.1388636962890625,1.6232687255859375,20.70984436035156,20.77382819587179
1.696095498632181,0.1867477294921875,1.4125789794921875,18.531120849609373,18.58581970295098
1.6985824421785625,0.44532150878906246,1.3215993164062498,15.744270117187499,15.80591590267008
1.701069385724944,0.6177040283203125,1.3024457031249999,12.478579052734375,12.561562731266084
1.7035563292713254,0.6847416748046875,1.407790576171875,9.270348828125,9.40160161157083
1.7060432728177068,0.6368576416015624,1.5035586425781249,6.138733056640625,6.352190156790808
1.7085302163640885,0.5458779785156249,1.8100164550781248,3.4955344238281247,3.9740285911464333
1.71101715991047,0.32082302246093747,2.059013427734375,1.3311761230468748,2.4727502053182686
1.7135041034568514,0.062249243164062495,2.389413256835937,-0.023942016601562498,2.3903438874724214
1.715991047003233,-0.239420166015625,2.70065947265625,-0.51714755859375,2.7601313737759585
1.7184779905496144,-0.49799394531249996,3.0071172851562498,-0.26336218261718747,3.059430008267274
1.7209649340959958,-0.7948749511718749,3.23696064453125,0.7517793212890624,3.4168571158540564
1.7234518776423775,-1.1061211669921875,3.375824340820312,2.4756045166015626,4.329932070917638
1.725938821188759,-1.2306196533203124,3.4907460205078125,4.630386010742187,5.927917603957251
1.7284257647351404,-1.407790576171875,3.5242648437499997,7.062894897460937,8.017905046072215
1.7309127082815219,-1.4413093994140624,3.5098996337890624,9.639055883789062,10.358965515673873
1.7333996518279033,-1.4604630126953124,3.375824340820312,12.033257543945313,12.582862524499056
1.7358865953742848,-1.388636962890625,3.208230224609375,14.173673828124999,14.598427434997195
1.7383735389206665,-1.2018892333984375,3.0071172851562498,15.816096166992187,16.144230859957048
1.740860482467048,-1.01514150390625,2.767697119140625,16.89827531738281,17.15349434716791
1.7433474260134294,-0.7805097412109374,2.5234885498046875,17.329231616210937,17.529388418464727
1.7458343695598109,-0.5506663818359374,2.2553379638671873,17.041927416992188,17.199333501080062
1.7483213131061923,-0.277727392578125,2.0973206542968748,16.309301708984375,16.44594809265216
1.7508082566525738,-0.0909796630859375,1.944091748046875,14.939818359375,15.066052656055517
1.7532952001989555,0.08140285644531249,1.8339584716796873,13.244723583984374,13.371339982104825
1.755782143745337,0.22026655273437498,1.8148048583984373,11.3006318359375,11.447546196444206
1.7582690872917184,0.26336218261718747,1.7860744384765623,9.3086560546875,9.482114694701941
1.7607560308380998,0.26815058593749996,1.8531120849609375,7.3549875,7.589583009712928
1.7632429743844813,0.181959326171875,2.0302830078125,5.698199951171874,6.051829555740003
1.765729917930863,0.062249243164062495,2.1883003173828124,4.429273071289062,4.940748241651122
1.7682168614772444,-0.09576806640624999,2.375048046875,3.5529952636718747,4.274786555043739
1.770703805023626,-0.24899697265624998,2.5522189697265625,3.19865341796875,4.099659113890723
1.7731907485700074,-0.49320554199218747,2.7246014892578123,3.35188232421875,4.347622349897446
1.7756776921163888,-0.6464344482421874,2.920926025390625,4.094084838867187,5.070622940972895
1.7781646356627703,-0.8475473876953125,3.0550013183593747,5.161898779296875,6.057769278973344
1.780651579209152,-0.9864110839843749,3.1124621582031247,6.555324145507812,7.323435134247548
1.7831385227555334,-1.0390835205078124,3.2130186279296873,8.106766821289062,8.781961714831558
1.7856254663019149,-1.1252747802734375,3.1938650146484373,9.7683427734375,10.338642928464225
1.7881124098482963,-1.13006318359375,3.1124621582031247,11.3006318359375,11.775769332683305
1.7905993533946778,-1.0678139404296874,3.0406361083984375,12.655749975585938,13.059621051149065
1.7930862969410593,-1.0342951171875,2.91134921875,13.6756798828125,14.020340256930877
1.795573240487441,-0.8571241943359375,2.7533319091796873,14.360421557617187,14.647088645840153
1.7980601840338224,-0.6847416748046875,2.5713725830078125,14.585476513671875,14.826225185553215
1.8005471275802039,-0.5410895751953124,2.4756045166015626,14.456189624023436,14.67660771761397
1.8030340711265853,-0.354341845703125,2.31758720703125,13.857639208984374,14.05456982807344
1.8055210146729668,-0.229843359375,2.2266075439453124,12.966996191406249,13.158784113760174
1.8080079582193482,-0.1292868896484375,2.068590234375,11.793837377929687,11.974572257689958
1.81049490176573,-0.047884033203124995,2.059013427734375,10.500968481445312,10.701035848203395
1.8129818453121114,0.0383072265625,2.059013427734375,9.126696728515624,9.356152890664791
1.8154687888584928,0.0143652099609375,2.0638018310546875,7.862558251953125,8.128917924452066
1.8179557324048743,-0.06703764648437499,2.1068974609374997,6.7277066650390625,7.050216161775614
1.8204426759512558,-0.11013327636718749,2.250549560546875,5.856217260742187,6.274741689349118
1.8229296194976372,-0.22505495605468748,2.35589443359375,5.4013189453125,5.8970445703313565
1.825416563044019,-0.3687070556640625,2.480392919921875,5.176263989257812,5.751695647075063
1.8279035065904004,-0.4740519287109375,2.6527754394531247,5.329492895507812,5.972054695542274
1.8303904501367818,-0.5889736083984375,2.77727392578125,5.832275244140624,6.486568807438171
1.8328773936831633,-0.6943184814453125,2.849099975585937,6.622361791992187,7.242591009341773
1.8353643372295447,-0.7900865478515624,2.935291235351562,7.6231380859375,8.206851141984881
1.8378512807759262,-0.9193734375,2.978386865234375,8.748412866210938,9.287128916638677
1.8403382243223079,-0.93852705078125,2.987963671875,9.86411083984375,10.349369188033435
1.8428251678686893,-0.97683427734375,2.9448680419921875,10.965443603515624,11.395938154097815
1.8453121114150708,-0.9241618408203125,2.901772412109375,11.899182250976562,12.282707213056211
1.8477990549614522,-0.852335791015625,2.877830395507812,12.641384765624998,12.992805427563775
1.8502859985078337,-0.7613561279296874,2.7724855224609373,13.072341064453123,13.384783899308161
1.8527729420542152,-0.6943184814453125,2.6144682128906247,13.168109130859374,13.443088196992313
1.8552598856005968,-0.565031591796875,2.5665841796874997,13.038822241210937,13.301033812792435
1.8577468291469783,-0.4070142822265625,2.4133552734375,12.574347119140624,12.810314194991673
1.8602337726933598,-0.3112462158203125,2.327164013671875,11.93270107421875,12.16149339020719
1.8627207162397412,-0.22026655273437498,2.24097275390625,11.003750830078124,11.2317856357949
1.8652076597861227,-0.17238251953125,2.2457611572265623,10.007762939453125,10.258093290696813
1.8676946033325041,-0.105344873046875,2.1499930908203124,8.94473740234375,9.20010299017025
1.8701815468788858,-0.1388636962890625,2.1404162841796874,8.073247998046874,8.35332258647399
1.8726684904252673,-0.1580173095703125,2.2361843505859373,7.211335400390625,7.551744710784145
1.8751554339716487,-0.201112939453125,2.2840683837890623,6.60799658203125,6.994500241216447
1.8776423775180302,-0.2825157958984375,2.3367408203125,6.2392895263671875,6.668501078209566
1.8801293210644117,-0.40222587890625,2.427720483398437,6.138733056640625,6.613596294291526
1.8826162646107931,-0.488417138671875,2.5426421630859375,6.296750366210937,6.808277729736672
1.8851032081571748,-0.55545478515625,2.6431986328124997,6.789955908203124,7.307429798923652
1.8875901517035563,-0.679953271484375,2.70065947265625,7.359775903320312,7.869065979247127
1.8900770952499377,-0.7565677246093749,2.863465185546875,8.197746484375,8.7163567511227
1.8925640387963192,-0.8092401611328125,2.85388837890625,9.0788126953125,9.551145924663377
1.8950509823427006,-0.8283937744140625,2.89219560546875,9.988609326171874,10.431842978911657
1.897537925889082,-0.814028564453125,2.91134921875,10.82179150390625,11.236092209094732
1.9000248694354638,-0.8092401611328125,2.844311572265625,11.535263598632811,11.908286369098521
1.9025118129818452,-0.7996633544921875,2.844311572265625,12.052411157226562,12.409278162064108
1.9049987565282267,-0.7517793212890624,2.7629087158203123,12.449848632812499,12.77488033994123
1.9074857000746082,-0.603338818359375,2.748543505859375,12.497732666015624,12.81061399483003
1.9099726436209896,-0.5746083984375,2.5761609863281247,12.334926953124999,12.61416676510833
1.9124595871673713,-0.43574470214843747,2.5139117431640625,11.942277880859374,12.211782289311076
1.9149465307137528,-0.3591302490234375,2.3511060302734372,11.3389390625,11.585690016759475
1.9174334742601342,-0.26336218261718747,2.308010400390625,10.615890161132812,10.867078520043032
1.9199204178065157,-0.2537853759765625,2.27927998046875,9.80665,10.071241654777488
1.9224073613528971,-0.2346317626953125,2.1930887207031247,8.930372192382812,9.198708479750023
1.9248943048992786,-0.181959326171875,2.2074539306640624,8.17859287109375,8.473213286793309
1.9273812484456603,-0.229843359375,2.231395947265625,7.498639599609374,7.826975896740201
1.9298681919920417,-0.229843359375,2.3511060302734372,7.048529687499999,7.433861600205223
1.9323551355384232,-0.296881005859375,2.35589443359375,6.7277066650390625,7.134452598811566
1.9348420790848047,-0.373495458984375,2.4516625,6.64630380859375,7.093905989503666
1.9373290226311861,-0.4740519287109375,2.4947581298828125,6.79953271484375,7.258249685562034
1.9398159661775676,-0.5506663818359374,2.6527754394531247,7.206546997070312,7.6990110155287566
1.9423029097239493,-0.6512228515624999,2.6623522460937497,7.733271362304687,8.204614350944194
1.9447898532703307,-0.7038952880859375,2.73896669921875,8.422801440429687,8.88487429629273
1.9472767968167122,-0.7996633544921875,2.786850732421875,9.217676391601563,9.662895867471969
1.9497637403630936,-0.7661445312499999,2.839523168945312,10.002974536132811,10.426378510310421
1.952250683909475,-0.8188169677734375,2.81558115234375,10.66856259765625,11.06418484806978
1.9547376274558566,-0.7900865478515624,2.81558115234375,11.353304272460937,11.723875292820592
1.9572245710022382,-0.7422025146484375,2.829946362304687,11.841721411132811,12.197779591595893
1.9597115145486197,-0.718260498046875,2.7629087158203123,12.081141577148436,12.413844872645823
1.9621984580950012,-0.6464344482421874,2.7341782958984373,12.129025610351562,12.450175529132123
1.9646854016413826,-0.5363011718749999,2.6288334228515624,12.014103930664062,12.31003969810226
1.967172345187764,-0.44532150878906246,2.5617957763671875,11.678915698242188,11.964872783805548
1.9696592887341455,-0.39743747558593745,2.480392919921875,11.099518896484375,11.380229581059092
1.9721462322805272,-0.32561142578124996,2.365471240234375,10.453084448242187,10.722334236119387
1.9746331758269087,-0.277727392578125,2.327164013671875,9.7683427734375,10.045563468043307
1.9771201193732901,-0.277727392578125,2.3032219970703123,9.035717065429687,9.328780571911533
1.9796070629196716,-0.22505495605468748,2.2840683837890623,8.327033374023436,8.637540328540856
1.982094006466053,-0.277727392578125,2.2266075439453124,7.685387329101562,8.006253309611012
1.9845809500124345,-0.24899697265624998,2.288856787109375,7.230489013671875,7.588203757222015
1.9870678935588162,-0.3495534423828125,2.3223756103515623,6.962338427734375,7.347773299915032
1.9895548371051976,-0.39743747558593745,2.370259643554687,6.904877587890625,7.31118470759824
1.992041780651579,-0.45968671875,2.5043349365234375,7.053318090820312,7.498820003439214
1.9945287241979606,-0.5315127685546874,2.5234885498046875,7.345410693359375,7.784957195659478
1.997015667744342,-0.622492431640625,2.6431986328124997,7.862558251953125,8.318282160717315
1.9995026112907235,-0.6607996582031249,2.73896669921875,8.461108666992187,8.917900797965904
2.001989554837105,-0.7230489013671875,2.748543505859375,9.145850341796875,9.577257937004518
2.0044764983834864,-0.7805097412109374,2.829946362304687,9.916783276367187,10.342165267490296
2.006963441929868,-0.7422025146484375,2.825157958984375,10.587159741210938,10.982728870908216
2.0094503854762498,-0.7852981445312499,2.77727392578125,11.161768139648437,11.528877293036802
2.011937329022631,-0.689530078125,2.7820623291015623,11.626243261718749,11.974341523119577
2.0144242725690127,-0.7038952880859375,2.77727392578125,11.827356201171874,12.169431940103562
2.016911216115394,-0.679953271484375,2.6671406494140624,11.97100830078125,12.283363359948803
2.0193981596617756,-0.5602431884765625,2.6479870361328124,11.908759057617187,12.21246289927389
2.021885103208157,-0.4740519287109375,2.5905261962890624,11.583147631835937,11.878756680127804
2.0243720467545385,-0.469263525390625,2.4851813232421875,11.109095703125,11.393346383167861
2.02685899030092,-0.36391865234375,2.4133552734375,10.47702646484375,10.757546374819334
2.0293459338473014,-0.32082302246093747,2.346317626953125,9.816226806640625,10.097843459754262
2.031832877393683,-0.22505495605468748,2.3415292236328122,9.083601098632812,9.383241324694493
2.0343198209400644,-0.22026655273437498,2.3223756103515623,8.456320263671875,8.772188907655652
2.036806764486446,-0.2442085693359375,2.29843359375,7.81467421875,8.149329294820006
2.0392937080328277,-0.27293898925781246,2.3319524169921872,7.3837179199218745,7.748018332964126
2.041780651579209,-0.3399766357421875,2.327164013671875,7.115567333984375,7.494169396527241
2.0442675951255906,-0.38786066894531246,2.384624853515625,7.000645654296875,7.4058025336586475
2.046754538671972,-0.44532150878906246,2.43250888671875,7.1203557373046875,7.537564364960583
2.0492414822183536,-0.51714755859375,2.5665841796874997,7.3932947265625,7.8431883097754636
2.0517284257647352,-0.55545478515625,2.6288334228515624,7.896077075195312,8.340703109503384
2.0542153693111165,-0.6177040283203125,2.6862942626953124,8.418013037109375,8.85780326183283
2.056702312857498,-0.6943184814453125,2.7150246826171873,9.102754711914063,9.524367723170434
2.0591892564038794,-0.7709329345703124,2.748543505859375,9.758765966796874,10.167710764371686
2.061676199950261,-0.7230489013671875,2.7820623291015623,10.448296044921875,10.836492087345627
2.0641631434966423,-0.7517793212890624,2.8203695556640622,10.998962426757812,11.379667439941496
2.066650087043024,-0.737414111328125,2.8107927490234372,11.463437548828125,11.826019443812493
2.0691370305894057,-0.6751648681640625,2.7916391357421872,11.79862578125,12.143173678630621
2.071623974135787,-0.6560112548828124,2.6910826660156246,11.889605444335936,12.207988954117113
2.0741109176821686,-0.5698199951171875,2.6575638427734374,11.803414184570311,12.112304769025904
2.07659786122855,-0.51714755859375,2.6001030029296874,11.559205615234374,11.859309072558542
2.0790848047749315,-0.4644751220703125,2.5378537597656248,11.166556542968749,11.460734002335842
2.081571748321313,-0.40222587890625,2.446874096679687,10.611101757812499,10.896993118164085
2.0840586918676944,-0.37828386230468747,2.398990063476562,9.916783276367187,10.209840476499883
2.086545635414076,-0.28730419921875,2.35589443359375,9.279925634765624,9.578611698566077
2.0890325789604574,-0.296881005859375,2.3127988037109373,8.609549169921875,8.91972609150019
2.091519522506839,-0.22026655273437498,2.288856787109375,7.996633544921875,8.320668891256275
2.0940064660532203,-0.2920926025390625,2.3223756103515623,7.52737001953125,7.882895786127818
2.096493409599602,-0.32561142578124996,2.327164013671875,7.259219433593749,7.630070899552234
2.0989803531459836,-0.33039982910156246,2.442085693359375,7.1203557373046875,7.534747003486491
2.101467296692365,-0.45489831542968745,2.427720483398437,7.134720947265625,7.550165707998997
2.1039542402387466,-0.507570751953125,2.4564509033203126,7.345410693359375,7.761883622084248
2.106441183785128,-0.5363011718749999,2.5617957763671875,7.79552060546875,8.223172019181838
2.1089281273315095,-0.612915625,2.6240450195312497,8.2743609375,8.702087493924763
2.111415070877891,-0.6655880615234374,2.729389892578125,8.954314208984375,9.38468537600327
2.1139020144242724,-0.7230489013671875,2.7581203125,9.591171850585937,10.006028424877947
2.116388957970654,-0.7517793212890624,2.786850732421875,10.256759912109374,10.655178696172678
2.1188759015170353,-0.718260498046875,2.825157958984375,10.86009873046875,11.244516889212994
2.121362845063417,-0.718260498046875,2.77727392578125,11.353304272460937,11.710109585523044
2.1238497886097982,-0.6943184814453125,2.77727392578125,11.678915698242188,12.024658020049833
2.12633673215618,-0.6560112548828124,2.767697119140625,11.81777939453125,12.155262561032552
2.1288236757025616,-0.5985504150390625,2.729389892578125,11.827356201171874,12.15294970344442
2.131310619248943,-0.5315127685546874,2.6623522460937497,11.597512841796874,11.91104233142761
2.1337975627953245,-0.45489831542968745,2.5330653564453125,11.209652172851563,11.501289250067575
2.1362845063417057,-0.3399766357421875,2.5426421630859375,10.769119067382812,11.07043534689675
2.1387714498880874,-0.32561142578124996,2.403778466796875,10.108319409179687,10.395301582736039
2.141258393434469,-0.277727392578125,2.35589443359375,9.466673364257812,9.759368610334102
2.1437453369808503,-0.277727392578125,2.3367408203125,8.79150849609375,9.10099509959167
2.146232280527232,-0.21068974609375,2.31758720703125,8.21690009765625,8.540084768090258
2.1487192240736133,-0.27293898925781246,2.2649147705078123,7.632714892578124,7.9663461662738095
2.151206167619995,-0.3064578125,2.3223756103515623,7.340622290039062,7.7053280573520295
2.153693111166376,-0.33518823242187495,2.360682836914062,7.1203557373046875,7.5089706640406115
2.156180054712758,-0.39743747558593745,2.375048046875,7.125144140624999,7.521069657744677
2.1586669982591395,-0.469263525390625,2.437297290039062,7.335833886718749,7.744358278761702
2.161153941805521,-0.5219359619140624,2.5809493896484375,7.690175732421874,8.12850045800553
2.1636408853519025,-0.5889736083984375,2.6288334228515624,8.12113203125,8.556309984186294
2.1661278288982837,-0.6655880615234374,2.7054478759765623,8.748412866210938,9.181349756705366
2.1686147724446654,-0.718260498046875,2.70065947265625,9.361328491210937,9.769540974409193
2.171101715991047,-0.7326257080078125,2.748543505859375,10.060435375976562,10.454835808650289
2.1735886595374283,-0.7422025146484375,2.7581203125,10.66856259765625,11.044289027867997
2.17607560308381,-0.7613561279296874,2.8107927490234372,11.200075366210937,11.57246331773421
2.178562546630191,-0.6847416748046875,2.806004345703125,11.583147631835937,11.937832324598366
2.181049490176573,-0.6655880615234374,2.7533319091796873,11.8369330078125,12.171147320659243
2.1835364337229546,-0.5889736083984375,2.6910826660156246,11.79862578125,12.115955849733721
2.186023377269336,-0.55545478515625,2.6527754394531247,11.6837041015625,11.993943850268229
2.1885103208157175,-0.4740519287109375,2.528276953125,11.319785449218749,11.608378534453557
2.1909972643620987,-0.40222587890625,2.4899697265625,10.9175595703125,11.205125696224103
2.1934842079084804,-0.33518823242187495,2.461239306640625,10.280701928710936,10.576525054227767
2.1959711514548617,-0.27293898925781246,2.370259643554687,9.648632690429688,9.939252449985839
2.1984580950012433,-0.239420166015625,2.3367408203125,8.954314208984375,9.257290242313307
2.200945038547625,-0.2442085693359375,2.3367408203125,8.379705810546875,8.702842349368677
2.2034319820940063,-0.28730419921875,2.308010400390625,7.862558251953125,8.199346192017764
2.205918925640388,-0.28730419921875,2.346317626953125,7.4603323730468745,7.825874342574821
2.208405869186769,-0.33518823242187495,2.370259643554687,7.287949853515625,7.671029591676498
2.210892812733151,-0.37828386230468747,2.375048046875,7.1395093505859375,7.533694025678833
2.2133797562795325,-0.47884033203125,2.4756045166015626,7.297526660156249,7.720867900818474
2.2158666998259138,-0.5219359619140624,2.5426421630859375,7.570465649414062,8.00308668369897
2.2183536433722955,-0.5985504150390625,2.5330653564453125,8.054094384765625,8.464225839264925
2.2208405869186767,-0.6607996582031249,2.6096798095703124,8.580818749999999,8.993193832955667
2.2233275304650584,-0.699106884765625,2.6767174560546874,9.260772021484375,9.665167624505141
2.2258144740114396,-0.7230489013671875,2.6910826660156246,9.859322436523437,10.245533882450074
2.2283014175578213,-0.7230489013671875,2.7724855224609373,10.500968481445312,10.884843349094725
2.230788361104203,-0.737414111328125,2.825157958984375,11.042058056640624,11.421573586464376
2.233275304650584,-0.7422025146484375,2.786850732421875,11.468225952148437,11.825295263420772
2.235762248196966,-0.6464344482421874,2.73896669921875,11.731588134765625,12.064409485717775
2.238249191743347,-0.63206923828125,2.6815058593749996,11.731588134765625,12.05073215035574
2.240736135289729,-0.5602431884765625,2.70065947265625,11.722011328125,12.042133681128654
2.2432230788361105,-0.5027823486328125,2.5905261962890624,11.420341918945311,11.721255291536657
2.2457100223824917,-0.4070142822265625,2.5522189697265625,11.01332763671875,11.312509355977634
2.2481969659288734,-0.39264907226562495,2.437297290039062,10.453084448242187,10.740650159839742
2.2506839094752547,-0.316034619140625,2.408566870117187,9.835380419921874,10.130931855111061
2.2531708530216363,-0.277727392578125,2.370259643554687,9.17458076171875,9.47988372480127
2.2556577965680176,-0.26336218261718747,2.327164013671875,8.56166513671875,8.876213263496297
2.2581447401143993,-0.26815058593749996,2.327164013671875,7.982268334960937,8.318906469878602
2.260631683660781,-0.2825157958984375,2.3127988037109373,7.551312036132812,7.902605073545251
2.263118627207162,-0.3495534423828125,2.346317626953125,7.292738256835937,7.668860756223905
2.265605570753544,-0.3591302490234375,2.379836450195312,7.125144140624999,7.520656559777519
2.268092514299925,-0.4165910888671875,2.427720483398437,7.211335400390625,7.620415548889897
2.2705794578463068,-0.5027823486328125,2.4899697265625,7.493851196289062,7.912682546483048
2.2730664013926885,-0.5219359619140624,2.6096798095703124,7.953537915039062,8.38699059393666
2.2755533449390697,-0.6464344482421874,2.6240450195312497,8.379705810546875,8.80471233100287
2.2780402884854514,-0.6560112548828124,2.6862942626953124,9.04050546875,9.453955085720544
2.2805272320318326,-0.7326257080078125,2.7581203125,9.677363110351562,10.08936692046891
2.2830141755782143,-0.7230489013671875,2.7916391357421872,10.347739575195313,10.742055813206285
2.2855011191245955,-0.7757213378906249,2.767697119140625,10.864887133789061,11.23866822036015
2.287988062670977,-0.7134720947265625,2.77727392578125,11.348515869140625,11.705174296904532
2.290475006217359,-0.6943184814453125,2.7629087158203123,11.626243261718749,11.97018275158291
2.29296194976374,-0.6416460449218749,2.73896669921875,11.79862578125,12.129353591695244
2.295448893310122,-0.59376201171875,2.6479870361328124,11.7603185546875,12.069361258070568
2.297935836856503,-0.5315127685546874,2.6527754394531247,11.525686791992188,11.838968679002642
2.3004227804028847,-0.3112462158203125,2.6671406494140624,11.056423266601563,11.377829709609285
2.3029097239492664,-0.3687070556640625,2.4851813232421875,10.654197387695312,10.946414622069724
2.3053966674956476,-0.3591302490234375,2.408566870117187,10.036493359375,10.327699059150019
2.3078836110420293,-0.26336218261718747,2.379836450195312,9.399635717773437,9.69980065752659
2.3103705545884106,-0.2825157958984375,2.3127988037109373,8.772354882812499,9.07651164662852
2.3128574981347922,-0.27293898925781246,2.2649147705078123,8.183381274414062,8.495414274298357
2.315344441681174,-0.28730419921875,2.3127988037109373,7.709329345703124,8.053902220033144
2.317831385227555,-0.33039982910156246,2.308010400390625,7.37414111328125,7.733953272031482
2.320318328773937,-0.3399766357421875,2.3511060302734372,7.149086157226562,7.533439889047178
2.322805272320318,-0.4213794921875,2.4133552734375,7.216123803710937,7.620648732407786
2.3252922158666998,-0.469263525390625,2.437297290039062,7.4220251464843745,7.826051597794394
2.327779159413081,-0.5602431884765625,2.528276953125,7.723694555664062,8.146257691181399
2.3302661029594627,-0.622492431640625,2.5570073730468748,8.197746484375,8.609810157915714
2.3327530465058444,-0.6512228515624999,2.6910826660156246,8.796296899414061,9.221759932917815
2.3352399900522256,-0.6943184814453125,2.7054478759765623,9.481038574218749,9.88390706194299
2.3377269335986073,-0.7230489013671875,2.77727392578125,10.103531005859374,10.503208507830092
2.3402138771449885,-0.7038952880859375,2.7629087158203123,10.702081420898438,11.07536364586215
2.34270082069137,-0.70868369140625,2.77727392578125,11.214440576171874,11.574936737182616
2.345187764237752,-0.7038952880859375,2.767697119140625,11.540052001953125,11.888162857551675
2.347674707784133,-0.63206923828125,2.7437551025390623,11.7603185546875,12.092675307491625
2.350161651330515,-0.5985504150390625,2.6910826660156246,11.808202587890625,12.125750981747071
2.352648594876896,-0.55545478515625,2.6096798095703124,11.611878051757811,11.914473157287599
2.3551355384232777,-0.469263525390625,2.528276953125,11.276689819335937,11.56616297176725
2.357622481969659,-0.4261678955078125,2.5474305664062498,10.850521923828124,11.153692105545016
2.3601094255160406,-0.3016694091796875,2.50912333984375,10.328585961914062,10.633268187139441
2.3625963690624223,-0.32561142578124996,2.422932080078125,9.658209497070311,9.962812522303636
2.3650833126088036,-0.24899697265624998,2.3223756103515623,8.963891015625,9.2631943792598
2.3675702561551852,-0.22026655273437498,2.3367408203125,8.394071020507813,8.71603713351987
2.3700571997015665,-0.27293898925781246,2.3032219970703123,7.8338278320312495,8.169956288839805
2.372544143247948,-0.3064578125,2.3223756103515623,7.426813549804687,7.787483827910051
2.37503108679433,-0.316034619140625,2.3415292236328122,7.211335400390625,7.5885436839059475
2.377518030340711,-0.430956298828125,2.360682836914062,7.163451367187499,7.554705969001091
2.3800049738870928,-0.45010991210937495,2.446874096679687,7.283161450195312,7.696377881028986
2.382491917433474,-0.5123591552734374,2.50912333984375,7.60398447265625,8.023639554400392
2.3849788609798557,-0.5746083984375,2.5809493896484375,8.058882788085937,8.481572162965385
2.387465804526237,-0.6464344482421874,2.6288334228515624,8.595183959960938,9.011427742957574
2.3899527480726186,-0.6560112548828124,2.6671406494140624,9.279925634765624,9.677861840151984
2.3924396916190003,-0.7038952880859375,2.7150246826171873,9.897629663085937,10.287366064810213
2.3949266351653815,-0.7422025146484375,2.8203695556640622,10.558429321289061,10.953802021943055
2.397413578711763,-0.689530078125,2.839523168945312,11.022904443359375,11.403629506567114
2.3999005222581444,-0.7422025146484375,2.7581203125,11.425130322265625,11.776743824662613
2.402387465804526,-0.6512228515624999,2.767697119140625,11.693280908203125,12.03399588432056
2.404874409350908,-0.622492431640625,2.7054478759765623,11.803414184570311,12.125490977671442
2.407361352897289,-0.5267243652343749,2.7150246826171873,11.736376538085937,12.057832799798069
2.4098482964436707,-0.49320554199218747,2.5857377929687497,11.434707128906249,11.733789616509156
2.412335239990052,-0.4261678955078125,2.5378537597656248,11.003750830078124,11.30065719821476
2.4148221835364336,-0.40222587890625,2.4756045166015626,10.43871923828125,10.735793529867413
2.417309127082815,-0.3064578125,2.47081611328125,9.816226806640625,10.12705077383848
2.4197960706291965,-0.3112462158203125,2.3223756103515623,9.169792358398437,9.464427852678716
2.4222830141755782,-0.239420166015625,2.327164013671875,8.585607153320312,8.898632735064936
2.4247699577219595,-0.2442085693359375,2.27927998046875,8.0062103515625,8.327914459705339
2.427256901268341,-0.2825157958984375,2.3032219970703123,7.536946826171874,7.886077237972183
2.4297438448147224,-0.32561142578124996,2.3511060302734372,7.259219433593749,7.637407227014451
2.432230788361104,-0.3591302490234375,2.389413256835937,7.201758593749999,7.596288375934587
2.4347177319074857,-0.44053310546874996,2.4133552734375,7.264007836914062,7.667083079476278
2.437204675453867,-0.6368576416015624,3.4093431640625,-7.570465649414062,8.327133877569416
2.4396916190002487,-1.0869675537109373,3.778050219726562,-5.6024318847656245,6.84415114890333
2.44217856254663,-1.47482822265625,3.9983167724609374,-2.5953145996093747,4.989720750726579
2.4446655060930116,-1.8052280517578123,4.113238452148437,1.3024457031249999,4.6769588081011095
2.4471524496393933,-1.9871873779296874,4.065354418945312,5.61200869140625,7.209068024305259
2.4496393931857745,-2.0829554443359375,3.9887399658203124,10.002974536132811,10.968511725322736
2.452126336732156,-1.9967641845703124,3.754108203125,14.144943408203124,14.770234244277312
2.4546132802785374,-1.8770541015625,3.4715924072265625,17.769764721679685,18.202742216653995
2.457100223824919,-1.5945383056640625,3.0645781249999997,20.5709806640625,20.859037297384837
2.4595871673713003,-1.2593500732421874,2.6623522460937497,22.318747875976563,22.512231982650317
2.462074110917682,-0.8571241943359375,2.327164013671875,23.060950390625,23.1939170290383
2.4645610544640637,-0.488417138671875,1.9967641845703124,22.716185351562498,22.809004700702612
2.467047998010445,-0.12449848632812499,1.6903063720703124,21.294029565429685,21.36137473661171
2.4695349415568266,0.22026655273437498,1.465251416015625,19.067422021484372,19.124906839296667
2.472021885103208,0.47884033203125,1.3838485595703125,16.165649609375,16.23183760984845
2.4745088286495895,0.6464344482421874,1.407790576171875,12.828132495117186,12.921328689980532
2.4769957721959712,0.6847416748046875,1.4173673828125,9.418789331054686,9.549418512237521
2.4794827157423525,0.6943184814453125,1.608903515625,6.215347509765625,6.457646114755497
2.481969659288734,0.63206923828125,1.838746875,3.347093920898437,3.870857696637656
2.4844566028351154,0.3687070556640625,2.0733786376953125,1.0678139404296874,2.3611587154453866
2.486943546381497,0.16759411621093748,2.35589443359375,-0.40222587890625,2.395853089754972
2.4894304899278783,-0.1292868896484375,2.6767174560546874,-1.0199299072265624,2.8673661180668972
2.49191743347426,-0.49320554199218747,2.85388837890625,-0.9002198242187499,3.0328742667351687
2.4944043770206417,-0.7517793212890624,3.1842882080078123,0.086191259765625,3.2729638667170518
2.496891320567023,-1.0582371337890624,3.2513258544921873,1.8004396484374998,3.8642681805336947
2.4993782641134046,-1.2018892333984375,3.399766357421875,4.017470385742187,5.398427300124747
2.501865207659786,-1.369483349609375,3.4859576171874997,6.612784985351562,7.599757260345617
2.5043521512061675,-1.4317325927734375,3.4859576171874997,9.275137231445312,10.011489868555044
2.506839094752549,-1.4413093994140624,3.308786694335937,11.846509814453125,12.384071905370545
2.5093260382989304,-1.3551181396484375,3.1603461914062496,14.097059374999999,14.510383049534413
2.511812981845312,-1.2306196533203124,3.0310593017578125,16.002843896484375,16.333791905040236
2.5142999253916933,-1.0773907470703123,2.748543505859375,17.176002709960937,17.42786077859414
2.516786868938075,-0.8475473876953125,2.5330653564453125,17.827225561523438,18.026223339786046
2.5192738124844563,-0.5746083984375,2.35589443359375,17.750611108398438,17.915485148758627
2.521760756030838,-0.32561142578124996,2.1356278808593747,16.979678173828123,17.11655339526268
2.5242476995772196,-0.143652099609375,1.9776105712890624,15.710751293945311,15.835380820100307
2.526734643123601,0.023942016601562498,1.9201497314453124,13.986926098632813,14.1181319550408
2.5292215866699825,0.201112939453125,1.85790048828125,11.97100830078125,12.115992752397336
2.5317085302163638,0.229843359375,1.8100164550781248,9.830592016601562,9.99847623062498
2.5341954737627455,0.26336218261718747,1.905784521484375,7.790732202148437,8.024766820734104
2.536682417309127,0.2442085693359375,2.0254946044921875,5.88015927734375,6.224029188965604
2.5391693608555084,0.105344873046875,2.1787235107421874,4.371812231445312,4.885762567455858
2.54165630440189,-0.033518823242187495,2.3511060302734372,3.375824340820312,4.1140020730639595
2.5441432479482713,-0.22505495605468748,2.47081611328125,2.8107927490234372,3.749151620948101
2.546630191494653,-0.39743747558593745,2.6192566162109374,2.7964275390625,3.8520733053502556
2.549117135041034,-0.59376201171875,2.7820623291015623,3.366247534179687,4.407272012360609
2.551604078587416,-0.7709329345703124,2.93050283203125,4.319139794921875,5.276092588860259
2.5540910221337976,-0.9002198242187499,3.0454245117187497,5.679046337890624,6.5066560917573275
2.556577965680179,-1.0582371337890624,3.1268273681640624,7.297526660156249,8.009420114922248
2.5590649092265605,-1.0869675537109373,3.1172505615234374,9.04050546875,9.624421471269699
2.5615518527729417,-1.158793603515625,3.0885201416015624,10.754753857421875,11.249288413689017
2.5640387963193234,-1.1061211669921875,2.9975404785156248,12.258312499999999,12.667871893260685
2.566525739865705,-1.01514150390625,2.940079638671875,13.589488623046874,13.940903184177358
2.5690126834120863,-0.8858546142578124,2.844311572265625,14.49928525390625,14.802166043923073
2.571499626958468,-0.7613561279296874,2.6575638427734374,14.992490795898437,15.245231680661732
2.5739865705048492,-0.6272808349609375,2.528276953125,15.011644409179686,15.235981539279576
2.576473514051231,-0.45010991210937495,2.370259643554687,14.604630126953124,14.802565684905773
2.5789604575976126,-0.296881005859375,2.269703173828125,13.819331982421874,14.007627467537592
2.581447401143994,-0.19153613281249998,2.1164742675781247,12.646173168945312,12.823488029176984
2.5839343446903755,-0.076614453125,2.0829554443359375,11.3389390625,11.528925024502708
2.5864212882367568,-0.0143652099609375,2.0638018310546875,9.969455712890625,10.180841397861446
2.5889082317831384,0.023942016601562498,2.059013427734375,8.532934716796875,8.77787470842839
2.5913951753295197,0.0430956298828125,2.1452046874999997,7.173028173828125,7.4870617445777095
2.5938821188759014,-0.023942016601562498,2.1835119140624997,6.105214233398437,6.483975503863559
2.596369062422283,-0.11013327636718749,2.327164013671875,5.305550878906249,5.794539827609751
2.5988560059686643,-0.22505495605468748,2.370259643554687,4.8698061767578125,5.420681941444021
2.601342949515046,-0.38307226562499996,2.5522189697265625,4.774038110351563,5.426970232939582
2.603829893061427,-0.469263525390625,2.6527754394531247,5.1140147460937495,5.780187939132436
2.606316836607809,-0.6081272216796875,2.7581203125,5.72693037109375,6.385513123573465
2.6088037801541906,-0.7422025146484375,2.81558115234375,6.665457421875,7.273698126882387
2.611290723700572,-0.833182177734375,2.920926025390625,7.805097412109374,8.37529384556834
2.6137776672469535,-0.8762778076171874,2.959233251953125,8.987833032226561,9.502950428723194
2.6162646107933347,-0.9050082275390624,2.935291235351562,10.242394702148436,10.693064283115643
2.6187515543397164,-0.8906430175781249,2.959233251953125,11.396399902343749,11.807973456879312
2.6212384978860976,-0.852335791015625,2.887407202148437,12.325350146484375,12.68770479184897
2.6237254414324793,-0.8092401611328125,2.844311572265625,13.034033837890624,13.365291468793046
2.626212384978861,-0.7230489013671875,2.77727392578125,13.479355346679686,13.781475637051894
2.6286993285252422,-0.6081272216796875,2.6431986328124997,13.541604589843748,13.810552943236088
2.631186272071624,-0.5219359619140624,2.4947581298828125,13.316549633789062,13.558271623777241
2.633673215618005,-0.38786066894531246,2.4133552734375,12.741941235351561,12.974274007415435
2.636160159164387,-0.2825157958984375,2.327164013671875,11.980585107421874,12.207781413411706
2.6386471027107685,-0.1771709228515625,2.24097275390625,10.998962426757812,11.22633167534633
2.6411340462571498,-0.1388636962890625,2.221819140625,9.945513696289062,10.191614499325807
2.6436209898035314,-0.0909796630859375,2.221819140625,8.920795385742187,9.193766796423647
2.6461079333499127,-0.08140285644531249,2.1595698974609374,7.843404638671874,8.135684660371023
2.6485948768962944,-0.13407529296874998,2.221819140625,7.062894897460937,7.405331917639614
2.6510818204426756,-0.16280571289062498,2.3223756103515623,6.354211206054687,6.7672693331104075
2.6535687639890573,-0.258573779296875,2.346317626953125,5.9950809570312495,6.4430631292305005
2.656055707535439,-0.3495534423828125,2.43250888671875,5.884947680664062,6.377452179138679
2.65854265108182,-0.4740519287109375,2.528276953125,6.0716954101562495,6.594118192490188
2.661029594628202,-0.5602431884765625,2.6240450195312497,6.5218053222656245,7.052193230215219
2.663516538174583,-0.6751648681640625,2.7198130859375,7.211335400390625,7.736704019061791
2.666003481720965,-0.7565677246093749,2.7820623291015623,8.030152368164062,8.532034492479358
2.6684904252673465,-0.7996633544921875,2.829946362304687,8.94473740234375,9.415751966302343
2.6709773688137277,-0.842758984375,2.882618798828125,9.916783276367187,10.361579242351912
2.6734643123601094,-0.8092401611328125,2.940079638671875,10.87925234375,11.298542803349159
2.6759512559064906,-0.814028564453125,2.868253588867187,11.664550488281249,12.039570559096259
2.6784381994528723,-0.7757213378906249,2.81558115234375,12.263100903320312,12.606065388712992
2.6809251429992536,-0.7422025146484375,2.70065947265625,12.58392392578125,12.891841122580132
2.6834120865456352,-0.6464344482421874,2.6575638427734374,12.684480395507812,12.975999613837576
2.685899030092017,-0.565031591796875,2.5522189697265625,12.627019555664061,12.894754950299879
2.688385973638398,-0.45489831542968745,2.4947581298828125,12.23915888671875,12.499110402678411
2.69087291718478,-0.373495458984375,2.427720483398437,11.6070896484375,11.864141591799184
2.693359860731161,-0.277727392578125,2.389413256835937,10.86009873046875,11.123316621047003
2.6958468042775428,-0.19153613281249998,2.35589443359375,10.012551342773437,10.287765017927116
2.6983337478239244,-0.17238251953125,2.27927998046875,9.145850341796875,9.427163488396262
2.7008206913703057,-0.1867477294921875,2.2744915771484373,8.327033374023436,8.634099342785547
2.7033076349166874,-0.181959326171875,2.288856787109375,7.56567724609375,7.906418075230924
2.7057945784630686,-0.21068974609375,2.2936451904296873,6.995857250976562,7.365271013664849
2.7082815220094503,-0.24899697265624998,2.3415292236328122,6.60799658203125,7.015010864257812
2.7107684655558315,-0.33039982910156246,2.398990063476562,6.4834980957031245,6.920987279912864
2.713255409102213,-0.430956298828125,2.4660277099609376,6.5409589355468745,7.003653317683944
2.715742352648595,-0.4740519287109375,2.5426421630859375,6.919242797851562,7.386858283210638
2.718229296194976,-0.5889736083984375,2.6575638427734374,7.445967163085937,7.9279229615051525
2.720716239741358,-0.679953271484375,2.7341782958984373,8.097190014648437,8.573363023836489
2.723203183287739,-0.7517793212890624,2.7246014892578123,8.82981572265625,9.271152631644636
2.7256901268341207,-0.7805097412109374,2.8012159423828122,9.725247143554688,10.150686588364524
2.7281770703805024,-0.7805097412109374,2.7820623291015623,10.481814868164061,10.872787553778302
2.7306640139268836,-0.7517793212890624,2.8203695556640622,11.219228979492186,11.592702681976789
2.7331509574732653,-0.7230489013671875,2.81558115234375,11.774683764648437,12.128209871892766
2.7356379010196465,-0.7038952880859375,2.786850732421875,12.16254443359375,12.497579472863224
2.7381248445660282,-0.622492431640625,2.6527754394531247,12.253524096679687,12.552831041144675
2.74061178811241,-0.5602431884765625,2.6623522460937497,12.248735693359373,12.547251412093836
2.743098731658791,-0.45010991210937495,2.5665841796874997,11.9518546875,12.232611485513507
2.745585675205173,-0.44053310546874996,2.4660277099609376,11.420341918945311,11.691859203263123
2.748072618751554,-0.3064578125,2.4756045166015626,10.884040747070312,11.166238269773183
2.7505595622979357,-0.2920926025390625,2.360682836914062,10.127473022460936,10.403069324273137
2.753046505844317,-0.2346317626953125,2.31758720703125,9.351751684570312,9.637506010173174
2.7555334493906987,-0.2154781494140625,2.327164013671875,8.56166513671875,8.874921582341424
2.7580203929370803,-0.2154781494140625,2.27927998046875,7.8721350585937495,8.198296069487936
2.7605073364834616,-0.239420166015625,2.2744915771484373,7.331045483398437,7.679509218047125
2.7629942800298433,-0.2537853759765625,2.3511060302734372,6.957550024414062,7.348442619009269
2.7654812235762245,-0.3447650390625,2.3319524169921872,6.813897924804687,7.2101366101436035
2.767968167122606,-0.37828386230468747,2.437297290039062,6.880935571289062,7.309636864902595
2.770455110668988,-0.469263525390625,2.5426421630859375,7.067683300781249,7.525781332586439
2.772942054215369,-0.5267243652343749,2.6192566162109374,7.532158422851562,7.9919555983144726
2.775428997761751,-0.603338818359375,2.6431986328124997,8.068459594726562,8.511789293325833
2.777915941308132,-0.679953271484375,2.748543505859375,8.801085302734375,9.24531937582532
2.7804028848545137,-0.7422025146484375,2.7437551025390623,9.5001921875,9.916285001697744
2.782889828400895,-0.7422025146484375,2.8012159423828122,10.280701928710936,10.681315811996706
2.7853767719472766,-0.7757213378906249,2.767697119140625,10.941501586914061,11.312751562453807
2.7878637154936583,-0.7613561279296874,2.7724855224609373,11.415553515625,11.77205169857361
2.7903506590400395,-0.689530078125,2.8012159423828122,11.865663427734374,12.211315697531195
2.792837602586421,-0.6272808349609375,2.7581203125,12.033257543945313,12.36122955142615
2.7953245461328025,-0.5889736083984375,2.6575638427734374,12.052411157226562,12.355976294597117
2.797811489679184,-0.51714755859375,2.5809493896484375,11.832144604492187,12.121402034867902
2.800298433225566,-0.45968671875,2.5426421630859375,11.425130322265625,11.713664837686407
2.802785376771947,-0.3495534423828125,2.4851813232421875,10.864887133789061,11.150967951189195
2.8052723203183287,-0.32082302246093747,2.375048046875,10.242394702148436,10.519050806574901
2.80775926386471,-0.26815058593749996,2.346317626953125,9.514557397460937,9.803260356272714
2.8102462074110917,-0.258573779296875,2.269703173828125,8.772354882812499,9.064911642516414
2.812733150957473,-0.24899697265624998,2.27927998046875,8.164227661132813,8.480078420897048
2.8152200945038546,-0.229843359375,2.3032219970703123,7.632714892578124,7.975963651435557
2.8177070380502363,-0.277727392578125,2.3032219970703123,7.206546997070312,7.570751857864576
2.8201939815966175,-0.36391865234375,2.375048046875,7.000645654296875,7.401508602137416
2.822680925142999,-0.3591302490234375,2.418143676757812,6.9527616210937495,7.370026291470174
2.8251678686893804,-0.44053310546874996,2.499546533203125,7.163451367187499,7.599791956278945
2.827654812235762,-0.5123591552734374,2.5234885498046875,7.493851196289062,7.923907629264168
2.8301417557821438,-0.6081272216796875,2.6288334228515624,7.982268334960937,8.42598312686237
2.832628699328525,-0.679953271484375,2.710236279296875,8.671798413085938,9.110861916318294
2.8351156428749067,-0.7422025146484375,2.6958710693359373,9.370905297851563,9.779184602845753
2.837602586421288,-0.7422025146484375,2.7150246826171873,10.022128149414062,10.409864371991056
2.8400895299676696,-0.7230489013671875,2.825157958984375,10.673351000976561,11.064571333631884
2.842576473514051,-0.7805097412109374,2.7629087158203123,11.195286962890624,11.557565064041379
2.8450634170604325,-0.679953271484375,2.7724855224609373,11.678915698242188,12.022731981970887
2.847550360606814,-0.689530078125,2.7198130859375,11.884817041015625,12.211540076890028
2.8500373041531954,-0.59376201171875,2.6958710693359373,11.947066284179687,12.261837829119493
2.852524247699577,-0.5267243652343749,2.6623522460937497,11.860875024414062,12.16741198381896
2.8550111912459584,-0.44053310546874996,2.6336218261718747,11.458649145507811,11.765656529924275
2.85749813479234,-0.39264907226562495,2.499546533203125,10.960655200195312,11.248905217094121
2.8599850783387217,-0.33518823242187495,2.422932080078125,10.395623608398436,10.679510345672067
2.862472021885103,-0.32082302246093747,2.4133552734375,9.725247143554688,10.025350023355204
2.8649589654314846,-0.258573779296875,2.384624853515625,9.054870678710937,9.367175620192212
2.867445908977866,-0.2825157958984375,2.3223756103515623,8.384494213867187,8.704768053938041
2.8699328525242476,-0.27293898925781246,2.3223756103515623,7.805097412109374,8.147850623319583
2.8724197960706292,-0.3064578125,2.3127988037109373,7.3837179199218745,7.743529235320574
2.8749067396170105,-0.354341845703125,2.35589443359375,7.115567333984375,7.503805381959197
2.877393683163392,-0.43574470214843747,2.384624853515625,7.024587670898437,7.4310928593036145
2.8798806267097734,-0.4213794921875,2.4851813232421875,7.1586629638671875,7.589475760292784
2.882367570256155,-0.5315127685546874,2.5330653564453125,7.455543969726562,7.892025203183666
2.8848545138025363,-0.5889736083984375,2.6192566162109374,7.9104422851562495,8.353591579658577
2.887341457348918,-0.6368576416015624,2.6719290527343746,8.518569506835936,8.95046473437594
2.8898284008952997,-0.6751648681640625,2.7054478759765623,9.193734375,9.60729137514241
2.892315344441681,-0.7230489013671875,2.7629087158203123,9.82580361328125,10.232442569225347
2.8948022879880626,-0.7565677246093749,2.7581203125,10.481814868164061,10.86499265119912
2.897289231534444,-0.737414111328125,2.7964275390625,11.037269653320312,11.409868884124764
2.8997761750808255,-0.718260498046875,2.829946362304687,11.487379565429686,11.852610844739129
2.902263118627207,-0.6943184814453125,2.77727392578125,11.774683764648437,12.117693937790985
2.9047500621735884,-0.612915625,2.7437551025390623,11.875240234375,12.2034908223097
2.90723700571997,-0.5410895751953124,2.6910826660156246,11.812990991210937,12.127714541583899
2.9097239492663514,-0.488417138671875,2.5905261962890624,11.559205615234374,11.855994759204062
2.912210892812733,-0.43574470214843747,2.5330653564453125,11.042058056640624,11.3372545032603
2.9146978363591143,-0.3687070556640625,2.47081611328125,10.548852514648438,10.84062574459387
2.917184779905496,-0.3112462158203125,2.360682836914062,9.873687646484374,10.156741869502307
2.9196717234518776,-0.26336218261718747,2.384624853515625,9.260772021484375,9.566488058067344
2.922158666998259,-0.24899697265624998,2.3319524169921872,8.595183959960938,8.909387682275224
2.9246456105446406,-0.22505495605468748,2.2840683837890623,8.020575561523437,8.342496655868466
2.927132554091022,-0.26815058593749996,2.2936451904296873,7.541735229492187,7.887362250339681
2.9296194976374035,-0.3064578125,2.2936451904296873,7.244854223632812,7.6054347260438515
2.932106441183785,-0.38307226562499996,2.3511060302734372,7.086836914062499,7.476476534624989
2.9345933847301664,-0.43574470214843747,2.437297290039062,7.153874560546875,7.570218804864357
2.937080328276548,-0.4836287353515625,2.4851813232421875,7.426813549804687,7.846501288256572
2.9395672718229293,-0.51714755859375,2.5761609863281247,7.809885815429687,8.240046327229502
2.942054215369311,-0.6177040283203125,2.6527754394531247,8.341398583984375,8.774833681367722
2.9445411589156922,-0.6607996582031249,2.748543505859375,8.978256225585938,9.412769647885565
2.947028102462074,-0.70868369140625,2.7341782958984373,9.576806640625,9.984647663295203
2.9495150460084556,-0.74699091796875,2.7581203125,10.261548315429687,10.651976197854122
2.952001989554837,-0.7661445312499999,2.7341782958984373,10.826579907226561,11.192745011126103
2.9544889331012185,-0.7278373046875,2.7916391357421872,11.334150659179686,11.695553316166169
2.9569758766475998,-0.689530078125,2.786850732421875,11.659762084960937,12.00799902612138
2.9594628201939814,-0.6368576416015624,2.729389892578125,11.803414184570311,12.13160101775069
2.961949763740363,-0.584185205078125,2.7341782958984373,11.832144604492187,12.157987055808533
2.9644367072867444,-0.5123591552734374,2.5809493896484375,11.597512841796874,11.892271262108116
2.966923650833126,-0.4644751220703125,2.5522189697265625,11.219228979492186,11.5152358943589
2.9694105943795073,-0.38786066894531246,2.5043349365234375,10.740388647460938,11.035310492746198
2.971897537925889,-0.33039982910156246,2.461239306640625,10.151415039062499,10.450745919164213
2.97438448147227,-0.32082302246093747,2.3511060302734372,9.414000927734374,9.708452010733366
2.976871425018652,-0.26815058593749996,2.408566870117187,8.777143286132812,9.10556661443268
2.9793583685650336,-0.24899697265624998,2.3032219970703123,8.226476904296874,8.546446824096574
2.981845312111415,-0.26815058593749996,2.327164013671875,7.709329345703124,8.057378981020278
2.9843322556577965,-0.27293898925781246,2.35589443359375,7.378929516601562,7.75069900622317
2.9868191992041777,-0.316034619140625,2.3319524169921872,7.1778165771484375,7.553736212682964
2.9893061427505594,-0.45010991210937495,2.403778466796875,7.134720947265625,7.542214054623903
2.991793086296941,-0.469263525390625,2.446874096679687,7.350199096679687,7.760981114659084
2.9942800298433223,-0.51714755859375,2.5809493896484375,7.694964135742187,8.132724906182714
2.996766973389704,-0.6177040283203125,2.5857377929687497,8.183381274414062,8.604378378652392
2.9992539169360852,-0.6560112548828124,2.6910826660156246,8.75320126953125,9.181002622087968
3.001740860482467,-0.74699091796875,2.6910826660156246,9.366116894531249,9.773641441595924
3.0042278040288486,-0.7326257080078125,2.73896669921875,10.0748005859375,10.466149523768031
3.00671474757523,-0.74699091796875,2.7820623291015623,10.678139404296875,11.05986109190036
3.0092016911216115,-0.718260498046875,2.806004345703125,11.176133349609374,11.545367693556157
3.0116886346679927,-0.6655880615234374,2.7724855224609373,11.573570825195311,11.919615139999701
3.0141755782143744,-0.6703764648437499,2.7198130859375,11.717222924804688,12.047410547359204
3.0166625217607557,-0.603338818359375,2.7341782958984373,11.793837377929687,12.12164793996892
3.0191494653071373,-0.488417138671875,2.6240450195312497,11.650185278320311,11.952028304227968
3.021636408853519,-0.43574470214843747,2.5617957763671875,11.324573852539062,11.618891684961806
3.0241233523999003,-0.43574470214843747,2.4851813232421875,10.864887133789061,11.154002514112022
3.026610295946282,-0.3591302490234375,2.398990063476562,10.28549033203125,10.567660064116902
3.029097239492663,-0.316034619140625,2.389413256835937,9.629479077148437,9.926532168369686
3.031584183039045,-0.2825157958984375,2.360682836914062,9.02135185546875,9.329385185080644
3.0340711265854265,-0.258573779296875,2.31758720703125,8.389282617187499,8.707360891371112
3.036558070131808,-0.296881005859375,2.2840683837890623,7.829039428710937,8.160818898234131
3.0390450136781895,-0.26336218261718747,2.3223756103515623,7.493851196289062,7.849878589310263
3.0415319572245707,-0.316034619140625,2.370259643554687,7.240065820312499,7.624733552119487
3.0440189007709524,-0.4070142822265625,2.384624853515625,7.153874560546875,7.5518221341594485
3.0465058443173336,-0.45489831542968745,2.4516625,7.287949853515625,7.702713454273463
3.0489927878637153,-0.5315127685546874,2.5378537597656248,7.56567724609375,7.997667142433092
3.051479731410097,-0.5698199951171875,2.6144682128906247,7.987056738281249,8.423373089420577
3.0539666749564782,-0.612915625,2.6671406494140624,8.571241943359375,8.997527063517452
3.05645361850286,-0.7038952880859375,2.729389892578125,9.17458076171875,9.597810683463026
3.058940562049241,-0.7278373046875,2.7341782958984373,9.792284790039062,10.192856297676682
3.061427505595623,-0.737414111328125,2.77727392578125,10.424354028320312,10.813148798484564
3.0639144491420045,-0.7278373046875,2.767697119140625,10.984597216796875,11.351267352179478
3.0664013926883857,-0.699106884765625,2.825157958984375,11.449072338867186,11.813192851644859
3.0688883362347674,-0.6607996582031249,2.81558115234375,11.726799731445311,12.078161505591012
3.0713752797811487,-0.6177040283203125,2.7533319091796873,11.803414184570311,12.136019993442076
3.0738622233275303,-0.5506663818359374,2.7198130859375,11.712434521484374,12.036683060817879
3.0763491668739116,-0.507570751953125,2.5905261962890624,11.439495532226562,11.740124022927935
3.0788361104202933,-0.4213794921875,2.5570073730468748,11.01332763671875,11.314116537139135
3.081323053966675,-0.4070142822265625,2.4947581298828125,10.520122094726561,10.819540084518692
3.083809997513056,-0.2920926025390625,2.427720483398437,9.897629663085937,10.195205627233275
3.086296941059438,-0.2442085693359375,2.384624853515625,9.246406811523437,9.55207372466987
3.088783884605819,-0.2346317626953125,2.379836450195312,8.614337573242187,8.940105447896899
3.091270828152201,-0.28730419921875,2.308010400390625,8.039729174804688,8.369390713511091
3.0937577716985825,-0.27293898925781246,2.3511060302734372,7.575254052734374,7.93641412861714
3.0962447152449637,-0.2920926025390625,2.370259643554687,7.311891870117187,7.692022594000089
3.0987316587913454,-0.3687070556640625,2.35589443359375,7.134720947265625,7.522660863716068
3.1012186023377266,-0.411802685546875,2.442085693359375,7.206546997070312,7.620215456699193
3.1037055458841083,-0.47884033203125,2.518700146484375,7.4794859863281244,7.906696472684342
3.1061924894304895,-0.5698199951171875,2.6048914062499997,7.8529814453124995,8.293338992565833
3.108679432976871,-0.6272808349609375,2.6001030029296874,8.350975390624999,8.76885436340333
3.111166376523253,-0.6560112548828124,2.7054478759765623,8.98304462890625,9.404514329888622
3.113653320069634,-0.6943184814453125,2.729389892578125,9.624690673828125,10.028275918933335
3.116140263616016,-0.7326257080078125,2.7629087158203123,10.223241088867187,10.615322103501718
3.118627207162397,-0.737414111328125,2.767697119140625,10.802637890625,11.175907672795624
3.1211141507087787,-0.7134720947265625,2.77727392578125,11.314997045898437,11.672679685379372
3.1236010942551604,-0.7422025146484375,2.7341782958984373,11.635820068359374,11.975763198633619
3.1260880378015417,-0.622492431640625,2.73896669921875,11.77947216796875,12.10972336442206
3.1285749813479233,-0.603338818359375,2.70065947265625,11.77947216796875,12.100146440144336
3.1310619248943046,-0.507570751953125,2.6048914062499997,11.563994018554688,11.864613140248693
3.1335488684406863,-0.488417138671875,2.5761609863281247,11.176133349609374,11.479595523235057
3.136035811987068,-0.38786066894531246,2.4947581298828125,10.673351000976561,10.967892943276683
3.138522755533449,-0.373495458984375,2.4660277099609376,10.002974536132811,10.309233293252149
3.141009699079831,-0.3016694091796875,2.384624853515625,9.404424121093749,9.706731333144498
3.143496642626212,-0.258573779296875,2.365471240234375,8.844180932617187,9.158703563091516
3.1459835861725938,-0.24899697265624998,2.3223756103515623,8.221688500976562,8.54702227533297
3.148470529718975,-0.26815058593749996,2.29843359375,7.709329345703124,8.049127945444559
3.1509574732653567,-0.2825157958984375,2.3415292236328122,7.350199096679687,7.719326462903968
3.1534444168117384,-0.3495534423828125,2.3319524169921872,7.182604980468749,7.559762164886661
3.1559313603581196,-0.373495458984375,2.442085693359375,7.206546997070312,7.61824133331149
3.1584183039045013,-0.45010991210937495,2.5139117431640625,7.3549875,7.7857685754557036
3.1609052474508825,-0.5267243652343749,2.50912333984375,7.714117749023437,8.1290067743408
3.163392190997264,-0.59376201171875,2.6384102294921874,8.202534887695313,8.636859408923366
3.165879134543646,-0.63206923828125,2.6623522460937497,8.75320126953125,9.170941253174908
3.168366078090027,-0.679953271484375,2.7150246826171873,9.3852705078125,9.793722376269299
3.170853021636409,-0.7038952880859375,2.73896669921875,10.0748005859375,10.464177655335627
3.17333996518279,-0.7278373046875,2.7964275390625,10.63025537109375,11.015992164938636
3.1758269087291717,-0.7278373046875,2.834734765625,11.109095703125,11.488145005819177
3.178313852275553,-0.70868369140625,2.77727392578125,11.49216796875,11.844214100363649
3.1808007958219346,-0.6751648681640625,2.7581203125,11.741164941406248,12.079653531402931
3.1832877393683163,-0.59376201171875,2.70065947265625,11.79862578125,12.118320231772445
3.1857746829146976,-0.5363011718749999,2.6671406494140624,11.6837041015625,11.996257738294043
3.1882616264610792,-0.5123591552734374,2.5809493896484375,11.295843432617186,11.598271013824428
3.1907485700074605,-0.40222587890625,2.4947581298828125,10.89840595703125,11.187531282125315
3.193235513553842,-0.38307226562499996,2.461239306640625,10.290278735351562,10.587458606127933
3.195722457100224,-0.28730419921875,2.379836450195312,9.686939916992188,9.979126724718128
3.198209400646605,-0.2825157958984375,2.346317626953125,8.997409838867187,9.302602076302476
3.2006963441929868,-0.27293898925781246,2.308010400390625,8.40843623046875,8.723715237330245
3.203183287739368,-0.27293898925781246,2.2553379638671873,7.867346655273437,8.188784306437666
3.2056702312857497,-0.2920926025390625,2.370259643554687,7.50821640625,7.878880787865984
