Time (s),Acceleration x (m/s^2),Acceleration y (m/s^2),Acceleration z (m/s^2),Absolute acceleration (m/s^2)
0.0,1.1923124267578125,0.8188169677734375,1.867477294921875,2.3621053314286207
0.002486943546381497,0.70868369140625,1.0534487304687499,-2.4947581298828125,2.799250779906616
0.004973887092762994,0.22026655273437498,1.4508862060546874,-5.664681127929687,5.851683554183018
0.007460830639144491,-0.32561142578124996,1.85790048828125,-7.484274389648437,7.7183016373100175
0.009947774185525988,-0.9145850341796874,2.346317626953125,-7.905653881835937,8.297049806448316
0.012434717731907486,-1.369483349609375,2.77727392578125,-6.8569935546875,7.5237687173854315
0.014921661278288981,-1.7525556152343749,3.1699229980468746,-4.61602080078125,5.867496146678001
0.01740860482467048,-2.0350714111328125,3.4955344238281247,-1.3934253662109375,4.2780732588137855
0.019895548371051976,-2.1883003173828124,3.778050219726562,2.6479870361328124,5.106286036383105
0.022382491917433474,-2.1691467041015624,3.88818349609375,6.924031201171875,8.231972813245445
0.02486943546381497,-1.9680337646484374,3.9600095458984375,11.353304272460937,12.184102363550744
0.027356379010196465,-1.7717092285156248,3.835511059570312,15.217545751953125,15.793156663291866
0.029843322556577963,-1.47482822265625,3.6248213134765623,18.588581689453125,18.996047406406664
0.032330266102959464,-1.0438719238281249,3.366247534179687,21.078551416015625,21.371163301335326
0.03481720964934096,-0.59376201171875,3.0119056884765625,22.467188378906247,22.675949436707114
0.03730415319572245,-0.17238251953125,2.6862942626953124,22.907721484375,23.06533321251886
0.03979109674210395,0.1771709228515625,2.3223756103515623,22.10805812988281,22.230408279780587
0.04227804028848545,0.5027823486328125,2.04943662109375,20.427328564453124,20.536034983270245
0.04476498383486695,0.6943184814453125,1.7956512451171873,17.922993627929685,18.02609614238689
0.04725192738124844,0.814028564453125,1.5945383056640625,14.930241552734374,15.037197469441297
0.04973887092762994,0.8379705810546875,1.4939818359375,11.554417211914062,11.680699188310614
0.05222581447401144,0.699106884765625,1.5275006591796874,8.226476904296874,8.396245051036264
0.05471275802039293,0.49799394531249996,1.5370774658203123,5.104437939453125,5.354053771043859
0.05719970156677443,0.27293898925781246,1.7381904052734374,2.5761609863281247,3.1196805933173364
0.059686645113155926,-0.0430956298828125,1.93451494140625,0.699106884765625,2.0574148167459376
0.062173588659537427,-0.37828386230468747,2.2074539306640624,-0.430956298828125,2.2807180597311905
0.06466053220591893,-0.70868369140625,2.4660277099609376,-0.7517793212890624,2.673704805822479
0.06714747575230041,-0.967257470703125,2.710236279296875,-0.1580173095703125,2.88200228562918
0.06963441929868192,-1.24498486328125,2.916137622070312,1.139639990234375,3.3693657041043696
0.07212136284506342,-1.37906015625,3.1603461914062496,3.0980969482421874,4.635493465080047
0.0746083063914449,-1.4604630126953124,3.2561142578125,5.453991381835937,6.517764514350115
0.0770952499378264,-1.5322890624999999,3.31357509765625,8.092401611328125,8.877761741446477
0.0795821934842079,-1.484405029296875,3.289633081054687,10.625466967773438,11.221661747807927
0.0820691370305894,-1.2976572998046874,3.2561142578125,13.043610644531249,13.506367874961615
0.0845560805769709,-1.0678139404296874,3.1603461914062496,15.112200878906249,15.476001746747341
0.0870430241233524,-0.8714894042968749,2.940079638671875,16.606182714843747,16.88694366729249
0.0895299676697339,-0.5793968017578125,2.8203695556640622,17.49203732910156,17.727423811910356
0.09201691121611538,-0.32082302246093747,2.5617957763671875,17.621324218749997,17.809457943291225
0.09450385476249688,-0.1005564697265625,2.3319524169921872,17.20473312988281,17.36234303742461
0.09699079830887838,0.1197100830078125,2.221819140625,16.09382355957031,16.24690639981045
0.09947774185525989,0.229843359375,2.0302830078125,14.551957690429687,14.69470481791712
0.10196468540164137,0.3399766357421875,1.9393033447265624,12.708422412109375,12.86003428379264
0.10445162894802287,0.37828386230468747,1.9201497314453124,10.611101757812499,10.790067385623741
0.10693857249440437,0.3016694091796875,1.8914193115234375,8.504204296874999,8.717222158889022
0.10942551604078586,0.15322890625,1.9776105712890624,6.622361791992187,6.9130382881496315
0.11191245958716736,-0.0047884033203125,2.0733786376953125,5.0182466796875,5.4297073256532205
0.11439940313354886,-0.16280571289062498,2.2266075439453124,3.835511059570312,4.437953576029179
0.11688634667993036,-0.4070142822265625,2.3415292236328122,3.1507693847656246,3.946614681855734
0.11937329022631185,-0.6177040283203125,2.5761609863281247,3.0789433349609374,4.061779875126497
0.12186023377269335,-0.7852981445312499,2.6862942626953124,3.4763808105468748,4.462969144138521
0.12434717731907485,-0.97683427734375,2.844311572265625,4.376600634765625,5.310268038597365
0.12683412086545634,-1.0534487304687499,2.920926025390625,5.6407391113281244,6.438905248223279
0.12932106441183785,-1.120486376953125,3.0885201416015624,7.201758593749999,7.915792646896964
0.13180800795821934,-1.1156979736328125,3.0597897216796874,8.911218579101561,9.487724262107845
0.13429495150460083,-1.1109095703125,3.0166940917968748,10.577582934570312,11.055307506107967
0.13678189505098234,-1.0678139404296874,2.9448680419921875,12.109871997070313,12.508456107032178
0.13926883859736383,-0.8954314208984374,2.868253588867187,13.3692220703125,13.702728737186346
0.14175578214374532,-0.718260498046875,2.767697119140625,14.360421557617187,14.642327437905161
0.14424272569012683,-0.5698199951171875,2.6431986328124997,14.877569116210937,15.121284887435019
0.14672966923650832,-0.4261678955078125,2.461239306640625,14.920664746093749,15.128303092714637
0.1492166127828898,-0.2059013427734375,2.389413256835937,14.595053320312498,14.7907833632186
0.15170355632927132,-0.08140285644531249,2.2553379638671873,13.795389965820311,13.978768188411802
0.1541904998756528,0.01915361328125,2.1643583007812497,12.66053837890625,12.844222271465895
0.15667744342203432,0.062249243164062495,2.1547814941406247,11.367669482421874,11.570257893294817
0.1591643869684158,0.09576806640624999,2.068590234375,9.916783276367187,10.13068742143053
0.1616513305147973,0.06703764648437499,2.1260510742187497,8.532934716796875,8.794064026225318
0.1641382740611788,-0.023942016601562498,2.1691467041015624,7.273584643554687,7.590178140928459
0.1666252176075603,-0.13407529296874998,2.2744915771484373,6.186617089843749,6.592838473301965
0.1691121611539418,-0.27293898925781246,2.365471240234375,5.434837768554687,5.933583356686036
0.1715991047003233,-0.4070142822265625,2.4516625,5.061342309570312,5.638572125502093
0.1740860482467048,-0.5746083984375,2.6336218261718747,5.070919116210937,5.742852898864579
0.17657299179308628,-0.7422025146484375,2.710236279296875,5.425260961914062,6.109803742121029
0.1790599353394678,-0.8475473876953125,2.844311572265625,6.0716954101562495,6.7582490371564266
0.18154687888584928,-0.93852705078125,2.829946362304687,7.024587670898437,7.631137620611229
0.18403382243223076,-0.97683427734375,2.887407202148437,8.145074047851562,8.696755533036294
0.18652076597861228,-0.9720458740234375,2.89219560546875,9.399635717773437,9.882450112615844
0.18900770952499377,-0.9241618408203125,2.85388837890625,10.63025537109375,11.04541005313755
0.19149465307137528,-0.9097966308593749,2.77727392578125,11.693280908203125,12.052958091957972
0.19398159661775677,-0.7996633544921875,2.748543505859375,12.593500732421875,12.91472855237886
0.19646854016413826,-0.63206923828125,2.5713725830078125,13.259088793945311,13.520906187395571
0.19895548371051977,-0.5267243652343749,2.5139117431640625,13.498508959960937,13.740703582840853
0.20144242725690126,-0.39743747558593745,2.4756045166015626,13.555969799804688,13.78589465659864
0.20392937080328274,-0.258573779296875,2.3319524169921872,13.168109130859374,13.375498516192867
0.20641631434966426,-0.16759411621093748,2.2840683837890623,12.540828295898438,12.748232446767679
0.20890325789604575,-0.13407529296874998,2.24097275390625,11.6837041015625,11.897431512759516
0.21139020144242723,-0.06703764648437499,2.1739351074218747,10.644620581054687,10.864549471190259
0.21387714498880875,-0.076614453125,2.231395947265625,9.562441430664062,9.81963765944455
0.21636408853519024,-0.105344873046875,2.221819140625,8.499415893554687,8.785650139149345
0.21885103208157172,-0.11013327636718749,2.288856787109375,7.522581616210937,7.863855854669183
0.22133797562795324,-0.2346317626953125,2.379836450195312,6.770802294921874,7.180698943046077
0.22382491917433472,-0.3687070556640625,2.384624853515625,6.210559106445312,6.662839109535189
0.22631186272071624,-0.40222587890625,2.518700146484375,6.004657763671875,6.523921439164273
0.22879880626709773,-0.5698199951171875,2.6240450195312497,5.9950809570312495,6.568965121898641
0.2312857498134792,-0.679953271484375,2.6910826660156246,6.296750366210937,6.881375410563621
0.23377269335986073,-0.7661445312499999,2.73896669921875,6.943184814453125,7.50311477919977
0.23625963690624222,-0.8906430175781249,2.8012159423828122,7.71890615234375,8.259634854478161
0.2387465804526237,-0.8714894042968749,2.834734765625,8.657433203124999,9.151303985761587
0.24123352399900522,-0.8714894042968749,2.806004345703125,9.619902270507811,10.058611925311956
0.2437204675453867,-0.8906430175781249,2.7820623291015623,10.563217724609375,10.95968450664837
0.2462074110917682,-0.8283937744140625,2.710236279296875,11.4538607421875,11.799260266496749
0.2486943546381497,-0.689530078125,2.6910826660156246,12.138602416992187,12.452431340175194
0.2511812981845312,-0.612915625,2.6096798095703124,12.655749975585938,12.936541335163412
0.2536682417309127,-0.5410895751953124,2.480392919921875,12.856862915039061,13.105115450910393
0.2561551852772942,-0.44053310546874996,2.39420166015625,12.866439721679686,13.09471428165295
0.2586421288236757,-0.3016694091796875,2.29843359375,12.492944262695312,12.706197612508829
0.26112907237005717,-0.2537853759765625,2.308010400390625,11.927912670898436,12.151807261059991
0.2636160159164387,-0.16759411621093748,2.2457611572265623,11.238382592773437,11.461796293105593
0.2661029594628202,-0.1197100830078125,2.1883003173828124,10.342951171874999,10.572588506454881
0.26858990300920166,-0.13407529296874998,2.2457611572265623,9.452308154296874,9.71635470756803
0.2710768465555832,-0.15322890625,2.2744915771484373,8.508992700195313,8.809071903680142
0.2735637901019647,-0.22505495605468748,2.2840683837890623,7.656656909179687,7.993247971879679
0.27605073364834615,-0.316034619140625,2.39420166015625,7.067683300781249,7.468883899896452
0.27853767719472766,-0.32082302246093747,2.5043349365234375,6.612784985351562,7.078385843433789
0.2810246207411092,-0.44532150878906246,2.50912333984375,6.440402465820312,6.926239607643037
0.28351156428749064,-0.5458779785156249,2.6527754394531247,6.4643444824218745,7.008776632695049
0.28599850783387215,-0.6560112548828124,2.7198130859375,6.79953271484375,7.35264436303023
0.28848545138025367,-0.7038952880859375,2.7629087158203123,7.311891870117187,7.8481141600279525
0.2909723949266351,-0.7852981445312499,2.7964275390625,8.0062103515625,8.516813039541134
0.29345933847301664,-0.8283937744140625,2.7820623291015623,8.8489693359375,9.312913902579373
0.29594628201939815,-0.7900865478515624,2.877830395507812,9.686939916992188,10.136219684567875
0.2984332255657796,-0.8188169677734375,2.710236279296875,10.520122094726561,10.894439444243316
0.30092016911216113,-0.7948749511718749,2.6862942626953124,11.353304272460937,11.69382405190321
0.30340711265854264,-0.699106884765625,2.6192566162109374,11.923124267578125,12.22743423445826
0.30589405620492416,-0.6512228515624999,2.518700146484375,12.334926953124999,12.606282741919886
0.3083809997513056,-0.5602431884765625,2.4564509033203126,12.536039892578124,12.786724352193087
0.31086794329768713,-0.45489831542968745,2.427720483398437,12.483367456054687,12.72537709719356
0.31335488684406865,-0.32561142578124996,2.327164013671875,12.205640063476562,12.429777331323068
0.3158418303904501,-0.2442085693359375,2.269703173828125,11.726799731445311,11.946925222166932
0.3183287739368316,-0.21068974609375,2.2361843505859373,11.042058056640624,11.26818338265475
0.32081571748321314,-0.229843359375,2.2457611572265623,10.24718310546875,10.492903923231193
0.3233026610295946,-0.19153613281249998,2.2553379638671873,9.414000927734374,9.68228531333471
0.3257896045759761,-0.181959326171875,2.31758720703125,8.580818749999999,8.89015017189965
0.3282765481223576,-0.19632453613281248,2.384624853515625,7.857769848632812,8.213983565212137
0.3307634916687391,-0.24899697265624998,2.398990063476562,7.268796240234375,7.658495387417599
0.3332504352151206,-0.36391865234375,2.43250888671875,6.847416748046874,7.275757856809297
0.3357373787615021,-0.4213794921875,2.5809493896484375,6.660669018554687,7.155653163974418
0.3382243223078836,-0.5315127685546874,2.6001030029296874,6.6510922119140625,7.1610103379596195
0.3407112658542651,-0.603338818359375,2.6862942626953124,6.981492041015625,7.504760203650317
0.3431982094006466,-0.7134720947265625,2.7629087158203123,7.436390356445312,7.965086850458204
0.34568515294702806,-0.70868369140625,2.825157958984375,8.092401611328125,8.600622878995683
0.3481720964934096,-0.7852981445312499,2.77727392578125,8.82981572265625,9.289541933308453
0.3506590400397911,-0.7948749511718749,2.7820623291015623,9.600748657226562,10.027266415641112
0.35314598358617255,-0.7661445312499999,2.7581203125,10.453084448242187,10.837950894106877
0.35563292713255407,-0.7565677246093749,2.710236279296875,11.1474029296875,11.497059079970974
0.3581198706789356,-0.7134720947265625,2.6431986328124997,11.774683764648437,12.08878485208215
0.36060681422531704,-0.603338818359375,2.5665841796874997,12.172121240234373,12.454393103163488
0.36309375777169856,-0.5363011718749999,2.442085693359375,12.368445776367187,12.618631162039739
0.36558070131808007,-0.4836287353515625,2.360682836914062,12.358868969726561,12.591598882629182
0.36806764486446153,-0.354341845703125,2.3319524169921872,12.105083593749999,12.332745397129035
0.37055458841084304,-0.26815058593749996,2.2936451904296873,11.659762084960937,11.88624267269571
0.37304153195722456,-0.24899697265624998,2.2840683837890623,11.061211669921875,11.29731700365324
0.3755284755036061,-0.229843359375,2.2170307373046874,10.271125122070313,10.510188605977842
0.37801541904998753,-0.22026655273437498,2.308010400390625,9.5384994140625,9.816231478252508
0.38050236259636905,-0.1867477294921875,2.269703173828125,8.743624462890624,9.035341496579711
0.38298930614275056,-0.2346317626953125,2.3511060302734372,8.02536396484375,8.365955916562447
0.385476249689132,-0.277727392578125,2.427720483398437,7.436390356445312,7.827570554363175
0.38796319323551354,-0.3447650390625,2.47081611328125,7.005434057617187,7.436390356445312
0.39045013678189505,-0.39743747558593745,2.5809493896484375,6.818686328125,7.301625814863807
0.3929370803282765,-0.49320554199218747,2.6384102294921874,6.809109521484374,7.319045888728256
0.395424023874658,-0.584185205078125,2.6910826660156246,7.024587670898437,7.545066614371291
0.39791096742103954,-0.6464344482421874,2.7964275390625,7.45075556640625,7.984462598536926
0.400397910967421,-0.737414111328125,2.7820623291015623,7.977479931640625,8.480792205585558
0.4028848545138025,-0.7613561279296874,2.786850732421875,8.777143286132812,9.240370361822233
0.40537179806018403,-0.7613561279296874,2.7964275390625,9.495403784179686,9.927857934085134
0.4078587416065655,-0.7565677246093749,2.7533319091796873,10.319009155273436,10.706782022187836
0.410345685152947,-0.7613561279296874,2.767697119140625,10.989385620117186,11.358098731938977
0.4128326286993285,-0.689530078125,2.6862942626953124,11.592724438476562,11.919852704663784
0.41531957224571,-0.6368576416015624,2.5474305664062498,12.04762275390625,12.3304583924024
0.4178065157920915,-0.5602431884765625,2.47081611328125,12.267889306640624,12.526767848725864
0.420293459338473,-0.51714755859375,2.437297290039062,12.287042919921875,12.537116231151145
0.42278040288485447,-0.411802685546875,2.3319524169921872,12.095506787109374,12.32513155970143
0.425267346431236,-0.3112462158203125,2.3223756103515623,11.722011328125,11.953905314126805
0.4277542899776175,-0.3064578125,2.2744915771484373,11.113884106445312,11.348376459073746
0.43024123352399896,-0.2346317626953125,2.2553379638671873,10.467449658203124,10.710233598869019
0.43272817707038047,-0.22505495605468748,2.2649147705078123,9.696516723632811,9.960066527016776
0.435215120616762,-0.19632453613281248,2.250549560546875,8.916006982421875,9.197755006443753
0.43770206416314344,-0.2442085693359375,2.327164013671875,8.173804467773436,8.502141474314545
0.44018900770952496,-0.28730419921875,2.384624853515625,7.618349682617187,7.988005463288476
0.4426759512559065,-0.3399766357421875,2.4516625,7.125144140624999,7.542805323713425
0.445162894802288,-0.411802685546875,2.5570073730468748,6.842628344726562,7.316380992109082
0.44764983834866945,-0.49799394531249996,2.6144682128906247,6.8569935546875,7.3553927573454105
0.45013678189505096,-0.5793968017578125,2.6527754394531247,6.986280444335937,7.495400765333608
0.4526237254414325,-0.6512228515624999,2.7437551025390623,7.3837179199218745,7.903896101675537
0.45511066898781394,-0.7038952880859375,2.7341782958984373,7.886500268554687,8.37663930322088
0.45759761253419545,-0.7709329345703124,2.77727392578125,8.542511523437499,9.0156581111138
0.46008455608057697,-0.7900865478515624,2.767697119140625,9.313444458007812,9.748057845991259
0.4625714996269584,-0.7517793212890624,2.7964275390625,10.09395419921875,10.501099490294854
0.46505844317333994,-0.7326257080078125,2.6958710693359373,10.82179150390625,11.176566226016554
0.46754538671972146,-0.7038952880859375,2.6144682128906247,11.405976708984374,11.722935523950436
0.4700323302661029,-0.6607996582031249,2.5617957763671875,11.889605444335936,12.180401118603477
0.47251927381248443,-0.59376201171875,2.499546533203125,12.167332836914062,12.435605114446794
0.47500621735886595,-0.49799394531249996,2.446874096679687,12.248735693359373,12.500668658129687
0.4774931609052474,-0.411802685546875,2.408566870117187,12.12423720703125,12.368019391641115
0.4799801044516289,-0.354341845703125,2.3367408203125,11.774683764648437,12.009541771541764
0.48246704799801043,-0.296881005859375,2.29843359375,11.295843432617186,11.531132388916513
0.4849539915443919,-0.21068974609375,2.2601263671875,10.625466967773438,10.8652247858942
0.4874409350907734,-0.1867477294921875,2.250549560546875,9.892841259765625,10.147322613865656
0.4899278786371549,-0.2059013427734375,2.288856787109375,9.13627353515625,9.420868052576102
0.4924148221835364,-0.2059013427734375,2.346317626953125,8.403647827148436,8.727479508554774
0.4949017657299179,-0.2346317626953125,2.39420166015625,7.75721337890625,8.121675508135164
0.4973887092762994,-0.296881005859375,2.480392919921875,7.259219433593749,7.677027690057122
0.49987565282268087,-0.39743747558593745,2.4516625,6.9336080078124995,7.365020405057137
0.5023625963690624,-0.45010991210937495,2.5857377929687497,6.813897924804687,7.301906860308726
0.5048495399154439,-0.5315127685546874,2.6336218261718747,6.919242797851562,7.422559574839818
0.5073364834618254,-0.63206923828125,2.6958710693359373,7.235277416992187,7.747029859584966
0.5098234270082069,-0.679953271484375,2.748543505859375,7.709329345703124,8.212830621382826
0.5123103705545884,-0.74699091796875,2.77727392578125,8.346186987304687,8.827801714889516
0.5147973141009698,-0.7661445312499999,2.7629087158203123,9.083601098632812,9.525358309995658
0.5172842576473514,-0.737414111328125,2.7437551025390623,9.849745629882811,10.251315067233595
0.5197712011937329,-0.7565677246093749,2.6623522460937497,10.635043774414061,10.989297988857356
0.5222581447401143,-0.70868369140625,2.6671406494140624,11.228805786132812,11.562955988885877
0.5247450882864959,-0.6703764648437499,2.6288334228515624,11.765106958007811,12.073852388657137
0.5272320318328774,-0.6416460449218749,2.518700146484375,12.129025610351562,12.40438722111771
0.5297189753792588,-0.5458779785156249,2.4133552734375,12.205640063476562,12.45391166671745
0.5322059189256404,-0.4740519287109375,2.4133552734375,12.167332836914062,12.413420047319367
0.5346928624720219,-0.4070142822265625,2.3415292236328122,11.903970654296874,12.138901806564876
0.5371798060184033,-0.3112462158203125,2.3223756103515623,11.434707128906249,11.672310388533953
0.5396667495647849,-0.229843359375,2.2457611572265623,10.855310327148437,11.087562105524006
0.5421536931111663,-0.2346317626953125,2.231395947265625,10.108319409179687,10.354337314166356
0.5446406366575478,-0.19632453613281248,2.2936451904296873,9.3086560546875,9.589078638093405
0.5471275802039294,-0.21068974609375,2.3032219970703123,8.590395556640624,8.896297969180697
0.5496145237503108,-0.27293898925781246,2.3415292236328122,7.934384301757812,8.277180017672949
0.5521014672966923,-0.2920926025390625,2.422932080078125,7.398083129882812,7.790221559736694
0.5545884108430739,-0.36391865234375,2.5139117431640625,7.048529687499999,7.49225999238619
0.5570753543894553,-0.4644751220703125,2.5905261962890624,6.919242797851562,7.402869984560233
0.5595622979358368,-0.5410895751953124,2.6240450195312497,6.9336080078124995,7.433257038399346
0.5620492414822184,-0.59376201171875,2.6719290527343746,7.196970190429687,7.699879097189763
0.5645361850285998,-0.6655880615234374,2.7629087158203123,7.60398447265625,8.117712233135375
0.5670231285749813,-0.7230489013671875,2.767697119140625,8.188169677734374,8.67346930175211
0.5695100721213628,-0.74699091796875,2.8012159423828122,8.892064965820312,9.352733586698404
0.5719970156677443,-0.7613561279296874,2.7581203125,9.639055883789062,10.054764499607623
0.5744839592141258,-0.7517793212890624,2.7150246826171873,10.390835205078124,10.765964305821813
0.5769709027605073,-0.7326257080078125,2.6958710693359373,11.037269653320312,11.38533190779355
0.5794578463068888,-0.7134720947265625,2.6192566162109374,11.6070896484375,11.920322049272965
0.5819447898532703,-0.6416460449218749,2.4851813232421875,11.999738720703125,12.271168046339254
0.5844317333996518,-0.5458779785156249,2.4947581298828125,12.205640063476562,12.469941870481547
0.5869186769460333,-0.469263525390625,2.427720483398437,12.181698046874999,12.430116745510178
0.5894056204924147,-0.38307226562499996,2.360682836914062,11.980585107421874,12.216954912471866
0.5918925640387963,-0.3447650390625,2.269703173828125,11.554417211914062,11.78027896683356
0.5943795075851778,-0.2825157958984375,2.250549560546875,10.998962426757812,11.230403508540553
0.5968664511315592,-0.258573779296875,2.221819140625,10.266336718749999,10.507188506719672
0.5993533946779408,-0.2059013427734375,2.250549560546875,9.581595043945311,9.844507721241879
0.6018403382243223,-0.2537853759765625,2.29843359375,8.805873706054687,9.104428358163043
0.6043272817707037,-0.22505495605468748,2.4133552734375,8.1594392578125,8.51183778105558
0.6068142253170853,-0.258573779296875,2.389413256835937,7.541735229492187,7.915423323047654
0.6093011688634667,-0.3687070556640625,2.47081611328125,7.129932543945312,7.554919936025609
0.6117881124098483,-0.4261678955078125,2.4947581298828125,6.9144543945312495,7.363091522983431
0.6142750559562298,-0.469263525390625,2.6623522460937497,6.89530078125,7.4063149138049305
0.6167619995026112,-0.565031591796875,2.6527754394531247,7.048529687499999,7.552367111539472
0.6192489430489928,-0.622492431640625,2.77727392578125,7.498639599609374,8.020619871998926
0.6217358865953743,-0.7278373046875,2.748543505859375,8.044517578125,8.532203795647325
0.6242228301417557,-0.7422025146484375,2.7724855224609373,8.705317236328124,9.16624725447211
0.6267097736881373,-0.718260498046875,2.85388837890625,9.457096557617186,9.904405702635849
0.6291967172345188,-0.7996633544921875,2.7581203125,10.146626635742187,10.545175258092945
0.6316836607809002,-0.737414111328125,2.7198130859375,10.831368310546875,11.191948099984282
0.6341706043272818,-0.7326257080078125,2.6384102294921874,11.463437548828125,11.785938630546383
0.6366575478736632,-0.6751648681640625,2.5665841796874997,11.908759057617187,12.200891124954953
0.6391444914200447,-0.5363011718749999,2.5043349365234375,12.105083593749999,12.373049795136271
0.6416314349664263,-0.49799394531249996,2.422932080078125,12.229582080078124,12.477230289114951
0.6441183785128077,-0.430956298828125,2.370259643554687,12.081141577148436,12.319003040687516
0.6466053220591892,-0.3399766357421875,2.3367408203125,11.731588134765625,11.966875195218629
0.6490922656055708,-0.2825157958984375,2.2744915771484373,11.161768139648437,11.394656428024597
0.6515792091519522,-0.26815058593749996,2.250549560546875,10.539275708007812,10.780223119704894
0.6540661526983337,-0.2154781494140625,2.2361843505859373,9.816226806640625,10.070017874963796
0.6565530962447153,-0.21068974609375,2.3127988037109373,9.05965908203125,9.352585266020679
0.6590400397910967,-0.22505495605468748,2.3367408203125,8.418013037109375,8.739219123440202
0.6615269833374782,-0.3016694091796875,2.375048046875,7.752424975585937,8.113689090634924
0.6640139268838597,-0.32561142578124996,2.442085693359375,7.292738256835937,7.697651370192618
0.6665008704302412,-0.373495458984375,2.518700146484375,7.0102224609374995,7.458322079235716
0.6689878139766227,-0.47884033203125,2.6096798095703124,6.861781958007812,7.356885782129574
0.6714747575230042,-0.5458779785156249,2.6575638427734374,6.995857250976562,7.503508980596103
0.6739617010693857,-0.612915625,2.7246014892578123,7.321468676757812,7.836008066827191
0.6764486446157671,-0.6560112548828124,2.7724855224609373,7.809885815429687,8.313323233751845
0.6789355881621487,-0.7134720947265625,2.844311572265625,8.44674345703125,8.941287702505601
0.6814225317085302,-0.7613561279296874,2.7533319091796873,9.169792358398437,9.6044568639661
0.6839094752549116,-0.7517793212890624,2.786850732421875,9.892841259765625,10.305339263878667
0.6863964188012932,-0.74699091796875,2.6862942626953124,10.601524951171875,10.962048329926182
0.6888833623476747,-0.7326257080078125,2.6623522460937497,11.2240173828125,11.558694827704015
0.6913703058940561,-0.6847416748046875,2.5857377929687497,11.745953344726562,12.046673029168442
0.6938572494404377,-0.622492431640625,2.5426421630859375,12.08592998046875,12.366172790711989
0.6963441929868192,-0.51714755859375,2.437297290039062,12.224793676757812,12.476114784526834
0.6988311365332006,-0.45968671875,2.375048046875,12.129025610351562,12.367919281792066
0.7013180800795822,-0.3687070556640625,2.31758720703125,11.884817041015625,12.114290381756035
0.7038050236259636,-0.316034619140625,2.288856787109375,11.410765112304686,11.642349579040383
0.7062919671723451,-0.2920926025390625,2.1930887207031247,10.78348427734375,11.008110164104153
0.7087789107187267,-0.22505495605468748,2.288856787109375,10.070012182617187,10.32931074579519
0.7112658542651081,-0.19153613281249998,2.2744915771484373,9.327809667968749,9.6030219840706
0.7137527978114896,-0.2346317626953125,2.327164013671875,8.595183959960938,8.907745602348818
0.7162397413578712,-0.2346317626953125,2.379836450195312,7.987056738281249,8.337370624739412
0.7187266849042526,-0.32082302246093747,2.418143676757812,7.407659936523437,7.798959673466659
0.7212136284506341,-0.36391865234375,2.528276953125,7.110778930664062,7.555646771653811
0.7237005719970157,-0.4213794921875,2.5905261962890624,6.890512377929687,7.373435256411919
0.7261875155433971,-0.5458779785156249,2.6384102294921874,6.928819604492187,7.434227089490379
0.7286744590897786,-0.5985504150390625,2.710236279296875,7.192181787109375,7.709158329401998
0.7311614026361601,-0.6847416748046875,2.7341782958984373,7.637503295898437,8.141010914489422
0.7336483461825416,-0.7565677246093749,2.8012159423828122,8.202534887695313,8.70061975158316
0.7361352897289231,-0.7517793212890624,2.7820623291015623,8.939948999023438,9.392961782955577
0.7386222332753046,-0.7565677246093749,2.7724855224609373,9.643844287109374,10.062942081130558
0.7411091768216861,-0.7757213378906249,2.7581203125,10.36210478515625,10.750915627556658
0.7435961203680675,-0.7134720947265625,2.70065947265625,11.027692846679686,11.375966488079673
0.7460830639144491,-0.6943184814453125,2.6001030029296874,11.616666455078125,11.924326115469079
0.7485700074608306,-0.6560112548828124,2.5330653564453125,11.966219897460936,12.248966874840766
0.7510569510072121,-0.5363011718749999,2.47081611328125,12.191274853515624,12.450692099902204
0.7535438945535936,-0.45968671875,2.389413256835937,12.191274853515624,12.431725147593188
0.7560308380999751,-0.4165910888671875,2.35589443359375,11.9518546875,12.188954720921613
0.7585177816463566,-0.33039982910156246,2.3127988037109373,11.559205615234374,11.792940125718564
0.7610047251927381,-0.24899697265624998,2.2553379638671873,10.941501586914061,11.174301132513634
0.7634916687391196,-0.24899697265624998,2.2840683837890623,10.309432348632813,10.562355950509026
0.7659786122855011,-0.2059013427734375,2.327164013671875,9.586383447265625,9.866956739922076
0.7684655558318826,-0.2442085693359375,2.288856787109375,8.858546142578124,9.152723254716026
0.770952499378264,-0.258573779296875,2.3415292236328122,8.164227661132813,8.497307385711812
0.7734394429246456,-0.3112462158203125,2.398990063476562,7.599196069335937,7.9749488043330095
0.7759263864710271,-0.3064578125,2.480392919921875,7.187393383789062,7.609526206103481
0.7784133300174085,-0.4261678955078125,2.5570073730468748,6.919242797851562,7.3888988811999825
0.7809002735637901,-0.507570751953125,2.6048914062499997,6.852205151367187,7.348183635635161
0.7833872171101716,-0.5602431884765625,2.6958710693359373,7.082048510742187,7.598486978420277
0.785874160656553,-0.6177040283203125,2.70065947265625,7.4603323730468745,7.958120316392702
0.7883611042029346,-0.6655880615234374,2.7724855224609373,8.030152368164062,8.521327977247967
0.790848047749316,-0.737414111328125,2.825157958984375,8.671798413085938,9.150157637002676
0.7933349912956975,-0.7613561279296874,2.77727392578125,9.409212524414063,9.8400301799309
0.7958219348420791,-0.7661445312499999,2.7724855224609373,10.103531005859374,10.504998438904288
0.7983088783884605,-0.7613561279296874,2.7150246826171873,10.812214697265624,11.173853804329259
0.800795821934842,-0.699106884765625,2.710236279296875,11.473014355468749,11.809495735497585
0.8032827654812236,-0.6560112548828124,2.5474305664062498,11.884817041015625,12.17245371137673
0.805769709027605,-0.55545478515625,2.5234885498046875,12.109871997070313,12.382468423734261
0.8082566525739865,-0.5219359619140624,2.398990063476562,12.181698046874999,12.426638233176202
0.8107435961203681,-0.43574470214843747,2.375048046875,12.042834350585936,12.282531736823143
0.8132305396667495,-0.373495458984375,2.31758720703125,11.717222924804688,11.950063698141754
0.815717483213131,-0.3016694091796875,2.231395947265625,11.180921752929686,11.405399754109654
0.8182044267595125,-0.2442085693359375,2.27927998046875,10.587159741210938,10.832483853697655
0.820691370305894,-0.2346317626953125,2.2170307373046874,9.830592016601562,10.080219082494668
0.8231783138522755,-0.22505495605468748,2.269703173828125,9.121908325195312,9.402734374840001
0.825665257398657,-0.229843359375,2.3319524169921872,8.422801440429687,8.742677744825604
0.8281522009450385,-0.258573779296875,2.384624853515625,7.742848168945312,8.10586169748066
0.83063914449142,-0.3495534423828125,2.446874096679687,7.273584643554687,7.68208396342023
0.8331260880378015,-0.3591302490234375,2.6048914062499997,7.000645654296875,7.478199873709211
0.835613031584183,-0.44532150878906246,2.6479870361328124,6.9144543945312495,7.41753504634593
0.8380999751305644,-0.5506663818359374,2.6479870361328124,6.976703637695312,7.482610671138965
0.840586918676946,-0.584185205078125,2.7629087158203123,7.307103466796875,7.833817587885418
0.8430738622233275,-0.6464344482421874,2.7724855224609373,7.785943798828124,8.290082889009
0.8455608057697089,-0.7278373046875,2.7533319091796873,8.427589843749999,8.895777330772166
0.8480477493160905,-0.7757213378906249,2.73896669921875,9.117119921875,9.551207140636103
0.850534692862472,-0.7709329345703124,2.767697119140625,9.897629663085937,10.306190269954419
0.8530216364088534,-0.7230489013671875,2.7533319091796873,10.611101757812499,10.986314979579225
0.855508579955235,-0.7422025146484375,2.6384102294921874,11.267113012695312,11.59568491951586
0.8579955235016165,-0.699106884765625,2.6048914062499997,11.745953344726562,12.05162352760718
0.8604824670479979,-0.5985504150390625,2.5857377929687497,12.090718383789062,12.37860143834614
0.8629694105943795,-0.5027823486328125,2.461239306640625,12.20085166015625,12.456776077612822
0.8654563541407609,-0.44532150878906246,2.389413256835937,12.16254443359375,12.403027616565069
0.8679432976871424,-0.33518823242187495,2.370259643554687,11.851298217773437,12.090647268679122
0.870430241233524,-0.3399766357421875,2.24097275390625,11.353304272460937,11.577351203953368
0.8729171847799054,-0.3016694091796875,2.231395947265625,10.735600244140624,10.969195271664212
0.8754041283262869,-0.2537853759765625,2.2457611572265623,10.09395419921875,10.34387555843036
0.8778910718726685,-0.19632453613281248,2.2457611572265623,9.337386474609374,9.605663572862285
0.8803780154190499,-0.2059013427734375,2.3223756103515623,8.566453540039062,8.878060041031455
0.8828649589654315,-0.2537853759765625,2.384624853515625,7.948749511718749,8.302617750391322
0.885351902511813,-0.277727392578125,2.427720483398437,7.426813549804687,7.818472916987248
0.8878388460581944,-0.3399766357421875,2.5617957763671875,7.105990527343749,7.561314904655303
0.890325789604576,-0.430956298828125,2.5617957763671875,6.861781958007812,7.337068390750758
0.8928127331509574,-0.4836287353515625,2.6192566162109374,6.919242797851562,7.414197385478973
0.8952996766973389,-0.5985504150390625,2.7150246826171873,7.1778165771484375,7.697445838831924
0.8977866202437205,-0.6081272216796875,2.73896669921875,7.618349682617187,8.118559551041706
0.9002735637901019,-0.7134720947265625,2.7437551025390623,8.154650854492187,8.633398233102236
0.9027605073364834,0.7565677246093749,1.0821791503906248,3.0789433349609374,3.3501341011012022
0.905247450882865,0.3495534423828125,1.20667763671875,-0.39743747558593745,1.3176551426829952
0.9077343944292464,-0.06703764648437499,1.5275006591796874,-2.7198130859375,3.1201178715358515
0.9102213379756279,-0.5458779785156249,1.8722656982421875,-3.9839515624999997,4.435677137099678
0.9127082815220094,-0.93852705078125,2.24097275390625,-4.132392065429687,4.793689194266202
0.9151952250683909,-1.3311761230468748,2.6240450195312497,-3.1747114013671873,4.328560340005401
0.9176821686147724,-1.599326708984375,2.940079638671875,-1.3024457031249999,3.5914174100753744
0.9201691121611539,-1.8148048583984373,3.2417490478515623,1.3215993164062498,3.943231963306058
0.9226560557075354,-1.838746875,3.4668040039062498,4.438849877929687,5.924787617342842
0.9251429992539169,-1.7573440185546874,3.5721488769531247,7.8338278320312495,8.787341128041794
0.9276299428002984,-1.62805712890625,3.6008792968749996,11.099518896484375,11.78202959846304
0.9301168863466799,-1.3551181396484375,3.5242648437499997,14.063540551757812,14.561591970393653
0.9326038298930613,-1.0678139404296874,3.380612744140625,16.4338001953125,16.81185766049294
0.9350907734394429,-0.7278373046875,3.2225954345703123,18.181567407226563,18.47929278572455
0.9375777169858244,-0.4165910888671875,2.940079638671875,19.067422021484372,19.297258845816515
0.9400646605322058,-0.15322890625,2.710236279296875,19.124882861328125,19.316573304984757
0.9425516040785874,0.105344873046875,2.437297290039062,18.411410766601563,18.572333241648476
0.9450385476249689,0.3016694091796875,2.231395947265625,17.094599853515625,17.24225845003272
0.9475254911713503,0.4213794921875,1.9871873779296874,15.198392138671874,15.33354485930381
0.9500124347177319,0.45010991210937495,1.915361328125,13.019668627929686,13.167497071628775
0.9524993782641133,0.4165910888671875,1.85790048828125,10.654197387695312,10.822997012641778
0.9549863218104948,0.296881005859375,1.7860744384765623,8.40843623046875,8.6011627163587
0.9574732653568764,0.15322890625,1.8004396484374998,6.363788012695312,6.615350322991283
0.9599602089032578,-0.0718260498046875,1.8914193115234375,4.726154077148437,5.091086166465967
0.9624471524496393,-0.3064578125,2.0350714111328125,3.5913024902343746,4.139189004577588
0.9649340959960209,-0.5602431884765625,2.1547814941406247,2.96881005859375,3.710901357046925
0.9674210395424023,-0.7948749511718749,2.3032219970703123,2.9735984619140625,3.8443394190012317
0.9699079830887838,-0.9720458740234375,2.4851813232421875,3.4955344238281247,4.397699432517552
0.9723949266351654,-1.0773907470703123,2.6767174560546874,4.529829541015625,5.370748814837501
0.9748818701815468,-1.1444283935546875,2.806004345703125,5.8226984375,6.564083624554453
0.9773688137279283,-1.139639990234375,2.91134921875,7.417236743164062,8.049231918947338
0.9798557572743098,-1.13006318359375,2.9927520751953125,9.011775048828124,9.562724366684478
0.9823427008206913,-1.01514150390625,2.959233251953125,10.55364091796875,11.007584218975678
0.9848296443670728,-0.9145850341796874,2.940079638671875,11.899182250976562,12.291097278454599
0.9873165879134543,-0.7230489013671875,2.887407202148437,12.995726611328124,13.33224775576755
0.9898035314598358,-0.55545478515625,2.839523168945312,13.694833496093748,13.997138505103875
0.9922904750062173,-0.4165910888671875,2.70065947265625,14.015656518554687,14.279556623672738
0.9947774185525988,-0.239420166015625,2.5857377929687497,13.919888452148436,14.160037304687345
0.9972643620989803,-0.09576806640624999,2.5234885498046875,13.469778540039062,13.704455476276152
0.9997513056453617,-0.028730419921875,2.4133552734375,12.679691992187498,12.907350546475495
1.0022382491917432,0.0143652099609375,2.3127988037109373,11.750741748046874,11.976192061544257
1.0047251927381249,0.0143652099609375,2.2744915771484373,10.649408984374999,10.889601921570106
1.0072121362845063,-0.023942016601562498,2.1883003173828124,9.5384994140625,9.786327328026962
1.0096990798308878,-0.0909796630859375,2.221819140625,8.48505068359375,8.771592939477847
1.0121860233772693,-0.2346317626953125,2.2840683837890623,7.60398447265625,7.9430850622593505
1.0146729669236507,-0.36391865234375,2.29843359375,6.981492041015625,7.359107615001071
1.0171599104700322,-0.469263525390625,2.346317626953125,6.64630380859375,7.063906070931349
1.0196468540164139,-0.6368576416015624,2.39420166015625,6.5601125488281244,7.012336693175356
1.0221337975627953,-0.718260498046875,2.461239306640625,6.770802294921874,7.239983479575536
1.0246207411091768,-0.7661445312499999,2.5474305664062498,7.129932543945312,7.610014324206993
1.0271076846555582,-0.82360537109375,2.5617957763671875,7.790732202148437,8.242368085247096
1.0295946282019397,-0.8667010009765624,2.5713725830078125,8.556876733398436,8.976818312537773
1.0320815717483212,-0.842758984375,2.6527754394531247,9.299079248046874,9.706715979123244
1.0345685152947028,-0.7900865478515624,2.6767174560546874,10.022128149414062,10.403466044348951
1.0370554588410843,-0.6847416748046875,2.6336218261718747,10.649408984374999,10.991576174552499
1.0395424023874658,-0.6560112548828124,2.6144682128906247,11.156979736328124,11.477978551974418
1.0420293459338472,-0.5123591552734374,2.6144682128906247,11.487379565429686,11.79227905116138
1.0445162894802287,-0.4213794921875,2.5809493896484375,11.611878051757811,11.902712813357198
1.0470032330266101,-0.33039982910156246,2.5665841796874997,11.477802758789062,11.765903049411817
1.0494901765729918,-0.277727392578125,2.4756045166015626,11.195286962890624,11.469097628352245
1.0519771201193733,-0.1867477294921875,2.4851813232421875,10.778695874023438,11.063059507593374
1.0544640636657547,-0.16759411621093748,2.446874096679687,10.232817895507813,10.522634780102154
1.0569510072121362,-0.1771709228515625,2.47081611328125,9.739612353515625,10.049695050015622
1.0594379507585177,-0.22026655273437498,2.4516625,9.117119921875,9.443571466241453
1.0619248943048991,-0.28730419921875,2.4564509033203126,8.662221606445312,9.008372655617658
1.0644118378512808,-0.36391865234375,2.4947581298828125,8.279149340820313,8.654511466266914
1.0668987813976623,-0.4070142822265625,2.5043349365234375,8.068459594726562,8.45797814681283
1.0693857249440437,-0.49799394531249996,2.5474305664062498,8.0062103515625,8.416460339934794
1.0718726684904252,-0.584185205078125,2.5139117431640625,8.010998754882811,8.416479409882989
1.0743596120368066,-0.6655880615234374,2.5474305664062498,8.29351455078125,8.70142480070498
1.076846555583188,-0.7134720947265625,2.5570073730468748,8.719682446289061,9.114833574996922
1.0793334991295698,-0.699106884765625,2.5570073730468748,9.107543115234375,9.485482525311816
1.0818204426759512,-0.7326257080078125,2.5617957763671875,9.576806640625,9.940561526380982
1.0843073862223327,-0.7134720947265625,2.5043349365234375,10.065223779296874,10.3966083715589
1.0867943297687142,-0.6655880615234374,2.5857377929687497,10.491391674804687,10.825818522208403
1.0892812733150956,-0.612915625,2.50912333984375,10.793061083984375,11.097816589786289
1.0917682168614773,-0.5506663818359374,2.4947581298828125,10.989385620117186,11.282448665885392
1.0942551604078588,-0.4836287353515625,2.4516625,10.9941740234375,11.274591266435866
1.0967421039542402,-0.411802685546875,2.4516625,10.903194360351561,11.1830173801766
1.0992290475006217,-0.3447650390625,2.442085693359375,10.702081420898438,10.982585861508655
1.1017159910470031,-0.296881005859375,2.43250888671875,10.299855541992187,10.587363316780667
1.1042029345933846,-0.277727392578125,2.47081611328125,9.897629663085937,10.205152508308592
1.1066898781397663,-0.229843359375,2.480392919921875,9.433154541015625,9.756514828653266
1.1091768216861477,-0.27293898925781246,2.5043349365234375,8.98304462890625,9.329591629383911
1.1116637652325292,-0.26336218261718747,2.518700146484375,8.532934716796875,8.9007968715307
1.1141507087789106,-0.33039982910156246,2.528276953125,8.192958081054687,8.58055420801551
1.116637652325292,-0.43574470214843747,2.5474305664062498,8.020575561523437,8.42667836541886
1.1191245958716736,-0.469263525390625,2.5617957763671875,7.943961108398437,8.359995451423506
1.1216115394180552,-0.5267243652343749,2.5953145996093747,8.044517578125,8.469200640712158
1.1240984829644367,-0.5793968017578125,2.6144682128906247,8.303091357421874,8.72424614392536
1.1265854265108182,-0.6655880615234374,2.6767174560546874,8.652644799804687,9.08163453563165
1.1290723700571996,-0.689530078125,2.6240450195312497,9.0788126953125,9.475542409262557
1.131559313603581,-0.6847416748046875,2.6384102294921874,9.600748657226562,9.980203128170336
1.1340462571499625,-0.699106884765625,2.5713725830078125,10.122684619140625,10.46754275346211
1.1365332006963442,-0.6703764648437499,2.5426421630859375,10.55364091796875,10.876293964376975
1.1390201442427257,-0.6368576416015624,2.5426421630859375,10.941501586914061,11.251092115950858
1.1415070877891071,-0.63206923828125,2.480392919921875,11.200075366210937,11.488844535808859
1.1439940313354886,-0.5363011718749999,2.408566870117187,11.382034692382812,11.64643838490491
1.14648097488187,-0.4644751220703125,2.4133552734375,11.3006318359375,11.56478710163983
1.1489679184282515,-0.4213794921875,2.360682836914062,11.099518896484375,11.355602311914174
1.1514548619746332,-0.32561142578124996,2.370259643554687,10.82179150390625,11.083109894451141
1.1539418055210147,-0.32082302246093747,2.346317626953125,10.381258398437499,10.647941573535283
1.1564287490673961,-0.26815058593749996,2.375048046875,9.883264453125,10.168169658896707
1.1589156926137776,-0.26336218261718747,2.365471240234375,9.3086560546875,9.608115911669628
1.161402636160159,-0.277727392578125,2.398990063476562,8.71489404296875,9.04332151421256
1.1638895797065405,-0.277727392578125,2.4660277099609376,8.269572534179687,8.633901497523729
1.1663765232529222,-0.33039982910156246,2.5234885498046875,7.857769848632812,8.259643182495758
1.1688634667993036,-0.373495458984375,2.5426421630859375,7.6614453125,8.080982137327894
1.171350410345685,-0.47884033203125,2.5857377929687497,7.599196069335937,8.041337506769471
1.1738373538920666,-0.5267243652343749,2.6384102294921874,7.618349682617187,8.0794739298208
1.176324297438448,-0.59376201171875,2.6623522460937497,7.900865478515625,8.358489583557587
1.1788112409848295,-0.6703764648437499,2.6527754394531247,8.269572534179687,8.71047943771416
1.1812981845312112,-0.679953271484375,2.6671406494140624,8.79150849609375,9.212306840962679
1.1837851280775926,-0.74699091796875,2.6144682128906247,9.323021264648437,9.711445050497389
1.186272071623974,-0.718260498046875,2.6958710693359373,9.95987890625,10.34324933435817
1.1887590151703555,-0.7326257080078125,2.6144682128906247,10.510545288085936,10.85558596839226
1.191245958716737,-0.679953271484375,2.5809493896484375,11.018116040039061,11.336777199676062
1.1937329022631185,-0.6703764648437499,2.5043349365234375,11.410765112304686,11.701566498853818
1.1962198458095001,-0.55545478515625,2.4756045166015626,11.669338891601562,11.941968761808742
1.1987067893558816,-0.5027823486328125,2.442085693359375,11.707646118164062,11.970194244537943
1.201193732902263,-0.45968671875,2.327164013671875,11.578359228515625,11.818858094184796
1.2036806764486445,-0.354341845703125,2.3127988037109373,11.324573852539062,11.563761040062808
1.206167619995026,-0.3016694091796875,2.27927998046875,10.855310327148437,11.096120221072587
1.2086545635414074,-0.3016694091796875,2.2840683837890623,10.333374365234375,10.587095852326195
1.2111415070877891,-0.229843359375,2.3415292236328122,9.749189160156249,10.029071559994144
1.2136284506341706,-0.26336218261718747,2.31758720703125,9.083601098632812,9.378292969432712
1.216115394180552,-0.2537853759765625,2.389413256835937,8.494627490234375,8.82793287960712
1.2186023377269335,-0.3064578125,2.4133552734375,8.001421948242188,8.363070803268538
1.221089281273315,-0.32561142578124996,2.528276953125,7.570465649414062,7.98812601936528
1.2235762248196966,-0.4213794921875,2.5474305664062498,7.326257080078125,7.767947346016959
1.226063168366078,-0.488417138671875,2.6192566162109374,7.302315063476562,7.7732143807558725
1.2285501119124596,-0.584185205078125,2.6719290527343746,7.417236743164062,7.905433455593767
1.231037055458841,-0.6272808349609375,2.6910826660156246,7.714117749023437,8.194084439828375
1.2335239990052225,-0.6607996582031249,2.7341782958984373,8.164227661132813,8.635218610136608
1.236010942551604,-0.699106884765625,2.7437551025390623,8.724470849609375,9.17242247744398
1.2384978860979856,-0.718260498046875,2.7150246826171873,9.399635717773437,9.810219610035102
1.240984829644367,-0.7709329345703124,2.6671406494140624,10.026916552734374,10.40418340807488
1.2434717731907485,-0.7230489013671875,2.6671406494140624,10.66856259765625,11.020647297578986
1.24595871673713,-0.6847416748046875,2.5713725830078125,11.2240173828125,11.535137378095492
1.2484456602835114,-0.5889736083984375,2.6048914062499997,11.611878051757811,11.915035083399452
1.250932603829893,-0.5793968017578125,2.4947581298828125,11.860875024414062,12.134243904144702
1.2534195473762746,-0.469263525390625,2.4516625,11.961431494140625,12.219112106007847
1.255906490922656,-0.43574470214843747,2.346317626953125,11.822567797851562,12.06101940910461
1.2583934344690375,-0.38307226562499996,2.29843359375,11.506533178710937,11.740095703968738
1.260880378015419,-0.354341845703125,2.2361843505859373,11.022904443359375,11.253021859076503
1.2633673215618004,-0.24899697265624998,2.2553379638671873,10.481814868164061,10.724597510122127
1.2658542651081819,-0.22505495605468748,2.308010400390625,9.811438403320311,10.081760029067578
1.2683412086545636,-0.239420166015625,2.29843359375,9.107543115234375,9.396140728864513
1.270828152200945,-0.2346317626953125,2.379836450195312,8.470685473632813,8.801771752718748
1.2733150957473265,-0.277727392578125,2.422932080078125,7.8912886718749995,8.259550185822631
1.275802039293708,-0.316034619140625,2.4756045166015626,7.48906279296875,7.8939570001452575
1.2782889828400894,-0.39743747558593745,2.5426421630859375,7.206546997070312,7.652274520525618
1.2807759263864709,-0.49320554199218747,2.6144682128906247,7.129932543945312,7.610166478079029
1.2832628699328525,-0.5793968017578125,2.6431986328124997,7.168239770507812,7.6619750113060885
1.285749813479234,-0.59376201171875,2.6671406494140624,7.50821640625,7.989962839300245
1.2882367570256155,-0.63206923828125,2.729389892578125,7.972691528320312,8.450614824581672
1.290723700571997,-0.718260498046875,2.748543505859375,8.547299926757812,9.007037558743185
1.2932106441183784,-0.7613561279296874,2.729389892578125,9.241618408203124,9.666268315233266
1.2956975876647598,-0.737414111328125,2.7198130859375,9.95987890625,10.350862312927672
1.2981845312111415,-0.74699091796875,2.6671406494140624,10.625466967773438,10.980536551486413
1.300671474757523,-0.7038952880859375,2.6575638427734374,11.2240173828125,11.555807213893951
1.3031584183039044,-0.6416460449218749,2.6001030029296874,11.664550488281249,11.9680400804171
1.305645361850286,-0.612915625,2.5043349365234375,11.999738720703125,12.273593133341306
1.3081323053966674,-0.5458779785156249,2.43250888671875,12.052411157226562,12.307546341746324
1.3106192489430488,-0.4261678955078125,2.365471240234375,11.999738720703125,12.238088193369068
1.3131061924894305,-0.37828386230468747,2.31758720703125,11.664550488281249,11.898573327770745
1.315593136035812,-0.2920926025390625,2.288856787109375,11.204863769531249,11.439980575774975
1.3180800795821934,-0.26336218261718747,2.269703173828125,10.63025537109375,10.873051153709609
1.3205670231285749,-0.22505495605468748,2.2601263671875,9.969455712890625,10.224914089623857
1.3230539666749563,-0.239420166015625,2.308010400390625,9.289502441406249,9.574919823847033
1.3255409102213378,-0.2442085693359375,2.327164013671875,8.56166513671875,8.875665613641141
1.3280278537677195,-0.27293898925781246,2.370259643554687,7.948749511718749,8.299111113231953
1.330514797314101,-0.3112462158203125,2.461239306640625,7.48906279296875,7.889273391665685
1.3330017408604824,-0.39264907226562495,2.499546533203125,7.144297753906249,7.579109219563253
1.3354886844068639,-0.43574470214843747,2.5857377929687497,7.019799267578125,7.493563580602203
1.3379756279532453,-0.55545478515625,2.6144682128906247,7.053318090820312,7.542762766046773
1.3404625714996268,-0.6081272216796875,2.6910826660156246,7.369352709960937,7.868869295958996
1.3429495150460085,-0.6751648681640625,2.748543505859375,7.742848168945312,8.243909070953203
1.34543645859239,-0.718260498046875,2.7724855224609373,8.374917407226562,8.851091214826369
1.3479234021387714,-0.7709329345703124,2.7341782958984373,9.045293872070312,9.480897097610542
1.3504103456851528,-0.7852981445312499,2.7629087158203123,9.744400756835937,10.15892237678706
1.3528972892315343,-0.7661445312499999,2.7341782958984373,10.448296044921875,10.827261825542802
1.3553842327779158,-0.74699091796875,2.6192566162109374,11.066000073242186,11.396265101957248
1.3578711763242974,-0.6464344482421874,2.5761609863281247,11.597512841796874,11.897763951221956
1.360358119870679,-0.6416460449218749,2.518700146484375,11.9518546875,12.231205604762762
1.3628450634170604,-0.5123591552734374,2.480392919921875,12.095506787109374,12.357837407014221
1.3653320069634418,-0.45010991210937495,2.389413256835937,12.08592998046875,12.328081689286286
1.3678189505098233,-0.38786066894531246,2.29843359375,11.851298217773437,12.078348493481759
1.370305894056205,-0.36391865234375,2.2553379638671873,11.434707128906249,11.660682365995726
1.3727928376025864,-0.277727392578125,2.27927998046875,10.855310327148437,11.095495123366483
1.3752797811489679,-0.2346317626953125,2.27927998046875,10.146626635742187,10.402124849211528
1.3777667246953493,-0.22026655273437498,2.269703173828125,9.394847314453125,9.667638073150343
1.3802536682417308,-0.2442085693359375,2.288856787109375,8.719682446289061,9.018390387500164
1.3827406117881123,-0.22026655273437498,2.3511060302734372,8.097190014648437,8.434494830940615
1.385227555334494,-0.28730419921875,2.403778466796875,7.522581616210937,7.902526734714652
1.3877144988808754,-0.354341845703125,2.50912333984375,7.149086157226562,7.584898876162648
1.3902014424272569,-0.4261678955078125,2.5809493896484375,6.995857250976562,7.468931483360223
1.3926883859736383,-0.4836287353515625,2.6336218261718747,7.005434057617187,7.499731129351868
1.3951753295200198,-0.603338818359375,2.6815058593749996,7.206546997070312,7.712899002617944
1.3976622730664012,-0.6607996582031249,2.710236279296875,7.6470801025390625,8.140016644488338
1.400149216612783,-0.7278373046875,2.7341782958984373,8.135497241210937,8.613465821468592
1.4026361601591644,-0.7613561279296874,2.729389892578125,8.820238916015624,9.264224029827872
1.4051231037055458,-0.7613561279296874,2.748543505859375,9.591171850585937,10.006234657682674
1.4076100472519273,-0.7805097412109374,2.7629087158203123,10.280701928710936,10.67406633739372
1.4100969907983087,-0.7422025146484375,2.6862942626953124,10.941501586914061,11.290859064525742
1.4125839343446902,-0.6943184814453125,2.6096798095703124,11.501744775390625,11.81450971223017
1.4150708778910719,-0.6512228515624999,2.528276953125,11.903970654296874,12.186910719803496
1.4175578214374533,-0.5889736083984375,2.4516625,12.176909643554687,12.435218831713065
1.4200447649838348,-0.51714755859375,2.398990063476562,12.181698046874999,12.426438034580018
1.4225317085302163,-0.411802685546875,2.3127988037109373,11.9518546875,12.180535711921133
1.4250186520765977,-0.354341845703125,2.269703173828125,11.568782421875,11.794652914163509
1.4275055956229792,-0.26336218261718747,2.269703173828125,11.075576879882812,11.308815824776396
1.4299925391693609,-0.201112939453125,2.2266075439453124,10.371681591796875,10.609901347834851
1.4324794827157423,-0.277727392578125,2.231395947265625,9.639055883789062,9.897861319945346
1.4349664262621238,-0.21068974609375,2.3032219970703123,8.892064965820312,9.187929097096179
1.4374533698085052,-0.27293898925781246,2.3511060302734372,8.2743609375,8.606232868187513
1.4399403133548867,-0.296881005859375,2.4516625,7.671022119140624,8.058744796672187
1.4424272569012682,-0.32082302246093747,2.4899697265625,7.206546997070312,7.631329915022796
1.4449142004476498,-0.40222587890625,2.5474305664062498,6.986280444335937,7.447100280997532
1.4474011439940313,-0.47884033203125,2.5905261962890624,6.87614716796875,7.36352591580992
1.4498880875404128,-0.5267243652343749,2.6862942626953124,7.072471704101562,7.583763671689576
1.4523750310867942,-0.6512228515624999,2.7341782958984373,7.4028715332031245,7.918480226234606
1.4548619746331757,-0.6655880615234374,2.8012159423828122,7.977479931640625,8.48115583415557
1.4573489181795571,-0.74699091796875,2.7724855224609373,8.59997236328125,9.06665296859787
1.4598358617259388,-0.7948749511718749,2.7246014892578123,9.318232861328125,9.740879997269328
1.4623228052723203,-0.7326257080078125,2.748543505859375,10.079588989257813,10.473268163472328
1.4648097488187017,-0.74699091796875,2.7246014892578123,10.793061083984375,11.15668482432894
1.4672966923650832,-0.7230489013671875,2.6671406494140624,11.396399902343749,11.726652109262293
1.4697836359114647,-0.6368576416015624,2.5953145996093747,11.908759057617187,12.204908349471177
1.4722705794578461,-0.603338818359375,2.4851813232421875,12.143390820312499,12.409757634780018
1.4747575230042278,-0.488417138671875,2.4516625,12.172121240234373,12.426171405634943
1.4772444665506093,-0.43574470214843747,2.365471240234375,12.066776367187499,12.304162691119664
1.4797314100969907,-0.38786066894531246,2.346317626953125,11.745953344726562,11.984283970332093
1.4822183536433722,-0.2920926025390625,2.250549560546875,11.228805786132812,11.45584439470201
1.4847052971897536,-0.2920926025390625,2.250549560546875,10.620678564453124,10.860437587057431
1.487192240736135,-0.22505495605468748,2.269703173828125,9.892841259765625,10.152364769916975
1.4896791842825168,-0.22505495605468748,2.2553379638671873,9.184157568359375,9.45970133275666
1.4921661278288982,-0.2059013427734375,2.3127988037109373,8.398859423828124,8.713912628126883
1.4946530713752797,-0.277727392578125,2.370259643554687,7.785943798828124,8.143474941384811
1.4971400149216612,-0.3016694091796875,2.4133552734375,7.302315063476562,7.69669366640898
1.4996269584680426,-0.39264907226562495,2.499546533203125,6.986280444335937,7.430344582353469
1.5021139020144243,-0.45489831542968745,2.5809493896484375,6.833051538085937,7.318389546303613
1.5046008455608058,-0.5506663818359374,2.6479870361328124,6.967126831054687,7.473682163941269
1.5070877891071872,-0.6177040283203125,2.6958710693359373,7.283161450195312,7.790617420891409
1.5095747326535687,-0.6512228515624999,2.7581203125,7.790732202148437,8.290164480045913
1.5120616761999501,-0.7134720947265625,2.81558115234375,8.384494213867187,8.873346768709043
1.5145486197463316,-0.7517793212890624,2.7533319091796873,9.102754711914063,9.53971446613045
1.5170355632927133,-0.7852981445312499,2.748543505859375,9.816226806640625,10.223966612759256
1.5195225068390947,-0.7948749511718749,2.7341782958984373,10.548852514648438,10.92638304827207
1.5220094503854762,-0.7422025146484375,2.6336218261718747,11.18571015625,11.515508681585617
1.5244963939318577,-0.6560112548828124,2.5809493896484375,11.726799731445311,12.025368287910577
1.5269833374782391,-0.603338818359375,2.4899697265625,12.018892333984374,12.288927532736345
1.5294702810246206,-0.5267243652343749,2.50912333984375,12.205640063476562,12.472000154370763
1.5319572245710023,-0.45968671875,2.384624853515625,12.205640063476562,12.444894412189429
1.5344441681173837,-0.373495458984375,2.29843359375,11.865663427734374,12.091991747558941
1.5369311116637652,-0.316034619140625,2.27927998046875,11.473014355468749,11.701497917388739
1.5394180552101466,-0.27293898925781246,2.250549560546875,10.82179150390625,11.056701152258404
1.541904998756528,-0.2442085693359375,2.2074539306640624,10.141838232421874,10.38216612340389
1.5443919423029095,-0.201112939453125,2.308010400390625,9.394847314453125,9.676286192781498
1.5468788858492912,-0.229843359375,2.3127988037109373,8.633491186523438,8.940863288523843
1.5493658293956727,-0.26815058593749996,2.39420166015625,8.049305981445311,8.402108848923872
1.5518527729420541,-0.316034619140625,2.365471240234375,7.465120776367187,7.837305676992594
1.5543397164884356,-0.3687070556640625,2.5139117431640625,7.077260107421875,7.5195284275956915
1.556826660034817,-0.44053310546874996,2.5713725830078125,6.919242797851562,7.394724286494996
1.5593136035811985,-0.5123591552734374,2.6719290527343746,6.943184814453125,7.457179904929946
1.5618005471275802,-0.565031591796875,2.7054478759765623,7.134720947265625,7.65133660903149
1.5642874906739617,-0.689530078125,2.7341782958984373,7.570465649414062,8.078560071656298
1.5667744342203431,-0.689530078125,2.767697119140625,8.14028564453125,8.62553473394548
1.5692613777667246,-0.718260498046875,2.786850732421875,8.853757739257812,9.309750869562649
1.571748321313106,-0.7709329345703124,2.748543505859375,9.562441430664062,9.979434608638282
1.5742352648594875,-0.7422025146484375,2.7581203125,10.338162768554687,10.725469764075878
1.5767222084058692,-0.7565677246093749,2.7150246826171873,10.998962426757812,11.35433521675185
1.5792091519522506,-0.7038952880859375,2.6336218261718747,11.583147631835937,11.899610983590385
1.581696095498632,-0.63206923828125,2.5330653564453125,12.004527124023436,12.285137487770303
1.5841830390450136,-0.5746083984375,2.47081611328125,12.148179223632813,12.41021214672453
1.586669982591395,-0.47884033203125,2.4516625,12.205640063476562,12.458635014985799
1.5891569261377765,-0.411802685546875,2.2840683837890623,11.994950317382811,12.217421288886227
1.5916438696841582,-0.3399766357421875,2.29843359375,11.597512841796874,11.827962005915158
1.5941308132305396,-0.2825157958984375,2.308010400390625,11.0707884765625,11.312342139275689
1.596617756776921,-0.2346317626953125,2.269703173828125,10.419565624999999,10.666487349405735
1.5991047003233025,-0.201112939453125,2.2074539306640624,9.643844287109374,9.895303527655521
1.601591643869684,-0.239420166015625,2.2361843505859373,8.877699755859375,9.158132747502954
1.6040785874160655,-0.22505495605468748,2.3367408203125,8.173804467773436,8.504239347052298
1.6065655309624471,-0.26336218261718747,2.422932080078125,7.637503295898437,8.016945559174273
1.6090524745088286,-0.3399766357421875,2.4756045166015626,7.220912207031249,7.641058495857857
1.61153941805521,-0.3687070556640625,2.6001030029296874,6.928819604492187,7.40979227983725
1.6140263616015915,-0.4740519287109375,2.6384102294921874,6.89530078125,7.398047487959944
1.616513305147973,-0.584185205078125,2.710236279296875,7.043741284179687,7.56973872216911
1.6190002486943544,-0.63206923828125,2.7724855224609373,7.41244833984375,7.939179925224601
1.6214871922407361,-0.7038952880859375,2.748543505859375,7.948749511718749,8.439939500982243
1.6239741357871176,-0.737414111328125,2.7437551025390623,8.604760766601562,9.061670899163161
1.626461079333499,-0.7805097412109374,2.7820623291015623,9.279925634765624,9.719366545506519
1.6289480228798805,-0.7805097412109374,2.767697119140625,10.070012182617187,10.472558816138635
1.631434966426262,-0.7422025146484375,2.710236279296875,10.773907470703124,11.134331028384238
1.6339219099726436,-0.7422025146484375,2.6479870361328124,11.353304272460937,11.681618801320203
1.636408853519025,-0.6560112548828124,2.5857377929687497,11.85608662109375,12.152496890244327
1.6388957970654066,-0.603338818359375,2.5234885498046875,12.138602416992187,12.412803101175141
1.641382740611788,-0.5219359619140624,2.43250888671875,12.172121240234373,12.423769642071992
1.6438696841581695,-0.4213794921875,2.365471240234375,12.071564770507813,12.308358577543046
1.646356627704551,-0.37828386230468747,2.29843359375,11.736376538085937,11.965301078915346
1.6488435712509326,-0.316034619140625,2.2457611572265623,11.228805786132812,11.455540163540638
1.651330514797314,-0.24899697265624998,2.2936451904296873,10.635043774414061,10.882415349345774
1.6538174583436955,-0.22026655273437498,2.250549560546875,9.911994873046874,10.16666774523682
1.656304401890077,-0.2059013427734375,2.27927998046875,9.145850341796875,9.427835969450653
1.6587913454364585,-0.2154781494140625,2.3032219970703123,8.413224633789062,8.725457646407927
1.66127828898284,-0.24899697265624998,2.370259643554687,7.7763669921875,8.133388830459246
1.6637652325292216,-0.32561142578124996,2.446874096679687,7.297526660156249,7.7037076139539815
1.666252176075603,-0.38307226562499996,2.499546533203125,7.000645654296875,7.443353868342183
1.6687391196219845,-0.45968671875,2.6048914062499997,6.890512377929687,7.380781255947942
1.671226063168366,-0.5458779785156249,2.6240450195312497,6.962338427734375,7.460412281788575
1.6737130067147474,-0.622492431640625,2.786850732421875,7.264007836914062,7.805116506945883
1.676199950261129,-0.718260498046875,2.729389892578125,7.675810522460937,8.178235415142085
1.6786868938075106,-0.7422025146484375,2.7916391357421872,8.379705810546875,8.863610049425173
1.681173837353892,-0.7565677246093749,2.8107927490234372,9.074024291992187,9.529473618807476
1.6836607809002735,-0.7948749511718749,2.7533319091796873,9.840168823242188,10.248979718001939
1.686147724446655,-0.7805097412109374,2.6815058593749996,10.505756884765624,10.870630011723696
1.6886346679930364,-0.7038952880859375,2.6815058593749996,11.219228979492186,11.556688156419611
1.6911216115394179,-0.699106884765625,2.5522189697265625,11.722011328125,12.016993038295796
1.6936085550857995,-0.612915625,2.5426421630859375,12.071564770507813,12.351654575053368
1.696095498632181,-0.5698199951171875,2.437297290039062,12.186486450195313,12.440882802585234
1.6985824421785625,-0.469263525390625,2.384624853515625,12.152967626953124,12.393597786358775
1.701069385724944,-0.38786066894531246,2.308010400390625,11.889605444335936,12.117758271594987
1.7035563292713254,-0.3399766357421875,2.27927998046875,11.420341918945311,11.650532643953909
1.7060432728177068,1.0390835205078124,0.6416460449218749,2.518700146484375,2.7991524855668732
1.7085302163640885,0.612915625,0.8810662109374999,-1.7669208251953124,2.0673539691919687
1.71101715991047,0.1867477294921875,1.2737152832031249,-4.955997436523437,5.120462472078336
1.7135041034568514,-0.32082302246093747,1.7334020019531249,-6.9719152343749995,7.191328941678741
1.715991047003233,-0.7948749511718749,2.1691467041015624,-7.594407666015624,7.938013064334931
1.7184779905496144,-1.2306196533203124,2.767697119140625,-6.8569935546875,7.496194546799291
1.7209649340959958,-1.5705962890624998,3.1459809814453124,-5.003881469726562,6.115782762811754
1.7234518776423775,-1.8435352783203125,3.5051112304687497,-2.0973206542968748,4.481426222455299
1.725938821188759,-2.0063409912109376,3.81156904296875,1.5466542724609373,4.57663655765374
1.7284257647351404,-1.9919757812499999,3.9791631591796874,5.578489868164062,7.135913127951357
1.7309127082815219,-1.905784521484375,4.031835595703125,9.734823950195311,10.707684635550509
1.7333996518279033,-1.7429788085937499,3.9552211425781247,13.6756798828125,14.342453404876949
1.7358865953742848,-1.4173673828125,3.821145849609375,17.171214306640625,17.6482488271904
1.7383735389206665,-1.139639990234375,3.5051112304687497,19.843143359375,20.182540039004202
1.740860482467048,-0.7613561279296874,3.1842882080078123,21.66752502441406,21.913488887641858
1.7433474260134294,-0.411802685546875,2.825157958984375,22.51028400878906,22.690614471657238
1.7458343695598109,-0.11013327636718749,2.418143676757812,22.290017456054684,22.421071035328122
1.7483213131061923,0.19153613281249998,2.0925322509765625,21.121647045898435,21.22591225938381
1.7508082566525738,0.4165910888671875,1.7956512451171873,19.17276689453125,19.261176026438466
1.7532952001989555,0.6081272216796875,1.5897499023437498,16.601394311523435,16.68842163167124
1.755782143745337,0.63206923828125,1.4030021728515625,13.627795849609374,13.71439923356609
1.7582690872917184,0.59376201171875,1.3359645263671873,10.390835205078124,10.493179251369089
1.7607560308380998,0.5219359619140624,1.369483349609375,7.378929516601562,7.5230647082269755
1.7632429743844813,0.3399766357421875,1.4317325927734375,4.572925170898437,4.8038616704373185
1.765729917930863,0.062249243164062495,1.6424223388671875,2.2457611572265623,2.7829605248353864
1.7682168614772444,-0.201112939453125,1.9009961181640624,0.6368576416015624,2.0148995784794375
1.770703805023626,-0.45010991210937495,2.1595698974609374,-0.3064578125,2.2271635471695466
1.7731907485700074,-0.70868369140625,2.5234885498046875,-0.39264907226562495,2.6503585284658393
1.7756776921163888,-0.9193734375,2.786850732421875,0.201112939453125,2.9414674801527863
1.7781646356627703,-1.1156979736328125,3.0645781249999997,1.4987702392578124,3.58925246850675
1.780651579209152,-1.2641384765625,3.2130186279296873,3.308786694335937,4.7822174960956625
1.7831385227555334,-1.3359645263671873,3.366247534179687,5.516240625,6.598888869346317
1.7856254663019149,-1.350329736328125,3.4332851806640625,7.900865478515625,8.719777109432291
1.7881124098482963,-1.3120225097656248,3.404554760742187,10.352527978515624,10.976667605925433
1.7905993533946778,-1.1540052001953125,3.399766357421875,12.627019555664061,13.127519268554057
1.7930862969410593,-1.01514150390625,3.2417490478515623,14.571111303710937,14.961842593321593
1.795573240487441,-0.8044517578125,3.0693665283203124,16.065093139648436,16.375450256447913
1.7980601840338224,-0.6607996582031249,2.858676782226562,16.965312963867188,17.21715810159977
1.8005471275802039,-0.469263525390625,2.5857377929687497,17.33402001953125,17.5320990821909
1.8030340711265853,-0.2346317626953125,2.384624853515625,17.099388256835937,17.266457845026835
1.8055210146729668,-0.06703764648437499,2.1787235107421874,16.347608935546873,16.49229056534837
1.8080079582193482,0.01915361328125,1.9728221679687499,15.069105249023437,15.197707957895373
1.81049490176573,0.1388636962890625,1.838746875,13.460201733398437,13.58592300509066
1.8129818453121114,0.1580173095703125,1.8339584716796873,11.587936035156249,11.733227804012085
1.8154687888584928,0.1149216796875,1.7717092285156248,9.701305126953125,9.86242778169334
1.8179557324048743,0.062249243164062495,1.848323681640625,7.829039428710937,8.044503326912018
1.8204426759512558,-0.028730419921875,1.8770541015625,6.191405493164062,6.469749571506119
1.8229296194976372,-0.1388636962890625,2.020706201171875,4.8314989501953125,5.23888526151699
1.825416563044019,-0.296881005859375,2.1643583007812497,3.873818286132812,4.447364759020529
1.8279035065904004,-0.39264907226562495,2.418143676757812,3.394977954101562,4.18658183297908
1.8303904501367818,-0.622492431640625,2.5857377929687497,3.342305517578125,4.271363123672575
1.8328773936831633,-0.7565677246093749,2.7246014892578123,3.768473413085937,4.711394683352485
1.8353643372295447,-0.8762778076171874,2.920926025390625,4.649539624023437,5.560385810111621
1.8378512807759262,-0.9720458740234375,3.0214824951171875,5.760449194335937,6.577005745020383
1.8403382243223079,-0.97683427734375,3.1076737548828124,7.1778165771484375,7.88244201928362
1.8428251678686893,-0.9959878906249999,3.1220389648437497,8.710105639648438,9.306183934895644
1.8453121114150708,-1.005564697265625,3.1268273681640624,10.223241088867187,10.737917307922848
1.8477990549614522,-0.948103857421875,3.0597897216796874,11.693280908203125,12.124109553427113
1.8502859985078337,-0.842758984375,2.96881005859375,12.933477368164061,13.29657522456682
1.8527729420542152,-0.74699091796875,2.81558115234375,13.872004418945311,14.174554640488687
1.8552598856005968,-0.5602431884765625,2.70065947265625,14.513650463867187,14.773404611151571
1.8577468291469783,-0.49320554199218747,2.518700146484375,14.69082138671875,14.913327433910423
1.8602337726933598,-0.3687070556640625,2.408566870117187,14.53759248046875,14.74037768813622
1.8627207162397412,-0.2346317626953125,2.2074539306640624,13.986926098632813,14.161991618719643
1.8652076597861227,-0.16280571289062498,2.1404162841796874,13.187262744140623,13.360830298029038
1.8676946033325041,-0.06703764648437499,2.0638018310546875,12.090718383789062,12.265775274315343
1.8701815468788858,-0.076614453125,2.001552587890625,10.884040747070312,11.066816413061444
1.8726684904252673,-0.076614453125,1.9823989746093749,9.548076220703125,9.752001588664577
1.8751554339716487,-0.086191259765625,2.0638018310546875,8.312668164062499,8.565463147836367
1.8776423775180302,-0.12449848632812499,2.1116858642578125,7.129932543945312,7.437113360949578
1.8801293210644117,-0.2346317626953125,2.2266075439453124,6.210559106445312,6.601808663803464
1.8826162646107931,-0.33039982910156246,2.3032219970703123,5.607220288085937,6.070824900619473
1.8851032081571748,-0.45489831542968745,2.480392919921875,5.209782812499999,5.788015071507653
1.8875901517035563,-0.5602431884765625,2.6001030029296874,5.166687182617188,5.81111559849734
1.8900770952499377,-0.679953271484375,2.7150246826171873,5.49708701171875,6.168602847730582
1.8925640387963192,-0.7038952880859375,2.81558115234375,6.076483813476562,6.733990001289399
1.8950509823427006,-0.7948749511718749,2.9496564453125,6.909665991210937,7.554851649335748
1.897537925889082,-0.8475473876953125,2.9496564453125,7.900865478515625,8.475994633632247
1.9000248694354638,-0.8475473876953125,2.9927520751953125,8.992621435546875,9.515363463422306
1.9025118129818452,-0.8714894042968749,2.9448680419921875,10.127473022460936,10.582884832937694
1.9049987565282267,-0.7996633544921875,2.906560815429687,11.156979736328124,11.557065115813156
1.9074857000746082,-0.8044517578125,2.7916391357421872,12.061987963867187,12.40693134241227
1.9099726436209896,-0.6703764648437499,2.7198130859375,12.780248461914061,13.083636290240952
1.9124595871673713,-0.5985504150390625,2.6288334228515624,13.268665600585937,13.539812206401441
1.9149465307137528,-0.5123591552734374,2.480392919921875,13.397952490234374,13.635248141187917
1.9174334742601342,-0.4165910888671875,2.384624853515625,13.287819213867186,13.506521509542933
1.9199204178065157,-0.32082302246093747,2.2936451904296873,12.9095353515625,13.11563336879177
1.9224073613528971,-0.258573779296875,2.1356278808593747,12.229582080078124,12.417344510732226
1.9248943048992786,-0.2059013427734375,2.1404162841796874,11.439495532226562,11.639838283428553
1.9273812484456603,-0.1580173095703125,2.1356278808593747,10.481814868164061,10.698332526431066
1.9298681919920417,-0.1484405029296875,2.1212626708984375,9.481038574218749,9.716577707592373
1.9323551355384232,-0.1867477294921875,2.1883003173828124,8.513781103515624,8.79249689633769
1.9348420790848047,-0.2537853759765625,2.221819140625,7.580042456054687,7.903033021966867
1.9373290226311861,-0.2537853759765625,2.3367408203125,6.928819604492187,7.316645801866424
1.9398159661775676,-0.3447650390625,2.480392919921875,6.37815322265625,6.85215663138538
1.9423029097239493,-0.39264907226562495,2.5234885498046875,6.124367846679687,6.635514243552674
1.9447898532703307,-0.5267243652343749,2.6431986328124997,6.062118603515625,6.634245965633446
1.9472767968167122,-0.5793968017578125,2.710236279296875,6.330269189453125,6.910382721271208
1.9497637403630936,-0.7038952880859375,2.7964275390625,6.804321118164062,7.390146239210031
1.952250683909475,-0.7565677246093749,2.858676782226562,7.48906279296875,8.051738270969238
1.9547376274558566,-0.7948749511718749,2.85388837890625,8.317456567382813,8.829302850030468
1.9572245710022382,-0.8044517578125,2.882618798828125,9.203311181640624,9.677684148396054
1.9597115145486197,-0.7757213378906249,2.839523168945312,10.098742602539062,10.518994133156149
1.9621984580950012,-0.7948749511718749,2.806004345703125,10.979808813476561,11.360532036687493
1.9646854016413826,-0.7661445312499999,2.7341782958984373,11.731588134765625,12.07033009326174
1.967172345187764,-0.6703764648437499,2.5905261962890624,12.296619726562499,12.584398566398088
1.9696592887341455,-0.622492431640625,2.518700146484375,12.641384765624998,12.90488109390885
1.9721462322805272,-0.49799394531249996,2.4899697265625,12.761094848632812,13.011283139820167
1.9746331758269087,-0.4644751220703125,2.360682836914062,12.646173168945312,12.873004948902768
1.9771201193732901,-0.316034619140625,2.2936451904296873,12.291831323242187,12.507989583426841
1.9796070629196716,-0.26336218261718747,2.2026655273437497,11.731588134765625,11.939483038572273
1.982094006466053,-0.22505495605468748,2.1883003173828124,10.979808813476561,11.198013644964005
1.9845809500124345,-0.181959326171875,2.1835119140624997,10.199299072265624,10.431995736231501
1.9870678935588162,-0.201112939453125,2.231395947265625,9.351751684570312,9.616383616399284
1.9895548371051976,-0.1867477294921875,2.2266075439453124,8.489839086914062,8.778953445082076
1.992041780651579,-0.22505495605468748,2.3319524169921872,7.762001782226562,8.10785566445585
1.9945287241979606,-0.26336218261718747,2.422932080078125,7.129932543945312,7.534978273698941
1.997015667744342,-0.37828386230468747,2.427720483398437,6.7037646484375,7.139844948430802
1.9995026112907235,-0.43574470214843747,2.5234885498046875,6.497863305664062,6.984274868985418
2.001989554837105,-0.469263525390625,2.7054478759765623,6.5601125488281244,7.111591461774246
2.0044764983834864,-0.59376201171875,2.6815058593749996,6.694187841796874,7.235687794652548
2.006963441929868,-0.6751648681640625,2.7724855224609373,7.268796240234375,7.80883617151134
2.0094503854762498,-0.7278373046875,2.8012159423828122,7.8912886718749995,8.40529564029827
2.011937329022631,-0.7661445312499999,2.839523168945312,8.662221606445312,9.147893332834043
2.0144242725690127,-0.7805097412109374,2.85388837890625,9.433154541015625,9.886267188887068
2.016911216115394,-0.7900865478515624,2.7629087158203123,10.242394702148436,10.637882804376545
2.0193981596617756,-0.7517793212890624,2.7916391357421872,11.080365283203124,11.451328133510902
2.021885103208157,-0.7326257080078125,2.6767174560546874,11.712434521484374,12.036722111423886
2.0243720467545385,-0.6512228515624999,2.6575638427734374,12.172121240234373,12.475867595793837
2.02685899030092,-0.5602431884765625,2.5139117431640625,12.445060229492187,12.708782349160783
2.0293459338473014,-0.507570751953125,2.422932080078125,12.459425439453124,12.702972495215505
2.031832877393683,-0.40222587890625,2.3223756103515623,12.296619726562499,12.520466078900725
2.0343198209400644,-0.32561142578124996,2.3127988037109373,11.93270107421875,12.159128917554389
2.036806764486446,-0.258573779296875,2.221819140625,11.362881079101562,11.580950181690264
2.0392937080328277,-0.2442085693359375,2.2601263671875,10.678139404296875,10.917438809473168
2.041780651579209,-0.201112939453125,2.2457611572265623,9.90241806640625,10.155873825112833
2.0442675951255906,-0.19632453613281248,2.2601263671875,9.107543115234375,9.385843388582455
2.046754538671972,-0.2346317626953125,2.2840683837890623,8.327033374023436,8.637795161844858
2.0492414822183536,-0.3016694091796875,2.370259643554687,7.6470801025390625,8.011677059451888
2.0517284257647352,-0.3495534423828125,2.418143676757812,7.115567333984375,7.523357291461769
2.0542153693111165,-0.411802685546875,2.5378537597656248,6.79953271484375,7.269382937912306
2.056702312857498,-0.45968671875,2.5713725830078125,6.665457421875,7.159021684760281
2.0591892564038794,-0.5602431884765625,2.6719290527343746,6.79953271484375,7.32712238421816
2.061676199950261,-0.6464344482421874,2.7533319091796873,7.110778930664062,7.652574148530492
2.0641631434966423,-0.699106884765625,2.7964275390625,7.6279264892578125,8.154386546091304
2.066650087043024,-0.7613561279296874,2.839523168945312,8.283937744140625,8.79011828869845
2.0691370305894057,-0.7709329345703124,2.748543505859375,9.011775048828124,9.453090421861418
2.071623974135787,-0.8092401611328125,2.7533319091796873,9.797073193359374,10.20873887395197
2.0741109176821686,-0.74699091796875,2.73896669921875,10.51533369140625,10.891839911262947
2.07659786122855,-0.7805097412109374,2.6815058593749996,11.219228979492186,11.561607501738887
2.0790848047749315,-0.6655880615234374,2.6336218261718747,11.812990991210937,12.121292321751925
2.081571748321313,-0.6368576416015624,2.5665841796874997,12.181698046874999,12.46542054293904
2.0840586918676944,-0.5219359619140624,2.461239306640625,12.382810986328124,12.63582700087416
2.086545635414076,-0.45968671875,2.384624853515625,12.301408129882812,12.538835254892955
2.0890325789604574,-0.411802685546875,2.327164013671875,12.061987963867187,12.29133139406915
2.091519522506839,-0.33518823242187495,2.2840683837890623,11.602301245117188,11.829738531152188
2.0940064660532203,-0.2537853759765625,2.24097275390625,10.989385620117186,11.218420664623347
2.096493409599602,-0.229843359375,2.24097275390625,10.266336718749999,10.510587827345978
2.0989803531459836,-0.201112939453125,2.308010400390625,9.543287817382812,9.820473552132501
2.101467296692365,-0.2346317626953125,2.2553379638671873,8.724470849609375,9.014321549679146
2.1039542402387466,-0.2537853759765625,2.3127988037109373,8.034940771484374,8.365029499336401
2.106441183785128,-0.3016694091796875,2.43250888671875,7.474697583007812,7.866333826746952
2.1089281273315095,-0.38786066894531246,2.4660277099609376,7.005434057617187,7.436923752495564
2.111415070877891,-0.411802685546875,2.5570073730468748,6.813897924804687,7.289518028463701
2.1139020144242724,-0.47884033203125,2.6479870361328124,6.813897924804687,7.326003571986902
2.116388957970654,-0.6081272216796875,2.6815058593749996,6.995857250976562,7.516801917547891
2.1188759015170353,-0.6368576416015624,2.7724855224609373,7.388506323242187,7.917214744877872
2.121362845063417,-0.679953271484375,2.7964275390625,8.049305981445311,8.548313881436545
2.1238497886097982,-0.7517793212890624,2.81558115234375,8.63827958984375,9.116608121755716
2.12633673215618,-0.8283937744140625,2.7581203125,9.366116894531249,9.798857565335704
2.1288236757025616,-0.7948749511718749,2.73896669921875,10.194510668945313,10.58592520976176
2.131310619248943,-0.7613561279296874,2.7054478759765623,10.864887133789061,11.222516820799925
2.1337975627953245,-0.7278373046875,2.6001030029296874,11.501744775390625,11.814415586315063
2.1362845063417057,-0.6560112548828124,2.6048914062499997,11.927912670898436,12.226647565439494
2.1387714498880874,-0.565031591796875,2.47081611328125,12.229582080078124,12.489470397849011
2.141258393434469,-0.5123591552734374,2.442085693359375,12.253524096679687,12.50500488706873
2.1437453369808503,-0.39743747558593745,2.3415292236328122,12.138602416992187,12.368766482149105
2.146232280527232,-0.373495458984375,2.2840683837890623,11.7603185546875,11.98589002733772
2.1487192240736133,-0.28730419921875,2.2601263671875,11.262324609375,11.490459977976453
2.151206167619995,-0.22026655273437498,2.2170307373046874,10.577582934570312,10.80967175182116
2.153693111166376,-0.2154781494140625,2.3032219970703123,9.883264453125,10.15037825162529
2.156180054712758,-0.21068974609375,2.2457611572265623,9.04050546875,9.31764844126002
2.1586669982591395,-0.258573779296875,2.327164013671875,8.346186987304687,8.668413348065686
2.161153941805521,-0.26336218261718747,2.379836450195312,7.742848168945312,8.104608499875296
2.1636408853519025,-0.36391865234375,2.427720483398437,7.230489013671875,7.635851943815156
2.1661278288982837,-0.4070142822265625,2.5378537597656248,6.962338427734375,7.421625072327468
2.1686147724446654,-0.43574470214843747,2.6001030029296874,6.766013891601562,7.261497989577614
2.171101715991047,-0.5267243652343749,2.6767174560546874,6.943184814453125,7.459897470081738
2.1735886595374283,-0.6416460449218749,2.7054478759765623,7.240065820312499,7.755624471249706
2.17607560308381,-0.6847416748046875,2.7341782958984373,7.704540942382812,8.203935229377999
2.178562546630191,-0.7134720947265625,2.7533319091796873,8.379705810546875,8.849256946398022
2.181049490176573,-0.7805097412109374,2.77727392578125,9.112331518554686,9.558087236418944
2.1835364337229546,-0.7613561279296874,2.7629087158203123,9.878476049804688,10.285796847695211
2.186023377269336,-0.7565677246093749,2.7341782958984373,10.59194814453125,10.96528573144
2.1885103208157175,-0.7038952880859375,2.6767174560546874,11.219228979492186,11.555578038783466
2.1909972643620987,-0.699106884765625,2.5953145996093747,11.712434521484374,12.016885234008484
2.1934842079084804,-0.6081272216796875,2.4899697265625,12.066776367187499,12.335998534884006
2.1959711514548617,-0.5219359619140624,2.4756045166015626,12.224793676757812,12.483854184916412
2.1984580950012433,-0.44053310546874996,2.384624853515625,12.167332836914062,12.406631028335836
2.200945038547625,-0.38786066894531246,2.3032219970703123,11.899182250976562,12.126244501421654
2.2034319820940063,-0.3016694091796875,2.27927998046875,11.468225952148437,11.696423733403787
2.205918925640388,-0.258573779296875,2.2744915771484373,10.836156713867187,11.075308784018077
2.208405869186769,-0.26815058593749996,2.1835119140624997,10.13226142578125,10.368334032811935
2.210892812733151,-0.2346317626953125,2.231395947265625,9.351751684570312,9.61714300129735
2.2133797562795325,-0.2154781494140625,2.2744915771484373,8.623914379882812,8.921414798054379
2.2158666998259138,-0.26336218261718747,2.375048046875,8.0062103515625,8.355214961786691
2.2183536433722955,-0.27293898925781246,2.461239306640625,7.503428002929687,7.901495201008433
2.2208405869186767,-0.3687070556640625,2.499546533203125,7.048529687499999,7.48768645978937
2.2233275304650584,-0.45489831542968745,2.499546533203125,6.842628344726562,7.299056652272532
2.2258144740114396,-0.49320554199218747,2.6096798095703124,6.890512377929687,7.384635484946632
2.2283014175578213,-0.603338818359375,2.7341782958984373,7.1586629638671875,7.686755109520864
2.230788361104203,-0.6464344482421874,2.7437551025390623,7.580042456054687,8.087219126138162
2.233275304650584,-0.7326257080078125,2.767697119140625,8.106766821289062,8.597473818866007
2.235762248196966,-0.7709329345703124,2.825157958984375,8.825027319335938,9.298223608294414
2.238249191743347,-0.7757213378906249,2.710236279296875,9.552864624023437,9.960137891043187
2.240736135289729,-0.74699091796875,2.767697119140625,10.338162768554687,10.72826883536936
2.2432230788361105,-0.7230489013671875,2.6958710693359373,10.9941740234375,11.342944194250393
2.2457100223824917,-0.6847416748046875,2.6240450195312497,11.544840405273437,11.85908189570235
2.2481969659288734,-0.6368576416015624,2.5665841796874997,11.937489477539062,12.226880102194684
2.2506839094752547,-0.5410895751953124,2.4947581298828125,12.210428466796873,12.474420202869746
2.2531708530216363,-0.4644751220703125,2.442085693359375,12.191274853515624,12.442134150807696
2.2556577965680176,-0.38307226562499996,2.384624853515625,12.018892333984374,12.25915792330794
2.2581447401143993,-0.33518823242187495,2.250549560546875,11.645396875,11.865605456608254
2.260631683660781,-0.3064578125,2.3032219970703123,11.137826123046874,11.37760601822089
2.263118627207162,-0.2346317626953125,2.231395947265625,10.414777221679687,10.653720688790232
2.265605570753544,-0.26815058593749996,2.2601263671875,9.648632690429688,9.91343475931643
2.268092514299925,-0.201112939453125,2.3415292236328122,9.026140258789061,9.327079579958275
2.2705794578463068,-0.19632453613281248,2.346317626953125,8.269572534179687,8.598231191826478
2.2730664013926885,-0.3064578125,2.403778466796875,7.666233715820312,8.040099918151435
2.2755533449390697,-0.33039982910156246,2.4756045166015626,7.182604980468749,7.604445809862996
2.2780402884854514,-0.43574470214843747,2.518700146484375,6.967126831054687,7.421224976602782
2.2805272320318326,-0.5219359619140624,2.6240450195312497,6.87614716796875,7.378308023417738
2.2830141755782143,-0.565031591796875,2.6719290527343746,7.077260107421875,7.585913009696302
2.2855011191245955,-0.6560112548828124,2.7198130859375,7.4028715332031245,7.913927023044815
2.287988062670977,-0.7038952880859375,2.748543505859375,7.881711865234375,8.376833644448698
2.290475006217359,-0.7709329345703124,2.767697119140625,8.547299926757812,9.017251297976486
2.29296194976374,-0.7613561279296874,2.786850732421875,9.303867651367186,9.742081575951476
2.295448893310122,-0.7565677246093749,2.7916391357421872,10.041281762695311,10.449544641943277
2.297935836856503,-0.737414111328125,2.7246014892578123,10.711658227539061,11.077312617709088
2.3004227804028847,-0.7134720947265625,2.6862942626953124,11.348515869140625,11.683921932633746
2.3029097239492664,-0.699106884765625,2.5474305664062498,11.822567797851562,12.114093538593151
2.3053966674956476,-0.5985504150390625,2.5426421630859375,12.133814013671874,12.411798189111266
2.3078836110420293,-0.507570751953125,2.398990063476562,12.186486450195313,12.430737443679337
2.3103705545884106,-0.45010991210937495,2.3319524169921872,12.095506787109374,12.326470924198205
2.3128574981347922,-0.373495458984375,2.3511060302734372,11.793837377929687,12.031699735304295
2.315344441681174,-0.28730419921875,2.288856787109375,11.295843432617186,11.528984688557193
2.317831385227555,-0.22026655273437498,2.2601263671875,10.66856259765625,10.907562351415622
2.320318328773937,-0.24899697265624998,2.221819140625,9.955090502929687,10.203053793230753
2.322805272320318,-0.2154781494140625,2.269703173828125,9.217676391601563,9.495448456521112
2.3252922158666998,-0.229843359375,2.360682836914062,8.470685473632813,8.796485879006648
2.327779159413081,-0.3064578125,2.3415292236328122,7.886500268554687,8.2324699806244
2.3302661029594627,-0.32082302246093747,2.4851813232421875,7.345410693359375,7.7610638365659
2.3327530465058444,-0.3591302490234375,2.528276953125,7.000645654296875,7.451858725478656
2.3352399900522256,-0.45010991210937495,2.6240450195312497,6.885723974609375,7.382506745815827
2.3377269335986073,-0.5123591552734374,2.6671406494140624,6.967126831054687,7.477767543040604
2.3402138771449885,-0.6416460449218749,2.6767174560546874,7.240065820312499,7.74564904116944
2.34270082069137,-0.6512228515624999,2.748543505859375,7.742848168945312,8.241982793802636
2.345187764237752,-0.74699091796875,2.767697119140625,8.288726147460936,8.770468854196436
2.347674707784133,-0.74699091796875,2.7724855224609373,9.064447485351561,9.508358408183799
2.350161651330515,-0.7900865478515624,2.710236279296875,9.749189160156249,10.149694907888664
2.352648594876896,-0.7565677246093749,2.7150246826171873,10.486603271484375,10.858756923453438
2.3551355384232777,-0.737414111328125,2.6623522460937497,11.133037719726563,11.470676872910365
2.357622481969659,-0.6464344482421874,2.5713725830078125,11.702857714843748,11.999446368495352
2.3601094255160406,-0.63206923828125,2.5570073730468748,12.066776367187499,12.350906449468082
2.3625963690624223,-0.5746083984375,2.398990063476562,12.172121240234373,12.419575822997297
2.3650833126088036,-0.47884033203125,2.360682836914062,12.181698046874999,12.41756332076944
2.3675702561551852,-0.3687070556640625,2.35589443359375,11.937489477539062,12.173324874556265
2.3700571997015665,-0.32082302246093747,2.3032219970703123,11.501744775390625,11.734474502837998
2.372544143247948,-0.3064578125,2.2361843505859373,10.826579907226561,11.059352120635712
2.37503108679433,-0.2154781494140625,2.269703173828125,10.189722265624999,10.441667643663738
2.377518030340711,-0.2154781494140625,2.2553379638671873,9.466673364257812,9.734006613398401
2.3800049738870928,-0.2442085693359375,2.29843359375,8.695740429687499,8.99768505954267
2.382491917433474,-0.239420166015625,2.3223756103515623,8.044517578125,8.37645590665962
2.3849788609798557,-0.316034619140625,2.389413256835937,7.4794859863281244,7.858236711382362
2.387465804526237,-0.373495458984375,2.4851813232421875,7.072471704101562,7.505696574775122
2.3899527480726186,-0.45010991210937495,2.5617957763671875,6.900089184570312,7.374050941498578
2.3924396916190003,-0.488417138671875,2.6431986328124997,6.9910688476562495,7.489999595895848
2.3949266351653815,-0.5746083984375,2.6623522460937497,7.129932543945312,7.632446028308737
2.397413578711763,-0.6512228515624999,2.748543505859375,7.541735229492187,8.053344204599883
2.3999005222581444,-0.718260498046875,2.748543505859375,8.097190014648437,8.581076603782222
2.402387465804526,-0.7900865478515624,2.7341782958984373,8.772354882812499,9.22248219824047
2.404874409350908,-0.7565677246093749,2.786850732421875,9.514557397460937,9.943124971370901
2.407361352897289,-0.7948749511718749,2.7533319091796873,10.256759912109374,10.649590916310421
2.4098482964436707,-0.74699091796875,2.70065947265625,10.97502041015625,11.327075086805154
2.412335239990052,-0.7038952880859375,2.6527754394531247,11.559205615234374,11.880569033679372
2.4148221835364336,-0.6560112548828124,2.5570073730468748,11.966219897460936,12.253940431825962
2.417309127082815,-0.55545478515625,2.5330653564453125,12.16254443359375,12.43593330705495
2.4197960706291965,-0.49799394531249996,2.39420166015625,12.220005273437499,12.46229226273815
2.4222830141755782,-0.45010991210937495,2.308010400390625,12.00931552734375,12.237367787910523
2.4247699577219595,-0.354341845703125,2.2744915771484373,11.616666455078125,11.842542362460556
2.427256901268341,-0.28730419921875,2.2457611572265623,11.085153686523437,11.314001022275033
2.4297438448147224,-0.2154781494140625,2.2601263671875,10.419565624999999,10.66404941109205
2.432230788361104,-0.22026655273437498,2.2744915771484373,9.715670336914062,9.980785509385745
2.4347177319074857,-0.2346317626953125,2.2601263671875,8.930372192382812,9.214921093216473
2.437204675453867,-0.258573779296875,2.308010400390625,8.279149340820313,8.598725848360127
2.4396916190002487,-0.24899697265624998,2.4133552734375,7.68059892578125,8.054680814714674
2.44217856254663,-0.3495534423828125,2.442085693359375,7.187393383789062,7.598986366360121
2.4446655060930116,-0.4213794921875,2.5139117431640625,7.000645654296875,7.450258552955065
2.4471524496393933,-0.4836287353515625,2.5857377929687497,6.866570361328125,7.353211897852156
2.4496393931857745,-0.565031591796875,2.6623522460937497,7.015010864257812,7.52447723152008
2.452126336732156,-0.6272808349609375,2.70065947265625,7.3549875,7.860208900424561
2.4546132802785374,-0.6751648681640625,2.767697119140625,7.896077075195312,8.394285444272626
2.457100223824919,-0.7565677246093749,2.748543505859375,8.537723120117187,9.00108894530578
2.4595871673713003,-0.8283937744140625,2.7341782958984373,9.227253198242186,9.659408304017422
2.462074110917682,-0.7422025146484375,2.7437551025390623,9.993397729492187,10.38975720675316
2.4645610544640637,-0.718260498046875,2.7150246826171873,10.711658227539061,11.073702143090195
2.467047998010445,-0.70868369140625,2.6815058593749996,11.362881079101562,11.696485483517343
2.4695349415568266,-0.6560112548828124,2.5809493896484375,11.812990991210937,12.109434614253892
2.472021885103208,-0.622492431640625,2.5139117431640625,12.105083593749999,12.379026532467867
2.4745088286495895,-0.5267243652343749,2.4516625,12.229582080078124,12.484020403067506
2.4769957721959712,-0.45489831542968745,2.35589443359375,12.119448803710936,12.354683742022264
2.4794827157423525,-0.411802685546875,2.288856787109375,11.750741748046874,11.978663467725102
2.481969659288734,-0.3016694091796875,2.250549560546875,11.281478222656249,11.507724737982732
2.4844566028351154,-0.4644751220703125,2.389413256835937,10.587159741210938,10.863378122705809
2.486943546381497,-0.2059013427734375,2.269703173828125,9.94072529296875,10.198625751075976
2.4894304899278783,-0.239420166015625,2.2553379638671873,9.222464794921875,9.497248456301904
2.49191743347426,-0.24899697265624998,2.3511060302734372,8.489839086914062,8.81289207806801
2.4944043770206417,-0.26815058593749996,2.3511060302734372,7.819462622070312,8.169675636173169
2.496891320567023,-0.26336218261718747,2.47081611328125,7.3837179199218745,7.7906085914939
2.4993782641134046,-0.39264907226562495,2.528276953125,7.019799267578125,7.471541969549825
2.501865207659786,-0.4836287353515625,2.6192566162109374,6.909665991210937,7.405260703399951
2.5043521512061675,-0.5363011718749999,2.6527754394531247,6.976703637695312,7.483263334091031
2.506839094752549,-0.6272808349609375,2.6815058593749996,7.225700610351562,7.732703552458654
2.5093260382989304,-0.6751648681640625,2.73896669921875,7.685387329101562,8.186755436492964
2.511812981845312,-0.74699091796875,2.77727392578125,8.303091357421874,8.787068451995012
2.5142999253916933,-0.7517793212890624,2.8107927490234372,9.074024291992187,9.529094651515688
2.516786868938075,0.622492431640625,1.1061211669921875,2.5043349365234375,2.8076136375594607
2.5192738124844563,0.2154781494140625,1.3168109130859373,-0.6416460449218749,1.4805848373737365
2.521760756030838,-0.2442085693359375,1.6136919189453125,-2.7820623291015623,3.225447292642141
2.5242476995772196,-0.6560112548828124,1.9488801513671874,-3.7301661865234372,4.2594159681825765
2.526734643123601,-1.0534487304687499,2.327164013671875,-3.6631285400390623,4.46586579233012
2.5292215866699825,-1.3646949462890625,2.6479870361328124,-2.528276953125,3.907225613099066
2.5317085302163638,-1.608903515625,3.0119056884765625,-0.45489831542968745,3.4448626788667105
2.5341954737627455,-1.7286135986328124,3.308786694335937,2.1883003173828124,4.327219966797451
2.536682417309127,-1.7429788085937499,3.4524387939453125,5.190629199218749,6.473016316751235
2.5391693608555084,-1.70467158203125,3.5529952636718747,8.432378247070313,9.30777542960316
2.54165630440189,-1.5610194824218748,3.5482068603515624,11.583147631835937,12.214575834193058
2.5441432479482713,-1.3072341064453123,3.4955344238281247,14.264653491210936,14.744760464027133
2.546630191494653,-0.9720458740234375,3.375824340820312,16.486472631835937,16.85659642399842
2.549117135041034,-0.679953271484375,3.19865341796875,17.994819677734373,18.289539506883756
2.551604078587416,-0.39264907226562495,2.9496564453125,18.703503369140623,18.938735034811042
2.5540910221337976,-0.105344873046875,2.6862942626953124,18.665196142578125,18.8578053189914
2.556577965680179,0.1484405029296875,2.4851813232421875,17.932570434570312,18.104564153359977
2.5590649092265605,0.33039982910156246,2.2601263671875,16.55351027832031,16.710357200765717
2.5615518527729417,0.38786066894531246,2.068590234375,14.700398193359375,14.850293212579672
2.5640387963193234,0.36391865234375,1.9297265380859374,12.598289135742187,12.75041844196011
2.566525739865705,0.33039982910156246,1.8100164550781248,10.381258398437499,10.543047450801549
2.5690126834120863,0.22505495605468748,1.70467158203125,8.25520732421875,8.432378247070313
2.571499626958468,0.033518823242187495,1.8195932617187498,6.325480786132812,6.582077964088483
2.5739865705048492,-0.229843359375,1.8722656982421875,4.874594580078124,5.226842176189187
2.576473514051231,-0.36391865234375,2.039859814453125,3.9264907226562498,4.439684025158775
2.5789604575976126,-0.622492431640625,2.231395947265625,3.404554760742187,4.117962823996303
2.581447401143994,-0.7613561279296874,2.346317626953125,3.4668040039062498,4.254832495126857
2.5839343446903755,-0.9576806640625,2.4947581298828125,3.9743747558593747,4.789219673490436
2.5864212882367568,-1.0630255371093749,2.7198130859375,4.9416322265625,5.739959544943203
2.5889082317831384,-1.0773907470703123,2.834734765625,6.253654736328125,6.950157521561287
2.5913951753295197,-1.120486376953125,2.85388837890625,7.599196069335937,8.194385242372025
2.5938821188759014,-1.0869675537109373,2.959233251953125,9.102754711914063,9.633208356905765
2.596369062422283,-0.93852705078125,2.9496564453125,10.51533369140625,10.961457421896283
2.5988560059686643,-0.8475473876953125,2.96881005859375,11.717222924804688,12.117156547968053
2.601342949515046,-0.6560112548828124,2.920926025390625,12.69884560546875,13.046947509815089
2.603829893061427,-0.5506663818359374,2.825157958984375,13.259088793945311,13.567910178174941
2.606316836607809,-0.43574470214843747,2.70065947265625,13.541604589843748,13.81515435673361
2.6088037801541906,-0.2825157958984375,2.6048914062499997,13.426682910156249,13.679952060704347
2.611290723700572,-0.13407529296874998,2.5474305664062498,13.072341064453123,13.318914354414662
2.6137776672469535,-0.1005564697265625,2.461239306640625,12.382810986328124,12.625443297218723
2.6162646107933347,-0.0718260498046875,2.370259643554687,11.554417211914062,11.79524679124055
2.6187515543397164,-0.09576806640624999,2.3223756103515623,10.572794531249999,10.825275248146296
2.6212384978860976,-0.1292868896484375,2.269703173828125,9.658209497070311,9.922160968580362
2.6237254414324793,-0.19153613281249998,2.2553379638671873,8.772354882812499,9.059660347465442
2.626212384978861,-0.32561142578124996,2.2649147705078123,8.030152368164062,8.349802918284636
2.6286993285252422,-0.4070142822265625,2.2457611572265623,7.517793212890624,7.856609866413652
2.631186272071624,-0.5602431884765625,2.3032219970703123,7.196970190429687,7.577274174791121
2.633673215618005,-0.63206923828125,2.39420166015625,7.086836914062499,7.506994775407485
2.636160159164387,-0.7038952880859375,2.437297290039062,7.311891870117187,7.739486376815141
2.6386471027107685,-0.7661445312499999,2.442085693359375,7.560888842773437,7.982343018766524
2.6411340462571498,-0.8044517578125,2.4947581298828125,8.068459594726562,8.48357241903428
2.6436209898035314,-0.7900865478515624,2.5761609863281247,8.671798413085938,9.08080006925463
2.6461079333499127,-0.7805097412109374,2.5570073730468748,9.222464794921875,9.602152834417634
2.6485948768962944,-0.7038952880859375,2.6815058593749996,9.849745629882811,10.232469458730263
2.6510818204426756,-0.689530078125,2.6048914062499997,10.319009155273436,10.665029813067152
2.6535687639890573,-0.612915625,2.6240450195312497,10.697293017578124,11.031471149933791
2.656055707535439,-0.488417138671875,2.6192566162109374,10.97502041015625,11.293809345223577
2.65854265108182,-0.45968671875,2.6144682128906247,11.01332763671875,11.328730800461436
2.661029594628202,-0.39264907226562495,2.5953145996093747,10.855310327148437,11.168150852472944
2.663516538174583,-0.296881005859375,2.5665841796874997,10.663774194335938,10.972309362702426
2.666003481720965,-0.2825157958984375,2.5713725830078125,10.357316381835936,10.675475388432286
2.6684904252673465,-0.239420166015625,2.5378537597656248,9.9981861328125,10.31803031921382
2.6709773688137277,-0.2537853759765625,2.50912333984375,9.567229833984374,9.894038288175809
2.6734643123601094,-0.3399766357421875,2.4851813232421875,9.184157568359375,9.520528376234964
2.6759512559064906,-0.38307226562499996,2.43250888671875,8.901641772460938,9.235966115674
2.6784381994528723,-0.4165910888671875,2.50912333984375,8.705317236328124,9.069277603810775
2.6809251429992536,-0.4740519287109375,2.5043349365234375,8.59997236328125,8.969723705589136
2.6834120865456352,-0.5267243652343749,2.4564509033203126,8.604760766601562,8.964011236483376
2.685899030092017,-0.5889736083984375,2.5043349365234375,8.820238916015624,9.187774372571313
2.688385973638398,-0.6512228515624999,2.499546533203125,8.949525805664061,9.31481809915212
2.69087291718478,-0.6655880615234374,2.480392919921875,9.270348828125,9.619497071051047
2.693359860731161,-0.689530078125,2.4516625,9.567229833984374,9.900403397782638
2.6958468042775428,-0.689530078125,2.4899697265625,9.883264453125,10.215396087193144
2.6983337478239244,-0.6655880615234374,2.5139117431640625,10.175357055664062,10.502411672102419
2.7008206913703057,-0.6177040283203125,2.47081611328125,10.366893188476562,10.675156435084928
2.7033076349166874,-0.5698199951171875,2.442085693359375,10.520122094726561,10.814871531761247
2.7057945784630686,-0.49320554199218747,2.4660277099609376,10.505756884765624,10.802567847264246
2.7082815220094503,-0.45968671875,2.43250888671875,10.409988818359375,10.700293386712724
2.7107684655558315,-0.38307226562499996,2.442085693359375,10.237606298828124,10.531814165859883
2.713255409102213,-0.3447650390625,2.442085693359375,9.969455712890625,10.269989906380522
2.715742352648595,-0.3112462158203125,2.5139117431640625,9.624690673828125,9.952451809788116
2.718229296194976,-0.3064578125,2.5522189697265625,9.255983618164063,9.606298496298972
2.720716239741358,-0.3064578125,2.5330653564453125,8.94473740234375,9.30154093082178
2.723203183287739,-0.3399766357421875,2.5378537597656248,8.619125976562499,8.991419154875471
2.7256901268341207,-0.3591302490234375,2.5857377929687497,8.427589843749999,8.822657481973822
2.7281770703805024,-0.4740519287109375,2.5857377929687497,8.312668164062499,8.718441212219055
2.7306640139268836,-0.5219359619140624,2.5378537597656248,8.317456567382813,8.711670483012725
2.7331509574732653,-0.5602431884765625,2.6096798095703124,8.432378247070313,8.844733124316296
2.7356379010196465,-0.612915625,2.6431986328124997,8.690952026367187,9.104658790997437
2.7381248445660282,-0.6512228515624999,2.6001030029296874,9.02135185546875,9.41113256353403
2.74061178811241,-0.6607996582031249,2.6096798095703124,9.409212524414063,9.78674436298153
2.743098731658791,-0.7326257080078125,2.5474305664062498,9.801861596679688,10.153946704565614
2.745585675205173,-0.7038952880859375,2.5426421630859375,10.24718310546875,10.581363775199117
2.748072618751554,-0.6943184814453125,2.528276953125,10.611101757812499,10.93022154487415
2.7505595622979357,-0.6416460449218749,2.4899697265625,10.884040747070312,11.183648862068608
2.753046505844317,-0.5985504150390625,2.461239306640625,11.056423266601563,11.342859294470008
2.7555334493906987,-0.5219359619140624,2.446874096679687,11.128249316406249,11.406030985467176
2.7580203929370803,-0.49320554199218747,2.346317626953125,11.018116040039061,11.275962893915924
2.7605073364834616,-0.430956298828125,2.327164013671875,10.845733520507812,11.10096172752144
2.7629942800298433,-0.37828386230468747,2.288856787109375,10.433930834960936,10.688726619252895
2.7654812235762245,-0.3399766357421875,2.365471240234375,10.041281762695311,10.321742960327194
2.767968167122606,-0.2920926025390625,2.39420166015625,9.528922607421874,9.82943974681104
2.770455110668988,-0.27293898925781246,2.418143676757812,9.09796630859375,9.41779727354586
2.772942054215369,-0.296881005859375,2.43250888671875,8.585607153320312,8.928487442268745
2.775428997761751,-0.3399766357421875,2.4516625,8.183381274414062,8.549500699408565
2.777915941308132,-0.38307226562499996,2.50912333984375,7.9295958984374995,8.325919493230554
2.7804028848545137,-0.4070142822265625,2.5665841796874997,7.747636572265624,8.17183501015937
2.782889828400895,-0.4740519287109375,2.6096798095703124,7.742848168945312,8.184549572635825
2.7853767719472766,-0.5985504150390625,2.6336218261718747,7.8338278320312495,8.286319148122388
2.7878637154936583,-0.584185205078125,2.6862942626953124,8.173804467773436,8.623718959765265
2.7903506590400395,-0.6607996582031249,2.6862942626953124,8.566453540039062,9.00205306070337
2.792837602586421,-0.6703764648437499,2.6767174560546874,9.05965908203125,9.470567228355204
2.7953245461328025,-0.6943184814453125,2.70065947265625,9.557653027343749,9.956122293946454
2.797811489679184,-0.7278373046875,2.6192566162109374,10.137049829101562,10.495238520460006
2.800298433225566,-0.7278373046875,2.6096798095703124,10.654197387695312,10.993275118296063
2.802785376771947,-0.6847416748046875,2.5426421630859375,11.066000073242186,11.374983865997908
2.8052723203183287,-0.6272808349609375,2.4899697265625,11.396399902343749,11.682095754583063
2.80775926386471,-0.6177040283203125,2.43250888671875,11.516109985351562,11.78640941700579
2.8102462074110917,-0.49320554199218747,2.375048046875,11.602301245117188,11.85316409715416
2.812733150957473,-0.411802685546875,2.360682836914062,11.353304272460937,11.603444437381686
2.8152200945038546,-0.39264907226562495,2.3032219970703123,11.061211669921875,11.305282325910992
2.8177070380502363,-0.32082302246093747,2.2840683837890623,10.649408984374999,10.896320824482578
2.8201939815966175,-0.2825157958984375,2.3319524169921872,10.084377392578125,10.354346171825075
2.822680925142999,-0.2442085693359375,2.3415292236328122,9.519345800781249,9.806137945456161
2.8251678686893804,-0.2537853759765625,2.3319524169921872,8.872911352539061,9.177742912186625
2.827654812235762,-0.26815058593749996,2.422932080078125,8.374917407226562,8.722485091949244
2.8301417557821438,-0.3447650390625,2.43250888671875,7.8529814453124995,8.228321821401241
2.832628699328525,-0.38307226562499996,2.4660277099609376,7.575254052734374,7.9757451683497775
2.8351156428749067,-0.4165910888671875,2.6144682128906247,7.37414111328125,7.834982407773733
2.837602586421288,-0.4836287353515625,2.6431986328124997,7.350199096679687,7.825971027737741
2.8400895299676696,-0.5793968017578125,2.6623522460937497,7.570465649414062,8.045854229671694
2.842576473514051,-0.6607996582031249,2.7198130859375,7.8912886718749995,8.372961024248287
2.8450634170604325,-0.6607996582031249,2.7246014892578123,8.33182177734375,8.790868193356491
2.847550360606814,-0.7278373046875,2.6671406494140624,8.911218579101561,9.33023059470539
2.8500373041531954,-0.7230489013671875,2.7150246826171873,9.595960253906249,9.998830528393675
2.852524247699577,-0.737414111328125,2.6719290527343746,10.199299072265624,10.569232990144096
2.8550111912459584,-0.70868369140625,2.6431986328124997,10.788272680664061,11.129939758117722
2.85749813479234,-0.679953271484375,2.518700146484375,11.271901416015623,11.569872445782526
2.8599850783387217,-0.6607996582031249,2.518700146484375,11.635820068359374,11.923624251015987
2.862472021885103,-0.5793968017578125,2.437297290039062,11.846509814453125,12.108505833415332
2.8649589654314846,-0.5027823486328125,2.398990063476562,11.85608662109375,12.106805250834517
2.867445908977866,-0.44532150878906246,2.31758720703125,11.674127294921874,11.910280005374558
2.8699328525242476,-0.354341845703125,2.327164013671875,11.348515869140625,11.59008468141119
2.8724197960706292,-0.316034619140625,2.3367408203125,10.869675537109375,11.122503397340191
2.8749067396170105,-0.296881005859375,2.27927998046875,10.314220751953124,10.56723262169553
2.877393683163392,-0.2825157958984375,2.250549560546875,9.6151138671875,9.879028453162347
2.8798806267097734,-0.229843359375,2.3127988037109373,9.0021982421875,9.297388852142264
2.882367570256155,-0.277727392578125,2.370259643554687,8.303091357421874,8.639247037337574
2.8848545138025363,-0.27293898925781246,2.418143676757812,7.79552060546875,8.166520436733672
2.887341457348918,-0.3687070556640625,2.446874096679687,7.4028715332031245,7.805488112540283
2.8898284008952997,-0.39743747558593745,2.5139117431640625,7.187393383789062,7.624718516296394
2.892315344441681,-0.45489831542968745,2.6288334228515624,7.168239770507812,7.648618113749183
2.8948022879880626,-0.5410895751953124,2.710236279296875,7.311891870117187,7.81677179776203
2.897289231534444,-0.6177040283203125,2.7533319091796873,7.671022119140624,8.173553402349244
2.8997761750808255,-0.6560112548828124,2.748543505859375,8.106766821289062,8.585133106998857
2.902263118627207,-0.7134720947265625,2.7581203125,8.762778076171875,9.214257957123682
2.9047500621735884,-0.74699091796875,2.7533319091796873,9.452308154296874,9.87344729450773
2.90723700571997,-0.7326257080078125,2.6671406494140624,10.108319409179687,10.479909396067773
2.9097239492663514,-0.6943184814453125,2.6575638427734374,10.716446630859375,11.062863649351849
2.912210892812733,-0.7326257080078125,2.5713725830078125,11.3006318359375,11.61262146459973
2.9146978363591143,-0.6368576416015624,2.5474305664062498,11.717222924804688,12.007843404037866
2.917184779905496,-0.5602431884765625,2.47081611328125,11.956643090820311,12.222115966441562
2.9196717234518776,-0.5219359619140624,2.403778466796875,12.057199560546874,12.305552783545615
2.922158666998259,-0.43574470214843747,2.3367408203125,11.880028637695311,12.115498815122136
2.9246456105446406,-0.3447650390625,2.27927998046875,11.583147631835937,11.810304366206312
2.927132554091022,-0.33039982910156246,2.24097275390625,11.042058056640624,11.272008208701882
2.9296194976374035,-0.27293898925781246,2.2553379638671873,10.472238061523436,10.715820782391697
2.932106441183785,-0.2346317626953125,2.269703173828125,9.811438403320311,10.07327792247884
2.9345933847301664,-0.229843359375,2.3367408203125,9.131485131835937,9.42853150517642
2.937080328276548,-0.26336218261718747,2.3367408203125,8.432378247070313,8.754125895953988
2.9395672718229293,-0.24899697265624998,2.370259643554687,7.838616235351562,8.192925897100075
2.942054215369311,-0.32082302246093747,2.480392919921875,7.4220251464843745,7.832096381173174
2.9445411589156922,-0.37828386230468747,2.5426421630859375,7.125144140624999,7.5746819652487885
2.947028102462074,-0.4836287353515625,2.6144682128906247,7.024587670898437,7.510936874718864
2.9495150460084556,-0.5746083984375,2.6671406494140624,7.105990527343749,7.6117616508933645
2.952001989554837,-0.6416460449218749,2.7054478759765623,7.407659936523437,7.912305832800221
2.9544889331012185,-0.6703764648437499,2.767697119140625,7.876923461914062,8.375886530557105
2.9569758766475998,-0.7613561279296874,2.729389892578125,8.494627490234375,8.954771272181622
2.9594628201939814,-0.7757213378906249,2.7437551025390623,9.203311181640624,9.63487791115587
2.961949763740363,-0.7852981445312499,2.710236279296875,9.931148486328125,10.324232858809346
2.9644367072867444,-0.7709329345703124,2.6719290527343746,10.611101757812499,10.969458645124776
2.966923650833126,-0.7326257080078125,2.6240450195312497,11.204863769531249,11.531319299469368
2.9694105943795073,-0.6416460449218749,2.6048914062499997,11.736376538085937,12.039090627163375
2.971897537925889,-0.603338818359375,2.518700146484375,12.014103930664062,12.29010013850324
2.97438448147227,-0.5458779785156249,2.403778466796875,12.100295190429687,12.348816841317246
2.976871425018652,-0.430956298828125,2.403778466796875,12.023680737304687,12.269179790090606
2.9793583685650336,-0.36391865234375,2.370259643554687,11.741164941406248,11.983552133849749
2.981845312111415,-0.277727392578125,2.3127988037109373,11.310208642578125,11.547596734805207
2.9843322556577965,-0.28730419921875,2.231395947265625,10.70686982421875,10.940691614753074
2.9868191992041777,-0.239420166015625,2.250549560546875,10.022128149414062,10.27449988970998
2.9893061427505594,-0.229843359375,2.2840683837890623,9.279925634765624,9.559645188941571
2.991793086296941,-0.21068974609375,2.288856787109375,8.595183959960938,8.89721545578028
2.9942800298433223,-0.27293898925781246,2.389413256835937,7.982268334960937,8.336689941164925
2.996766973389704,-0.32082302246093747,2.442085693359375,7.474697583007812,7.870058062230186
2.9992539169360852,-0.38307226562499996,2.5139117431640625,7.091625317382812,7.533767069352099
3.001740860482467,-0.4740519287109375,2.5474305664062498,6.9527616210937495,7.419907134292829
3.0042278040288486,-0.5123591552734374,2.6623522460937497,6.995857250976562,7.502842798720648
3.00671474757523,-0.622492431640625,2.6336218261718747,7.235277416992187,7.724810680630036
3.0092016911216115,-0.6464344482421874,2.767697119140625,7.714117749023437,8.221048441955071
3.0116886346679927,-0.7278373046875,2.7533319091796873,8.312668164062499,8.786981037308548
3.0141755782143744,-0.7565677246093749,2.7916391357421872,8.911218579101561,9.368855872018356
3.0166625217607557,-0.7852981445312499,2.729389892578125,9.701305126953125,10.108490665166528
3.0191494653071373,-0.718260498046875,2.7150246826171873,10.453084448242187,10.823780839076417
3.021636408853519,-0.6943184814453125,2.6862942626953124,11.046846459960937,11.38995486072784
3.0241233523999003,-0.737414111328125,2.5761609863281247,11.563994018554688,11.870397746505109
3.026610295946282,-0.6177040283203125,2.4899697265625,11.990161914062499,12.26154518122556
3.029097239492663,-0.5793968017578125,2.384624853515625,12.090718383789062,12.337244724085942
3.031584183039045,-0.4740519287109375,2.3511060302734372,12.148179223632813,12.382676739954354
3.0340711265854265,-0.4070142822265625,2.3319524169921872,11.89439384765625,12.12766538556432
3.036558070131808,-0.354341845703125,2.3127988037109373,11.482591162109374,11.718553504857814
3.0390450136781895,-0.32082302246093747,2.2266075439453124,10.89840595703125,11.128160718229648
3.0415319572245707,-0.2537853759765625,2.1978771240234374,10.213664282226562,10.450550652448689
3.0440189007709524,-0.201112939453125,2.2744915771484373,9.562441430664062,9.831278882414802
3.0465058443173336,-0.2346317626953125,2.2936451904296873,8.815450512695312,9.111971689235364
3.0489927878637153,-0.26815058593749996,2.308010400390625,8.097190014648437,8.423971918185165
3.051479731410097,-0.27293898925781246,2.4564509033203126,7.56567724609375,7.959153153718112
3.0539666749564782,-0.373495458984375,2.446874096679687,7.211335400390625,7.624306523206618
3.05645361850286,-0.4070142822265625,2.5474305664062498,6.890512377929687,7.357596343032111
3.058940562049241,-0.4836287353515625,2.6240450195312497,6.928819604492187,7.424826606041368
3.061427505595623,-0.5746083984375,2.710236279296875,7.091625317382812,7.613586877636371
3.0639144491420045,-0.679953271484375,2.6910826660156246,7.50821640625,8.004847029757267
3.0664013926883857,-0.6416460449218749,2.77727392578125,8.039729174804688,8.530076512552155
3.0688883362347674,-0.7278373046875,2.8107927490234372,8.710105639648438,9.181298561417824
3.0713752797811487,-0.7422025146484375,2.8012159423828122,9.457096557617186,9.891124841427537
3.0738622233275303,-0.74699091796875,2.7341782958984373,10.199299072265624,10.585812578673794
3.0763491668739116,-0.7900865478515624,2.6719290527343746,10.884040747070312,11.23502490428165
3.0788361104202933,-0.6943184814453125,2.6671406494140624,11.477802758789062,11.804053268564116
3.081323053966675,-0.6368576416015624,2.5474305664062498,11.937489477539062,12.222873850804605
3.083809997513056,-0.5889736083984375,2.461239306640625,12.181698046874999,12.441798750228234
3.086296941059438,-0.507570751953125,2.379836450195312,12.196063256835936,12.436446782045909
3.088783884605819,-0.4070142822265625,2.346317626953125,12.057199560546874,12.290115063551646
3.091270828152201,-0.3399766357421875,2.2744915771484373,11.698069311523437,11.921984803906446
3.0937577716985825,-0.296881005859375,2.288856787109375,11.142614526367186,11.379141540852094
3.0962447152449637,-0.2442085693359375,2.269703173828125,10.539275708007812,10.7836692629191
3.0987316587913454,-0.2059013427734375,2.2266075439453124,9.758765966796874,10.011677667225559
3.1012186023377266,-0.22505495605468748,2.24097275390625,8.968679418945312,9.24715194731914
3.1037055458841083,-0.239420166015625,2.2840683837890623,8.264784130859374,8.57793373298166
3.1061924894304895,-0.26815058593749996,2.389413256835937,7.690175732421874,8.057295032714903
3.108679432976871,-0.316034619140625,2.461239306640625,7.283161450195312,7.694284730542487
3.111166376523253,-0.37828386230468747,2.518700146484375,6.957550024414062,7.409078988012254
3.113653320069634,-0.49799394531249996,2.5761609863281247,6.880935571289062,7.364229608946081
3.116140263616016,-0.5458779785156249,2.6479870361328124,7.019799267578125,7.522459695342084
3.118627207162397,-0.6272808349609375,2.7629087158203123,7.331045483398437,7.859476680894331
3.1211141507087787,-0.699106884765625,2.7724855224609373,7.881711865234375,8.384319193301177
3.1236010942551604,-0.7278373046875,2.7581203125,8.480262280273436,8.947168442728028
3.1260880378015417,-0.7757213378906249,2.7341782958984373,9.217676391601563,9.645881639752258
3.1285749813479233,-0.7517793212890624,2.748543505859375,9.97903251953125,10.377897358202278
3.1310619248943046,-0.7422025146484375,2.6815058593749996,10.649408984374999,11.006872851227994
3.1335488684406863,-0.699106884765625,2.6575638427734374,11.295843432617186,11.625294614285878
3.136035811987068,-0.6655880615234374,2.5665841796874997,11.784260571289062,12.078872423827594
3.138522755533449,-0.565031591796875,2.5043349365234375,12.090718383789062,12.360276097649079
3.141009699079831,-0.5027823486328125,2.427720483398437,12.220005273437499,12.468967307618117
3.143496642626212,-0.44532150878906246,2.3511060302734372,12.114660400390624,12.348724931286267
3.1459835861725938,-0.354341845703125,2.308010400390625,11.812990991210937,12.041562453035667
3.148470529718975,-0.3064578125,2.2361843505859373,11.324573852539062,11.547311798953865
3.1509574732653567,-0.26815058593749996,2.2361843505859373,10.697293017578124,10.931811519161394
3.1534444168117384,-0.2537853759765625,2.2361843505859373,10.01733974609375,10.26703574823496
3.1559313603581196,-0.22026655273437498,2.2361843505859373,9.265560424804686,9.534130678240452
3.1584183039045013,-0.2154781494140625,2.27927998046875,8.489839086914062,8.793117523605284
3.1609052474508825,-0.229843359375,2.365471240234375,7.8912886718749995,8.241402736251118
3.163392190997264,-0.33039982910156246,2.427720483398437,7.388506323242187,7.784151622442389
3.165879134543646,-0.3399766357421875,2.4660277099609376,7.038952880859375,7.4661726766867815
3.168366078090027,-0.4165910888671875,2.5905261962890624,6.909665991210937,7.39106610842309
3.170853021636409,-0.5698199951171875,2.6144682128906247,6.919242797851562,7.418629237175259
3.17333996518279,-0.5746083984375,2.710236279296875,7.230489013671875,7.743095432577436
3.1758269087291717,-0.6560112548828124,2.7533319091796873,7.714117749023437,8.216982415366264
3.178313852275553,-0.70868369140625,2.7533319091796873,8.226476904296874,8.703906676516134
3.1808007958219346,-0.7565677246093749,2.7437551025390623,8.968679418945312,9.409452550730194
3.1832877393683163,-0.8092401611328125,2.729389892578125,9.686939916992188,10.096595652967117
3.1857746829146976,-0.7134720947265625,2.7437551025390623,10.405200415039062,10.78449953265295
3.1882616264610792,-0.7422025146484375,2.6623522460937497,11.099518896484375,11.438457229383891
3.1907485700074605,-0.7038952880859375,2.5809493896484375,11.674127294921874,11.976728118587152
3.193235513553842,-0.6081272216796875,2.50912333984375,12.028469140624999,12.302422059060746
3.195722457100224,-0.5698199951171875,2.43250888671875,12.220005273437499,12.472783297790487
3.198209400646605,-0.4644751220703125,2.375048046875,12.16254443359375,12.40097082744449
3.2006963441929868,-0.38786066894531246,2.27927998046875,11.947066284179687,12.168728196753486
