Time (s),Acceleration x (m/s^2),Acceleration y (m/s^2),Acceleration z (m/s^2),Absolute acceleration (m/s^2)
0.0,-0.4070142822265625,2.4851813232421875,-5.042188696289062,5.636084960707511
0.002486943546381497,-0.9528922607421875,1.93451494140625,-1.838746875,2.8339622067749333
0.004973887092762994,-1.3934253662109375,1.5514426757812498,2.1787235107421874,3.0158655082241537
0.007460830639144491,-1.7717092285156248,1.2306196533203124,6.5026517089843745,6.851120898794813
0.009947774185525988,-2.01112939453125,1.005564697265625,10.86009873046875,11.0904258816992
0.012434717731907486,-2.1404162841796874,0.9097966308593749,14.844050292968749,15.025143622584453
0.014921661278288981,-2.1021090576171875,0.948103857421875,18.243816650390624,18.388980651130304
0.01740860482467048,-1.9584569580078124,1.13006318359375,20.772093603515625,20.894795264096224
0.019895548371051976,-1.7525556152343749,1.4030021728515625,22.227768212890624,22.340849267821188
0.022382491917433474,-1.4413093994140624,1.7286135986328124,22.58689846191406,22.69875458889834
0.02486943546381497,-1.0438719238281249,2.1499930908203124,21.926098803710936,22.055973060239847
0.027356379010196465,-0.6081272216796875,2.5474305664062498,20.293253271484375,20.46155784755941
0.029843322556577963,-0.258573779296875,2.9544448486328125,17.87510959472656,18.119468750116223
0.032330266102959464,0.08140285644531249,3.2130186279296873,14.86320390625,15.206740133481135
0.03481720964934096,0.38307226562499996,3.4907460205078125,11.621454858398437,12.140439249309509
0.03730415319572245,0.59376201171875,3.6487633300781246,8.312668164062499,9.097608431412143
0.03979109674210395,0.689530078125,3.77326181640625,5.315127685546875,6.554657792551442
0.04227804028848545,0.699106884765625,3.706224169921875,2.7629087158203123,4.675308824665557
0.04476498383486695,0.622492431640625,3.5673604736328124,0.9528922607421875,3.7445375197572717
0.04725192738124844,0.39743747558593745,3.380612744140625,-0.143652099609375,3.406924566022604
0.04973887092762994,0.11013327636718749,3.1364041748046874,-0.40222587890625,3.1640079241300185
0.05222581447401144,-0.1484405029296875,2.829946362304687,0.1484405029296875,2.837721899577471
0.05471275802039293,-0.43574470214843747,2.499546533203125,1.426944189453125,2.9109751007028946
0.05719970156677443,-0.7326257080078125,2.2361843505859373,3.284844677734375,4.04072585492746
0.059686645113155926,-1.0390835205078124,1.9680337646484374,5.57370146484375,6.00158308120354
0.062173588659537427,-1.2737152832031249,1.70467158203125,8.030152368164062,8.307322244934348
0.06466053220591893,-1.426944189453125,1.6232687255859375,10.558429321289061,10.7773652071337
0.06714747575230041,-1.5275006591796874,1.5418658691406248,12.794613671875,12.977393715024053
0.06963441929868192,-1.465251416015625,1.6136919189453125,14.709975,14.870585994574329
0.07212136284506342,-1.407790576171875,1.675941162109375,16.098611962890622,16.246721522108267
0.0746083063914449,-1.2976572998046874,1.8291700683593748,16.864756494140625,17.013223951190927
0.0770952499378264,-1.0773907470703123,2.059013427734375,16.95094775390625,17.109498440139106
0.0795821934842079,-0.8810662109374999,2.2361843505859373,16.448165405273436,16.622844020115664
0.0820691370305894,-0.622492431640625,2.47081611328125,15.385139868164062,15.594709290527716
0.0845560805769709,-0.3591302490234375,2.7341782958984373,13.958195678710936,14.227998175945567
0.0870430241233524,-0.15322890625,2.9496564453125,12.20085166015625,12.55327580658617
0.0895299676697339,0.01915361328125,3.1220389648437497,10.261548315429687,10.72599030340799
0.09201691121611538,0.13407529296874998,3.19865341796875,8.355763793945313,8.948080713352734
0.09450385476249688,0.229843359375,3.21780703125,6.612784985351562,7.357719437618003
0.09699079830887838,0.2059013427734375,3.246537451171875,5.209782812499999,6.14200600278426
0.09947774185525989,0.1580173095703125,3.1794998046874996,4.237736938476562,5.3002455450535875
0.10196468540164137,0.0718260498046875,3.0980969482421874,3.7014357666015623,4.82742067945351
0.10445162894802287,-0.105344873046875,2.916137622070312,3.67749375,4.694562434819694
0.10693857249440437,-0.32082302246093747,2.7246014892578123,4.108450048828125,4.940216846528367
0.10942551604078586,-0.4644751220703125,2.4947581298828125,5.042188696289062,5.644751731885452
0.11191245958716736,-0.6607996582031249,2.2936451904296873,6.2392895263671875,6.6802842934786755
0.11439940313354886,-0.852335791015625,2.1643583007812497,7.694964135742187,8.038867843494222
0.11688634667993036,-1.0007762939453124,2.0254946044921875,9.193734375,9.46725585063626
0.11937329022631185,-1.0965443603515623,1.9680337646484374,10.716446630859375,10.950698371568471
0.12186023377269335,-1.1156979736328125,1.9105729248046874,12.018892333984374,12.220836460949531
0.12434717731907485,-1.1444283935546875,1.8914193115234375,13.0627642578125,13.248509101599383
0.12683412086545634,-1.0821791503906248,1.9967641845703124,13.80975517578125,13.995267662225682
0.12932106441183785,-1.0007762939453124,2.0925322509765625,14.121001391601562,14.310238457604862
0.13180800795821934,-0.8667010009765624,2.2361843505859373,14.073117358398436,14.276005157541608
0.13429495150460083,-0.7661445312499999,2.3511060302734372,13.565546606445311,13.78908016294025
0.13678189505098234,-0.5746083984375,2.518700146484375,12.81376728515625,13.071597349887881
0.13926883859736383,-0.36391865234375,2.6862942626953124,11.784260571289062,12.092039152407317
0.14175578214374532,-0.2537853759765625,2.863465185546875,10.539275708007812,10.924292761332522
0.14424272569012683,-0.1580173095703125,2.940079638671875,9.323021264648437,9.776899470330239
0.14672966923650832,-0.08140285644531249,3.0214824951171875,8.188169677734374,8.72823610844171
0.1492166127828898,-0.028730419921875,3.1124621582031247,6.928819604492187,7.59584012699521
0.15170355632927132,-0.01915361328125,3.0597897216796874,6.306327172851562,7.009453788480552
0.1541904998756528,-0.047884033203124995,3.0310593017578125,5.8226984375,6.564558664942624
0.15667744342203432,-0.16759411621093748,2.89219560546875,5.6311623046875,6.33268285245793
0.1591643869684158,-0.229843359375,2.7820623291015623,5.722141967773437,6.366758003270491
0.1616513305147973,-0.373495458984375,2.6862942626953124,6.253654736328125,6.816441394515976
0.1641382740611788,-0.5506663818359374,2.5378537597656248,6.904877587890625,7.377077312445292
0.1666252176075603,-0.6512228515624999,2.360682836914062,7.819462622070312,8.193955720947761
0.1691121611539418,-0.7709329345703124,2.2553379638671873,8.896853369140624,9.210585583601873
0.1715991047003233,-0.8571241943359375,2.1356278808593747,9.916783276367187,10.18028284874521
0.1740860482467048,-0.9145850341796874,2.1116858642578125,10.927136376953124,11.166825528080215
0.17657299179308628,-0.9576806640625,2.059013427734375,11.722011328125,11.939942969989449
0.1790599353394678,-0.948103857421875,2.1404162841796874,12.334926953124999,12.555106759122735
0.18154687888584928,-0.928950244140625,2.1308394775390624,12.69884560546875,12.909845279733636
0.18403382243223076,-0.86191259765625,2.2170307373046874,12.770671655273437,12.990310740815891
0.18652076597861228,-0.718260498046875,2.3367408203125,12.612654345703124,12.847385159967502
0.18900770952499377,-0.6560112548828124,2.480392919921875,12.12423720703125,12.39273285664193
0.19149465307137528,-0.565031591796875,2.5713725830078125,11.458649145507811,11.757204510436129
0.19398159661775677,-0.38307226562499996,2.6671406494140624,10.611101757812499,10.947870300615524
0.19646854016413826,-0.32561142578124996,2.7437551025390623,9.686939916992188,10.073282474880026
0.19895548371051977,-0.229843359375,2.806004345703125,8.79150849609375,9.231311390850284
0.20144242725690126,-0.16759411621093748,2.85388837890625,7.939172705078125,8.438200632131366
0.20392937080328274,-0.17238251953125,2.887407202148437,7.249642626953125,7.805392642436024
0.20641631434966426,-0.1867477294921875,2.882618798828125,6.72291826171875,7.317239630323668
0.20890325789604575,-0.2154781494140625,2.8107927490234372,6.5026517089843745,7.087416028369934
0.21139020144242723,-0.2825157958984375,2.7724855224609373,6.5505357421875,7.1187084261727955
0.21387714498880875,-0.3399766357421875,2.6862942626953124,6.789955908203124,7.30994269567025
0.21636408853519024,-0.45010991210937495,2.5905261962890624,7.273584643554687,7.734239359729796
0.21885103208157172,-0.5458779785156249,2.461239306640625,7.905653881835937,8.297894009407974
0.22133797562795324,-0.6655880615234374,2.3319524169921872,8.667010009765624,8.999892891147969
0.22382491917433472,-0.718260498046875,2.3367408203125,9.533711010742186,9.842149228736378
0.22631186272071624,-0.842758984375,2.2266075439453124,10.352527978515624,10.62275196954385
0.22879880626709773,-0.8379705810546875,2.2074539306640624,11.066000073242186,11.315096339479988
0.2312857498134792,-0.8762778076171874,2.1835119140624997,11.6837041015625,11.918243520244232
0.23377269335986073,-0.9002198242187499,2.1930887207031247,12.052411157226562,12.283348426696648
0.23625963690624222,-0.814028564453125,2.288856787109375,12.282254516601562,12.520195042658948
0.2387465804526237,-0.7805097412109374,2.31758720703125,12.167332836914062,12.410656480725235
0.24123352399900522,-0.70868369140625,2.39420166015625,11.903970654296874,12.163015724002058
0.2437204675453867,-0.6177040283203125,2.442085693359375,11.405976708984374,11.680823835937588
0.2462074110917682,-0.507570751953125,2.6048914062499997,10.817003100585938,11.137802448628685
0.2486943546381497,-0.45010991210937495,2.6527754394531247,10.05564697265625,10.40941172707832
0.2511812981845312,-0.32561142578124996,2.7341782958984373,9.222464794921875,9.624739510653509
0.2536682417309127,-0.26336218261718747,2.7820623291015623,8.504204296874999,8.951576462569378
0.2561551852772942,-0.2442085693359375,2.806004345703125,7.8338278320312495,8.324791692009438
0.2586421288236757,-0.2442085693359375,2.8730419921875,7.311891870117187,7.859883640009923
0.26112907237005717,-0.21068974609375,2.844311572265625,6.928819604492187,7.492865913709418
0.2636160159164387,-0.258573779296875,2.7581203125,6.79953271484375,7.3421885836442105
0.2661029594628202,-0.33039982910156246,2.710236279296875,6.89530078125,7.416179447707166
0.26858990300920166,-0.38307226562499996,2.6336218261718747,7.192181787109375,7.668780029627121
0.2710768465555832,-0.45968671875,2.5905261962890624,7.671022119140624,8.109668193298647
0.2735637901019647,-0.55545478515625,2.480392919921875,8.322244970703125,8.701760764807602
0.27605073364834615,-0.6416460449218749,2.360682836914062,9.035717065429687,9.361021097613325
0.27853767719472766,-0.7134720947265625,2.3127988037109373,9.816226806640625,10.110212137033043
0.2810246207411092,-0.7900865478515624,2.2936451904296873,10.539275708007812,10.814868351583426
0.28351156428749064,-0.814028564453125,2.2026655273437497,11.133037719726563,11.378001001843362
0.28599850783387215,-0.8092401611328125,2.2601263671875,11.626243261718749,11.871502567691548
0.28848545138025367,-0.8044517578125,2.2361843505859373,11.975796704101562,12.20931487751966
0.2909723949266351,-0.7900865478515624,2.250549560546875,12.057199560546874,12.29086129286412
0.29345933847301664,-0.7613561279296874,2.3319524169921872,11.9518546875,12.201003880819295
0.29594628201939815,-0.7038952880859375,2.398990063476562,11.640608471679688,11.906065155717474
0.2984332255657796,-0.59376201171875,2.442085693359375,11.1474029296875,11.42720122939455
0.30092016911216113,-0.5123591552734374,2.5713725830078125,10.524910498046875,10.84657595080282
0.30340711265854264,-0.44053310546874996,2.6240450195312497,9.873687646484374,10.225917534474783
0.30589405620492416,-0.37828386230468747,2.7581203125,9.107543115234375,9.523532324435
0.3083809997513056,-0.2825157958984375,2.77727392578125,8.403647827148436,8.85518844726035
0.31086794329768713,-0.26815058593749996,2.7533319091796873,7.805097412109374,8.280838541558587
0.31335488684406865,-0.26815058593749996,2.7964275390625,7.369352709960937,7.886651449238414
0.3158418303904501,-0.22505495605468748,2.829946362304687,7.038952880859375,7.589868497261649
0.3183287739368316,-0.2825157958984375,2.77727392578125,6.9336080078124995,7.474488988536818
0.32081571748321314,-0.33518823242187495,2.6623522460937497,7.101202124023437,7.591280671907047
0.3233026610295946,-0.411802685546875,2.6862942626953124,7.345410693359375,7.832037830075365
0.3257896045759761,-0.44532150878906246,2.5474305664062498,7.8912886718749995,8.304224866880336
0.3282765481223576,-0.5985504150390625,2.4660277099609376,8.456320263671875,8.828867858758914
0.3307634916687391,-0.6272808349609375,2.418143676757812,9.126696728515624,9.462425337177084
0.3332504352151206,-0.6847416748046875,2.308010400390625,9.878476049804688,10.167599138247457
0.3357373787615021,-0.737414111328125,2.2649147705078123,10.577582934570312,10.84245725040977
0.3382243223078836,-0.8092401611328125,2.250549560546875,11.1474029296875,11.401071661895362
0.3407112658542651,-0.8092401611328125,2.212242333984375,11.592724438476562,11.829629989526918
0.3431982094006466,-0.7900865478515624,2.2936451904296873,11.908759057617187,12.153336468026245
0.34568515294702806,-0.7757213378906249,2.308010400390625,11.990161914062499,12.234894291648171
0.3481720964934096,-0.7326257080078125,2.2744915771484373,11.870451831054687,12.108578737240087
0.3506590400397911,-0.679953271484375,2.39420166015625,11.568782421875,11.833480669928912
0.35314598358617255,-0.6368576416015624,2.47081611328125,11.075576879882812,11.365690614455033
0.35563292713255407,-0.51714755859375,2.5665841796874997,10.496180078124999,10.817790540642287
0.3581198706789356,-0.45968671875,2.5953145996093747,9.811438403320311,10.15929590535138
0.36060681422531704,-0.38307226562499996,2.7437551025390623,9.141061938476563,9.551646443753302
0.36309375777169856,-0.33518823242187495,2.7341782958984373,8.437166650390624,8.87546411132285
0.36558070131808007,-0.2825157958984375,2.7724855224609373,7.81467421875,8.296723708331111
0.36806764486446153,-0.22026655273437498,2.844311572265625,7.398083129882812,7.929076848601879
0.37055458841084304,-0.2059013427734375,2.829946362304687,7.091625317382812,7.638202761031047
0.37304153195722456,-0.277727392578125,2.7629087158203123,7.0102224609374995,7.540160212381213
0.3755284755036061,-0.33039982910156246,2.6671406494140624,7.125144140624999,7.615148213627228
0.37801541904998753,-0.39743747558593745,2.6575638427734374,7.4028715332031245,7.875475164237775
0.38050236259636905,-0.47884033203125,2.5522189697265625,7.81467421875,8.234818934148329
0.38298930614275056,-0.5698199951171875,2.5139117431640625,8.427589843749999,8.812985740016357
0.385476249689132,-0.603338818359375,2.403778466796875,9.074024291992187,9.406385357768409
0.38796319323551354,-0.6560112548828124,2.4133552734375,9.835380419921874,10.148366491556366
0.39045013678189505,-0.7326257080078125,2.3127988037109373,10.467449658203124,10.744918849460772
0.3929370803282765,-0.7709329345703124,2.2649147705078123,11.075576879882812,11.331044953112857
0.395424023874658,-0.7900865478515624,2.2553379638671873,11.535263598632811,11.780199165307002
0.39791096742103954,-0.7757213378906249,2.2649147705078123,11.81777939453125,12.05783945528927
0.400397910967421,-0.8092401611328125,2.308010400390625,11.9518546875,12.199533274589536
0.4028848545138025,-0.7422025146484375,2.360682836914062,11.9135474609375,12.167838802895995
0.40537179806018403,-0.6751648681640625,2.4133552734375,11.592724438476562,11.860497088296228
0.4078587416065655,-0.59376201171875,2.4516625,11.1474029296875,11.429251699795223
0.410345685152947,-0.55545478515625,2.5330653564453125,10.558429321289061,10.872229755254116
0.4128326286993285,-0.44532150878906246,2.6288334228515624,9.911994873046874,10.264342101401295
0.41531957224571,-0.37828386230468747,2.6527754394531247,9.222464794921875,9.603862405627188
0.4178065157920915,-0.354341845703125,2.748543505859375,8.52335791015625,8.96257103803597
0.420293459338473,-0.3112462158203125,2.748543505859375,7.948749511718749,8.416292794961048
0.42278040288485447,-0.258573779296875,2.7916391357421872,7.4603323730468745,7.9697345363492795
0.425267346431236,-0.239420166015625,2.7629087158203123,7.101202124023437,7.623520065828236
0.4277542899776175,-0.26815058593749996,2.7341782958984373,7.019799267578125,7.538250290856034
0.43024123352399896,-0.3399766357421875,2.710236279296875,7.034164477539062,7.54588859575464
0.43272817707038047,-0.354341845703125,2.6288334228515624,7.335833886718749,7.800691131063251
0.435215120616762,-0.44053310546874996,2.5474305664062498,7.7763669921875,8.194837124974361
0.43770206416314344,-0.5267243652343749,2.499546533203125,8.29351455078125,8.677992569286957
0.44018900770952496,-0.5746083984375,2.442085693359375,8.954314208984375,9.299123630669985
0.4426759512559065,-0.6655880615234374,2.379836450195312,9.682151513671874,9.992531557669423
0.445162894802288,-0.6655880615234374,2.3319524169921872,10.36210478515625,10.642096838561294
0.44764983834866945,-0.7565677246093749,2.2936451904296873,10.965443603515624,11.228274863191743
0.45013678189505096,-0.7996633544921875,2.2744915771484373,11.477802758789062,11.728287581087987
0.4526237254414325,-0.82360537109375,2.231395947265625,11.765106958007811,12.003132733338065
0.45511066898781394,-0.7422025146484375,2.288856787109375,11.937489477539062,12.177577139603876
0.45759761253419545,-0.737414111328125,2.29843359375,11.870451831054687,12.113389419557762
0.46008455608057697,-0.6703764648437499,2.370259643554687,11.654973681640625,11.9124282538119
0.4625714996269584,-0.6416460449218749,2.4564509033203126,11.291055029296874,11.572976469430728
0.46505844317333994,-0.55545478515625,2.528276953125,10.716446630859375,11.024651593683732
0.46754538671972146,-0.44532150878906246,2.6144682128906247,10.0748005859375,10.41803062621781
0.4700323302661029,-0.4644751220703125,2.5713725830078125,9.318232861328125,9.677662825166097
0.47251927381248443,-0.36391865234375,2.6910826660156246,8.67658681640625,9.09161819939048
0.47500621735886595,-0.28730419921875,2.7198130859375,8.044517578125,8.496716424012732
0.4774931609052474,-0.277727392578125,2.786850732421875,7.556100439453124,8.058431817698297
0.4799801044516289,-0.26815058593749996,2.81558115234375,7.187393383789062,7.723860797263683
0.48246704799801043,-0.26336218261718747,2.748543505859375,7.043741284179687,7.565589357167882
0.4849539915443919,-0.316034619140625,2.7054478759765623,7.029376074218749,7.538663945482678
0.4874409350907734,-0.3495534423828125,2.6575638427734374,7.220912207031249,7.70236368195837
0.4899278786371549,-0.43574470214843747,2.5857377929687497,7.589619262695312,8.029833991566267
0.4924148221835364,-0.4836287353515625,2.5474305664062498,8.154650854492187,8.556963819193626
0.4949017657299179,-0.603338818359375,2.5234885498046875,8.810662109374999,9.18475797156958
0.4973887092762994,-0.6655880615234374,2.403778466796875,9.485826977539062,9.808265485440671
0.49987565282268087,-0.7038952880859375,2.375048046875,10.232817895507813,10.528384675921528
0.5023625963690624,-0.7134720947265625,2.2744915771484373,10.788272680664061,11.048492286137291
0.5048495399154439,-0.7517793212890624,2.250549560546875,11.319785449218749,11.565798203701295
0.5073364834618254,-0.7805097412109374,2.2361843505859373,11.722011328125,11.958899007961453
0.5098234270082069,-0.7900865478515624,2.231395947265625,11.923124267578125,12.155832218596958
0.5123103705545884,-0.7852981445312499,2.288856787109375,11.899182250976562,12.14273843948129
0.5147973141009698,-0.7517793212890624,2.3319524169921872,11.702857714843748,11.956590354984627
0.5172842576473514,-0.6416460449218749,2.437297290039062,11.391611499023437,11.667087908800491
0.5197712011937329,-0.5985504150390625,2.4660277099609376,10.86009873046875,11.152636446202646
0.5222581447401143,-0.5267243652343749,2.5617957763671875,10.271125122070313,10.598879536534426
0.5247450882864959,-0.43574470214843747,2.6144682128906247,9.548076220703125,9.90914108275901
0.5272320318328774,-0.4070142822265625,2.6527754394531247,8.86812294921875,9.2653377056944
0.5297189753792588,-0.296881005859375,2.834734765625,8.2743609375,8.751508924014702
0.5322059189256404,-0.33039982910156246,2.767697119140625,7.685387329101562,8.175236375095494
0.5346928624720219,-0.27293898925781246,2.7724855224609373,7.350199096679687,7.860445179819236
0.5371798060184033,-0.26815058593749996,2.7533319091796873,7.019799267578125,7.545218558526722
0.5396667495647849,-0.296881005859375,2.7150246826171873,7.038952880859375,7.550255294877063
0.5421536931111663,-0.354341845703125,2.6192566162109374,7.187393383789062,7.657981915525516
0.5446406366575478,-0.4261678955078125,2.6096798095703124,7.5465236328125,7.996378350493308
0.5471275802039294,-0.469263525390625,2.5617957763671875,8.068459594726562,8.478386997997315
0.5496145237503108,-0.5363011718749999,2.4516625,8.63827958984375,8.99545119675338
0.5521014672966923,-0.6081272216796875,2.422932080078125,9.303867651367186,9.63339876972693
0.5545884108430739,-0.6751648681640625,2.375048046875,10.026916552734374,10.326459043625086
0.5570753543894553,-0.74699091796875,2.3223756103515623,10.658985791015624,10.934596563209663
0.5595622979358368,-0.7757213378906249,2.2649147705078123,11.214440576171874,11.467138263237844
0.5620492414822184,-0.8044517578125,2.24097275390625,11.616666455078125,11.858163476817781
0.5645361850285998,-0.7230489013671875,2.2744915771484373,11.880028637695311,12.117392132003825
0.5670231285749813,-0.7565677246093749,2.27927998046875,11.9518546875,12.190748230621528
0.5695100721213628,-0.6847416748046875,2.4133552734375,11.822567797851562,12.085787693478636
0.5719970156677443,-0.6512228515624999,2.43250888671875,11.506533178710937,11.77885802950093
0.5744839592141258,-0.6177040283203125,2.480392919921875,11.027692846679686,11.320066997350855
0.5769709027605073,-0.51714755859375,2.5330653564453125,10.405200415039062,10.721569725301979
0.5794578463068888,-0.47884033203125,2.6096798095703124,9.749189160156249,10.103781769840777
0.5819447898532703,-0.373495458984375,2.6958710693359373,9.069235888671875,9.46880453303047
0.5844317333996518,-0.3112462158203125,2.6958710693359373,8.360552197265624,8.789961778787665
0.5869186769460333,-0.3112462158203125,2.7581203125,7.843404638671874,8.320041958489574
0.5894056204924147,-0.2920926025390625,2.7724855224609373,7.417236743164062,7.923849756580229
0.5918925640387963,-0.27293898925781246,2.7820623291015623,7.134720947265625,7.662806893705072
0.5943795075851778,-0.3064578125,2.7533319091796873,7.029376074218749,7.555586078243589
0.5968664511315592,-0.3495534423828125,2.7198130859375,7.129932543945312,7.639077752761063
0.5993533946779408,-0.38307226562499996,2.6336218261718747,7.398083129882812,7.862209758117409
0.6018403382243223,-0.45968671875,2.5570073730468748,7.8338278320312495,8.253390641858571
0.6043272817707037,-0.5267243652343749,2.5234885498046875,8.422801440429687,8.808462812706388
0.6068142253170853,-0.584185205078125,2.442085693359375,9.102754711914063,9.442732561754378
0.6093011688634667,-0.603338818359375,2.403778466796875,9.792284790039062,10.101040048252754
0.6117881124098483,-0.70868369140625,2.308010400390625,10.457872851562499,10.732951558738371
0.6142750559562298,-0.737414111328125,2.2649147705078123,11.042058056640624,11.29604641524956
0.6167619995026112,-0.7996633544921875,2.288856787109375,11.496956372070311,11.749822666478948
0.6192489430489928,-0.7900865478515624,2.250549560546875,11.79862578125,12.037307855311788
0.6217358865953743,-0.7565677246093749,2.288856787109375,11.9135474609375,12.15499375638785
0.6242228301417557,-0.7278373046875,2.365471240234375,11.865663427734374,12.121021817930359
0.6267097736881373,-0.6607996582031249,2.370259643554687,11.635820068359374,11.893153308916022
0.6291967172345188,-0.603338818359375,2.418143676757812,11.161768139648437,11.43662994830444
0.6316836607809002,-0.565031591796875,2.5234885498046875,10.63025537109375,10.940273507339358
0.6341706043272818,-0.4836287353515625,2.6144682128906247,9.9215716796875,10.271656409024315
0.6366575478736632,-0.37828386230468747,2.6431986328124997,9.323021264648437,9.697851473087683
0.6391444914200447,-0.38786066894531246,2.6623522460937497,8.542511523437499,8.956174323273167
0.6416314349664263,-0.316034619140625,2.729389892578125,8.0062103515625,8.464564445951694
0.6441183785128077,-0.3399766357421875,2.7629087158203123,7.52737001953125,8.025618237602902
0.6466053220591892,-0.258573779296875,2.7916391357421872,7.187393383789062,7.71483850232019
0.6490922656055708,-0.3016694091796875,2.7533319091796873,7.038952880859375,7.564304243848232
0.6515792091519522,-0.3064578125,2.7150246826171873,7.048529687499999,7.559566533448309
0.6540661526983337,-0.3687070556640625,2.7246014892578123,7.307103466796875,7.807250427816265
0.6565530962447153,-0.4213794921875,2.6288334228515624,7.714117749023437,8.160633461155824
0.6590400397910967,-0.49799394531249996,2.5139117431640625,8.192958081054687,8.58442265617819
0.6615269833374782,-0.59376201171875,2.480392919921875,8.858546142578124,9.218391515006543
0.6640139268838597,-0.6272808349609375,2.408566870117187,9.5384994140625,9.857872320425237
0.6665008704302412,-0.679953271484375,2.360682836914062,10.218452685546874,10.509611562501396
0.6689878139766227,-0.7709329345703124,2.269703173828125,10.836156713867187,11.09811616511467
0.6714747575230042,-0.7613561279296874,2.29843359375,11.396399902343749,11.650767823304834
0.6739617010693857,-0.7613561279296874,2.2936451904296873,11.722011328125,11.968542976896066
0.6764486446157671,-0.7948749511718749,2.2601263671875,11.865663427734374,12.105121476628383
0.6789355881621487,-0.7709329345703124,2.3127988037109373,11.908759057617187,12.155736020020809
0.6814225317085302,-0.737414111328125,2.360682836914062,11.717222924804688,11.97538793098808
0.6839094752549116,-0.6655880615234374,2.4133552734375,11.353304272460937,11.626040127513361
0.6863964188012932,-0.584185205078125,2.4756045166015626,10.797849487304687,11.093396397268796
0.6888833623476747,-0.49320554199218747,2.5857377929687497,10.184933862304687,10.519608805471778
0.6913703058940561,-0.45010991210937495,2.7054478759765623,9.548076220703125,9.93417367771279
0.6938572494404377,-0.3687070556640625,2.6862942626953124,8.853757739257812,9.259651605981395
0.6963441929868192,-0.373495458984375,2.6719290527343746,8.183381274414062,8.616636977566055
0.6988311365332006,-0.2920926025390625,2.767697119140625,7.675810522460937,8.164773885937038
0.7013180800795822,-0.26815058593749996,2.7437551025390623,7.283161450195312,7.787460273353492
0.7038050236259636,-0.277727392578125,2.7533319091796873,7.058106494140625,7.5812160231275145
0.7062919671723451,-0.27293898925781246,2.7629087158203123,7.067683300781249,7.59343845065956
0.7087789107187267,-0.3447650390625,2.6623522460937497,7.153874560546875,7.641001481643617
0.7112658542651081,-0.38786066894531246,2.6240450195312497,7.503428002929687,7.958484777782191
0.7137527978114896,-0.469263525390625,2.6048914062499997,8.0062103515625,8.432382325777436
0.7162397413578712,-0.5602431884765625,2.528276953125,8.623914379882812,9.004329848105685
0.7187266849042526,-0.63206923828125,2.4133552734375,9.351751684570312,9.67879407610647
0.7212136284506341,-0.6847416748046875,2.327164013671875,10.026916552734374,10.31618238803688
0.7237005719970157,-0.7278373046875,2.269703173828125,10.620678564453124,10.884857041266748
0.7261875155433971,-0.7422025146484375,2.288856787109375,11.2240173828125,11.479037249452771
0.7286744590897786,-0.7661445312499999,2.250549560546875,11.626243261718749,11.866822790785351
0.7311614026361601,-0.8092401611328125,2.2840683837890623,11.851298217773437,12.096491535433524
0.7336483461825416,-0.7805097412109374,2.27927998046875,11.942277880859374,12.18286968120212
0.7361352897289231,-0.7326257080078125,2.346317626953125,11.79862578125,12.05195076162204
0.7386222332753046,-0.6655880615234374,2.389413256835937,11.463437548828125,11.728712785956882
0.7411091768216861,-0.5889736083984375,2.47081611328125,11.01332763671875,11.302442559498063
0.7435961203680675,-0.5267243652343749,2.5378537597656248,10.457872851562499,10.774286279950799
0.7460830639144491,-0.4644751220703125,2.6288334228515624,9.730035546875,10.089603265122706
0.7485700074608306,-0.40222587890625,2.6623522460937497,9.011775048828124,9.405423683738201
0.7510569510072121,-0.3064578125,2.73896669921875,8.398859423828124,8.839496286072983
0.7535438945535936,-0.3495534423828125,2.7150246826171873,7.819462622070312,8.284777748030235
0.7560308380999751,-0.296881005859375,2.7724855224609373,7.359775903320312,7.870267825874154
0.7585177816463566,-0.2537853759765625,2.7629087158203123,7.082048510742187,7.606147691014225
0.7610047251927381,-0.296881005859375,2.729389892578125,7.062894897460937,7.577743189758244
0.7634916687391196,-0.08140285644531249,2.7820623291015623,-7.958326318359375,8.430981853706895
0.7659786122855011,-0.5793968017578125,2.250549560546875,-4.955997436523437,5.473808963527298
0.7684655558318826,-1.0869675537109373,1.7908628417968748,-0.9337386474609375,2.2935902081041633
0.770952499378264,-1.5179238525390624,1.37906015625,3.6248213134765623,4.164760412232288
0.7734394429246456,-1.848323681640625,1.1348515869140625,8.475473876953124,8.74859108630354
0.7759263864710271,-2.068590234375,0.9241618408203125,13.1393787109375,13.333282175639185
0.7784133300174085,-2.1404162841796874,0.9241618408203125,17.314866406249998,17.471120617862343
0.7809002735637901,-2.059013427734375,1.005564697265625,20.700267553710937,20.82670817607034
0.7833872171101716,-1.9297265380859374,1.1348515869140625,23.089680810546874,23.19795449105483
0.785874160656553,-1.6903063720703124,1.4604630126953124,24.334665673828123,24.436981018528073
0.7883611042029346,-1.3263877197265623,1.8004396484374998,24.30593525390625,24.408592255142242
0.790848047749316,-0.9864110839843749,2.1691467041015624,23.214179296875,23.336159167223336
0.7933349912956975,-0.5889736083984375,2.5953145996093747,21.08812822265625,21.25539225038029
0.7958219348420791,-0.17238251953125,2.96881005859375,18.12410656738281,18.366458225877302
0.7983088783884605,0.143652099609375,3.289633081054687,14.65251416015625,15.017939037939625
0.800795821934842,0.4070142822265625,3.5098996337890624,10.955866796875,11.511562593152899
0.8032827654812236,0.6272808349609375,3.7158009765625,7.249642626953125,8.170555450021004
0.805769709027605,0.6943184814453125,3.7014357666015623,3.9504327392578125,5.457895539065749
0.8082566525739865,0.6943184814453125,3.7301661865234372,1.1875240234375,3.975730277445958
0.8107435961203681,0.59376201171875,3.6104561035156246,-0.8044517578125,3.746343448300108
0.8132305396667495,0.38307226562499996,3.380612744140625,-1.9105729248046874,3.9019963848693933
0.815717483213131,0.143652099609375,3.1076737548828124,-2.1691467041015624,3.792554484305307
0.8182044267595125,-0.086191259765625,2.882618798828125,-1.4221557861328125,3.215501073339632
0.820691370305894,-0.39743747558593745,2.5474305664062498,0.028730419921875,2.578407352357241
0.8231783138522755,-0.6655880615234374,2.2457611572265623,2.2266075439453124,3.231753672188568
0.825665257398657,-0.9911994873046874,2.0446482177734375,4.879382983398437,5.3825125226752055
0.8281522009450385,-1.22583125,1.7908628417968748,7.742848168945312,8.041240559698803
0.83063914449142,-1.3646949462890625,1.618480322265625,10.615890161132812,10.824924700117982
0.8331260880378015,-1.455674609375,1.5801730957031248,13.33091484375,13.502933983104455
0.835613031584183,-1.5035586425781249,1.6136919189453125,15.571887597656248,15.727312979494663
0.8380999751305644,-1.455674609375,1.618480322265625,17.324443212890625,17.46066435616389
0.840586918676946,-1.2928688964843749,1.7717092285156248,18.330007910156247,18.460759831607547
0.8430738622233275,-1.1923124267578125,1.9297265380859374,18.655619335937498,18.79301961479845
0.8455608057697089,-0.928950244140625,2.1739351074218747,18.2725470703125,18.424845151158156
0.8480477493160905,-0.679953271484375,2.422932080078125,17.233463549804686,17.4162338706886
0.850534692862472,-0.45010991210937495,2.6431986328124997,15.600618017578125,15.829351865312242
0.8530216364088534,-0.201112939453125,2.896984008789062,13.551181396484374,13.85884122147372
0.855508579955235,-0.0526724365234375,3.0454245117187497,11.295843432617186,11.699293299013727
0.8579955235016165,0.05746083984375,3.1316157714843746,8.968679418945312,9.49986997848594
0.8604824670479979,0.1867477294921875,3.284844677734375,6.7803791015625,7.53648592065399
0.8629694105943795,0.1867477294921875,3.2800562744140622,4.8650177734375,5.870437957568099
0.8654563541407609,0.1867477294921875,3.21780703125,3.4093431640625,4.691777660457934
0.8679432976871424,0.16759411621093748,3.0837317382812497,2.437297290039062,3.93419716098512
0.870430241233524,0.0526724365234375,3.0119056884765625,2.068590234375,3.6542325896962837
0.8729171847799054,-0.15322890625,2.882618798828125,2.2744915771484373,3.6750894100126406
0.8754041283262869,-0.3495534423828125,2.6479870361328124,3.0358477050781247,4.043562073350331
0.8778910718726685,-0.5315127685546874,2.4899697265625,4.2329485351562495,4.939666827187421
0.8803780154190499,-0.852335791015625,2.437297290039062,5.95677373046875,6.492306805495299
0.8828649589654315,-0.8714894042968749,2.068590234375,7.580042456054687,7.905416053260253
0.885351902511813,-1.01514150390625,2.001552587890625,9.485826977539062,9.747699137891596
0.8878388460581944,-1.0678139404296874,1.9105729248046874,11.3006318359375,11.510638357787846
0.890325789604576,-1.149216796875,1.915361328125,12.933477368164061,13.124943622595428
0.8928127331509574,-1.13006318359375,1.9201497314453124,14.211981054687499,14.38556301605467
0.8952996766973389,-1.120486376953125,1.9393033447265624,15.112200878906249,15.277270783363761
0.8977866202437205,-1.01514150390625,2.0446482177734375,15.524003564453125,15.69094596500002
0.9002735637901019,-0.8762778076171874,2.1930887207031247,15.485696337890625,15.664746790240713
0.9027605073364834,-0.7278373046875,2.3319524169921872,14.954183569335937,15.15240427927553
0.905247450882865,-0.603338818359375,2.4899697265625,14.044386938476562,14.276160949169356
0.9077343944292464,-0.469263525390625,2.6240450195312497,12.794613671875,13.069351917112014
0.9102213379756279,-0.2825157958984375,2.81558115234375,11.324573852539062,11.672758257668875
0.9127082815220094,-0.181959326171875,2.9496564453125,9.801861596679688,10.237679087675026
0.9151952250683909,-0.062249243164062495,3.0119056884765625,8.202534887695313,8.73825093645237
0.9176821686147724,-0.033518823242187495,3.0454245117187497,6.847416748046874,7.494187753821074
0.9201691121611539,-0.0143652099609375,3.0310593017578125,5.7077767578125,6.462680741538634
0.9226560557075354,-0.0526724365234375,2.9735984619140625,4.8506525634765625,5.689806015131688
0.9251429992539169,-0.1005564697265625,2.89219560546875,4.467580297851562,5.322986073779272
0.9276299428002984,-0.2059013427734375,2.844311572265625,4.357447021484375,5.207672054586685
0.9301168863466799,-0.28730419921875,2.70065947265625,4.73094248046875,5.455082221528881
0.9326038298930613,-0.411802685546875,2.5713725830078125,5.473144995117187,6.0610935110790205
0.9350907734394429,-0.5219359619140624,2.4516625,6.3973068359375,6.870851542230997
0.9375777169858244,-0.6512228515624999,2.31758720703125,7.618349682617187,7.989652905553876
0.9400646605322058,-0.8092401611328125,2.1978771240234374,8.954314208984375,9.255553816164394
0.9425516040785874,-0.9097966308593749,2.1452046874999997,10.304643945312499,10.56481518534331
0.9450385476249689,-0.9241618408203125,2.0877438476562498,11.496956372070311,11.721465578277448
0.9475254911713503,-0.9528922607421875,2.0733786376953125,12.54561669921875,12.751447015909605
0.9500124347177319,-0.948103857421875,2.0877438476562498,13.316549633789062,13.512515289428995
0.9524993782641133,-0.9193734375,2.1835119140624997,13.766659545898436,13.969033139380477
0.9549863218104948,-0.8667010009765624,2.2266075439453124,13.867216015624999,14.071553993921723
0.9574732653568764,-0.7757213378906249,2.3367408203125,13.613430639648437,13.834290550508632
0.9599602089032578,-0.689530078125,2.442085693359375,13.101071484375,13.344561000686886
0.9624471524496393,-0.59376201171875,2.4899697265625,12.272677709960936,12.536790687346185
0.9649340959960209,-0.4261678955078125,2.6384102294921874,11.257536206054686,11.570434263452807
0.9674210395424023,-0.32561142578124996,2.7341782958984373,10.156203442382813,10.522842872409997
0.9699079830887838,-0.27293898925781246,2.748543505859375,8.997409838867187,9.411820807049127
0.9723949266351654,-0.1867477294921875,2.887407202148437,7.915230688476562,8.427506862488473
0.9748818701815468,-0.16759411621093748,2.858676782226562,6.9527616210937495,7.519375964319375
0.9773688137279283,-0.1771709228515625,2.901772412109375,6.186617089843749,6.8356348413245325
0.9798557572743098,-0.16759411621093748,2.877830395507812,5.760449194335937,6.441488220405493
0.9823427008206913,-0.19153613281249998,2.7820623291015623,5.578489868164062,6.236674282210662
0.9848296443670728,-0.2537853759765625,2.767697119140625,5.693411547851563,6.335573329507631
0.9873165879134543,-0.39743747558593745,2.6815058593749996,6.100425830078125,6.67559926367266
0.9898035314598358,-0.45489831542968745,2.5617957763671875,6.813897924804687,7.293760004747288
0.9922904750062173,-0.55545478515625,2.480392919921875,7.6614453125,8.072089155353758
0.9947774185525988,-0.689530078125,2.365471240234375,8.628702783203124,8.973595580249444
0.9972643620989803,-0.7517793212890624,2.250549560546875,9.677363110351562,9.964010349351753
0.9997513056453617,-0.814028564453125,2.2170307373046874,10.711658227539061,10.968932937050196
1.0022382491917432,-0.8714894042968749,2.1116858642578125,11.559205615234374,11.782781735497517
1.0047251927381249,-0.9097966308593749,2.1595698974609374,12.220005273437499,12.442668561622254
1.0072121362845063,-0.8667010009765624,2.2170307373046874,12.73715283203125,12.957679506060073
1.0096990798308878,-0.8092401611328125,2.2074539306640624,13.019668627929686,13.230249191738263
1.0121860233772693,-0.7661445312499999,2.3032219970703123,12.943054174804686,13.168692432526543
1.0146729669236507,-0.737414111328125,2.31758720703125,12.579135522460938,12.81208962371944
1.0171599104700322,-0.5985504150390625,2.480392919921875,11.990161914062499,12.25865385603072
1.0196468540164139,-0.5267243652343749,2.5953145996093747,11.291055029296874,11.59745748440094
1.0221337975627953,-0.44053310546874996,2.6575638427734374,10.409988818359375,10.752887156191953
1.0246207411091768,-0.38786066894531246,2.729389892578125,9.452308154296874,9.846122817028514
1.0271076846555582,-0.277727392578125,2.7916391357421872,8.499415893554687,8.950444240394196
1.0295946282019397,-0.239420166015625,2.825157958984375,7.675810522460937,8.18272000534234
1.0320815717483212,-0.2154781494140625,2.849099975585937,7.005434057617187,7.56570603707159
1.0345685152947028,-0.17238251953125,2.8203695556640622,6.5218053222656245,7.107611752557174
1.0370554588410843,-0.229843359375,2.7964275390625,6.301538769531249,6.8979870842863535
1.0395424023874658,-0.316034619140625,2.7341782958984373,6.263231542968749,6.841321377855023
1.0420293459338472,-0.3687070556640625,2.7054478759765623,6.49307490234375,7.043821036196821
1.0445162894802287,-0.4070142822265625,2.5953145996093747,7.043741284179687,7.517686464288017
1.0470032330266101,-0.4644751220703125,2.5378537597656248,7.68059892578125,8.102347727892875
1.0494901765729918,-0.622492431640625,2.398990063476562,8.40843623046875,8.766096622440838
1.0519771201193733,-0.6703764648437499,2.3415292236328122,9.313444458007812,9.626651099013577
1.0544640636657547,-0.737414111328125,2.2744915771484373,10.175357055664062,10.452510833113614
1.0569510072121362,-0.7900865478515624,2.1978771240234374,10.955866796875,11.20204971763068
1.0594379507585177,-0.8092401611328125,2.2649147705078123,11.654973681640625,11.900551250920703
1.0619248943048991,-0.8475473876953125,2.1835119140624997,12.16254443359375,12.386022281280797
1.0644118378512808,-0.8571241943359375,2.27927998046875,12.459425439453124,12.695158974789301
1.0668987813976623,-0.7805097412109374,2.3367408203125,12.512097875976561,12.752338859027276
1.0693857249440437,-0.7134720947265625,2.360682836914062,12.296619726562499,12.541480079565574
1.0718726684904252,-0.6416460449218749,2.408566870117187,11.884817041015625,12.143384211709904
1.0743596120368066,-0.5698199951171875,2.4947581298828125,11.324573852539062,11.610102751270686
1.076846555583188,-0.5219359619140624,2.5617957763671875,10.577582934570312,10.895892597023202
1.0793334991295698,-0.43574470214843747,2.6288334228515624,9.753977563476562,10.111415178863743
1.0818204426759512,-0.3687070556640625,2.710236279296875,8.978256225585938,9.385649174925838
1.0843073862223327,-0.26815058593749996,2.748543505859375,8.164227661132813,8.618643132369883
1.0867943297687142,-0.277727392578125,2.858676782226562,7.50821640625,8.038810798427285
1.0892812733150956,-0.3016694091796875,2.7724855224609373,7.005434057617187,7.540145007910201
1.0917682168614773,-0.24899697265624998,2.786850732421875,6.718129858398437,7.277486193150553
1.0942551604078588,-0.3112462158203125,2.7341782958984373,6.593631372070312,7.144828887480397
1.0967421039542402,-0.33518823242187495,2.7054478759765623,6.718129858398437,7.250177111980424
1.0992290475006217,-0.36391865234375,2.6623522460937497,7.105990527343749,7.597082179528087
1.1017159910470031,-0.45010991210937495,2.5665841796874997,7.589619262695312,8.024479661453258
1.1042029345933846,-0.5315127685546874,2.50912333984375,8.25520732421875,8.644457977428095
1.1066898781397663,-0.622492431640625,2.4133552734375,9.045293872070312,9.382383584963428
1.1091768216861477,-0.7230489013671875,2.3032219970703123,9.82580361328125,10.118006124149547
1.1116637652325292,-0.7709329345703124,2.250549560546875,10.59194814453125,10.85581302392971
1.1141507087789106,-0.7900865478515624,2.2457611572265623,11.238382592773437,11.4877727706443
1.116637652325292,-0.814028564453125,2.250549560546875,11.755530151367187,11.996670578453273
1.1191245958716736,-0.7996633544921875,2.327164013671875,12.148179223632813,12.394894605302257
1.1216115394180552,-0.7757213378906249,2.2744915771484373,12.253524096679687,12.486949520058442
1.1240984829644367,-0.7709329345703124,2.3127988037109373,12.129025610351562,12.371606126635944
1.1265854265108182,-0.6751648681640625,2.3511060302734372,11.865663427734374,12.115177082695249
1.1290723700571996,-0.55545478515625,2.4947581298828125,11.4538607421875,11.73555597517192
1.131559313603581,-0.5506663818359374,2.5761609863281247,10.773907470703124,11.091299341323179
1.1340462571499625,-0.45968671875,2.6001030029296874,10.070012182617187,10.4104271220396
1.1365332006963442,-0.38786066894531246,2.6767174560546874,9.327809667968749,9.712017578233363
1.1390201442427257,-0.3399766357421875,2.7246014892578123,8.513781103515624,8.945585842564823
1.1415070877891071,-0.3112462158203125,2.7724855224609373,7.8721350585937495,8.351889640067018
1.1439940313354886,-0.239420166015625,2.829946362304687,7.340622290039062,7.870873778332035
1.14648097488187,-0.258573779296875,2.7581203125,6.928819604492187,7.462079413217219
1.1489679184282515,-0.277727392578125,2.7533319091796873,6.809109521484374,7.349962012300776
1.1514548619746332,-0.32082302246093747,2.767697119140625,6.828263134765624,7.374839129949857
1.1539418055210147,-0.37828386230468747,2.6623522460937497,7.115567333984375,7.6067415262532805
1.1564287490673961,-0.43574470214843747,2.5617957763671875,7.5465236328125,7.981396493462831
1.1589156926137776,-0.469263525390625,2.5139117431640625,8.14028564453125,8.532538361076483
1.161402636160159,-0.6081272216796875,2.379836450195312,8.767566479492187,9.105144821458971
1.1638895797065405,-0.6607996582031249,2.403778466796875,9.557653027343749,9.877425701912964
1.1663765232529222,-0.7230489013671875,2.3032219970703123,10.275913525390624,10.555663411783403
1.1688634667993036,-0.82360537109375,2.2457611572265623,10.893617553710937,11.1531462999963
1.171350410345685,-0.7565677246093749,2.231395947265625,11.506533178710937,11.74528962555499
1.1738373538920666,-0.7900865478515624,2.269703173828125,11.870451831054687,12.111292908842186
1.176324297438448,-0.7757213378906249,2.3223756103515623,12.081141577148436,12.326765750865846
1.1788112409848295,-0.7900865478515624,2.2936451904296873,12.071564770507813,12.312908714891156
1.1812981845312112,-0.7278373046875,2.375048046875,11.875240234375,12.132268171746711
1.1837851280775926,-0.6751648681640625,2.437297290039062,11.473014355468749,11.748460498296224
1.186272071623974,-0.565031591796875,2.47081611328125,10.960655200195312,11.249895794315043
1.1887590151703555,-0.4836287353515625,2.6240450195312497,10.295067138671874,10.635220562261319
1.191245958716737,-0.43574470214843747,2.6479870361328124,9.5001921875,9.871948155678995
1.1937329022631185,-0.37828386230468747,2.70065947265625,8.801085302734375,9.213889665810804
1.1962198458095001,-0.3016694091796875,2.7581203125,8.125920434570313,8.586548491659924
1.1987067893558816,-0.3112462158203125,2.7916391357421872,7.6231380859375,8.124183500410407
1.201193732902263,-0.277727392578125,2.767697119140625,7.144297753906249,7.666698783985024
1.2036806764486445,-0.28730419921875,2.77727392578125,6.9336080078124995,7.474671509017286
1.206167619995026,-0.3399766357421875,2.7341782958984373,6.861781958007812,7.394279322953264
1.2086545635414074,-0.3591302490234375,2.6431986328124997,7.091625317382812,7.5767158578377725
1.2111415070877891,-0.40222587890625,2.5809493896484375,7.465120776367187,7.908926198627572
1.2136284506341706,-0.4836287353515625,2.5522189697265625,7.943961108398437,8.357884691405882
1.216115394180552,-0.55545478515625,2.47081611328125,8.609549169921875,8.974285441933842
1.2186023377269335,-0.6847416748046875,2.375048046875,9.255983618164063,9.580342223840471
1.221089281273315,-0.6655880615234374,2.384624853515625,9.9981861328125,10.300153838948772
1.2235762248196966,-0.74699091796875,2.2936451904296873,10.649408984374999,10.919190235891854
1.226063168366078,-0.7565677246093749,2.2840683837890623,11.295843432617186,11.549261533013537
1.2285501119124596,-0.7661445312499999,2.24097275390625,11.693280908203125,11.930706379953458
1.231037055458841,-0.8092401611328125,2.231395947265625,11.942277880859374,12.175877729984265
1.2335239990052225,-0.7517793212890624,2.346317626953125,12.038045947265624,12.287592473017126
1.236010942551604,-0.737414111328125,2.346317626953125,11.903970654296874,12.155389887473701
1.2384978860979856,-0.689530078125,2.379836450195312,11.592724438476562,11.854549049405845
1.240984829644367,-0.63206923828125,2.437297290039062,11.075576879882812,11.358183517808113
1.2434717731907485,-0.5458779785156249,2.5617957763671875,10.510545288085936,10.832005475448511
1.24595871673713,-0.44532150878906246,2.6288334228515624,9.801861596679688,10.158029689450395
1.2484456602835114,-0.411802685546875,2.6815058593749996,9.074024291992187,9.470901328667212
1.250932603829893,-0.3495534423828125,2.7341782958984373,8.427589843749999,8.866915424053728
1.2534195473762746,-0.3112462158203125,2.7437551025390623,7.81467421875,8.288196390938593
1.255906490922656,-0.277727392578125,2.7629087158203123,7.359775903320312,7.8661997447076315
1.2583934344690375,-0.24899697265624998,2.8203695556640622,7.067683300781249,7.613713362285897
1.260880378015419,-0.316034619140625,2.7054478759765623,6.87614716796875,7.395993913307805
1.2633673215618004,-0.3112462158203125,2.7437551025390623,7.043741284179687,7.565669669502423
1.2658542651081819,-0.39743747558593745,2.6096798095703124,7.321468676757812,7.7828201084327295
1.2683412086545636,-0.45489831542968745,2.5761609863281247,7.790732202148437,8.21821429207419
1.270828152200945,-0.51714755859375,2.5139117431640625,8.374917407226562,8.759362729539411
1.2733150957473265,-0.603338818359375,2.446874096679687,9.04050546875,9.385198437179683
1.275802039293708,-0.6464344482421874,2.35589443359375,9.773131176757811,10.073837852389113
1.2782889828400894,-0.70868369140625,2.2936451904296873,10.429142431640624,10.701871457529908
1.2807759263864709,-0.7565677246093749,2.3415292236328122,11.075576879882812,11.345640442444921
1.2832628699328525,-0.7757213378906249,2.2744915771484373,11.549628808593749,11.796990342662685
1.285749813479234,-0.814028564453125,2.250549560546875,11.851298217773437,12.090528742566356
1.2882367570256155,-0.7661445312499999,2.3032219970703123,11.961431494140625,12.205230534470541
1.290723700571997,-0.74699091796875,2.29843359375,11.908759057617187,12.151515737091637
1.2932106441183784,-0.70868369140625,2.398990063476562,11.674127294921874,11.93912199439994
1.2956975876647598,-0.6368576416015624,2.422932080078125,11.233594189453123,11.509553680905832
1.2981845312111415,-0.5410895751953124,2.5139117431640625,10.682927807617187,10.988060644334093
1.300671474757523,-0.4740519287109375,2.5905261962890624,10.103531005859374,10.44111536145139
1.3031584183039044,-0.4165910888671875,2.6336218261718747,9.34696328125,9.719837171457565
1.305645361850286,-0.3399766357421875,2.729389892578125,8.681375219726561,9.106669479246548
1.3081323053966674,-0.3112462158203125,2.767697119140625,8.034940771484374,8.503957593463392
1.3106192489430488,-0.3064578125,2.7533319091796873,7.536946826171874,8.029963913585892
1.3131061924894305,-0.28730419921875,2.73896669921875,7.187393383789062,7.6969543285414375
1.315593136035812,-0.316034619140625,2.7054478759765623,7.015010864257812,7.525270992846476
1.3180800795821934,-0.3064578125,2.73896669921875,7.015010864257812,7.5369909377633375
1.3205670231285749,-0.3591302490234375,2.6671406494140624,7.264007836914062,7.746510416585613
1.3230539666749563,-0.45010991210937495,2.6096798095703124,7.651868505859374,8.097167361023274
1.3255409102213378,-0.47884033203125,2.4947581298828125,8.130708837890625,8.518305723367112
1.3280278537677195,-0.5602431884765625,2.39420166015625,8.796296899414061,9.13350497686243
1.330514797314101,-0.679953271484375,2.35589443359375,9.490615380859374,9.802262766374142
1.3330017408604824,-0.689530078125,2.3511060302734372,10.223241088867187,10.512745105600608
1.3354886844068639,-0.7613561279296874,2.29843359375,10.797849487304687,11.065984533194536
1.3379756279532453,-0.7517793212890624,2.2840683837890623,11.310208642578125,11.562999613784978
1.3404625714996268,-0.7613561279296874,2.27927998046875,11.707646118164062,11.951726151944067
1.3429495150460085,-0.8044517578125,2.2936451904296873,11.884817041015625,12.13082136496306
1.34543645859239,-0.7278373046875,2.3367408203125,11.918335864257811,12.167038858188278
1.3479234021387714,-0.7422025146484375,2.3367408203125,11.726799731445311,11.980361187188432
1.3504103456851528,-0.612915625,2.403778466796875,11.382034692382812,11.649228739251855
1.3528972892315343,-0.5889736083984375,2.43250888671875,10.869675537109375,11.154095018305588
1.3553842327779158,-0.5458779785156249,2.5665841796874997,10.24718310546875,10.577811622252243
1.3578711763242974,-0.45968671875,2.6431986328124997,9.552864624023437,9.92245097830246
1.360358119870679,-0.3399766357421875,2.6958710693359373,8.858546142578124,9.265913052447601
1.3628450634170604,-0.33518823242187495,2.7533319091796873,8.25520732421875,8.708710336157475
1.3653320069634418,-0.32561142578124996,2.7246014892578123,7.675810522460937,8.151536251074837
1.3678189505098233,-0.2920926025390625,2.77727392578125,7.287949853515625,7.804664093645597
1.370305894056205,-0.3016694091796875,2.7437551025390623,7.086836914062499,7.6054226668649285
1.3727928376025864,-0.2825157958984375,2.73896669921875,7.024587670898437,7.544970887982252
1.3752797811489679,-0.4070142822265625,2.6910826660156246,7.149086157226562,7.649641784078168
1.3777667246953493,-0.373495458984375,2.6527754394531247,7.522581616210937,7.985358511839179
1.3802536682417308,-0.49320554199218747,2.5617957763671875,8.010998754882811,8.425090525163425
1.3827406117881123,-0.5458779785156249,2.5139117431640625,8.59997236328125,8.97648370293445
1.385227555334494,-0.6081272216796875,2.427720483398437,9.275137231445312,9.606862970054438
1.3877144988808754,-0.6751648681640625,2.327164013671875,9.935936889648437,10.227139474007824
1.3902014424272569,-0.737414111328125,2.3032219970703123,10.568006127929687,10.841188341659498
1.3926883859736383,-0.7757213378906249,2.24097275390625,11.171344946289063,11.420273656387886
1.3951753295200198,-0.7900865478515624,2.2744915771484373,11.621454858398437,11.868267005481796
1.3976622730664012,-0.7852981445312499,2.2840683837890623,11.841721411132811,12.085529675463556
1.400149216612783,-0.7805097412109374,2.327164013671875,11.9518546875,12.2012998600055
1.4026361601591644,-0.699106884765625,2.375048046875,11.79862578125,12.055586837116996
1.4051231037055458,-0.6703764648437499,2.408566870117187,11.506533178710937,11.775011879621104
1.4076100472519273,-0.6081272216796875,2.408566870117187,11.027692846679686,11.304026831456314
1.4100969907983087,-0.5602431884765625,2.5617957763671875,10.472238061523436,10.795575021612665
1.4125839343446902,-0.45968671875,2.6096798095703124,9.830592016601562,10.181467476977199
1.4150708778910719,-0.39743747558593745,2.6575638427734374,9.126696728515624,9.514052517182918
1.4175578214374533,-0.316034619140625,2.6910826660156246,8.398859423828124,8.825114357165669
1.4200447649838348,-0.2825157958984375,2.7581203125,7.8912886718749995,8.364178365865945
1.4225317085302163,-0.316034619140625,2.7054478759765623,7.388506323242187,7.874601690162572
1.4250186520765977,-0.316034619140625,2.73896669921875,7.091625317382812,7.608742741220095
1.4275055956229792,-0.3064578125,2.6719290527343746,7.005434057617187,7.503947467120962
1.4299925391693609,-0.3447650390625,2.6575638427734374,7.115567333984375,7.6034733507155785
1.4324794827157423,-0.38307226562499996,2.6192566162109374,7.3932947265625,7.852901151553654
1.4349664262621238,-0.44532150878906246,2.6001030029296874,7.766790185546874,8.202553057331686
1.4374533698085052,-0.49799394531249996,2.5330653564453125,8.379705810546875,8.768345769921735
1.4399403133548867,-0.6177040283203125,2.4133552734375,9.054870678710937,9.391300493041994
1.4424272569012682,-0.679953271484375,2.35589443359375,9.706093530273437,10.011035243772554
1.4449142004476498,-0.718260498046875,2.2553379638671873,10.333374365234375,10.600993974453436
1.4474011439940313,-0.7517793212890624,2.3032219970703123,10.965443603515624,11.229913496442798
1.4498880875404128,-0.7900865478515624,2.2840683837890623,11.506533178710937,11.7576150186888
1.4523750310867942,-0.7661445312499999,2.24097275390625,11.755530151367187,11.991723206704593
1.4548619746331757,-0.7613561279296874,2.2649147705078123,11.961431494140625,12.197759854178953
1.4573489181795571,-0.7517793212890624,2.288856787109375,11.89439384765625,12.13592363781914
1.4598358617259388,-0.70868369140625,2.370259643554687,11.592724438476562,11.853759878569369
1.4623228052723203,-0.6368576416015624,2.4660277099609376,11.228805786132812,11.514033164128511
1.4648097488187017,-0.5746083984375,2.499546533203125,10.654197387695312,10.958550527290381
1.4672966923650832,-0.5027823486328125,2.6096798095703124,10.007762939453125,10.354638470312091
1.4697836359114647,-0.44532150878906246,2.6384102294921874,9.327809667968749,9.703996753252262
1.4722705794578461,-0.38307226562499996,2.7150246826171873,8.662221606445312,9.085823383000553
1.4747575230042278,-0.33039982910156246,2.7150246826171873,8.001421948242188,8.455960990218836
1.4772444665506093,-0.27293898925781246,2.7820623291015623,7.580042456054687,8.079072355812556
1.4797314100969907,-0.316034619140625,2.7437551025390623,7.149086157226562,7.664039589319261
1.4822183536433722,-0.277727392578125,2.748543505859375,7.015010864257812,7.5393634568075525
1.4847052971897536,-0.3016694091796875,2.767697119140625,7.062894897460937,7.591813756166169
1.487192240736135,-0.38307226562499996,2.6575638427734374,7.268796240234375,7.7488572525988095
1.4896791842825168,-0.4261678955078125,2.5665841796874997,7.671022119140624,8.100219366099195
1.4921661278288982,-0.5267243652343749,2.50912333984375,8.188169677734374,8.580166732811714
1.4946530713752797,-0.55545478515625,2.43250888671875,8.796296899414061,9.143329188263984
1.4971400149216612,-0.6416460449218749,2.375048046875,9.490615380859374,9.804302279067754
1.4996269584680426,-0.6703764648437499,2.3367408203125,10.151415039062499,10.43843808053846
1.5021139020144243,-0.6943184814453125,2.3415292236328122,10.812214697265624,11.084621054351375
1.5046008455608058,-0.7805097412109374,2.2601263671875,11.367669482421874,11.61642269002669
1.5070877891071872,-0.7661445312499999,2.3223756103515623,11.712434521484374,11.965012676064282
1.5095747326535687,-0.7996633544921875,2.2457611572265623,11.903970654296874,12.140322153641
1.5120616761999501,-0.737414111328125,2.3367408203125,11.93270107421875,12.181686753465707
1.5145486197463316,-0.7278373046875,2.360682836914062,11.726799731445311,11.984173001923045
1.5170355632927133,-0.6177040283203125,2.4133552734375,11.386823095703125,11.65613924742107
1.5195225068390947,-0.5746083984375,2.480392919921875,10.884040747070312,11.177873985362348
1.5220094503854762,-0.5027823486328125,2.5378537597656248,10.295067138671874,10.61517306433648
1.5244963939318577,-0.469263525390625,2.6192566162109374,9.595960253906249,9.95807042917328
1.5269833374782391,-0.4261678955078125,2.6862942626953124,8.901641772460938,9.307901062332625
1.5294702810246206,-0.3591302490234375,2.7341782958984373,8.240842114257813,8.690004847044154
1.5319572245710023,-0.32561142578124996,2.7198130859375,7.704540942382812,8.177001721651354
1.5344441681173837,-0.2825157958984375,2.7581203125,7.264007836914062,7.775143258352616
1.5369311116637652,-0.277727392578125,2.786850732421875,7.062894897460937,7.597904569153808
1.5394180552101466,-0.2920926025390625,2.7150246826171873,7.0102224609374995,7.523290242142145
1.541904998756528,-0.32082302246093747,2.6815058593749996,7.182604980468749,7.673539951747037
1.5443919423029095,-0.4261678955078125,2.6575638427734374,7.455543969726562,7.926499892014405
1.5468788858492912,-0.488417138671875,2.5809493896484375,7.948749511718749,8.371527330978745
1.5493658293956727,-0.51714755859375,2.4899697265625,8.537723120117187,8.90842898115828
1.5518527729420541,-0.5746083984375,2.422932080078125,9.217676391601563,9.548106238229412
1.5543397164884356,-0.689530078125,2.2936451904296873,9.907206469726562,10.192595352608292
1.556826660034817,-0.7038952880859375,2.308010400390625,10.606313354492187,10.87732796042209
1.5593136035811985,-0.7278373046875,2.2649147705078123,11.18571015625,11.435895144648434
1.5618005471275802,-0.7805097412109374,2.2553379638671873,11.559205615234374,11.80300721183596
1.5642874906739617,-0.7661445312499999,2.2266075439453124,11.81777939453125,12.050089975403747
1.5667744342203431,-0.7661445312499999,2.308010400390625,11.899182250976562,12.14514008536053
1.5692613777667246,-0.7422025146484375,2.3367408203125,11.827356201171874,12.078806933777193
1.571748321313106,-0.689530078125,2.375048046875,11.506533178710937,11.769307997770278
1.5742352648594875,-0.6368576416015624,2.4660277099609376,11.027692846679686,11.317989655529457
1.5767222084058692,-0.5219359619140624,2.5713725830078125,10.496180078124999,10.819157561539232
1.5792091519522506,-0.45489831542968745,2.6192566162109374,9.82580361328125,10.179089072491527
1.581696095498632,-0.4070142822265625,2.7054478759765623,9.126696728515624,9.527943220331462
1.5841830390450136,-0.3591302490234375,2.7437551025390623,8.499415893554687,8.93852544495359
1.586669982591395,-0.32082302246093747,2.786850732421875,7.8721350585937495,8.357031458435593
1.5891569261377765,-0.296881005859375,2.7533319091796873,7.45075556640625,7.948756723166262
1.5916438696841582,-0.2825157958984375,2.73896669921875,7.091625317382812,7.607424228771934
1.5941308132305396,-0.3016694091796875,2.6958710693359373,7.019799267578125,7.525709734769717
1.596617756776921,-0.316034619140625,2.6958710693359373,7.053318090820312,7.557572017074726
1.5991047003233025,-0.44532150878906246,2.427720483398437,-6.057330200195312,6.540901095865974
1.601591643869684,-0.9911994873046874,1.915361328125,-2.422932080078125,3.2437147386263097
1.6040785874160655,-1.426944189453125,1.5227122558593749,2.1116858642578125,2.9688448129305525
1.6065655309624471,-1.7286135986328124,1.2401964599609374,6.89530078125,7.216049133465264
1.6090524745088286,-1.9871873779296874,1.0486603271484374,11.750741748046874,11.963633803574474
1.61153941805521,-2.1404162841796874,0.9050082275390624,16.060304736328124,16.227563279347226
1.6140263616015915,-2.1260510742187497,0.948103857421875,19.780894116210938,19.917398578413632
1.616513305147973,-1.9871873779296874,1.13006318359375,22.519860815429688,22.63559337901798
1.6190002486943544,-1.7429788085937499,1.35990654296875,24.085668701171873,24.18691294306544
1.6214871922407361,-1.47482822265625,1.6615759521484375,24.454375756835937,24.555090034199154
1.6239741357871176,-1.1109095703125,2.0925322509765625,23.669077612304687,23.787350552596056
1.626461079333499,-0.6751648681640625,2.4660277099609376,21.835119140625,21.984302766992325
1.6289480228798805,-0.3016694091796875,2.882618798828125,19.13924807128906,19.357461411717555
1.631434966426262,0.08140285644531249,3.189076611328125,15.816096166992187,16.134612918242027
1.6339219099726436,0.373495458984375,3.4715924072265625,12.133814013671874,12.626198763609537
1.636408853519025,0.565031591796875,3.6918589599609373,8.365340600585936,9.161222988432487
1.6388957970654066,0.679953271484375,3.758896606445312,4.917690209960937,6.22698298941743
1.641382740611788,0.6943184814453125,3.77326181640625,1.9680337646484374,4.3119299376986895
1.6438696841581695,0.6464344482421874,3.725377783203125,-0.32561142578124996,3.795041491743787
1.646356627704551,0.5123591552734374,3.4524387939453125,-1.714248388671875,3.888507820230685
1.6488435712509326,0.26336218261718747,3.265691064453125,-2.231395947265625,3.9639911252619284
1.651330514797314,-0.0047884033203125,2.9544448486328125,-1.7669208251953124,3.4424956782729885
1.6538174583436955,-0.3495534423828125,2.6431986328124997,-0.4836287353515625,2.7097201654859666
1.656304401890077,-0.5985504150390625,2.346317626953125,1.5179238525390624,2.8578946495631024
1.6587913454364585,-0.9097966308593749,2.1116858642578125,4.07971962890625,4.683060895323942
1.66127828898284,-1.139639990234375,1.848323681640625,6.87614716796875,7.210858452016626
1.6637652325292216,-1.3168109130859373,1.6711527587890624,9.82580361328125,10.053514767025579
1.666252176075603,-1.4796166259765624,1.5801730957031248,12.54561669921875,12.73101373559728
1.6687391196219845,-1.5131354492187499,1.5322890624999999,15.026009619140623,15.179540629849313
1.671226063168366,-1.47482822265625,1.5658078857421873,16.888698510742188,17.025128780956145
1.6737130067147474,-1.350329736328125,1.7334020019531249,18.14326018066406,18.275830018919994
1.676199950261129,-1.197100830078125,1.9776105712890624,18.669984545898437,18.81255742617506
1.6786868938075106,-1.0199299072265624,2.1164742675781247,18.464083203125,18.61295486678293
1.681173837353892,-0.7996633544921875,2.365471240234375,17.554286572265624,17.730986795159453
1.6836607809002735,-0.5315127685546874,2.5761609863281247,16.11297717285156,16.32627160816122
1.686147724446655,-0.296881005859375,2.806004345703125,14.188039038085936,14.465899573341279
1.6886346679930364,-0.086191259765625,2.9831752685546875,11.956643090820311,12.323476685474656
1.6911216115394179,0.06703764648437499,3.1794998046874996,9.600748657226562,10.113757354875172
1.6936085550857995,0.1867477294921875,3.2513258544921873,7.369352709960937,8.056882392735321
1.696095498632181,0.22026655273437498,3.2417490478515623,5.358223315429687,6.266419339743735
1.6985824421785625,0.2920926025390625,3.265691064453125,3.749319799804687,4.980708300845823
1.701069385724944,0.15322890625,3.19865341796875,2.6671406494140624,4.16755348253032
1.7035563292713254,0.0718260498046875,3.0597897216796874,2.1068974609374997,3.715708416067128
1.7060432728177068,-0.09576806640624999,2.868253588867187,2.1643583007812497,3.5945092887282106
1.7085302163640885,-0.2920926025390625,2.6719290527343746,2.748543505859375,3.844348365445801
1.71101715991047,-0.44532150878906246,2.5378537597656248,3.854664672851562,4.636534556355266
1.7135041034568514,-0.6368576416015624,2.3223756103515623,5.367800122070312,5.883221420422672
1.715991047003233,-0.8092401611328125,2.1356278808593747,7.144297753906249,7.50045108512575
1.7184779905496144,-0.9624690673828125,2.001552587890625,9.0021982421875,9.272115867449248
1.7209649340959958,-1.0965443603515623,1.886630908203125,10.831368310546875,11.048996569676598
1.7234518776423775,-1.1540052001953125,1.8722656982421875,12.58392392578125,12.774672137348258
1.725938821188759,-1.1348515869140625,1.9105729248046874,13.991714501953124,14.16708338824486
1.7284257647351404,-1.13006318359375,1.93451494140625,14.954183569335937,15.12107790743884
1.7309127082815219,-1.0486603271484374,1.9776105712890624,15.47611953125,15.637164314508786
1.7333996518279033,-0.9002198242187499,2.1068974609374997,15.547945581054687,15.715852647383128
1.7358865953742848,-0.7805097412109374,2.269703173828125,15.121777685546874,15.311071429671863
1.7383735389206665,-0.6607996582031249,2.408566870117187,14.255076684570312,14.47221689441834
1.740860482467048,-0.4644751220703125,2.5522189697265625,13.110648291015623,13.364829120462604
1.7433474260134294,-0.2920926025390625,2.7437551025390623,11.693280908203125,12.014421690173641
1.7458343695598109,-0.22505495605468748,2.877830395507812,10.137049829101562,10.54003495042789
1.7483213131061923,-0.1197100830078125,2.9448680419921875,8.552088330078124,9.045705781981807
1.7508082566525738,-0.033518823242187495,2.987963671875,7.129932543945312,7.730781881360174
1.7532952001989555,-0.0,3.0406361083984375,5.889736083984375,6.628307407074901
1.755782143745337,-0.028730419921875,2.987963671875,5.0182466796875,5.840509573630389
1.7582690872917184,-0.0526724365234375,2.93050283203125,4.477157104492187,5.351220138661589
1.7607560308380998,-0.181959326171875,2.839523168945312,4.3239281982421875,5.17613331425226
1.7632429743844813,-0.24899697265624998,2.7341782958984373,4.620809204101562,5.374905408178248
1.765729917930863,-0.373495458984375,2.6431986328124997,5.252878442382812,5.892260160654305
1.7682168614772444,-0.507570751953125,2.480392919921875,6.186617089843749,6.684624755495522
1.770703805023626,-0.6272808349609375,2.308010400390625,7.311891870117187,7.693123941189717
1.7731907485700074,-0.74699091796875,2.2361843505859373,8.705317236328124,9.01892809963827
1.7756776921163888,-0.8283937744140625,2.1930887207031247,10.007762939453125,10.278676638296133
1.7781646356627703,-0.8571241943359375,2.1260510742187497,11.252747802734374,11.483862075392844
1.780651579209152,-0.9624690673828125,2.0446482177734375,12.339715356445312,12.54493954222997
1.7831385227555334,-0.9864110839843749,2.0302830078125,13.129801904296874,13.322415470345355
1.7856254663019149,-0.9576806640625,2.1452046874999997,13.704410302734374,13.904312897489154
1.7881124098482963,-0.8714894042968749,2.1930887207031247,13.876792822265624,14.0760261064961
1.7905993533946778,-0.8044517578125,2.2840683837890623,13.723563916015625,13.935577403517893
1.7930862969410593,-0.689530078125,2.375048046875,13.2159931640625,13.445399966760027
1.795573240487441,-0.5506663818359374,2.5234885498046875,12.526463085937499,12.789976754022442
1.7980601840338224,-0.44532150878906246,2.6192566162109374,11.516109985351562,11.818612679264385
1.8005471275802039,-0.3495534423828125,2.7246014892578123,10.419565624999999,10.77557370621301
1.8030340711265853,-0.28730419921875,2.786850732421875,9.212887988281249,9.629454075507395
1.8055210146729668,-0.239420166015625,2.85388837890625,8.097190014648437,8.588741876926646
1.8080079582193482,-0.15322890625,2.935291235351562,7.096413720703125,7.68104819861364
1.81049490176573,-0.13407529296874998,2.868253588867187,6.287173559570312,6.911830886414553
1.8129818453121114,-0.1388636962890625,2.877830395507812,5.798756420898437,6.475088180122844
1.8154687888584928,-0.201112939453125,2.85388837890625,5.588066674804687,6.2778670307465365
1.8179557324048743,-0.24899697265624998,2.806004345703125,5.664681127929687,6.326473912189914
1.8204426759512558,-0.39264907226562495,2.6671406494140624,5.990292553710937,6.5689738480795175
1.8229296194976372,-0.4213794921875,2.5665841796874997,6.6510922119140625,7.141564439199736
1.825416563044019,-0.5315127685546874,2.461239306640625,7.474697583007812,7.887414576723625
1.8279035065904004,-0.6416460449218749,2.39420166015625,8.465897070312499,8.821299475790662
1.8303904501367818,-0.7422025146484375,2.3223756103515623,9.524134204101562,9.831247397255526
1.8328773936831633,-0.842758984375,2.212242333984375,10.51533369140625,10.778520375804872
1.8353643372295447,-0.8571241943359375,2.1739351074218747,11.415553515625,11.652275220054479
1.8378512807759262,-0.8714894042968749,2.1883003173828124,12.176909643554687,12.402632000029453
1.8403382243223079,-0.8762778076171874,2.1404162841796874,12.732364428710937,12.94072442374103
1.8428251678686893,-0.833182177734375,2.2074539306640624,13.005303417968749,13.217600477799593
1.8453121114150708,-0.7661445312499999,2.3032219970703123,12.928688964843749,13.154573628978834
1.8477990549614522,-0.7278373046875,2.379836450195312,12.665326782226561,12.907512199194638
1.8502859985078337,-0.6272808349609375,2.4564509033203126,12.20085166015625,12.46147718047383
1.8527729420542152,-0.5219359619140624,2.5330653564453125,11.396399902343749,11.686178502081132
1.8552598856005968,-0.411802685546875,2.6240450195312497,10.577582934570312,10.905982507507678
1.8577468291469783,-0.354341845703125,2.6862942626953124,9.576806640625,9.952736329338036
1.8602337726933598,-0.2442085693359375,2.767697119140625,8.690952026367187,9.124277083322948
1.8627207162397412,-0.229843359375,2.8107927490234372,7.805097412109374,8.298971590524213
1.8652076597861227,-0.2059013427734375,2.825157958984375,7.082048510742187,7.627537214899334
1.8676946033325041,-0.2059013427734375,2.834734765625,6.598419775390624,7.184515299354925
1.8701815468788858,-0.22505495605468748,2.7916391357421872,6.311115576171875,6.904641816434174
1.8726684904252673,-0.2825157958984375,2.7198130859375,6.253654736328125,6.825349511824884
1.8751554339716487,-0.3399766357421875,2.6671406494140624,6.430825659179687,6.970275605409825
1.8776423775180302,-0.411802685546875,2.6240450195312497,6.866570361328125,7.362403292636191
1.8801293210644117,-0.4740519287109375,2.4756045166015626,7.52737001953125,7.9381762618797085
1.8826162646107931,-0.59376201171875,2.480392919921875,8.346186987304687,8.727183943908422
1.8851032081571748,-0.689530078125,2.308010400390625,9.208099584960937,9.517954701694485
1.8875901517035563,-0.74699091796875,2.3032219970703123,10.007762939453125,10.296511353444322
1.8900770952499377,-0.7852981445312499,2.2266075439453124,10.87925234375,11.132502229487685
1.8925640387963192,-0.82360537109375,2.2074539306640624,11.5304751953125,11.768731320453174
1.8950509823427006,-0.7996633544921875,2.24097275390625,12.143390820312499,12.37430244414277
1.897537925889082,-0.7996633544921875,2.2026655273437497,12.421118212890624,12.640228422163478
1.9000248694354638,-0.7852981445312499,2.288856787109375,12.564770312499999,12.795663780108564
1.9025118129818452,-0.7565677246093749,2.3223756103515623,12.325350146484375,12.565034000388492
1.9049987565282267,-0.689530078125,2.379836450195312,11.985373510742187,12.238801062617114
1.9074857000746082,-0.59376201171875,2.4660277099609376,11.401188305664062,11.679937532969364
1.9099726436209896,-0.5123591552734374,2.5617957763671875,10.658985791015624,10.974483477452514
1.9124595871673713,-0.39743747558593745,2.6862942626953124,9.950302099609374,10.314196298610987
1.9149465307137528,-0.373495458984375,2.6910826660156246,9.05965908203125,9.45826873459636
1.9174334742601342,-0.2920926025390625,2.7437551025390623,8.2743609375,8.72230239530785
1.9199204178065157,-0.277727392578125,2.786850732421875,7.6087728759765625,8.107841524572693
1.9224073613528971,-0.24899697265624998,2.8107927490234372,7.043741284179687,7.58794087014468
1.9248943048992786,-0.24899697265624998,2.8203695556640622,6.732495068359374,7.3036274390464335
1.9273812484456603,-0.2537853759765625,2.7724855224609373,6.564900952148437,7.130849002807065
1.9298681919920417,-0.3399766357421875,2.6527754394531247,6.746860278320312,7.2576115396315295
1.9323551355384232,-0.354341845703125,2.6910826660156246,7.005434057617187,7.512894941004357
1.9348420790848047,-0.4644751220703125,2.5665841796874997,7.50821640625,7.94835864147599
1.9373290226311861,-0.5027823486328125,2.4899697265625,8.149862451171874,8.536568239188139
1.9398159661775676,-0.612915625,2.4133552734375,8.94473740234375,9.284841217602214
1.9423029097239493,-0.63206923828125,2.3367408203125,9.744400756835937,10.040578434189982
1.9447898532703307,-0.7613561279296874,2.2840683837890623,10.486603271484375,10.75943677470469
1.9472767968167122,-0.7422025146484375,2.2744915771484373,11.204863769531249,11.4574494806228
1.9497637403630936,-0.8044517578125,2.221819140625,11.678915698242188,11.915565232541134
1.952250683909475,-0.7565677246093749,2.2840683837890623,12.057199560546874,12.294934906155344
1.9547376274558566,-0.8044517578125,2.2601263671875,12.220005273437499,12.453266346992827
1.9572245710022382,-0.74699091796875,2.384624853515625,12.172121240234373,12.425979503061198
1.9597115145486197,-0.7038952880859375,2.35589443359375,11.918335864257811,12.169323602077545
1.9621984580950012,-0.603338818359375,2.446874096679687,11.4538607421875,11.727835967311501
1.9646854016413826,-0.5506663818359374,2.50912333984375,10.836156713867187,11.136481748116047
1.967172345187764,-0.5027823486328125,2.5713725830078125,10.122684619140625,10.456265631157578
1.9696592887341455,-0.373495458984375,2.6623522460937497,9.337386474609374,9.716707493610192
1.9721462322805272,-0.3495534423828125,2.7341782958984373,8.609549169921875,9.040036253917691
1.9746331758269087,-0.3016694091796875,2.7246014892578123,7.920019091796875,8.380999947627235
1.9771201193732901,-0.258573779296875,2.7629087158203123,7.369352709960937,7.874508513875918
1.9796070629196716,-0.26336218261718747,2.73896669921875,7.0102224609374995,7.530904140307109
1.982094006466053,-0.3112462158203125,2.7341782958984373,6.785167504882812,7.321960340642538
1.9845809500124345,-0.3016694091796875,2.6958710693359373,6.8569935546875,7.374082035341296
1.9870678935588162,-0.39743747558593745,2.6384102294921874,7.053318090820312,7.541118032253721
1.9895548371051976,-0.4261678955078125,2.5617957763671875,7.465120776367187,7.9039512195308586
1.992041780651579,-0.5027823486328125,2.4660277099609376,8.049305981445311,8.433588177005277
1.9945287241979606,-0.584185205078125,2.446874096679687,8.734047656249999,9.089117320206638
1.997015667744342,-0.6272808349609375,2.427720483398437,9.490615380859374,9.81626651527077
1.9995026112907235,-0.6847416748046875,2.35589443359375,10.232817895507813,10.522816724911504
2.001989554837105,-0.7709329345703124,2.2649147705078123,10.86009873046875,11.120518015937863
2.0044764983834864,-0.8092401611328125,2.231395947265625,11.405976708984374,11.650334853460553
2.006963441929868,-0.7948749511718749,2.2361843505859373,11.85608662109375,12.091283496994194
2.0094503854762498,-0.7900865478515624,2.27927998046875,12.066776367187499,12.305545330385662
2.011937329022631,-0.7565677246093749,2.2840683837890623,12.095506787109374,12.332503701226054
2.0144242725690127,-0.7134720947265625,2.3511060302734372,11.865663427734374,12.117372263647539
2.016911216115394,-0.6751648681640625,2.398990063476562,11.535263598632811,11.801411238229328
2.0193981596617756,-0.5793968017578125,2.5139117431640625,10.998962426757812,11.297461102899865
2.021885103208157,-0.4836287353515625,2.5665841796874997,10.295067138671874,10.62118912809867
2.0243720467545385,-0.4261678955078125,2.6192566162109374,9.572018237304688,9.933058815491826
2.02685899030092,-0.354341845703125,2.6815058593749996,8.877699755859375,9.280602608271963
2.0293459338473014,-0.2920926025390625,2.73896669921875,8.25520732421875,8.702626306680196
2.031832877393683,-0.296881005859375,2.8012159423828122,7.6614453125,8.162885112748306
2.0343198209400644,-0.296881005859375,2.7341782958984373,7.187393383789062,7.695615176107557
2.036806764486446,-0.277727392578125,2.7629087158203123,6.943184814453125,7.477874861496184
2.0392937080328277,-0.28730419921875,2.7581203125,6.900089184570312,7.436464355870875
2.041780651579209,-0.3064578125,2.70065947265625,7.058106494140625,7.5633554234030465
2.0442675951255906,-0.39743747558593745,2.6240450195312497,7.398083129882812,7.8597202754413305
2.046754538671972,-0.44532150878906246,2.6048914062499997,7.881711865234375,8.312950884681179
2.0492414822183536,-0.5458779785156249,2.43250888671875,8.494627490234375,8.852896613495469
2.0517284257647352,-0.612915625,2.370259643554687,9.2320416015625,9.551145924663377
2.0542153693111165,-0.6607996582031249,2.3511060302734372,9.888052856445311,10.185182622109716
2.056702312857498,-0.7517793212890624,2.2649147705078123,10.606313354492187,10.871471567329863
2.0591892564038794,-0.7565677246093749,2.2744915771484373,11.2240173828125,11.477119536979517
2.061676199950261,-0.814028564453125,2.269703173828125,11.674127294921874,11.920547097305182
2.0641631434966423,-0.8092401611328125,2.2601263671875,11.947066284179687,12.185870245190923
2.066650087043024,-0.7757213378906249,2.3032219970703123,12.028469140624999,12.271538005841618
2.0691370305894057,-0.7278373046875,2.3223756103515623,11.956643090820311,12.201823208804152
2.071623974135787,-0.6847416748046875,2.39420166015625,11.631031665039062,11.894619386254048
2.0741109176821686,-0.63206923828125,2.418143676757812,11.113884106445312,11.391459533129323
2.07659786122855,-0.5315127685546874,2.4899697265625,10.55364091796875,10.85641707414369
2.0790848047749315,-0.45489831542968745,2.6479870361328124,9.873687646484374,10.232715942566095
2.081571748321313,-0.36391865234375,2.6910826660156246,9.1554271484375,9.549670621084262
2.0840586918676944,-0.3687070556640625,2.6862942626953124,8.475473876953124,8.89863917672815
2.086545635414076,-0.3016694091796875,2.7533319091796873,7.896077075195312,8.367787892386305
2.0890325789604574,-0.32561142578124996,2.748543505859375,7.359775903320312,7.863002960147946
2.091519522506839,-0.26815058593749996,2.767697119140625,7.058106494140625,7.586100405522458
2.0940064660532203,-0.3112462158203125,2.7150246826171873,6.9527616210937495,7.470550675407885
2.096493409599602,-0.3112462158203125,2.7246014892578123,7.043741284179687,7.558744522775304
2.0989803531459836,-0.38307226562499996,2.6336218261718747,7.321468676757812,7.790161222255014
2.101467296692365,-0.4261678955078125,2.6001030029296874,7.75721337890625,8.192466912163127
2.1039542402387466,-0.5123591552734374,2.4947581298828125,8.327033374023436,8.707801952428008
2.106441183785128,-0.5889736083984375,2.4133552734375,8.987833032226561,9.324822582891397
2.1089281273315095,-0.6368576416015624,2.360682836914062,9.710881933593749,10.013972190912275
2.111415070877891,-0.7326257080078125,2.288856787109375,10.40041201171875,10.674463725800667
2.1139020144242724,-0.7852981445312499,2.288856787109375,10.984597216796875,11.247974688047734
2.116388957970654,-0.7900865478515624,2.2744915771484373,11.496956372070311,11.746384742077169
2.1188759015170353,-0.8092401611328125,2.269703173828125,11.860875024414062,12.103172248648079
2.121362845063417,-0.8044517578125,2.221819140625,11.956643090820311,12.187901251879108
2.1238497886097982,-0.7613561279296874,2.31758720703125,11.923124267578125,12.170117744534823
2.12633673215618,-0.7230489013671875,2.379836450195312,11.750741748046874,12.011092909171014
2.1288236757025616,-0.63206923828125,2.47081611328125,11.267113012695312,11.552154752619952
2.131310619248943,-0.5315127685546874,2.528276953125,10.764330664062498,11.07002731794804
2.1337975627953245,-0.5267243652343749,2.5570073730468748,10.117896215820313,10.449284621296265
2.1362845063417057,-0.430956298828125,2.6096798095703124,9.375693701171874,9.74165203742017
2.1387714498880874,-0.3495534423828125,2.7437551025390623,8.710105639648438,9.13872638421932
2.141258393434469,-0.3016694091796875,2.7246014892578123,8.106766821289062,8.55769396522532
2.1437453369808503,-0.27293898925781246,2.7198130859375,7.618349682617187,8.093894662084955
2.146232280527232,-0.2920926025390625,2.7581203125,7.220912207031249,7.735251699093963
2.1487192240736133,-0.26336218261718747,2.73896669921875,7.015010864257812,7.535361679728272
2.151206167619995,-0.33039982910156246,2.710236279296875,7.0102224609374995,7.523148522295696
2.153693111166376,-0.3591302490234375,2.6431986328124997,7.254431030273437,7.72931064980957
2.156180054712758,-0.44532150878906246,2.5809493896484375,7.594407666015624,8.033345429878743
2.1586669982591395,-0.45489831542968745,2.528276953125,8.17859287109375,8.572543273742589
2.161153941805521,-0.59376201171875,2.4516625,8.710105639648438,9.068028594700287
2.1636408853519025,-0.612915625,2.4133552734375,9.433154541015625,9.75624691333104
2.1661278288982837,-0.6512228515624999,2.365471240234375,10.151415039062499,10.443695355863145
2.1686147724446654,-0.7565677246093749,2.3127988037109373,10.817003100585938,11.087334625889719
2.171101715991047,-0.814028564453125,2.221819140625,11.291055029296874,11.536335920560022
2.1735886595374283,-0.7900865478515624,2.2457611572265623,11.669338891601562,11.909708228812676
2.17607560308381,-0.7805097412109374,2.231395947265625,11.908759057617187,12.141122914375671
2.178562546630191,-0.7565677246093749,2.2936451904296873,11.918335864257811,12.160589325964256
2.181049490176573,-0.7134720947265625,2.370259643554687,11.745953344726562,12.003940735621391
2.1835364337229546,-0.699106884765625,2.370259643554687,11.386823095703125,11.65189346960522
2.186023377269336,-0.622492431640625,2.461239306640625,10.922347973632812,11.213513321395906
2.1885103208157175,-0.5363011718749999,2.5426421630859375,10.347739575195313,10.669037558867252
2.1909972643620987,-0.4740519287109375,2.5761609863281247,9.581595043945311,9.933191543746199
2.1934842079084804,-0.39743747558593745,2.6767174560546874,8.94473740234375,9.345111025741492
2.1959711514548617,-0.3687070556640625,2.7246014892578123,8.283937744140625,8.728288647665131
2.1984580950012433,-0.28730419921875,2.7916391357421872,7.781155395507812,8.271769584323323
2.200945038547625,-0.24899697265624998,2.786850732421875,7.331045483398437,7.846831486456743
2.2034319820940063,-0.277727392578125,2.748543505859375,7.110778930664062,7.628551691439597
2.205918925640388,-0.316034619140625,2.7341782958984373,6.9910688476562495,7.513364923050599
2.208405869186769,-0.3591302490234375,2.6910826660156246,7.1778165771484375,7.674109151313937
2.210892812733151,-0.44053310546874996,2.6336218261718747,7.474697583007812,7.9373255758930314
2.2133797562795325,-0.49320554199218747,2.528276953125,7.900865478515625,8.310181187432363
2.2158666998259138,-0.5698199951171875,2.5234885498046875,8.566453540039062,8.948564999008415
2.2183536433722955,-0.6416460449218749,2.403778466796875,9.203311181640624,9.53366651768938
2.2208405869186767,-0.689530078125,2.3367408203125,9.9215716796875,10.21632977077046
2.2233275304650584,-0.7134720947265625,2.29843359375,10.563217724609375,10.833900872369735
2.2258144740114396,-0.7565677246093749,2.2936451904296873,11.133037719726563,11.392002977982242
2.2283014175578213,-0.737414111328125,2.29843359375,11.6070896484375,11.855425199600786
2.230788361104203,-0.7613561279296874,2.2840683837890623,11.85608662109375,12.098075115580952
2.233275304650584,-0.7517793212890624,2.2649147705078123,11.9518546875,12.187774265086222
2.235762248196966,-0.7278373046875,2.3319524169921872,11.85608662109375,12.10514515336717
2.238249191743347,-0.679953271484375,2.3511060302734372,11.568782421875,11.824836689852186
2.240736135289729,-0.612915625,2.461239306640625,11.051634863281249,11.338959283779774
2.2432230788361105,-0.51714755859375,2.5043349365234375,10.510545288085936,10.817148299092363
2.2457100223824917,-0.49799394531249996,2.5713725830078125,9.854534033203125,10.1966561156965
2.2481969659288734,-0.38786066894531246,2.6384102294921874,9.160215551757812,9.54050278508787
2.2506839094752547,-0.3591302490234375,2.710236279296875,8.499415893554687,8.928293552353137
2.2531708530216363,-0.3112462158203125,2.7629087158203123,7.867346655273437,8.344200511316853
2.2556577965680176,-0.3016694091796875,2.767697119140625,7.4603323730468745,7.962895886049581
2.2581447401143993,-0.26336218261718747,2.7533319091796873,7.144297753906249,7.661017336999691
2.260631683660781,-0.33039982910156246,2.73896669921875,7.034164477539062,7.555830366251745
2.263118627207162,-0.316034619140625,2.710236279296875,7.096413720703125,7.6029169576877464
2.265605570753544,-0.40222587890625,2.6336218261718747,7.388506323242187,7.854156560034983
2.268092514299925,-0.4213794921875,2.5809493896484375,7.752424975585937,8.181622909328652
2.2705794578463068,-0.49320554199218747,2.5139117431640625,8.307879760742187,8.69389843959657
2.2730664013926885,-0.63206923828125,2.442085693359375,8.959102612304687,9.307460108616992
2.2755533449390697,-0.6607996582031249,2.370259643554687,9.648632690429688,9.957454481993567
2.2780402884854514,-0.70868369140625,2.3367408203125,10.342951171874999,10.627287009372164
2.2805272320318326,-0.7709329345703124,2.2649147705078123,10.93671318359375,11.195350453088235
2.2830141755782143,-0.7565677246093749,2.308010400390625,11.444283935546874,11.699185507019202
2.2855011191245955,-0.7852981445312499,2.269703173828125,11.741164941406248,11.98428971004944
2.287988062670977,-0.7757213378906249,2.2840683837890623,11.93270107421875,12.174073554178358
2.290475006217359,-0.74699091796875,2.2840683837890623,11.9135474609375,12.15350060342134
2.29296194976374,-0.6847416748046875,2.3415292236328122,11.669338891601562,11.921623229803297
2.295448893310122,-0.6703764648437499,2.4516625,11.271901416015623,11.554904376536298
2.297935836856503,-0.5458779785156249,2.5043349365234375,10.740388647460938,11.041993685029345
2.3004227804028847,-0.4740519287109375,2.5857377929687497,10.089165795898436,10.426026645958103
2.3029097239492664,-0.44053310546874996,2.6144682128906247,9.409212524414063,9.775622424317538
2.3053966674956476,-0.373495458984375,2.6862942626953124,8.719682446289061,9.13173245818083
2.3078836110420293,-0.3687070556640625,2.767697119140625,8.10197841796875,8.569605972355275
2.3103705545884106,-0.2920926025390625,2.748543505859375,7.6279264892578125,8.113265188417103
2.3128574981347922,-0.28730419921875,2.7724855224609373,7.249642626953125,7.767016022494097
2.315344441681174,-0.27293898925781246,2.7533319091796873,7.067683300781249,7.589959125983899
2.317831385227555,-0.3016694091796875,2.7581203125,7.062894897460937,7.588327643377008
2.320318328773937,-0.38786066894531246,2.6623522460937497,7.235277416992187,7.719313096489368
2.322805272320318,-0.430956298828125,2.5617957763671875,7.632714892578124,8.06268302506655
2.3252922158666998,-0.4644751220703125,2.5139117431640625,8.097190014648437,8.491170444924702
2.327779159413081,-0.5410895751953124,2.461239306640625,8.772354882812499,9.127140134946004
2.3302661029594627,-0.5889736083984375,2.418143676757812,9.433154541015625,9.75595783854755
2.3327530465058444,-0.6512228515624999,2.3319524169921872,10.151415039062499,10.436154491613143
2.3352399900522256,-0.7134720947265625,2.308010400390625,10.778695874023438,11.046096105998474
2.3377269335986073,-0.7709329345703124,2.221819140625,11.281478222656249,11.523999686372782
2.3402138771449885,-0.7852981445312499,2.308010400390625,11.717222924804688,11.968162693316131
2.34270082069137,-0.7709329345703124,2.24097275390625,11.870451831054687,12.104706652651478
2.345187764237752,-0.7517793212890624,2.2553379638671873,11.918335864257811,12.15312516402396
2.347674707784133,-0.7565677246093749,2.365471240234375,11.755530151367187,12.015004704535059
2.350161651330515,-0.6464344482421874,2.408566870117187,11.396399902343749,11.666062000428461
2.352648594876896,-0.6081272216796875,2.4660277099609376,10.912771166992187,11.20444938081203
2.3551355384232777,-0.5410895751953124,2.5474305664062498,10.299855541992187,10.62399193358848
2.357622481969659,-0.488417138671875,2.5761609863281247,9.6151138671875,9.966221521108633
2.3601094255160406,-0.39743747558593745,2.6767174560546874,8.963891015625,9.363445681294392
2.3625963690624223,-0.36391865234375,2.6910826660156246,8.288726147460936,8.722232732990795
2.3650833126088036,-0.32082302246093747,2.748543505859375,7.752424975585937,8.231495114341703
2.3675702561551852,-0.26336218261718747,2.786850732421875,7.3932947265625,7.905485662364463
2.3700571997015665,-0.277727392578125,2.806004345703125,7.101202124023437,7.640540851204713
2.372544143247948,-0.28730419921875,2.7437551025390623,7.005434057617187,7.5290664827201965
2.37503108679433,-0.32561142578124996,2.6815058593749996,7.129932543945312,7.624462902767133
2.377518030340711,-0.36391865234375,2.6384102294921874,7.4603323730468745,7.921502663064876
2.3800049738870928,-0.47884033203125,2.5665841796874997,7.920019091796875,8.339265245177716
2.382491917433474,-0.5410895751953124,2.4756045166015626,8.566453540039062,8.933393638738352
2.3849788609798557,-0.612915625,2.43250888671875,9.2320416015625,9.566784056322977
2.387465804526237,-0.699106884765625,2.3319524169921872,9.854534033203125,10.150792753425767
2.3899527480726186,-0.7134720947265625,2.3319524169921872,10.548852514648438,10.827064878390352
2.3924396916190003,-0.7517793212890624,2.2649147705078123,11.128249316406249,11.381254057162526
2.3949266351653815,-0.8283937744140625,2.2553379638671873,11.597512841796874,11.843778522599617
2.397413578711763,-0.82360537109375,2.2744915771484373,11.899182250976562,12.142576991057924
2.3999005222581444,-0.7805097412109374,2.31758720703125,11.923124267578125,12.171330996174184
2.402387465804526,-0.7326257080078125,2.35589443359375,11.846509814453125,12.100693112140567
2.404874409350908,-0.6560112548828124,2.365471240234375,11.559205615234374,11.816980976974396
2.407361352897289,-0.612915625,2.43250888671875,11.113884106445312,11.39347115583449
2.4098482964436707,-0.55545478515625,2.5522189697265625,10.539275708007812,10.858116049167492
2.412335239990052,-0.4644751220703125,2.6144682128906247,9.897629663085937,10.247646272331826
2.4148221835364336,-0.4261678955078125,2.6431986328124997,9.1554271484375,9.538865989100058
2.417309127082815,-0.3687070556640625,2.7341782958984373,8.508992700195313,8.945089860847439
2.4197960706291965,-0.028730419921875,2.93050283203125,-7.292738256835937,7.859561283449002
2.4222830141755782,-0.5219359619140624,2.4133552734375,-5.123591552734375,5.687520656966337
2.4247699577219595,-0.928950244140625,2.001552587890625,-1.9823989746093749,2.9663221356947878
2.427256901268341,-1.2641384765625,1.6328455322265625,1.9488801513671874,2.8394303063169195
2.4297438448147224,-1.5227122558593749,1.4604630126953124,6.234501123046875,6.581839338579161
2.432230788361104,-1.7717092285156248,1.216254443359375,10.457872851562499,10.676391386645902
2.4347177319074857,-1.8818425048828125,1.177947216796875,14.446612817382812,14.616207194553327
2.437204675453867,-1.8195932617187498,1.2928688964843749,17.860744384765624,17.999683874988634
2.4396916190002487,-1.70467158203125,1.3551181396484375,20.465635791015625,20.58116854567517
2.44217856254663,-1.5562310791015623,1.5179238525390624,22.151153759765624,22.257573113042834
2.4446655060930116,-1.2785036865234374,1.8531120849609375,22.72097375488281,22.832241336451307
2.4471524496393933,-1.0438719238281249,2.1212626708984375,22.347478295898437,22.472187479147543
2.4496393931857745,-0.7038952880859375,2.427720483398437,21.03545578613281,21.186781148925153
2.452126336732156,-0.38307226562499996,2.73896669921875,18.90461630859375,19.105842057215618
2.4546132802785374,-0.12449848632812499,3.0166940917968748,16.160861206054687,16.44047986033083
2.457100223824919,0.1484405029296875,3.2321722412109373,13.043610644531249,13.438926691737455
2.4595871673713003,0.3016694091796875,3.404554760742187,9.868899243164062,10.444001619257405
2.462074110917682,0.40222587890625,3.4715924072265625,6.7803791015625,7.628058747838831
2.4645610544640637,0.45010991210937495,3.4811692138671875,4.103661645507812,5.400108973841888
2.467047998010445,0.36391865234375,3.438073583984375,1.8722656982421875,3.9316873730281707
2.4695349415568266,0.27293898925781246,3.265691064453125,0.3112462158203125,3.291824422287514
2.472021885103208,0.12449848632812499,3.1124621582031247,-0.47884033203125,3.1515406744835524
2.4745088286495895,-0.0718260498046875,2.868253588867187,-0.4165910888671875,2.8992388254166976
2.4769957721959712,-0.3016694091796875,2.6767174560546874,0.2825157958984375,2.7084379163855363
2.4794827157423525,-0.584185205078125,2.375048046875,1.656787548828125,2.954161566459903
2.481969659288734,-0.7661445312499999,2.2553379638671873,3.5434184570312497,4.269583250816711
2.4844566028351154,-0.9433154541015625,2.0302830078125,5.779602807617187,6.198040154078988
2.486943546381497,-1.1013327636718748,1.9105729248046874,8.207323291015625,8.498433876931761
2.4894304899278783,-1.2114660400390624,1.8435352783203125,10.611101757812499,10.837977339117801
2.49191743347426,-1.2210428466796874,1.8435352783203125,12.8329208984375,13.022036197975842
2.4944043770206417,-1.2210428466796874,1.8626888916015625,14.628572143554686,14.797151026447883
2.496891320567023,-1.2018892333984375,1.924938134765625,16.026785913085938,16.186654727148657
2.4993782641134046,-1.0869675537109373,2.01112939453125,16.864756494140625,17.018993845437112
2.501865207659786,-0.93852705078125,2.1547814941406247,17.176002709960937,17.336060261925848
2.5043521512061675,-0.7948749511718749,2.288856787109375,16.850391284179686,17.023700479327516
2.506839094752549,-0.6177040283203125,2.4851813232421875,16.012420703125,16.215896560161607
2.5093260382989304,-0.4740519287109375,2.6240450195312497,14.69082138671875,14.93085967090021
2.511812981845312,-0.3064578125,2.8012159423828122,13.115436694335937,13.414745872726606
2.5142999253916933,-0.181959326171875,2.89219560546875,11.334150659179686,11.698755309076988
2.516786868938075,-0.05746083984375,2.9735984619140625,9.490615380859374,9.945721183917119
2.5192738124844563,-0.01915361328125,3.0358477050781247,7.738059765625,8.312298544067957
2.521760756030838,-0.028730419921875,3.0502129150390624,6.105214233398437,6.824827111348012
2.5242476995772196,-0.028730419921875,3.0119056884765625,4.874594580078124,5.730102410379189
2.526734643123601,-0.0909796630859375,2.916137622070312,3.9504327392578125,4.911013618118881
2.5292215866699825,-0.1580173095703125,2.85388837890625,3.5290532470703124,4.5413505887607375
2.5317085302163638,-0.3016694091796875,2.6958710693359373,3.5482068603515624,4.466374052714708
2.5341954737627455,-0.36391865234375,2.6623522460937497,3.9839515624999997,4.805457971947139
2.536682417309127,-0.49320554199218747,2.528276953125,4.80755693359375,5.454176356527187
2.5391693608555084,-0.6368576416015624,2.39420166015625,5.899312890625,6.398412445806813
2.54165630440189,-0.7326257080078125,2.3223756103515623,7.307103466796875,7.7022029302054
2.5441432479482713,-0.814028564453125,2.221819140625,8.757989672851561,9.07201774177982
2.546630191494653,-0.8667010009765624,2.1739351074218747,10.189722265624999,10.455027705699733
2.549117135041034,-0.9193734375,2.1835119140624997,11.5304751953125,11.771356337574284
2.551604078587416,-0.8906430175781249,2.1356278808593747,12.689268798828124,12.898515188934637
2.5540910221337976,-0.8762778076171874,2.1691467041015624,13.532027783203125,13.732765058261876
2.556577965680179,-0.86191259765625,2.231395947265625,14.130578198242187,14.331617543603006
2.5590649092265605,-0.8283937744140625,2.221819140625,14.255076684570312,14.450949028424247
2.5615518527729417,-0.6943184814453125,2.375048046875,14.168885424804687,14.383332213360156
2.5640387963193234,-0.5985504150390625,2.4660277099609376,13.704410302734374,13.93737482495648
2.566525739865705,-0.488417138671875,2.5330653564453125,12.880804931640624,13.136594196683905
2.5690126834120863,-0.4740519287109375,2.6192566162109374,11.89439384765625,12.188594482377457
2.571499626958468,-0.36391865234375,2.7246014892578123,10.754753857421875,11.100478394849489
2.5739865705048492,-0.316034619140625,2.7341782958984373,9.605537060546874,9.992094427886324
2.576473514051231,-0.2537853759765625,2.7629087158203123,8.379705810546875,8.827091313696062
2.5789604575976126,-0.239420166015625,2.7964275390625,7.369352709960937,7.885726875877119
2.581447401143994,-0.2346317626953125,2.825157958984375,6.526593725585937,7.115686559716918
2.5839343446903755,-0.258573779296875,2.7724855224609373,5.8610056640625,6.488830693258075
2.5864212882367568,-0.28730419921875,2.7629087158203123,5.5545478515625,6.210411428411338
2.5889082317831384,-0.3495534423828125,2.710236279296875,5.45877978515625,6.1045757462357
2.5913951753295197,-0.373495458984375,2.6336218261718747,5.746083984375,6.331898920281474
2.5938821188759014,-0.47884033203125,2.6001030029296874,6.248866333007812,6.785142160428348
2.596369062422283,-0.5123591552734374,2.4899697265625,6.9336080078124995,7.384942867022863
2.5988560059686643,-0.603338818359375,2.43250888671875,7.8338278320312495,8.224960529729756
2.601342949515046,-0.6703764648437499,2.379836450195312,8.79150849609375,9.132559760066354
2.603829893061427,-0.689530078125,2.3415292236328122,9.82580361328125,10.12445689805317
2.606316836607809,-0.7900865478515624,2.2744915771484373,10.749965454101561,11.016319982280478
2.6088037801541906,-0.7900865478515624,2.2601263671875,11.597512841796874,11.842073807589427
2.611290723700572,-0.8044517578125,2.1883003173828124,12.310984936523436,12.529810494058252
2.6137776672469535,-0.7900865478515624,2.212242333984375,12.732364428710937,12.94725286857688
2.6162646107933347,-0.7852981445312499,2.308010400390625,12.928688964843749,13.156542233192885
2.6187515543397164,-0.7038952880859375,2.327164013671875,12.9095353515625,13.136485980518568
2.6212384978860976,-0.6560112548828124,2.39420166015625,12.636596362304687,12.878125639231818
2.6237254414324793,-0.6177040283203125,2.4899697265625,12.04762275390625,12.317740114413866
2.626212384978861,-0.565031591796875,2.5426421630859375,11.391611499023437,11.685593798088046
2.6286993285252422,-0.4836287353515625,2.6096798095703124,10.548852514648438,10.87761990685193
2.631186272071624,-0.411802685546875,2.6815058593749996,9.710881933593749,10.082722006178864
2.633673215618005,-0.38307226562499996,2.7437551025390623,8.844180932617187,9.267927103310083
2.636160159164387,-0.3064578125,2.7964275390625,8.02536396484375,8.50413958847584
2.6386471027107685,-0.3495534423828125,2.73896669921875,7.307103466796875,7.811394706643996
2.6411340462571498,-0.2825157958984375,2.767697119140625,6.751648681640624,7.302377861938605
2.6436209898035314,-0.296881005859375,2.7629087158203123,6.426037255859375,7.001125460759049
2.6461079333499127,-0.3016694091796875,2.729389892578125,6.3973068359375,6.961760436216914
2.6485948768962944,-0.373495458984375,2.710236279296875,6.5218053222656245,7.072398759192749
2.6510818204426756,-0.45489831542968745,2.5761609863281247,6.813897924804687,7.298817906655672
2.6535687639890573,-0.5027823486328125,2.5474305664062498,7.431601953125,7.872159816114565
2.656055707535439,-0.5219359619140624,2.50912333984375,8.044517578125,8.442889324612157
2.65854265108182,-0.6177040283203125,2.408566870117187,8.825027319335938,9.168634566905526
2.661029594628202,-0.6655880615234374,2.389413256835937,9.686939916992188,9.999455391920225
2.663516538174583,-0.689530078125,2.365471240234375,10.47702646484375,10.762852292122723
2.666003481720965,-0.7230489013671875,2.3511060302734372,11.166556542968749,11.434267982983195
2.6684904252673465,-0.7900865478515624,2.2936451904296873,11.774683764648437,12.02198913533666
2.6709773688137277,-0.7326257080078125,2.2936451904296873,12.152967626953124,12.389195729722967
2.6734643123601094,-0.7757213378906249,2.3127988037109373,12.368445776367187,12.60671379953717
2.6759512559064906,-0.737414111328125,2.3223756103515623,12.358868969726561,12.596779360535443
2.6784381994528723,-0.6847416748046875,2.4133552734375,12.133814013671874,12.39042361484961
2.6809251429992536,-0.6560112548828124,2.442085693359375,11.669338891601562,11.940167648206964
2.6834120865456352,-0.5315127685546874,2.5139117431640625,11.228805786132812,11.519042384601445
2.685899030092017,-0.49799394531249996,2.5761609863281247,10.467449658203124,10.79129768582369
2.688385973638398,-0.4740519287109375,2.6384102294921874,9.6917283203125,10.055621890512338
2.69087291718478,-0.3687070556640625,2.7246014892578123,8.892064965820312,9.307428083231766
2.693359860731161,-0.32561142578124996,2.7341782958984373,8.21690009765625,8.665979515855359
2.6958468042775428,-0.33518823242187495,2.7581203125,7.556100439453124,8.050728703694027
2.6983337478239244,-0.3016694091796875,2.767697119140625,7.105990527343749,7.631923293012924
2.7008206913703057,-0.258573779296875,2.7724855224609373,6.823474731445312,7.369758732975459
2.7033076349166874,-0.373495458984375,2.7198130859375,6.746860278320312,7.284024004318991
2.7057945784630686,-0.39264907226562495,2.6862942626953124,6.809109521484374,7.330369883935597
2.7082815220094503,-0.411802685546875,2.6048914062499997,7.206546997070312,7.6739403379985855
2.7107684655558315,-0.45010991210937495,2.5665841796874997,7.613561279296874,8.04712797450183
2.713255409102213,-0.5123591552734374,2.5043349365234375,8.25520732421875,8.641912597574638
2.715742352648595,-0.5746083984375,2.408566870117187,8.978256225585938,9.313455536569316
2.718229296194976,-0.6655880615234374,2.3415292236328122,9.706093530273437,10.006698665952966
2.720716239741358,-0.699106884765625,2.360682836914062,10.491391674804687,10.776403535827175
2.723203183287739,-0.7230489013671875,2.346317626953125,11.113884106445312,11.381846337559516
2.7256901268341207,-0.7996633544921875,2.27927998046875,11.616666455078125,11.865138778725711
2.7281770703805024,-0.7661445312499999,2.27927998046875,11.961431494140625,12.200735144291475
2.7306640139268836,-0.7852981445312499,2.2744915771484373,12.129025610351562,12.365406073675361
2.7331509574732653,-0.7661445312499999,2.3415292236328122,12.090718383789062,12.339173699400845
2.7356379010196465,-0.6847416748046875,2.389413256835937,11.832144604492187,12.090401681283018
2.7381248445660282,-0.6655880615234374,2.47081611328125,11.477802758789062,11.759587403602161
2.74061178811241,-0.5746083984375,2.4899697265625,10.869675537109375,11.166018553306573
2.743098731658791,-0.507570751953125,2.5713725830078125,10.251971508789062,10.581706140594966
2.745585675205173,-0.44532150878906246,2.6336218261718747,9.509768994140625,9.877751843987449
2.748072618751554,-0.43574470214843747,2.6384102294921874,8.82981572265625,9.225872732734121
2.7505595622979357,-0.33039982910156246,2.7437551025390623,8.173804467773436,8.628350687540028
2.753046505844317,-0.27293898925781246,2.825157958984375,7.589619262695312,8.102983014775829
2.7555334493906987,-0.32561142578124996,2.7533319091796873,7.149086157226562,7.667874039533697
2.7580203929370803,-0.3064578125,2.7820623291015623,6.928819604492187,7.472772464450096
2.7605073364834616,-0.354341845703125,2.6910826660156246,6.919242797851562,7.432590729655897
2.7629942800298433,-0.38786066894531246,2.6719290527343746,7.015010864257812,7.516649398968656
2.7654812235762245,-0.430956298828125,2.6001030029296874,7.3932947265625,7.8490168729058345
2.767968167122606,-0.507570751953125,2.5522189697265625,7.9104422851562495,8.327457408144362
2.770455110668988,-0.5458779785156249,2.4899697265625,8.552088330078124,8.923908718273875
2.772942054215369,-0.612915625,2.389413256835937,9.236830004882812,9.560543384892716
2.775428997761751,-0.699106884765625,2.403778466796875,9.964667309570311,10.274312431699858
2.777915941308132,-0.70868369140625,2.31758720703125,10.620678564453124,10.893679644917698
2.7804028848545137,-0.7517793212890624,2.29843359375,11.200075366210937,11.458169894952746
2.782889828400895,-0.7948749511718749,2.3367408203125,11.654973681640625,11.913462778262701
2.7853767719472766,-0.814028564453125,2.2936451904296873,11.956643090820311,12.201834483576146
2.7878637154936583,-0.7422025146484375,2.360682836914062,12.033257543945313,12.285071230895158
2.7903506590400395,-0.7038952880859375,2.3319524169921872,11.918335864257811,12.16471127585687
2.792837602586421,-0.699106884765625,2.442085693359375,11.645396875,11.919219829598621
2.7953245461328025,-0.6512228515624999,2.446874096679687,11.204863769531249,11.487395533416322
2.797811489679184,-0.5363011718749999,2.4756045166015626,10.596736547851561,10.89527705632792
2.800298433225566,-0.469263525390625,2.6336218261718747,9.926360083007811,10.28050566251883
2.802785376771947,-0.4261678955078125,2.710236279296875,9.217676391601563,9.617305122801675
2.8052723203183287,-0.44532150878906246,2.6671406494140624,8.494627490234375,8.91463104608332
2.80775926386471,-0.3399766357421875,2.6815058593749996,7.939172705078125,8.386687130671476
2.8102462074110917,-0.2825157958984375,2.7533319091796873,7.455543969726562,7.952722028435628
2.812733150957473,-0.3112462158203125,2.7437551025390623,7.096413720703125,7.614732691628458
2.8152200945038546,-0.32082302246093747,2.7198130859375,6.9910688476562495,7.508352300395042
2.8177070380502363,-0.3399766357421875,2.6862942626953124,7.0102224609374995,7.514983694624555
2.8201939815966175,-0.3687070556640625,2.6671406494140624,7.249642626953125,7.7334922483435085
2.822680925142999,-0.4165910888671875,2.6384102294921874,7.637503295898437,8.091119407676052
2.8251678686893804,-0.49799394531249996,2.5713725830078125,8.259995727539062,8.665303477038513
2.827654812235762,-0.6081272216796875,2.384624853515625,8.863334545898438,9.198638686363811
2.8301417557821438,-0.6560112548828124,2.370259643554687,9.548076220703125,9.859728244771931
2.832628699328525,-0.7134720947265625,2.3415292236328122,10.24718310546875,10.53549064505703
2.8351156428749067,-0.7613561279296874,2.3367408203125,10.903194360351561,11.176746757194282
2.837602586421288,-0.7948749511718749,2.2170307373046874,11.415553515625,11.655981878256869
2.8400895299676696,-0.7805097412109374,2.2553379638671873,11.803414184570311,12.04227267586569
2.842576473514051,-0.7852981445312499,2.31758720703125,11.985373510742187,12.232623669107115
2.8450634170604325,-0.7900865478515624,2.2457611572265623,11.93270107421875,12.167868952904815
2.847550360606814,-0.7134720947265625,2.360682836914062,11.7603185546875,12.016112449298284
2.8500373041531954,-0.6560112548828124,2.4516625,11.410765112304686,11.689591961596818
2.852524247699577,-0.6272808349609375,2.4660277099609376,10.87925234375,11.172864694034129
2.8550111912459584,-0.5315127685546874,2.5570073730468748,10.271125122070313,10.597962247629336
2.85749813479234,-0.47884033203125,2.6288334228515624,9.543287817382812,9.910317633360116
2.8599850783387217,-0.411802685546875,2.6767174560546874,8.844180932617187,9.24953697004563
2.862472021885103,-0.316034619140625,2.7198130859375,8.197746484375,8.642934022947005
2.8649589654314846,-0.33039982910156246,2.77727392578125,7.690175732421874,8.182983398579339
2.867445908977866,-0.277727392578125,2.81558115234375,7.259219433593749,7.791078007252062
2.8699328525242476,-0.32082302246093747,2.7724855224609373,7.043741284179687,7.576535795629409
2.8724197960706292,-0.2920926025390625,2.710236279296875,7.005434057617187,7.517100844986571
2.8749067396170105,-0.36391865234375,2.73896669921875,7.125144140624999,7.642123683220241
2.877393683163392,-0.40222587890625,2.6671406494140624,7.52737001953125,7.996044291545455
2.8798806267097734,-0.488417138671875,2.5665841796874997,7.972691528320312,8.389857916468017
2.882367570256155,-0.5602431884765625,2.50912333984375,8.595183959960938,8.971441337396842
2.8848545138025363,-0.59376201171875,2.461239306640625,9.236830004882812,9.577540435321405
2.887341457348918,-0.6847416748046875,2.3415292236328122,9.950302099609374,10.245005716925274
2.8898284008952997,-0.70868369140625,2.3415292236328122,10.59194814453125,10.870802968319804
2.892315344441681,-0.7613561279296874,2.3367408203125,11.204863769531249,11.471224560115841
2.8948022879880626,-0.7613561279296874,2.3223756103515623,11.602301245117188,11.856917213658013
2.897289231534444,-0.814028564453125,2.250549560546875,11.865663427734374,12.104610047766776
2.8997761750808255,-0.7900865478515624,2.3032219970703123,11.956643090820311,12.202064674560026
2.902263118627207,-0.718260498046875,2.403778466796875,11.918335864257811,12.179522931286959
2.9047500621735884,-0.7038952880859375,2.370259643554687,11.559205615234374,11.82069514917458
2.90723700571997,-0.6272808349609375,2.4133552734375,11.152191333007812,11.42756038924111
2.9097239492663514,-0.565031591796875,2.528276953125,10.524910498046875,10.839058355933362
2.912210892812733,-0.49799394531249996,2.6384102294921874,9.86411083984375,10.223007833772794
2.9146978363591143,-0.4165910888671875,2.6815058593749996,9.169792358398437,9.562902995708383
2.917184779905496,-0.3687070556640625,2.6862942626953124,8.475473876953124,8.89863917672815
2.9196717234518776,-0.2825157958984375,2.7724855224609373,7.9104422851562495,8.386989227009634
2.922158666998259,-0.2825157958984375,2.8012159423828122,7.417236743164062,7.933601126533573
2.9246456105446406,-0.28730419921875,2.77727392578125,7.134720947265625,7.661594948642484
2.927132554091022,-0.28730419921875,2.767697119140625,7.038952880859375,7.568985976017299
2.9296194976374035,-0.3112462158203125,2.729389892578125,7.149086157226562,7.658712442442172
2.932106441183785,-0.40222587890625,2.6384102294921874,7.302315063476562,7.7747539821545235
2.9345933847301664,-0.47884033203125,2.6240450195312497,7.771578588867187,8.216588957167412
2.937080328276548,-0.5123591552734374,2.5234885498046875,8.317456567382813,8.706927708169362
2.9395672718229293,-0.603338818359375,2.422932080078125,8.963891015625,9.305157695300688
2.942054215369311,-0.6272808349609375,2.389413256835937,9.677363110351562,9.987699120790827
2.9445411589156922,-0.718260498046875,2.31758720703125,10.347739575195313,10.628397006195842
2.947028102462074,-0.7613561279296874,2.308010400390625,10.951078393554686,11.21751724507824
2.9495150460084556,-0.7661445312499999,2.2936451904296873,11.463437548828125,11.715723884516402
2.952001989554837,-0.7948749511718749,2.27927998046875,11.81777939453125,12.061793118569623
2.9544889331012185,-0.7900865478515624,2.288856787109375,11.956643090820311,12.199361300750697
2.9569758766475998,-0.7517793212890624,2.29843359375,11.942277880859374,12.184661263919462
2.9594628201939814,-0.689530078125,2.379836450195312,11.731588134765625,11.990380870601687
2.961949763740363,-0.6272808349609375,2.418143676757812,11.334150659179686,11.60619969035241
2.9644367072867444,-0.584185205078125,2.4660277099609376,10.754753857421875,11.049311994593058
2.966923650833126,-0.5363011718749999,2.5426421630859375,10.160991845703125,10.488012366740527
2.9694105943795073,-0.44532150878906246,2.6288334228515624,9.481038574218749,9.848815606818695
2.971897537925889,-0.39743747558593745,2.6719290527343746,8.79150849609375,9.197161684277097
2.97438448147227,-0.354341845703125,2.7820623291015623,8.135497241210937,8.605332318299686
2.976871425018652,-0.3016694091796875,2.7581203125,7.6279264892578125,8.116864826777697
2.9793583685650336,-0.32561142578124996,2.786850732421875,7.244854223632812,7.7692002501602335
2.981845312111415,-0.316034619140625,2.7437551025390623,7.015010864257812,7.539127759154877
2.9843322556577965,-0.3399766357421875,2.7150246826171873,7.058106494140625,7.569928032861422
2.9868191992041777,-0.38307226562499996,2.710236279296875,7.254431030273437,7.7536375091502805
2.9893061427505594,-0.44053310546874996,2.6336218261718747,7.64229169921875,8.095347784761977
2.991793086296941,-0.5123591552734374,2.518700146484375,8.078036401367187,8.477088794728191
2.9942800298433223,-0.5458779785156249,2.4899697265625,8.738836059570312,9.103031785217077
2.996766973389704,-0.612915625,2.4516625,9.394847314453125,9.728795950124686
2.9992539169360852,-0.6847416748046875,2.365471240234375,10.031704956054687,10.329541600425571
3.001740860482467,-0.7852981445312499,2.288856787109375,10.711658227539061,10.98158369959935
3.0042278040288486,-0.7996633544921875,2.269703173828125,11.257536206054686,11.511869327282833
3.00671474757523,-0.8092401611328125,2.2553379638671873,11.645396875,11.889351847174455
3.0092016911216115,-0.7661445312499999,2.288856787109375,11.899182250976562,12.141514776856164
3.0116886346679927,-0.7613561279296874,2.2361843505859373,11.942277880859374,12.17366767194688
3.0141755782143744,-0.7661445312499999,2.27927998046875,11.7603185546875,12.003632249442541
3.0166625217607557,-0.689530078125,2.437297290039062,11.463437548828125,11.739943366326491
3.0191494653071373,-0.603338818359375,2.4899697265625,10.941501586914061,11.237456293369062
3.021636408853519,-0.5219359619140624,2.499546533203125,10.366893188476562,10.676732852388348
3.0241233523999003,-0.4836287353515625,2.6096798095703124,9.6917283203125,10.048578172900086
3.026610295946282,-0.37828386230468747,2.6815058593749996,9.016563452148437,9.41445637522218
3.029097239492663,-0.32082302246093747,2.7437551025390623,8.365340600585936,8.809656227019394
3.031584183039045,-0.316034619140625,2.7246014892578123,7.824251025390624,8.291093731474001
3.0340711265854265,-0.2825157958984375,2.767697119140625,7.3549875,7.863574482599353
3.036558070131808,-0.27293898925781246,2.7581203125,7.144297753906249,7.6630746927425974
3.0390450136781895,-0.3016694091796875,2.73896669921875,7.005434057617187,7.52788478574738
3.0415319572245707,-0.33039982910156246,2.7054478759765623,7.196970190429687,7.695777555168156
3.0440189007709524,-0.44532150878906246,2.6431986328124997,7.436390356445312,7.904727180119809
3.0465058443173336,-0.45010991210937495,2.5905261962890624,7.896077075195312,8.322346909620142
3.0489927878637153,-0.5458779785156249,2.4899697265625,8.494627490234375,8.868857209611145
3.051479731410097,-0.612915625,2.461239306640625,9.179369165039063,9.523349345476722
3.0539666749564782,-0.6560112548828124,2.39420166015625,9.873687646484374,10.180975400047188
3.05645361850286,-0.7230489013671875,2.288856787109375,10.496180078124999,10.767147316633736
3.058940562049241,-0.7805097412109374,2.250549560546875,11.089942089843749,11.342882540901622
3.061427505595623,-0.7757213378906249,2.2601263671875,11.540052001953125,11.784851080836674
3.0639144491420045,-0.7757213378906249,2.288856787109375,11.841721411132811,12.085817099593918
3.0664013926883857,-0.7948749511718749,2.2936451904296873,11.966219897460936,12.209957128588607
3.0688883362347674,-0.7517793212890624,2.346317626953125,11.865663427734374,12.118760131908786
3.0713752797811487,-0.679953271484375,2.418143676757812,11.587936035156249,11.857066114672667
3.0738622233275303,-0.59376201171875,2.5043349365234375,11.190498559570312,11.482661051019374
3.0763491668739116,-0.565031591796875,2.5426421630859375,10.601524951171875,10.916804530610168
3.0788361104202933,-0.51714755859375,2.5570073730468748,9.90241806640625,10.240293543891427
3.081323053966675,-0.44053310546874996,2.6288334228515624,9.251195214843749,9.62753589893402
3.083809997513056,-0.39264907226562495,2.729389892578125,8.604760766601562,9.035798267452865
3.086296941059438,-0.3591302490234375,2.786850732421875,7.987056738281249,8.466911295217866
3.088783884605819,-0.258573779296875,2.839523168945312,7.513004809570312,8.035856736835454
3.091270828152201,-0.32561142578124996,2.7820623291015623,7.1395093505859375,7.669321180568026
3.0937577716985825,-0.33039982910156246,2.7629087158203123,7.058106494140625,7.586810654132358
3.0962447152449637,-0.3687070556640625,2.7341782958984373,7.072471704101562,7.591543443330598
3.0987316587913454,-0.39264907226562495,2.6336218261718747,7.335833886718749,7.804139672684687
3.1012186023377266,-0.4261678955078125,2.5713725830078125,7.714117749023437,8.142554186593065
3.1037055458841083,-0.5602431884765625,2.5330653564453125,8.303091357421874,8.698943534703028
3.1061924894304895,-0.59376201171875,2.427720483398437,8.90643017578125,9.250452883407355
3.108679432976871,-0.63206923828125,2.379836450195312,9.639055883789062,9.948594442556606
3.111166376523253,-0.737414111328125,2.360682836914062,10.271125122070313,10.564687136934552
3.113653320069634,-0.7661445312499999,2.3223756103515623,10.912771166992187,11.183424362039387
3.116140263616016,-0.8092401611328125,2.2601263671875,11.458649145507811,11.707419915331188
3.118627207162397,-0.7948749511718749,2.27927998046875,11.755530151367187,12.000809662563155
3.1211141507087787,-0.7900865478515624,2.29843359375,11.947066284179687,12.191777004873309
3.1236010942551604,-0.7613561279296874,2.346317626953125,11.961431494140625,12.213136900448887
3.1260880378015417,-0.6847416748046875,2.370259643554687,11.750741748046874,12.00695355068762
3.1285749813479233,-0.6703764648437499,2.408566870117187,11.314997045898437,11.58791426966617
3.1310619248943046,-0.5793968017578125,2.5330653564453125,10.788272680664061,11.096799006302364
3.1335488684406863,-0.5267243652343749,2.5665841796874997,10.151415039062499,10.48408413757053
3.136035811987068,-0.45010991210937495,2.6623522460937497,9.481038574218749,9.85803280888654
3.138522755533449,-0.39264907226562495,2.7198130859375,8.777143286132812,9.197271376973402
3.141009699079831,-0.3112462158203125,2.748543505859375,8.164227661132813,8.620091583809906
3.143496642626212,-0.3112462158203125,2.7724855224609373,7.60398447265625,8.099637648655358
3.1459835861725938,-0.2825157958984375,2.767697119140625,7.278373046874999,7.791962315598549
3.148470529718975,-0.296881005859375,2.7724855224609373,7.058106494140625,7.588918341010505
3.1509574732653567,-0.3447650390625,2.7198130859375,7.0102224609374995,7.527248176221456
3.1534444168117384,-0.36391865234375,2.6384102294921874,7.201758593749999,7.678474598985444
3.1559313603581196,-0.39743747558593745,2.6144682128906247,7.541735229492187,7.991944122363418
3.1584183039045013,-0.51714755859375,2.5809493896484375,8.12113203125,8.537067811507699
3.1609052474508825,-0.5698199951171875,2.5234885498046875,8.75320126953125,9.127498110257498
3.163392190997264,-0.612915625,2.427720483398437,9.404424121093749,9.732044253819
3.165879134543646,-0.6703764648437499,2.3127988037109373,10.046070166015625,10.330632540729166
3.168366078090027,-0.7278373046875,2.29843359375,10.702081420898438,10.970282168955949
3.170853021636409,-0.8044517578125,2.2553379638671873,11.267113012695312,11.518746789592878
3.17333996518279,-0.7852981445312499,2.269703173828125,11.635820068359374,11.881100720738145
3.1758269087291717,-0.7852981445312499,2.288856787109375,11.903970654296874,12.14743083561549
3.178313852275553,-0.7852981445312499,2.308010400390625,11.942277880859374,12.188585076528717
3.1808007958219346,-0.7134720947265625,2.384624853515625,11.812990991210937,12.072374840121089
3.1832877393683163,-0.6416460449218749,2.4133552734375,11.463437548828125,11.73227998978353
3.1857746829146976,-0.6272808349609375,2.4851813232421875,10.979808813476561,11.275008161229803
3.1882616264610792,-0.5219359619140624,2.5522189697265625,10.357316381835936,10.679898943867322
3.1907485700074605,-0.4644751220703125,2.6288334228515624,9.710881933593749,10.071133512784009
3.193235513553842,-0.4213794921875,2.6671406494140624,9.016563452148437,9.412205714220871
3.195722457100224,-0.3495534423828125,2.710236279296875,8.37012900390625,8.804920660672149
3.198209400646605,-0.3399766357421875,2.7150246826171873,7.7763669921875,8.243714377466896
3.2006963441929868,-0.296881005859375,2.767697119140625,7.326257080078125,7.837239850759592
3.203183287739368,-0.316034619140625,2.7437551025390623,7.096413720703125,7.6149299168533435
3.2056702312857497,-0.316034619140625,2.710236279296875,7.024587670898437,7.535920017904294
