Time (s),Acceleration x (m/s^2),Acceleration y (m/s^2),Acceleration z (m/s^2),Absolute acceleration (m/s^2)
0.0,-2.1739351074218747,1.6328455322265625,40.050205371093746,40.142385687078686
0.002486943546381497,-1.7477672119140624,1.62805712890625,38.513127905273436,38.587125849044206
0.004973887092762994,-1.2641384765625,1.6903063720703124,34.945767431640625,35.009453624781145
0.007460830639144491,-0.7613561279296874,1.8052280517578123,29.7264078125,29.790901847836874
0.009947774185525988,-0.277727392578125,1.9632453613281249,23.35304299316406,23.437066409726572
0.012434717731907486,0.17238251953125,2.1595698974609374,16.32366691894531,16.466801740341957
0.014921661278288981,0.5698199951171875,2.375048046875,9.188945971679686,9.508011154928692
0.01740860482467048,0.86191259765625,2.5905261962890624,2.4899697265625,3.6950870813630567
0.019895548371051976,1.0773907470703123,2.806004345703125,-3.31357509765625,4.473724526363371
0.022382491917433474,1.177947216796875,2.978386865234375,-7.8529814453124995,8.48101795452542
0.02486943546381497,1.149216796875,3.1124621582031247,-10.869675537109375,11.36476863884611
0.027356379010196465,1.0295067138671874,3.2130186279296873,-12.234370483398436,12.691067484745783
0.029843322556577963,0.82360537109375,3.2609026611328122,-11.93270107421875,12.397627470582378
0.032330266102959464,0.5363011718749999,3.2513258544921873,-10.103531005859374,10.627326923803821
0.03481720964934096,0.2059013427734375,3.1938650146484373,-6.9527616210937495,7.654022684478101
0.03730415319572245,-0.16759411621093748,3.1076737548828124,-2.7820623291015623,4.174397532289177
0.03979109674210395,-0.5458779785156249,2.9975404785156248,2.0446482177734375,3.6693075671319897
0.04227804028848545,-0.9050082275390624,2.85388837890625,7.1395093505859375,7.741854592943062
0.04476498383486695,-1.2306196533203124,2.6910826660156246,12.105083593749999,12.461516739873336
0.04725192738124844,-1.5035586425781249,2.5330653564453125,16.5870291015625,16.846561759236693
0.04973887092762994,-1.70467158203125,2.398990063476562,20.278888061523435,20.49132400649216
0.05222581447401144,-1.8339584716796873,2.27927998046875,22.98912434082031,23.174519603713648
0.05471275802039293,-1.8818425048828125,2.1883003173828124,24.564509033203123,24.73348122554848
0.05719970156677443,-1.8435352783203125,2.1260510742187497,24.94279289550781,25.101028523166
0.059686645113155926,-1.7334020019531249,2.1021090576171875,24.181436767578123,24.334449431513146
0.062173588659537427,-1.5466542724609373,2.1308394775390624,22.385785522460935,22.540097820887606
0.06466053220591893,-1.3168109130859373,2.1787235107421874,19.747375292968748,19.910792502520724
0.06714747575230041,-1.0630255371093749,2.24097275390625,16.529568261718747,16.714622613003158
0.06963441929868192,-0.7805097412109374,2.346317626953125,12.962207788085937,13.195955160737393
0.07212136284506342,-0.488417138671875,2.4564509033203126,9.327809667968749,9.658195252924992
0.0746083063914449,-0.22505495605468748,2.5665841796874997,5.942408520507812,6.476899189370696
0.0770952499378264,0.009576806640625,2.6767174560546874,3.0119056884765625,4.029452063376705
0.0795821934842079,0.2059013427734375,2.767697119140625,0.699106884765625,2.862043525626736
0.0820691370305894,0.3447650390625,2.849099975585937,-0.8379705810546875,2.9897204380605027
0.0845560805769709,0.4261678955078125,2.91134921875,-1.5370774658203123,3.3196657188051915
0.0870430241233524,0.44532150878906246,2.9496564453125,-1.37906015625,3.286425308160831
0.0895299676697339,0.39264907226562495,2.9640216552734375,-0.45010991210937495,3.023606555069633
0.09201691121611538,0.2920926025390625,2.9496564453125,1.1444283935546875,3.177342849269776
0.09450385476249688,0.1484405029296875,2.916137622070312,3.2513258544921873,4.37001293200069
0.09699079830887838,-0.0430956298828125,2.849099975585937,5.693411547851563,6.36664456031655
0.09947774185525989,-0.239420166015625,2.7724855224609373,8.259995727539062,8.716164718906704
0.10196468540164137,-0.44532150878906246,2.70065947265625,10.769119067382812,11.111516472602025
0.10445162894802287,-0.6560112548828124,2.6336218261718747,13.053187451171874,13.332367281366528
0.10693857249440437,-0.852335791015625,2.5570073730468748,14.92545314941406,15.166868982153714
0.10942551604078586,-1.0103531005859374,2.4947581298828125,16.299724902343748,16.520461961051964
0.11191245958716736,-1.1348515869140625,2.437297290039062,17.10417666015625,17.314189713243497
0.11439940313354886,-1.2210428466796874,2.389413256835937,17.300501196289062,17.507357967099725
0.11688634667993036,-1.2641384765625,2.375048046875,16.927005737304686,17.13949890001561
0.11937329022631185,-1.2737152832031249,2.379836450195312,16.026785913085938,16.25250254133908
0.12186023377269335,-1.2306196533203124,2.39420166015625,14.719551806640624,14.963683761327301
0.12434717731907485,-1.13006318359375,2.422932080078125,13.105859887695312,13.375769363273529
0.12683412086545634,-1.0103531005859374,2.461239306640625,11.305420239257812,11.614260161484097
0.12932106441183785,-0.8714894042968749,2.50912333984375,9.471461767578125,9.836858326266803
0.13180800795821934,-0.7230489013671875,2.5617957763671875,7.742848168945312,8.18763061458691
0.13429495150460083,-0.5746083984375,2.6096798095703124,6.248866333007812,6.796244107434072
0.13678189505098234,-0.4261678955078125,2.6719290527343746,5.0757075195312495,5.751837164057553
0.13926883859736383,-0.2920926025390625,2.729389892578125,4.290409374999999,5.093378042051616
0.14175578214374532,-0.17238251953125,2.7581203125,3.9264907226562498,4.801486518399343
0.14424272569012683,-0.086191259765625,2.77727392578125,3.9839515624999997,4.857216223767537
0.14672966923650832,-0.033518823242187495,2.7724855224609373,4.448426684570312,5.24178399514557
0.1492166127828898,-0.023942016601562498,2.7724855224609373,5.2624552490234375,5.948166477191839
0.15170355632927132,-0.0430956298828125,2.7581203125,6.339845996093749,6.913951991858639
0.1541904998756528,-0.086191259765625,2.729389892578125,7.575254052734374,8.05242026240783
0.15667744342203432,-0.17238251953125,2.70065947265625,8.853757739257812,9.258093941290262
0.1591643869684158,-0.26815058593749996,2.6671406494140624,10.108319409179687,10.45770841334249
0.1616513305147973,-0.37828386230468747,2.6288334228515624,11.257536206054686,11.566589180748737
0.1641382740611788,-0.49799394531249996,2.5953145996093747,12.186486450195313,12.46972765706242
0.1666252176075603,-0.612915625,2.5570073730468748,12.880804931640624,13.146447731465813
0.1691121611539418,-0.7230489013671875,2.528276953125,13.287819213867186,13.545520422851581
0.1715991047003233,-0.814028564453125,2.4947581298828125,13.393164086914062,13.647831508681758
0.1740860482467048,-0.8954314208984374,2.47081611328125,13.206416357421874,13.465369014652458
0.17657299179308628,-0.9528922607421875,2.461239306640625,12.7563064453125,13.026475222095055
0.1790599353394678,-0.9816226806640624,2.4564509033203126,12.100295190429687,12.38607596550066
0.18154687888584928,-0.9864110839843749,2.4756045166015626,11.271901416015623,11.582632951173075
0.18403382243223076,-0.967257470703125,2.4899697265625,10.36210478515625,10.70087621797331
0.18652076597861228,-0.9145850341796874,2.5043349365234375,9.447519750976562,9.816505931548637
0.18900770952499377,-0.8475473876953125,2.5330653564453125,8.580818749999999,8.9869464833593
0.19149465307137528,-0.7661445312499999,2.5665841796874997,7.8338278320312495,8.279081488673357
0.19398159661775677,-0.6751648681640625,2.5857377929687497,7.230489013671875,7.70855751162431
0.19646854016413826,-0.5793968017578125,2.6192566162109374,6.828263134765624,7.336305835572235
0.19895548371051977,-0.4836287353515625,2.6384102294921874,6.665457421875,7.184944532532961
0.20144242725690126,-0.4070142822265625,2.6527754394531247,6.6893994384765625,7.207700257751613
0.20392937080328274,-0.33039982910156246,2.6623522460937497,6.928819604492187,7.4300622232216895
0.20641631434966426,-0.26336218261718747,2.6623522460937497,7.345410693359375,7.817450823358698
0.20890325789604575,-0.229843359375,2.6575638427734374,7.881711865234375,8.32086867309188
0.21139020144242723,-0.22026655273437498,2.6431986328124997,8.504204296874999,8.908226932995284
0.21387714498880875,-0.22026655273437498,2.6240450195312497,9.1554271484375,9.526593089301477
0.21636408853519024,-0.2442085693359375,2.6001030029296874,9.80665,10.14842636440158
0.21885103208157172,-0.2825157958984375,2.5809493896484375,10.381258398437499,10.701011207450811
0.22133797562795324,-0.33039982910156246,2.5713725830078125,10.845733520507812,11.151280491745394
0.22382491917433472,-0.39743747558593745,2.5426421630859375,11.204863769531249,11.496606360585565
0.22631186272071624,-0.45968671875,2.518700146484375,11.410765112304686,11.694474026457339
0.22879880626709773,-0.5363011718749999,2.518700146484375,11.468225952148437,11.753794105070321
0.2312857498134792,-0.612915625,2.5043349365234375,11.391611499023437,11.679733369488533
0.23377269335986073,-0.6703764648437499,2.499546533203125,11.156979736328124,11.453180096073778
0.23625963690624222,-0.718260498046875,2.5043349365234375,10.826579907226561,11.135637570651637
0.2387465804526237,-0.7517793212890624,2.50912333984375,10.409988818359375,10.734465020709402
0.24123352399900522,-0.7757213378906249,2.528276953125,9.94072529296875,10.286493440236594
0.2437204675453867,-0.7757213378906249,2.5426421630859375,9.4618849609375,9.82822668529661
0.2462074110917682,-0.7805097412109374,2.5665841796874997,9.016563452148437,9.407176318862438
0.2486943546381497,-0.7709329345703124,2.5953145996093747,8.633491186523438,9.048047608646224
0.2511812981845312,-0.7422025146484375,2.6096798095703124,8.33182177734375,8.762450993337936
0.2536682417309127,-0.70868369140625,2.6288334228515624,8.145074047851562,8.588086456513562
0.2561551852772942,-0.6560112548828124,2.6479870361328124,8.054094384765625,8.503565279856064
0.2586421288236757,-0.5985504150390625,2.6575638427734374,8.073247998046874,8.520460164552617
0.26112907237005717,-0.5602431884765625,2.6671406494140624,8.192958081054687,8.634354277646393
0.2636160159164387,-0.5123591552734374,2.6767174560546874,8.379705810546875,8.811742036331605
0.2661029594628202,-0.45489831542968745,2.6671406494140624,8.643067993164061,9.05666583548243
0.26858990300920166,-0.4213794921875,2.6527754394531247,8.968679418945312,9.362264081322163
0.2710768465555832,-0.4070142822265625,2.6527754394531247,9.303867651367186,9.683224227098064
0.2735637901019647,-0.39264907226562495,2.6527754394531247,9.634267480468749,10.000525021784329
0.27605073364834615,-0.38307226562499996,2.6384102294921874,9.955090502929687,10.305909946302702
0.27853767719472766,-0.38786066894531246,2.6096798095703124,10.199299072265624,10.535016192323203
0.2810246207411092,-0.39743747558593745,2.5953145996093747,10.357316381835936,10.684924756468467
0.28351156428749064,-0.4261678955078125,2.5857377929687497,10.443507641601562,10.767288928478639
0.28599850783387215,-0.4644751220703125,2.5761609863281247,10.462661254882812,10.78515753713998
0.28848545138025367,-0.49799394531249996,2.5665841796874997,10.405200415039062,10.72863215876652
0.2909723949266351,-0.5410895751953124,2.5665841796874997,10.290278735351562,10.619320539989163
0.29345933847301664,-0.5698199951171875,2.5713725830078125,10.127473022460936,10.4643376096222
0.29594628201939815,-0.603338818359375,2.5665841796874997,9.931148486328125,10.27516823894669
0.2984332255657796,-0.6368576416015624,2.5617957763671875,9.720458740234374,10.072522195362883
0.30092016911216113,-0.6607996582031249,2.5665841796874997,9.504980590820312,9.867556261383786
0.30340711265854264,-0.6703764648437499,2.5713725830078125,9.275137231445312,9.648291674042802
0.30589405620492416,-0.6751648681640625,2.5809493896484375,9.069235888671875,9.453474861420194
0.3083809997513056,-0.6847416748046875,2.5905261962890624,8.9255837890625,9.319106347201405
0.31086794329768713,-0.6751648681640625,2.5905261962890624,8.815450512695312,9.212971361870334
0.31335488684406865,-0.6560112548828124,2.5953145996093747,8.743624462890624,9.144231918840305
0.3158418303904501,-0.6368576416015624,2.6001030029296874,8.75320126953125,9.15339585872007
0.3183287739368316,-0.6081272216796875,2.6048914062499997,8.825027319335938,9.22151750760842
0.32081571748321314,-0.5889736083984375,2.6240450195312497,8.94473740234375,9.340279940815684
0.3233026610295946,-0.565031591796875,2.6144682128906247,9.074024291992187,9.460053994962625
0.3257896045759761,-0.5458779785156249,2.5905261962890624,9.227253198242186,9.59953177637112
0.3282765481223576,-0.5267243652343749,2.5905261962890624,9.390058911132812,9.755074109669089
0.3307634916687391,-0.5123591552734374,2.5953145996093747,9.528922607421874,9.88931422461506
0.3332504352151206,-0.49320554199218747,2.5905261962890624,9.682151513671874,10.034846068276794
0.3357373787615021,-0.488417138671875,2.5809493896484375,9.82580361328125,10.17085383338321
0.3382243223078836,-0.488417138671875,2.5713725830078125,9.931148486328125,10.270258931472473
0.3407112658542651,-0.49320554199218747,2.5665841796874997,9.9981861328125,10.334134313257117
0.3431982094006466,-0.5123591552734374,2.5617957763671875,10.036493359375,10.370945398399499
0.34568515294702806,-0.5315127685546874,2.5522189697265625,10.012551342773437,10.346376751512722
0.3481720964934096,-0.5410895751953124,2.5426421630859375,9.945513696289062,10.279642492857459
0.3506590400397911,-0.5506663818359374,2.5522189697265625,9.82580361328125,10.166782764487854
0.35314598358617255,-0.5746083984375,2.5665841796874997,9.696516723632811,10.0468883608144
0.35563292713255407,-0.5985504150390625,2.5713725830078125,9.576806640625,9.93405481119904
0.3581198706789356,-0.6177040283203125,2.5809493896484375,9.466673364257812,9.83162054821473
0.36060681422531704,-0.6464344482421874,2.6001030029296874,9.370905297851563,9.746398269259299
0.36309375777169856,-0.6560112548828124,2.6001030029296874,9.270348828125,9.6504017422849
0.36558070131808007,-0.6560112548828124,2.6001030029296874,9.188945971679686,9.572231425473646
0.36806764486446153,-0.6607996582031249,2.6001030029296874,9.131485131835937,9.517416273709275
0.37055458841084304,-0.6512228515624999,2.6048914062499997,9.09796630859375,9.485912786498686
0.37304153195722456,-0.6416460449218749,2.6144682128906247,9.088389501953124,9.47871180184265
0.3755284755036061,-0.6368576416015624,2.6096798095703124,9.117119921875,9.504624770815273
0.37801541904998753,-0.6177040283203125,2.6096798095703124,9.17458076171875,9.558499836709831
0.38050236259636905,-0.59376201171875,2.6240450195312497,9.251195214843749,9.634457872357684
0.38298930614275056,-0.5793968017578125,2.6288334228515624,9.327809667968749,9.708475628070552
0.385476249689132,-0.55545478515625,2.6336218261718747,9.409212524414063,9.786611991452013
0.38796319323551354,-0.5267243652343749,2.6288334228515624,9.471461767578125,9.843616801599255
0.39045013678189505,-0.5123591552734374,2.6240450195312497,9.528922607421874,9.896892958234668
0.3929370803282765,-0.49799394531249996,2.6144682128906247,9.605537060546874,9.967436191284241
0.395424023874658,-0.4836287353515625,2.6096798095703124,9.667786303710937,10.025488390914303
0.39791096742103954,-0.469263525390625,2.6048914062499997,9.710881933593749,10.065132657983927
0.400397910967421,-0.4644751220703125,2.5953145996093747,9.749189160156249,10.09941009616284
0.4028848545138025,-0.4740519287109375,2.5857377929687497,9.749189160156249,10.097398399865659
0.40537179806018403,-0.469263525390625,2.5713725830078125,9.706093530273437,10.051886232708872
0.4078587416065655,-0.469263525390625,2.5761609863281247,9.658209497070311,10.006888845842163
0.410345685152947,-0.4740519287109375,2.5761609863281247,9.610325463867188,9.960907899385866
0.4128326286993285,-0.49320554199218747,2.5713725830078125,9.533711010742186,9.886700880659983
0.41531957224571,-0.5123591552734374,2.5713725830078125,9.476250170898437,9.832282856289757
0.4178065157920915,-0.5027823486328125,2.5809493896484375,9.433154541015625,9.792777667072151
0.420293459338473,-0.5027823486328125,2.5953145996093747,9.390058911132812,9.755083511461448
0.42278040288485447,-0.5219359619140624,2.6001030029296874,9.351751684570312,9.720504737103253
0.425267346431236,-0.5363011718749999,2.6048914062499997,9.342174877929686,9.713357279289697
0.4277542899776175,-0.55545478515625,2.6001030029296874,9.3086560546875,9.680916443636274
0.43024123352399896,-0.5698199951171875,2.6001030029296874,9.289502441406249,9.663337211417803
0.43272817707038047,-0.565031591796875,2.6001030029296874,9.299079248046874,9.672262981692986
0.435215120616762,-0.5746083984375,2.5953145996093747,9.299079248046874,9.671541115249239
0.43770206416314344,-0.584185205078125,2.5953145996093747,9.327809667968749,9.699740379341552
0.44018900770952496,-0.5889736083984375,2.5809493896484375,9.380482104492186,9.746878175909181
0.4426759512559065,-0.59376201171875,2.5713725830078125,9.418789331054686,9.781518427626365
0.445162894802288,-0.584185205078125,2.5665841796874997,9.452308154296874,9.8119700442389
0.44764983834866945,-0.584185205078125,2.5665841796874997,9.504980590820312,9.862721872643737
0.45013678189505096,-0.584185205078125,2.5617957763671875,9.548076220703125,9.903021229402743
0.4526237254414325,-0.5793968017578125,2.5570073730468748,9.586383447265625,9.938447311210723
0.45511066898781394,-0.5793968017578125,2.5665841796874997,9.605537060546874,9.959387392146608
0.45759761253419545,-0.584185205078125,2.5665841796874997,9.6151138671875,9.968903720281167
0.46008455608057697,-0.5793968017578125,2.5617957763671875,9.610325463867188,9.96277339776199
0.4625714996269584,-0.5746083984375,2.5570073730468748,9.600748657226562,9.952026743161849
0.46505844317333994,-0.584185205078125,2.5570073730468748,9.591171850585937,9.943346344522064
0.46754538671972146,-0.5793968017578125,2.5617957763671875,9.567229833984374,9.921208845195258
0.4700323302661029,-0.5698199951171875,2.5617957763671875,9.528922607421874,9.8837168355272
0.47251927381248443,-0.5746083984375,2.5570073730468748,9.481038574218749,9.836592599228396
0.47500621735886595,-0.5793968017578125,2.5570073730468748,9.442731347656249,9.799957278667762
0.4774931609052474,-0.584185205078125,2.5522189697265625,9.404424121093749,9.762084156197089
0.4799801044516289,-0.5889736083984375,2.5522189697265625,9.3852705078125,9.74392190473821
0.48246704799801043,-0.6081272216796875,2.5617957763671875,9.370905297851563,9.733780479282604
0.4849539915443919,-0.6177040283203125,2.5570073730468748,9.366116894531249,9.728514308692922
0.4874409350907734,-0.6081272216796875,2.5570073730468748,9.366116894531249,9.727910932239647
0.4899278786371549,-0.6177040283203125,2.5426421630859375,9.375693701171874,9.73397245806148
0.4924148221835364,-0.612915625,2.5378537597656248,9.375693701171874,9.732420030368583
0.4949017657299179,-0.5985504150390625,2.5474305664062498,9.380482104492186,9.738640028397315
0.4973887092762994,-0.59376201171875,2.5522189697265625,9.404424121093749,9.762661934401004
0.49987565282268087,-0.5889736083984375,2.5570073730468748,9.437942944335937,9.795914640182735
0.5023625963690624,-0.5793968017578125,2.5617957763671875,9.466673364257812,9.824276199255
0.5048495399154439,-0.565031591796875,2.5761609863281247,9.4618849609375,9.822582814169746
0.5073364834618254,-0.5506663818359374,2.5905261962890624,9.466673364257812,9.830155849389799
0.5098234270082069,-0.5363011718749999,2.5953145996093747,9.481038574218749,9.844458810098397
0.5123103705545884,-0.5267243652343749,2.6096798095703124,9.495403784179686,9.861569869449001
0.5147973141009698,-0.5267243652343749,2.6144682128906247,9.495403784179686,9.862838111708056
0.5172842576473514,-0.5219359619140624,2.6144682128906247,9.5001921875,9.867193764388672
0.5197712011937329,-0.507570751953125,2.6288334228515624,9.495403784179686,9.865651841513243
0.5222581447401143,-0.5123591552734374,2.6384102294921874,9.481038574218749,9.85463408193858
0.5247450882864959,-0.5027823486328125,2.6527754394531247,9.471461767578125,9.848786505806519
0.5272320318328774,-0.49320554199218747,2.6431986328124997,9.485826977539062,9.85954685403754
0.5297189753792588,-0.49799394531249996,2.6479870361328124,9.495403784179686,9.870285018058457
0.5322059189256404,-0.507570751953125,2.6623522460937497,9.495403784179686,9.874636224951914
0.5346928624720219,-0.5219359619140624,2.6527754394531247,9.5001921875,9.877412934566465
0.5371798060184033,-0.5267243652343749,2.6336218261718747,9.485826977539062,9.858717762875063
0.5396667495647849,-0.5315127685546874,2.6384102294921874,9.471461767578125,9.846436024111457
0.5421536931111663,-0.5458779785156249,2.6431986328124997,9.481038574218749,9.857716481303063
0.5446406366575478,-0.55545478515625,2.6336218261718747,9.476250170898437,9.851081729591655
0.5471275802039294,-0.565031591796875,2.6240450195312497,9.481038574218749,9.853677760617055
0.5496145237503108,-0.5746083984375,2.6336218261718747,9.495403784179686,9.870604427260657
0.5521014672966923,-0.5889736083984375,2.6288334228515624,9.495403784179686,9.870174674295548
0.5545884108430739,-0.5889736083984375,2.6144682128906247,9.481038574218749,9.852534008742586
0.5570753543894553,-0.5793968017578125,2.6144682128906247,9.471461767578125,9.842750261222562
0.5595622979358368,-0.5889736083984375,2.6192566162109374,9.466673364257812,9.83998474178202
0.5620492414822184,-0.59376201171875,2.6288334228515624,9.457096557617186,9.833615499487287
0.5645361850285998,-0.5746083984375,2.6288334228515624,9.447519750976562,9.823266738806833
0.5670231285749813,-0.5698199951171875,2.6288334228515624,9.447519750976562,9.822987806010403
0.5695100721213628,-0.5602431884765625,2.6288334228515624,9.452308154296874,9.827042639529099
0.5719970156677443,-0.55545478515625,2.6288334228515624,9.457096557617186,9.83137683559883
0.5744839592141258,-0.55545478515625,2.6144682128906247,9.466673364257812,9.836761593132
0.5769709027605073,-0.5506663818359374,2.6048914062499997,9.466673364257812,9.8339512551155
0.5794578463068888,-0.5410895751953124,2.6001030029296874,9.4618849609375,9.827541939276793
0.5819447898532703,-0.5410895751953124,2.6001030029296874,9.457096557617186,9.822931785079435
0.5844317333996518,-0.5506663818359374,2.5809493896484375,9.452308154296874,9.813799603609098
0.5869186769460333,-0.5458779785156249,2.5665841796874997,9.4618849609375,9.81899201205835
0.5894056204924147,-0.5458779785156249,2.5713725830078125,9.4618849609375,9.820244739419065
0.5918925640387963,-0.5410895751953124,2.5713725830078125,9.457096557617186,9.81536602420532
0.5943795075851778,-0.5267243652343749,2.5617957763671875,9.4618849609375,9.816695124672027
0.5968664511315592,-0.5219359619140624,2.5570073730468748,9.457096557617186,9.810574863597447
0.5993533946779408,-0.5267243652343749,2.5522189697265625,9.452308154296874,9.804967601687975
0.6018403382243223,-0.5219359619140624,2.5522189697265625,9.447519750976562,9.800095319070296
0.6043272817707037,-0.5219359619140624,2.5426421630859375,9.447519750976562,9.797605613767772
0.6068142253170853,-0.5267243652343749,2.5474305664062498,9.447519750976562,9.799105596567713
0.6093011688634667,-0.5315127685546874,2.5617957763671875,9.433154541015625,9.78926493755446
0.6117881124098483,-0.5315127685546874,2.5617957763671875,9.437942944335937,9.793879233658638
0.6142750559562298,-0.5363011718749999,2.5713725830078125,9.442731347656249,9.801262735566716
0.6167619995026112,-0.5410895751953124,2.5809493896484375,9.452308154296874,9.813266893552772
0.6192489430489928,-0.5506663818359374,2.5761609863281247,9.452308154296874,9.812541380058
0.6217358865953743,-0.5458779785156249,2.5617957763671875,9.457096557617186,9.813126701889459
0.6242228301417557,-0.5458779785156249,2.5665841796874997,9.476250170898437,9.832835522894865
0.6267097736881373,-0.5458779785156249,2.5809493896484375,9.485826977539062,9.845821243916772
0.6291967172345188,-0.5506663818359374,2.5905261962890624,9.490615380859374,9.85321469090919
0.6316836607809002,-0.55545478515625,2.5809493896484375,9.509768994140625,9.869424303990483
0.6341706043272818,-0.565031591796875,2.5905261962890624,9.514557397460937,9.877089102714779
0.6366575478736632,-0.5602431884765625,2.5905261962890624,9.504980590820312,9.867591116162298
0.6391444914200447,-0.5602431884765625,2.5809493896484375,9.509768994140625,9.869694954965905
0.6416314349664263,-0.565031591796875,2.5905261962890624,9.514557397460937,9.877089102714779
0.6441183785128077,-0.565031591796875,2.6096798095703124,9.5001921875,9.86829980329152
0.6466053220591892,-0.5746083984375,2.6096798095703124,9.490615380859374,9.859634061537902
0.6490922656055708,-0.584185205078125,2.6144682128906247,9.476250170898437,9.84764102166099
0.6515792091519522,-0.584185205078125,2.6240450195312497,9.466673364257812,9.840975012868757
0.6540661526983337,-0.584185205078125,2.6096798095703124,9.476250170898437,9.846370821971098
0.6565530962447153,-0.59376201171875,2.6001030029296874,9.476250170898437,9.844409898711906
0.6590400397910967,-0.59376201171875,2.6001030029296874,9.4618849609375,9.83058268702418
0.6615269833374782,-0.5985504150390625,2.6048914062499997,9.476250170898437,9.845965627562956
0.6640139268838597,-0.603338818359375,2.6001030029296874,9.476250170898437,9.844992161349643
0.6665008704302412,-0.5889736083984375,2.5905261962890624,9.4618849609375,9.827765915968135
0.6689878139766227,-0.5985504150390625,2.5857377929687497,9.4618849609375,9.827083471068391
0.6714747575230042,-0.6081272216796875,2.5713725830078125,9.471461767578125,9.833125835312302
0.6739617010693857,-0.603338818359375,2.5570073730468748,9.481038574218749,9.838312705000753
0.6764486446157671,-0.5889736083984375,2.5522189697265625,9.471461767578125,9.826967975704212
0.6789355881621487,-0.59376201171875,2.5617957763671875,9.471461767578125,9.829747653987218
0.6814225317085302,-0.5889736083984375,2.5617957763671875,9.471461767578125,9.82945957445763
0.6839094752549116,-0.5746083984375,2.5665841796874997,9.466673364257812,9.825244716979082
0.6863964188012932,-0.565031591796875,2.5665841796874997,9.466673364257812,9.824689289575472
0.6888833623476747,-0.5698199951171875,2.5617957763671875,9.457096557617186,9.814487644637541
0.6913703058940561,-0.5698199951171875,2.5617957763671875,9.452308154296874,9.809873692888981
0.6938572494404377,-0.5458779785156249,2.5617957763671875,9.466673364257812,9.822356384940905
0.6963441929868192,-0.5458779785156249,2.5617957763671875,9.466673364257812,9.822356384940905
0.6988311365332006,-0.5602431884765625,2.5617957763671875,9.466673364257812,9.823165203517421
0.7013180800795822,-0.55545478515625,2.5570073730468748,9.471461767578125,9.826260974493971
0.7038050236259636,-0.5506663818359374,2.5570073730468748,9.466673364257812,9.821375909486852
0.7062919671723451,-0.5458779785156249,2.5570073730468748,9.4618849609375,9.816493084969785
0.7087789107187267,-0.5410895751953124,2.5617957763671875,9.452308154296874,9.808246783803158
0.7112658542651081,-0.5410895751953124,2.5617957763671875,9.447519750976562,9.803632233682068
0.7137527978114896,-0.5315127685546874,2.5617957763671875,9.442731347656249,9.798493696837255
0.7162397413578712,-0.5315127685546874,2.5617957763671875,9.442731347656249,9.798493696837255
0.7187266849042526,-0.5410895751953124,2.5617957763671875,9.457096557617186,9.81286150051516
0.7212136284506341,-0.5363011718749999,2.5617957763671875,9.4618849609375,9.817213635282798
0.7237005719970157,-0.5267243652343749,2.5570073730468748,9.471461767578125,9.824678787494367
0.7261875155433971,-0.5267243652343749,2.5570073730468748,9.481038574218749,9.833911617895064
0.7286744590897786,-0.5410895751953124,2.5617957763671875,9.481038574218749,9.83593757473184
0.7311614026361601,-0.5506663818359374,2.5713725830078125,9.485826977539062,9.843581861930971
0.7336483461825416,-0.5506663818359374,2.5809493896484375,9.481038574218749,9.841474770675115
0.7361352897289231,-0.5458779785156249,2.5905261962890624,9.476250170898437,9.839112055594288
0.7386222332753046,-0.5506663818359374,2.6048914062499997,9.476250170898437,9.84317072918539
0.7411091768216861,-0.5602431884765625,2.6192566162109374,9.476250170898437,9.847522274828924
0.7435961203680675,-0.5698199951171875,2.6288334228515624,9.476250170898437,9.85062319314821
0.7460830639144491,-0.565031591796875,2.6384102294921874,9.471461767578125,9.848302252343379
0.7485700074608306,-0.5506663818359374,2.6384102294921874,9.466673364257812,9.842883042519688
0.7510569510072121,-0.5506663818359374,2.6384102294921874,9.471461767578125,9.847488513213277
0.7535438945535936,-0.5602431884765625,2.6431986328124997,9.476250170898437,9.853917431366519
0.7560308380999751,-0.5602431884765625,2.6431986328124997,9.471461767578125,9.849312638830712
0.7585177816463566,-0.5602431884765625,2.6479870361328124,9.476250170898437,9.855202944395131
0.7610047251927381,-0.5602431884765625,2.6527754394531247,9.466673364257812,9.847283612649147
0.7634916687391196,-0.565031591796875,2.6431986328124997,9.4618849609375,9.840377367065026
0.7659786122855011,-0.565031591796875,2.6431986328124997,9.466673364257812,9.844981680926516
0.7684655558318826,-0.5698199951171875,2.6384102294921874,9.476250170898437,9.85318327584426
0.770952499378264,-0.5698199951171875,2.6384102294921874,9.481038574218749,9.857788586277769
0.7734394429246456,-0.5746083984375,2.6431986328124997,9.476250170898437,9.854744599709798
0.7759263864710271,-0.5698199951171875,2.6336218261718747,9.485826977539062,9.861114145872772
0.7784133300174085,-0.5698199951171875,2.6288334228515624,9.5001921875,9.873657457668502
0.7809002735637901,-0.5698199951171875,2.6336218261718747,9.504980590820312,9.879540211062206
0.7833872171101716,-0.5698199951171875,2.6336218261718747,9.504980590820312,9.879540211062206
0.785874160656553,-0.565031591796875,2.6288334228515624,9.481038574218749,9.85495399840374
0.7883611042029346,-0.5506663818359374,2.6096798095703124,9.457096557617186,9.82600312806067
0.790848047749316,-0.5602431884765625,2.6048914062499997,9.4618849609375,9.829882943484359
0.7933349912956975,-0.565031591796875,2.6048914062499997,9.4618849609375,9.830157015638095
0.7958219348420791,-0.565031591796875,2.5953145996093747,9.457096557617186,9.823013482163654
0.7983088783884605,-0.5746083984375,2.5905261962890624,9.476250170898437,9.840747841839432
0.800795821934842,-1.5322890624999999,0.9864110839843749,24.516624999999998,24.584259557454423
0.8032827654812236,-1.1875240234375,0.9816226806640624,23.362619799804687,23.41336798292081
0.805769709027605,-0.8092401611328125,1.1156979736328125,21.073763012695313,21.118786402679575
0.8082566525739865,-0.45968671875,1.369483349609375,17.918205224609373,17.976342091634525
0.8107435961203681,-0.143652099609375,1.6998831787109374,14.207192651367187,14.309247421861443
0.8132305396667495,0.12449848632812499,2.0925322509765625,10.271125122070313,10.482852778118128
0.815717483213131,0.32082302246093747,2.499546533203125,6.4643444824218745,6.938184911834425
0.8182044267595125,0.44053310546874996,2.8730419921875,3.0837317382812497,4.237669305121597
0.820691370305894,0.469263525390625,3.19865341796875,0.4213794921875,3.2602381233556237
0.8231783138522755,0.411802685546875,3.4620156005859375,-1.3215993164062498,3.728506165161792
0.825665257398657,0.2825157958984375,3.6439749267578123,-2.059013427734375,4.19498566593048
0.8281522009450385,0.1005564697265625,3.7205893798828122,-1.7908628417968748,4.130385775618231
0.83063914449142,-0.1197100830078125,3.69664736328125,-0.5602431884765625,3.74077594392692
0.8331260880378015,-0.3591302490234375,3.5865140869140624,1.465251416015625,3.8908892998301097
0.835613031584183,-0.5985504150390625,3.394977954101562,4.07971962890625,5.341184340449411
0.8380999751305644,-0.8188169677734375,3.1411925781249996,7.043741284179687,7.755761943100018
0.840586918676946,-1.0103531005859374,2.844311572265625,10.050858569335936,10.494316542242348
0.8430738622233275,-1.149216796875,2.5426421630859375,12.847286108398437,13.146805268458547
0.8455608057697089,-1.22583125,2.2601263671875,15.231910961914062,15.447392822117605
0.8480477493160905,-1.24498486328125,2.0254946044921875,16.984466577148435,17.15006474077864
0.850534692862472,-1.20667763671875,1.848323681640625,17.999608081054685,18.134449603520913
0.8530216364088534,-1.1156979736328125,1.7238251953125,18.267758666992187,18.382800711203686
0.855508579955235,-1.0103531005859374,1.6807295654296874,17.76018791503906,17.868126371768042
0.8579955235016165,-0.8714894042968749,1.70467158203125,16.57266389160156,16.682883067634947
0.8604824670479979,-0.7038952880859375,1.8100164550781248,14.853627099609374,14.980048937119436
0.8629694105943795,-0.5363011718749999,1.9823989746093749,12.7563064453125,12.920560311697322
0.8654563541407609,-0.38307226562499996,2.1978771240234374,10.453084448242187,10.688516393544957
0.8679432976871424,-0.24899697265624998,2.43250888671875,8.183381274414062,8.540891525993548
0.870430241233524,-0.1484405029296875,2.6671406494140624,6.133944653320312,6.690362534023379
0.8729171847799054,-0.0909796630859375,2.89219560546875,4.472368701171875,5.326833441981248
0.8754041283262869,-0.0718260498046875,3.0837317382812497,3.342305517578125,4.548138804824103
0.8778910718726685,-0.0909796630859375,3.2225954345703123,2.786850732421875,4.261447598974906
0.8803780154190499,-0.143652099609375,3.299209887695312,2.829946362304687,4.34902497375104
0.8828649589654315,-0.22505495605468748,3.318363500976562,3.4620156005859375,4.800805981974133
0.885351902511813,-0.33039982910156246,3.27526787109375,4.57771357421875,5.638439965280816
0.8878388460581944,-0.430956298828125,3.1794998046874996,6.038176586914062,6.837727607492465
0.890325789604576,-0.5363011718749999,3.0454245117187497,7.709329345703124,8.306382387300216
0.8928127331509574,-0.6464344482421874,2.906560815429687,9.457096557617186,9.914769214145144
0.8952996766973389,-0.737414111328125,2.7437551025390623,11.128249316406249,11.485203719673027
0.8977866202437205,-0.7996633544921875,2.5761609863281247,12.555193505859375,12.841688007328719
0.9002735637901019,-0.8475473876953125,2.427720483398437,13.651737866210937,13.891800102493521
0.9027605073364834,-0.8762778076171874,2.288856787109375,14.355633154296875,14.563342042565871
0.905247450882865,-0.86191259765625,2.1787235107421874,14.609418530273437,14.796108922786294
0.9077343944292464,-0.833182177734375,2.1164742675781247,14.408305590820312,14.586738013177532
0.9102213379756279,-0.7852981445312499,2.0973206542968748,13.7906015625,13.971261165634688
0.9127082815220094,-0.7278373046875,2.1260510742187497,12.823344091796875,13.018755470816068
0.9151952250683909,-0.6560112548828124,2.1835119140624997,11.621454858398437,11.842984761924606
0.9176821686147724,-0.5793968017578125,2.250549560546875,10.295067138671874,10.554102584688401
0.9201691121611539,-0.507570751953125,2.35589443359375,8.963891015625,9.282198489069218
0.9226560557075354,-0.45010991210937495,2.4899697265625,7.742848168945312,8.145811558065692
0.9251429992539169,-0.40222587890625,2.6144682128906247,6.7277066650390625,7.229057107582456
0.9276299428002984,-0.373495458984375,2.7341782958984373,6.004657763671875,6.608414686630141
0.9301168863466799,-0.3687070556640625,2.834734765625,5.6024318847656245,6.289587355922325
0.9326038298930613,-0.37828386230468747,2.887407202148437,5.549759448242187,6.2673797527238
0.9350907734394429,-0.39264907226562495,2.916137622070312,5.84185205078125,6.541044817765893
0.9375777169858244,-0.4165910888671875,2.916137622070312,6.4356140625,7.0777492981614705
0.9400646605322058,-0.45968671875,2.887407202148437,7.259219433593749,7.825899246443118
0.9425516040785874,-0.49799394531249996,2.834734765625,8.226476904296874,8.715425486913466
0.9450385476249689,-0.5458779785156249,2.7533319091796873,9.246406811523437,9.663066712680937
0.9475254911713503,-0.603338818359375,2.6575638427734374,10.242394702148436,10.598741082918968
0.9500124347177319,-0.6512228515624999,2.5713725830078125,11.123460913085937,11.435358798393345
0.9524993782641133,-0.6751648681640625,2.480392919921875,11.812990991210937,12.089456265474983
0.9549863218104948,-0.699106884765625,2.403778466796875,12.263100903320312,12.516011549961853
0.9574732653568764,-0.7038952880859375,2.3415292236328122,12.445060229492187,12.682970937339729
0.9599602089032578,-0.699106884765625,2.308010400390625,12.35408056640625,12.587254231399895
0.9624471524496393,-0.6847416748046875,2.2936451904296873,12.023680737304687,12.259632045596938
0.9649340959960209,-0.6607996582031249,2.2936451904296873,11.506533178710937,11.75150076546133
0.9674210395424023,-0.63206923828125,2.3223756103515623,10.831368310546875,11.09556125107046
0.9699079830887838,-0.5889736083984375,2.375048046875,10.0748005859375,10.367707074505972
0.9723949266351654,-0.55545478515625,2.446874096679687,9.327809667968749,9.659386940443284
0.9748818701815468,-0.5363011718749999,2.5139117431640625,8.619125976562499,8.994259491432695
0.9773688137279283,-0.5027823486328125,2.5809493896484375,8.010998754882811,8.43149991951357
0.9798557572743098,-0.4740519287109375,2.6575638427734374,7.556100439453124,8.023841016659976
0.9823427008206913,-0.4644751220703125,2.7246014892578123,7.283161450195312,7.789969905198556
0.9848296443670728,-0.45489831542968745,2.77727392578125,7.206546997070312,7.736569172261585
0.9873165879134543,-0.45968671875,2.8107927490234372,7.345410693359375,7.878256533743752
0.9898035314598358,-0.47884033203125,2.8203695556640622,7.671022119140624,8.187084514431325
0.9922904750062173,-0.4836287353515625,2.8203695556640622,8.116343627929687,8.606010403828785
0.9947774185525988,-0.49799394531249996,2.806004345703125,8.657433203124999,9.114428562682573
0.9972643620989803,-0.5267243652343749,2.7629087158203123,9.236830004882812,9.655575159874775
0.9997513056453617,-0.5458779785156249,2.7198130859375,9.82580361328125,10.209886514385753
1.0022382491917432,-0.565031591796875,2.6719290527343746,10.347739575195313,10.702064281186027
1.0047251927381249,-0.5889736083984375,2.6192566162109374,10.759542260742187,11.089415890553106
1.0072121362845063,-0.603338818359375,2.5617957763671875,11.037269653320312,11.34672361211189
1.0096990798308878,-0.603338818359375,2.50912333984375,11.176133349609374,11.470208119844155
1.0121860233772693,-0.6081272216796875,2.47081611328125,11.166556542968749,11.452804722456255
1.0146729669236507,-0.6177040283203125,2.446874096679687,11.008539233398437,11.294099661543537
1.0171599104700322,-0.6081272216796875,2.43250888671875,10.716446630859375,11.005868734169548
1.0196468540164139,-0.5985504150390625,2.43250888671875,10.328585961914062,10.628031334916045
1.0221337975627953,-0.59376201171875,2.4516625,9.897629663085937,10.214023462282881
1.0246207411091768,-0.5746083984375,2.480392919921875,9.4618849609375,9.798458596267512
1.0271076846555582,-0.5602431884765625,2.5139117431640625,9.02135185546875,9.381812936891356
1.0295946282019397,-0.5506663818359374,2.5474305664062498,8.647856396484375,9.032057141590773
1.0320815717483212,-0.5410895751953124,2.5809493896484375,8.37012900390625,8.77571291818188
1.0345685152947028,-0.5267243652343749,2.6096798095703124,8.197746484375,8.619217753804179
1.0370554588410843,-0.5267243652343749,2.6336218261718747,8.169016064453125,8.599199145357296
1.0395424023874658,-0.5219359619140624,2.6575638427734374,8.245630517578125,8.67902559963799
1.0420293459338472,-0.5123591552734374,2.6671406494140624,8.413224633789062,8.840729601472068
1.0445162894802287,-0.5219359619140624,2.6623522460937497,8.647856396484375,9.063440675860097
1.0470032330266101,-0.5363011718749999,2.6527754394531247,8.949525805664061,9.349804737285544
1.0494901765729918,-0.5410895751953124,2.6431986328124997,9.279925634765624,9.664175946642688
1.0519771201193733,-0.5458779785156249,2.6240450195312497,9.610325463867188,9.977071241271616
1.0544640636657547,-0.55545478515625,2.5953145996093747,9.926360083007811,10.275057780218532
1.0569510072121362,-0.5746083984375,2.5713725830078125,10.194510668945313,10.529490944553729
1.0594379507585177,-0.584185205078125,2.5426421630859375,10.376469995117187,10.699412651304828
1.0619248943048991,-0.59376201171875,2.518700146484375,10.481814868164061,10.796520119229431
1.0644118378512808,-0.5889736083984375,2.50912333984375,10.486603271484375,10.798677605125793
1.0668987813976623,-0.5793968017578125,2.499546533203125,10.40041201171875,10.712236159599852
1.0693857249440437,-0.5889736083984375,2.5043349365234375,10.24718310546875,10.565194980817244
1.0718726684904252,-0.5889736083984375,2.50912333984375,10.026916552734374,10.352856871484175
1.0743596120368066,-0.5746083984375,2.5139117431640625,9.753977563476562,10.089103298746487
1.076846555583188,-0.565031591796875,2.518700146484375,9.481038574218749,9.826148969634685
1.0793334991295698,-0.565031591796875,2.5474305664062498,9.227253198242186,9.589101353873575
1.0818204426759512,-0.5602431884765625,2.5665841796874997,9.006986645507812,9.38227239073843
1.0843073862223327,-0.55545478515625,2.5809493896484375,8.8489693359375,9.234397006769948
1.0867943297687142,-0.5506663818359374,2.6096798095703124,8.748412866210938,9.145949368449855
1.0892812733150956,-0.5410895751953124,2.6240450195312497,8.700528833007812,9.103713097792136
1.0917682168614773,-0.5315127685546874,2.6431986328124997,8.724470849609375,9.13156046036614
1.0942551604078588,-0.5363011718749999,2.6671406494140624,8.820238916015624,9.230269374525742
1.0967421039542402,-0.5315127685546874,2.6719290527343746,8.935160595703124,9.341242184901775
1.0992290475006217,-0.5267243652343749,2.6719290527343746,9.102754711914063,9.501409725143487
1.1017159910470031,-0.5363011718749999,2.6671406494140624,9.303867651367186,9.69346230533075
1.1042029345933846,-0.5363011718749999,2.6671406494140624,9.504980590820312,9.886653337837947
1.1066898781397663,-0.5363011718749999,2.6575638427734374,9.696516723632811,10.068401119197725
1.1091768216861477,-0.5410895751953124,2.6384102294921874,9.849745629882811,10.211340531040458
1.1116637652325292,-0.5602431884765625,2.6240450195312497,9.945513696289062,10.301103211687302
1.1141507087789106,-0.5746083984375,2.6240450195312497,10.012551342773437,10.366627777042822
1.116637652325292,-0.5793968017578125,2.6048914062499997,10.046070166015625,10.394454563504112
1.1191245958716736,-0.584185205078125,2.5953145996093747,10.022128149414062,10.369184291353658
1.1216115394180552,-0.584185205078125,2.5857377929687497,9.945513696289062,10.292742830309733
1.1240984829644367,-0.584185205078125,2.5761609863281247,9.840168823242188,10.188562226890445
1.1265854265108182,-0.584185205078125,2.5665841796874997,9.706093530273437,10.056683266548182
1.1290723700571996,-0.584185205078125,2.5713725830078125,9.567229833984374,9.92396674776559
1.131559313603581,-0.5889736083984375,2.5809493896484375,9.414000927734374,9.77914122664665
1.1340462571499625,-0.5889736083984375,2.5809493896484375,9.275137231445312,9.645535771820015
1.1365332006963442,-0.584185205078125,2.5809493896484375,9.160215551757812,9.534784793608322
1.1390201442427257,-0.5746083984375,2.5905261962890624,9.083601098632812,9.463234632212075
1.1415070877891071,-0.5746083984375,2.6001030029296874,9.045293872070312,9.429106620964237
1.1439940313354886,-0.5793968017578125,2.6096798095703124,9.04050546875,9.427452916502144
1.14648097488187,-0.5793968017578125,2.6336218261718747,9.0788126953125,9.47082385718072
1.1489679184282515,-0.5793968017578125,2.6288334228515624,9.160215551757812,9.547565908316859
1.1514548619746332,-0.5746083984375,2.6240450195312497,9.255983618164063,9.637894988834605
1.1539418055210147,-0.5698199951171875,2.6336218261718747,9.351751684570312,9.73221035119915
1.1564287490673961,-0.5698199951171875,2.6288334228515624,9.4618849609375,9.836804715249361
1.1589156926137776,-0.5698199951171875,2.6192566162109374,9.576806640625,9.94486930433574
1.161402636160159,-0.5602431884765625,2.6144682128906247,9.6917283203125,10.05380098774574
1.1638895797065405,-0.565031591796875,2.6001030029296874,9.787496386718749,10.142725562964081
1.1663765232529222,-0.565031591796875,2.5857377929687497,9.835380419921874,10.185283925266786
1.1688634667993036,-0.5602431884765625,2.5713725830078125,9.840168823242188,10.186007650732755
1.171350410345685,-0.565031591796875,2.5617957763671875,9.811438403320311,10.156100720339962
1.1738373538920666,-0.565031591796875,2.5522189697265625,9.758765966796874,10.102801372088514
1.176324297438448,-0.55545478515625,2.5426421630859375,9.696516723632811,10.039720900480555
1.1788112409848295,-0.5458779785156249,2.5378537597656248,9.619902270507811,9.963995391784671
1.1812981845312112,-0.5410895751953124,2.5426421630859375,9.5384994140625,9.886393587651568
1.1837851280775926,-0.5410895751953124,2.5474305664062498,9.437942944335937,9.790656129166544
1.186272071623974,-0.5458779785156249,2.5522189697265625,9.337386474609374,9.69528703097946
1.1887590151703555,-0.5458779785156249,2.5522189697265625,9.251195214843749,9.612305516368501
1.191245958716737,-0.5410895751953124,2.5665841796874997,9.198522778320312,9.565194905650634
1.1937329022631185,-0.5267243652343749,2.5665841796874997,9.17458076171875,9.541369139785626
1.1962198458095001,-0.51714755859375,2.5665841796874997,9.184157568359375,9.550054774148387
1.1987067893558816,-0.5219359619140624,2.5665841796874997,9.212887988281249,9.577947409773047
1.201193732902263,-0.51714755859375,2.5713725830078125,9.241618408203124,9.606607588573741
1.2036806764486445,-0.51714755859375,2.5761609863281247,9.294290844726563,9.658565593876068
1.206167619995026,-0.5267243652343749,2.5713725830078125,9.361328491210937,9.722338537509042
1.2086545635414074,-0.5267243652343749,2.5761609863281247,9.433154541015625,9.792775325672205
1.2111415070877891,-0.5363011718749999,2.5857377929687497,9.504980590820312,9.865004557161251
1.2136284506341706,-0.5410895751953124,2.5761609863281247,9.562441430664062,9.918148490053207
1.216115394180552,-0.5458779785156249,2.5761609863281247,9.605537060546874,9.959966386311095
1.2186023377269335,-0.5458779785156249,2.5713725830078125,9.634267480468749,9.986443291447172
1.221089281273315,-0.5410895751953124,2.5570073730468748,9.662997900390625,10.010224425913474
1.2235762248196966,-0.5506663818359374,2.5522189697265625,9.677363110351562,10.023393232988003
1.226063168366078,-0.5506663818359374,2.5570073730468748,9.667786303710937,10.015368799206604
1.2285501119124596,-0.5506663818359374,2.5522189697265625,9.639055883789062,9.986413443490358
1.231037055458841,-0.5602431884765625,2.5522189697265625,9.595960253906249,9.945358077727265
1.2335239990052225,-0.5602431884765625,2.5570073730468748,9.543287817382812,9.89578200555457
1.236010942551604,-0.565031591796875,2.5522189697265625,9.495403784179686,9.848643327574338
1.2384978860979856,-0.565031591796875,2.5570073730468748,9.437942944335937,9.794504297108919
1.240984829644367,-0.5602431884765625,2.5761609863281247,9.399635717773437,9.762357783064276
1.2434717731907485,-0.5746083984375,2.5809493896484375,9.370905297851563,9.736803411016576
1.24595871673713,-0.5746083984375,2.5761609863281247,9.342174877929686,9.707883996466714
1.2484456602835114,-0.5602431884765625,2.5905261962890624,9.318232861328125,9.687835778017172
1.250932603829893,-0.565031591796875,2.6048914062499997,9.303867651367186,9.678154432134278
1.2534195473762746,-0.5793968017578125,2.6048914062499997,9.318232861328125,9.692812984380625
1.255906490922656,-0.584185205078125,2.6001030029296874,9.351751684570312,9.724045842628458
1.2583934344690375,-0.5746083984375,2.6096798095703124,9.399635717773437,9.772090623140782
1.260880378015419,-0.5746083984375,2.6384102294921874,9.452308154296874,9.830438077442485
1.2633673215618004,-0.5698199951171875,2.6479870361328124,9.504980590820312,9.883379290618853
1.2658542651081819,-0.5746083984375,2.6479870361328124,9.5384994140625,9.915895382019366
1.2683412086545636,-0.584185205078125,2.6431986328124997,9.543287817382812,9.919783955900513
1.270828152200945,-0.5698199951171875,2.6431986328124997,9.552864624023437,9.928162788968343
1.2733150957473265,-0.5602431884765625,2.6384102294921874,9.572018237304688,9.944778233053613
1.275802039293708,-0.5746083984375,2.6384102294921874,9.576806640625,9.950206469343389
1.2782889828400894,-0.5746083984375,2.6288334228515624,9.552864624023437,9.92462404837457
1.2807759263864709,-0.5698199951171875,2.6240450195312497,9.533711010742186,9.904642988402404
1.2832628699328525,-0.565031591796875,2.6192566162109374,9.514557397460937,9.884663291729867
1.285749813479234,-0.5698199951171875,2.6096798095703124,9.490615380859374,9.859356157615913
1.2882367570256155,-0.5602431884765625,2.6096798095703124,9.4618849609375,9.831152941172697
1.290723700571997,-0.5458779785156249,2.6001030029296874,9.437942944335937,9.804758304711687
1.2932106441183784,-0.5506663818359374,2.5905261962890624,9.418789331054686,9.78405089421216
1.2956975876647598,-0.5602431884765625,2.5905261962890624,9.3852705078125,9.752333100787183
1.2981845312111415,-0.5506663818359374,2.5953145996093747,9.375693701171874,9.743845427408207
1.300671474757523,-0.5602431884765625,2.5905261962890624,9.3852705078125,9.752333100787183
1.3031584183039044,-0.5602431884765625,2.5905261962890624,9.394847314453125,9.761549798355862
1.305645361850286,-0.5410895751953124,2.5953145996093747,9.409212524414063,9.775567304710304
1.3081323053966674,-0.5506663818359374,2.5953145996093747,9.428366137695312,9.794538241360307
1.3106192489430488,-0.5602431884765625,2.6001030029296874,9.447519750976562,9.81478667629463
1.3131061924894305,-0.5602431884765625,2.6048914062499997,9.471461767578125,9.839101568907784
1.315593136035812,-0.5506663818359374,2.5905261962890624,9.5001921875,9.862439406008038
1.3180800795821934,-0.5458779785156249,2.5857377929687497,9.519345800781249,9.87937078847974
1.3205670231285749,-0.55545478515625,2.5905261962890624,9.519345800781249,9.88115886254565
1.3230539666749563,-0.5506663818359374,2.5809493896484375,9.543287817382812,9.901458255298465
1.3255409102213378,-0.5506663818359374,2.5761609863281247,9.548076220703125,9.9048270256436
1.3280278537677195,-0.55545478515625,2.5665841796874997,9.548076220703125,9.902607933576467
1.330514797314101,-0.55545478515625,2.5474305664062498,9.548076220703125,9.897660937078534
1.3330017408604824,-0.5602431884765625,2.5474305664062498,9.533711010742186,9.88407408699682
1.3354886844068639,-0.5602431884765625,2.5378537597656248,9.514557397460937,9.863132190423565
1.3379756279532453,-0.5602431884765625,2.5378537597656248,9.495403784179686,9.84465678227559
1.3404625714996268,-0.565031591796875,2.5426421630859375,9.476250170898437,9.827695923800427
1.3429495150460085,-0.5698199951171875,2.5474305664062498,9.4618849609375,9.8153636881937
1.34543645859239,-0.565031591796875,2.5474305664062498,9.452308154296874,9.805855018007179
1.3479234021387714,-0.5698199951171875,2.5474305664062498,9.447519750976562,9.801516554216928
1.3504103456851528,-0.5698199951171875,2.5426421630859375,9.437942944335937,9.791041365292978
1.3528972892315343,-0.5602431884765625,2.5378537597656248,9.409212524414063,9.76154979835586
1.3553842327779158,-0.5602431884765625,2.5330653564453125,9.394847314453125,9.746458258882809
1.3578711763242974,-0.5602431884765625,2.5474305664062498,9.399635717773437,9.754815556828197
1.360358119870679,-0.5506663818359374,2.5570073730468748,9.409212524414063,9.766002278286178
1.3628450634170604,-0.55545478515625,2.5474305664062498,9.433154541015625,9.786845104715695
1.3653320069634418,-0.565031591796875,2.5426421630859375,9.4618849609375,9.813845162995293
1.3678189505098233,-0.5602431884765625,2.5330653564453125,9.481038574218749,9.829566876321747
1.370305894056205,-0.55545478515625,2.5378537597656248,9.476250170898437,9.825912121821677
1.3727928376025864,-0.5506663818359374,2.5378537597656248,9.490615380859374,9.839497724855946
1.3752797811489679,-0.5458779785156249,2.5426421630859375,9.495403784179686,9.845085320175977
1.3777667246953493,-0.5506663818359374,2.5570073730468748,9.490615380859374,9.844455316435994
1.3802536682417308,-0.5458779785156249,2.5617957763671875,9.495403784179686,9.85004941063013
1.3827406117881123,-0.5458779785156249,2.5665841796874997,9.5001921875,9.855911359092394
1.385227555334494,-0.5458779785156249,2.5809493896484375,9.490615380859374,9.850434651666873
1.3877144988808754,-0.5410895751953124,2.5809493896484375,9.514557397460937,9.87324061035131
1.3902014424272569,-0.5363011718749999,2.5857377929687497,9.519345800781249,9.878846256309135
1.3926883859736383,-0.5410895751953124,2.5905261962890624,9.509768994140625,9.871135204421188
1.3951753295200198,-0.5458779785156249,2.6048914062499997,9.5001921875,9.865956294511923
1.3976622730664012,-0.5506663818359374,2.6144682128906247,9.476250170898437,9.845709461575252
1.400149216612783,-0.55545478515625,2.6144682128906247,9.4618849609375,9.832153429874033
1.4026361601591644,-0.565031591796875,2.6144682128906247,9.4618849609375,9.832699108076035
1.4051231037055458,-0.565031591796875,2.6144682128906247,9.476250170898437,9.846523347730237
1.4076100472519273,-0.5602431884765625,2.6192566162109374,9.485826977539062,9.85673836010711
1.4100969907983087,-0.565031591796875,2.6240450195312497,9.485826977539062,9.858285165892855
1.4125839343446902,-0.5698199951171875,2.6144682128906247,9.476250170898437,9.846799285275571
1.4150708778910719,-0.5746083984375,2.6240450195312497,9.4618849609375,9.83580469967236
1.4175578214374533,-0.5746083984375,2.6288334228515624,9.452308154296874,9.827872069804508
1.4200447649838348,-0.5746083984375,2.6288334228515624,9.457096557617186,9.832477575705484
1.4225317085302163,-0.5698199951171875,2.6240450195312497,9.457096557617186,9.830919712389932
1.4250186520765977,-0.584185205078125,2.6240450195312497,9.457096557617186,9.831762808288946
1.4275055956229792,-0.584185205078125,2.6240450195312497,9.457096557617186,9.831762808288946
1.4299925391693609,-0.5698199951171875,2.6144682128906247,9.466673364257812,9.837583211775094
1.4324794827157423,-0.5793968017578125,2.6192566162109374,9.485826977539062,9.857845572094332
1.4349664262621238,-0.584185205078125,2.6240450195312497,9.504980590820312,9.877830766429934
1.4374533698085052,-0.584185205078125,2.6240450195312497,9.485826977539062,9.859401506489467
1.4399403133548867,-0.5793968017578125,2.6288334228515624,9.466673364257812,9.841969843712027
1.4424272569012682,-0.5602431884765625,2.6240450195312497,9.457096557617186,9.830369270523665
1.4449142004476498,-0.5506663818359374,2.6240450195312497,9.452308154296874,9.82522138032514
1.4474011439940313,-0.5506663818359374,2.6144682128906247,9.447519750976562,9.818060243520206
1.4498880875404128,-0.5506663818359374,2.6096798095703124,9.442731347656249,9.812178019001347
1.4523750310867942,-0.5602431884765625,2.6001030029296874,9.4618849609375,9.828615114556762
1.4548619746331757,-0.5698199951171875,2.5953145996093747,9.471461767578125,9.837120549859856
1.4573489181795571,-0.565031591796875,2.5905261962890624,9.476250170898437,9.840193289506109
1.4598358617259388,-0.5506663818359374,2.5665841796874997,9.476250170898437,9.833102517362416
1.4623228052723203,-0.5458779785156249,2.5570073730468748,9.457096557617186,9.811877739420687
1.4648097488187017,-0.5458779785156249,2.5522189697265625,9.442731347656249,9.796784153020338
1.4672966923650832,-0.5506663818359374,2.5426421630859375,9.442731347656249,9.79456165112031
1.4697836359114647,-0.5506663818359374,2.5330653564453125,9.447519750976562,9.796697556278849
1.4722705794578461,-0.5458779785156249,2.5234885498046875,9.442731347656249,9.789338717831438
1.4747575230042278,-0.5458779785156249,2.528276953125,9.447519750976562,9.795192523081084
1.4772444665506093,-0.5363011718749999,2.5378537597656248,9.452308154296874,9.801757500402578
1.4797314100969907,-0.5363011718749999,2.5378537597656248,9.476250170898437,9.824847986323437
1.4822183536433722,-0.5267243652343749,2.5426421630859375,9.481038574218749,9.8301861718005
1.4847052971897536,-0.5219359619140624,2.5474305664062498,9.485826977539062,9.83578838155884
1.487192240736135,-0.5267243652343749,2.5570073730468748,9.485826977539062,9.838528279705024
1.4896791842825168,-0.5315127685546874,2.5665841796874997,9.481038574218749,9.836663693569212
1.4921661278288982,-0.5219359619140624,2.5809493896484375,9.481038574218749,9.839909011067617
1.4946530713752797,-0.5267243652343749,2.5953145996093747,9.471461767578125,9.8347183204488
1.4971400149216612,-0.5315127685546874,2.6096798095703124,9.476250170898437,9.843386197496686
1.4996269584680426,-0.5315127685546874,2.6192566162109374,9.485826977539062,9.855147106588989
1.5021139020144243,-0.5363011718749999,2.6240450195312497,9.485826977539062,9.856680204779352
1.5046008455608058,-0.5267243652343749,2.6240450195312497,9.481038574218749,9.851555372999849
1.5070877891071872,-0.5363011718749999,2.6336218261718747,9.485826977539062,9.859234063458036
1.5095747326535687,-0.5363011718749999,2.6384102294921874,9.481038574218749,9.855907869489618
1.5120616761999501,-0.5363011718749999,2.6384102294921874,9.471461767578125,9.846695664066075
1.5145486197463316,-0.5458779785156249,2.6336218261718747,9.481038574218749,9.855152923041889
1.5170355632927133,-0.5602431884765625,2.6288334228515624,9.476250170898437,9.850073852351997
1.5195225068390947,-0.55545478515625,2.6240450195312497,9.4618849609375,9.83470433195096
1.5220094503854762,-0.5602431884765625,2.6144682128906247,9.452308154296874,9.82320955239361
1.5244963939318577,-0.5746083984375,2.6336218261718747,9.447519750976562,9.824549260904341
1.5269833374782391,-0.584185205078125,2.6336218261718747,9.452308154296874,9.82971849652411
1.5294702810246206,-0.584185205078125,2.6240450195312497,9.457096557617186,9.831762808288946
1.5319572245710023,-0.584185205078125,2.6192566162109374,9.457096557617186,9.830485892136348
1.5344441681173837,-0.584185205078125,2.6288334228515624,9.4618849609375,9.837647306797946
1.5369311116637652,-0.5889736083984375,2.6240450195312497,9.457096557617186,9.832048488286226
1.5394180552101466,-0.59376201171875,2.6240450195312497,9.447519750976562,9.823125522774271
1.541904998756528,-0.5985504150390625,2.6336218261718747,9.471461767578125,9.849000687243679
1.5443919423029095,-0.59376201171875,2.6288334228515624,9.490615380859374,9.865855198565722
1.5468788858492912,-0.5889736083984375,2.6240450195312497,9.495403784179686,9.86890040483389
1.5493658293956727,-0.5889736083984375,2.6240450195312497,9.490615380859374,9.864293308865118
1.5518527729420541,-0.5793968017578125,2.6240450195312497,9.476250170898437,9.849905086845588
1.5543397164884356,-0.5698199951171875,2.6144682128906247,9.4618849609375,9.832975433563641
1.556826660034817,-0.5793968017578125,2.6096798095703124,9.452308154296874,9.82304732789949
1.5593136035811985,-0.5793968017578125,2.6048914062499997,9.452308154296874,9.821776282120737
1.5618005471275802,-0.584185205078125,2.6048914062499997,9.471461767578125,9.840493870069805
1.5642874906739617,-0.584185205078125,2.5953145996093747,9.485826977539062,9.85179393169516
1.5667744342203431,-0.584185205078125,2.5761609863281247,9.485826977539062,9.84676552118101
1.5692613777667246,-0.584185205078125,2.5665841796874997,9.490615380859374,9.848878464711547
1.571748321313106,-0.5793968017578125,2.5570073730468748,9.495403784179686,9.850719790163415
1.5742352648594875,-0.5793968017578125,2.5570073730468748,9.495403784179686,9.850719790163415
1.5767222084058692,-0.584185205078125,2.5570073730468748,9.485826977539062,9.841771817485716
1.5792091519522506,-0.584185205078125,2.5330653564453125,9.490615380859374,9.840196784681702
1.581696095498632,-0.5698199951171875,2.5234885498046875,9.5001921875,9.846133296236992
1.5841830390450136,-0.5698199951171875,2.528276953125,9.5001921875,9.847361615071033
1.586669982591395,-0.565031591796875,2.528276953125,9.509768994140625,9.856325449849448
1.5891569261377765,-0.5602431884765625,2.528276953125,9.504980590820312,9.85143201843307
1.5916438696841582,-0.55545478515625,2.5330653564453125,9.485826977539062,9.83391394950069
1.5941308132305396,-0.5458779785156249,2.5426421630859375,9.4618849609375,9.812761025875739
1.596617756776921,-0.5506663818359374,2.5570073730468748,9.447519750976562,9.802915363043416
1.5991047003233025,-0.5506663818359374,2.5713725830078125,9.442731347656249,9.802059259601451
1.601591643869684,-0.5458779785156249,2.5809493896484375,9.428366137695312,9.790473458714576
1.6040785874160655,-0.5363011718749999,2.5809493896484375,9.423577734375,9.785332698211615
1.6065655309624471,-0.5410895751953124,2.5809493896484375,9.423577734375,9.78559630253159
1.6090524745088286,-0.5315127685546874,2.5809493896484375,9.428366137695312,9.789683018438488
1.61153941805521,-0.5315127685546874,2.5761609863281247,9.447519750976562,9.806872115802674
1.6140263616015915,-0.5410895751953124,2.5761609863281247,9.447519750976562,9.807395821570394
1.616513305147973,-0.5410895751953124,2.5713725830078125,9.442731347656249,9.801525911460894
1.6190002486943544,-0.5410895751953124,2.5713725830078125,9.4618849609375,9.819979730276664
1.6214871922407361,-0.5458779785156249,2.5570073730468748,9.471461767578125,9.825724272944898
1.6239741357871176,-0.5458779785156249,2.5522189697265625,9.476250170898437,9.829095672457008
1.626461079333499,-0.5458779785156249,2.5522189697265625,9.5001921875,9.852180268158742
1.6289480228798805,-0.5458779785156249,2.5570073730468748,9.519345800781249,9.871890089952176
1.631434966426262,-0.5506663818359374,2.5665841796874997,9.495403784179686,9.85156235528763
1.6339219099726436,-0.55545478515625,2.5713725830078125,9.476250170898437,9.834622731983668
1.636408853519025,-0.5506663818359374,2.5761609863281247,9.471461767578125,9.830993180053454
1.6388957970654066,-0.5458779785156249,2.5857377929687497,9.457096557617186,9.819404157152817
1.641382740611788,-0.5410895751953124,2.5905261962890624,9.452308154296874,9.815790001106997
1.6438696841581695,-0.5410895751953124,2.5953145996093747,9.452308154296874,9.817054815122395
1.646356627704551,-0.5506663818359374,2.6001030029296874,9.447519750976562,9.814244674707295
1.6488435712509326,-0.5458779785156249,2.6096798095703124,9.457096557617186,9.825735940681598
1.651330514797314,-0.55545478515625,2.6144682128906247,9.466673364257812,9.836761593132
1.6538174583436955,-0.5602431884765625,2.6096798095703124,9.452308154296874,9.821936193159702
1.656304401890077,-0.55545478515625,2.6144682128906247,9.447519750976562,9.818329975085414
1.6587913454364585,-0.5602431884765625,2.6144682128906247,9.466673364257812,9.837033142772174
1.66127828898284,-0.5698199951171875,2.6096798095703124,9.471461767578125,9.840920259305449
1.6637652325292216,-0.5602431884765625,2.6096798095703124,9.476250170898437,9.844979351942085
1.666252176075603,-0.565031591796875,2.6096798095703124,9.490615380859374,9.859080571514363
1.6687391196219845,-0.5602431884765625,2.6001030029296874,9.5001921875,9.865498449420302
1.671226063168366,-0.5602431884765625,2.5953145996093747,9.495403784179686,9.859625922203836
1.6737130067147474,-0.584185205078125,2.5953145996093747,9.5001921875,9.865626276330042
1.676199950261129,-0.5746083984375,2.6048914062499997,9.504980590820312,9.872197834412601
1.6786868938075106,-0.5698199951171875,2.6144682128906247,9.5001921875,9.869842474046223
1.681173837353892,-0.5698199951171875,2.6096798095703124,9.495403784179686,9.86396555954694
1.6836607809002735,-0.5602431884765625,2.6048914062499997,9.490615380859374,9.857540868593647
1.686147724446655,-0.5602431884765625,2.6096798095703124,9.481038574218749,9.84958849823368
1.6886346679930364,-2.1164742675781247,0.44053310546874996,23.15671845703125,23.257410484414336
1.6911216115394179,-1.5514426757812498,0.5123591552734374,21.50950771484375,21.571472096617573
1.6936085550857995,-0.9433154541015625,0.70868369140625,18.86630908203125,18.903166269150436
1.696095498632181,-0.33039982910156246,1.01514150390625,15.533580371093748,15.570221432762361
1.6985824421785625,0.2346317626953125,1.4173673828125,11.860875024414062,11.947566225248368
1.701069385724944,0.7230489013671875,1.89620771484375,8.192958081054687,8.440554811712353
1.7035563292713254,1.1061211669921875,2.39420166015625,4.855440966796874,5.525487544788466
1.7060432728177068,1.3646949462890625,2.877830395507812,2.1308394775390624,3.832072149734984
1.7085302163640885,1.4796166259765624,3.342305517578125,0.2537853759765625,3.66397032599324
1.71101715991047,1.4604630126953124,3.7205893798828122,-0.6655880615234374,4.0520050608051275
1.7135041034568514,1.2976572998046874,4.00310517578125,-0.6177040283203125,4.253272126575745
1.715991047003233,1.0199299072265624,4.1946413085937495,0.354341845703125,4.33137747916671
1.7184779905496144,0.6464344482421874,4.256890551757812,2.1116858642578125,4.795645092667447
1.7209649340959958,0.2154781494140625,4.199429711914062,4.438849877929687,6.114329806035812
1.7234518776423775,-0.2442085693359375,4.050989208984375,7.077260107421875,8.15829406339034
1.725938821188759,-0.7134720947265625,3.81156904296875,9.773131176757811,10.51433278897842
1.7284257647351404,-1.1635820068359375,3.4763808105468748,12.282254516601562,12.817680080152973
1.7309127082815219,-1.5370774658203123,3.1172505615234374,14.38436357421875,14.798303066046525
1.7333996518279033,-1.8291700683593748,2.73896669921875,15.907075830078124,16.244471772953
1.7358865953742848,-2.0302830078125,2.346317626953125,16.75941162109375,17.04421113996231
1.7383735389206665,-2.1260510742187497,1.9919757812499999,16.888698510742188,17.138150368987276
1.740860482467048,-2.1116858642578125,1.6998831787109374,16.32366691894531,16.547233052424208
1.7433474260134294,-2.001552587890625,1.4796166259765624,15.16966171875,15.3725116615102
1.7458343695598109,-1.8052280517578123,1.3359645263671873,13.575123413085937,13.759637539378673
1.7483213131061923,-1.5370774658203123,1.2785036865234374,11.698069311523437,11.867687408656879
1.7508082566525738,-1.1923124267578125,1.3120225097656248,9.725247143554688,9.885516880383717
1.7532952001989555,-0.8283937744140625,1.4317325927734375,7.848193041992187,8.0206127251646
1.755782143745337,-0.4740519287109375,1.618480322265625,6.234501123046875,6.458576316646599
1.7582690872917184,-0.13407529296874998,1.8531120849609375,5.027823486328125,5.360131490298128
1.7607560308380998,0.1580173095703125,2.1260510742187497,4.285620971679688,4.786607332256459
1.7632429743844813,0.39264907226562495,2.422932080078125,4.07971962890625,4.761185294556988
1.765729917930863,0.5602431884765625,2.710236279296875,4.386177441406249,5.186309445776681
1.7682168614772444,0.6368576416015624,2.96881005859375,5.1523219726562495,5.980455043689411
1.770703805023626,0.63206923828125,3.19865341796875,6.253654736328125,7.052594754518637
1.7731907485700074,0.55545478515625,3.375824340820312,7.570465649414062,8.30762722727652
1.7756776921163888,0.40222587890625,3.4811692138671875,8.98304462890625,9.64237603281266
1.7781646356627703,0.19153613281249998,3.5290532470703124,10.342951171874999,10.930120852699694
1.780651579209152,-0.0526724365234375,3.5098996337890624,11.544840405273437,12.066710811487779
1.7831385227555334,-0.3112462158203125,3.4428619873046875,12.488155859374999,12.957785676516345
1.7856254663019149,-0.5793968017578125,3.31357509765625,13.105859887695312,13.53067049253642
1.7881124098482963,-0.8379705810546875,3.1459809814453124,13.33091484375,13.722706788445304
1.7905993533946778,-1.0582371337890624,2.940079638671875,13.1776859375,13.543091994830734
1.7930862969410593,-1.22583125,2.7198130859375,12.708422412109375,13.053890059308655
1.795573240487441,-1.35990654296875,2.5043349365234375,11.980585107421874,12.314847087807458
1.7980601840338224,-1.4221557861328125,2.3032219970703123,11.066000073242186,11.392265633701475
1.8005471275802039,-1.4221557861328125,2.1260510742187497,10.050858569335936,10.371228385828333
1.8030340711265853,-1.3646949462890625,1.9919757812499999,9.045293872070312,9.362035090813652
1.8055210146729668,-1.2593500732421874,1.9105729248046874,8.130708837890625,8.446577870032606
1.8080079582193482,-1.1109095703125,1.8722656982421875,7.3837179199218745,7.69797306043621
1.81049490176573,-0.9241618408203125,1.8770541015625,6.890512377929687,7.201150466322948
1.8129818453121114,-0.7278373046875,1.9393033447265624,6.6702458251953125,6.9844701999148
1.8154687888584928,-0.5363011718749999,2.0446482177734375,6.7037646484375,7.029129799842862
1.8179557324048743,-0.3399766357421875,2.1787235107421874,6.995857250976562,7.33515091359085
1.8204426759512558,-0.17238251953125,2.3415292236328122,7.493851196289062,7.853042759993697
1.8229296194976372,-0.023942016601562498,2.5234885498046875,8.125920434570313,8.50876904082616
1.825416563044019,0.08140285644531249,2.6958710693359373,8.853757739257812,9.255451007540776
1.8279035065904004,0.12449848632812499,2.858676782226562,9.591171850585937,10.0089015524088
1.8303904501367818,0.1292868896484375,3.0071172851562498,10.271125122070313,10.703059410268839
1.8328773936831633,0.09576806640624999,3.1172505615234374,10.850521923828124,11.289829432074523
1.8353643372295447,0.01915361328125,3.1938650146484373,11.262324609375,11.706455321728724
1.8378512807759262,-0.105344873046875,3.2321722412109373,11.496956372070311,11.943116877951917
1.8403382243223079,-0.2442085693359375,3.2225954345703123,11.520898388671874,11.96561151142526
1.8428251678686893,-0.40222587890625,3.1794998046874996,11.362881079101562,11.806187830264012
1.8453121114150708,-0.565031591796875,3.0980969482421874,11.027692846679686,11.468542842102757
1.8477990549614522,-0.718260498046875,2.9927520751953125,10.563217724609375,11.002455717890532
1.8502859985078337,-0.86191259765625,2.863465185546875,10.046070166015625,10.48169127456761
1.8527729420542152,-0.967257470703125,2.7198130859375,9.495403784179686,9.9244981365146
1.8552598856005968,-1.0486603271484374,2.5713725830078125,8.992621435546875,9.411635656220255
1.8577468291469783,-1.1109095703125,2.43250888671875,8.571241943359375,8.978719731063032
1.8602337726933598,-1.120486376953125,2.3319524169921872,8.240842114257813,8.63741689095637
1.8627207162397412,-1.0821791503906248,2.24097275390625,8.02536396484375,8.402353085029391
1.8652076597861227,-1.01514150390625,2.1643583007812497,7.967903124999999,8.31880035440799
1.8676946033325041,-0.928950244140625,2.1308394775390624,8.044517578125,8.373630544745211
1.8701815468788858,-0.8188169677734375,2.1356278808593747,8.245630517578125,8.556973197611015
1.8726684904252673,-0.7038952880859375,2.1547814941406247,8.547299926757812,8.84278733782706
1.8751554339716487,-0.584185205078125,2.2026655273437497,8.916006982421875,9.202618556138047
1.8776423775180302,-0.4644751220703125,2.288856787109375,9.327809667968749,9.61574935887839
1.8801293210644117,-0.36391865234375,2.379836450195312,9.725247143554688,10.01880683107627
1.8826162646107931,-0.277727392578125,2.4899697265625,10.046070166015625,10.353772622783213
1.8851032081571748,-0.201112939453125,2.6001030029296874,10.295067138671874,10.620234904653518
1.8875901517035563,-0.15322890625,2.70065947265625,10.462661254882812,10.806679472408927
1.8900770952499377,-0.1484405029296875,2.7916391357421872,10.529698901367187,10.894486798402703
1.8925640387963192,-0.17238251953125,2.858676782226562,10.496180078124999,10.87986879106128
1.8950509823427006,-0.201112939453125,2.906560815429687,10.376469995117187,10.777739640006807
1.897537925889082,-0.26336218261718747,2.920926025390625,10.189722265624999,10.603377213681075
1.9000248694354638,-0.3447650390625,2.916137622070312,9.931148486328125,10.356178437073739
1.9025118129818452,-0.43574470214843747,2.896984008789062,9.658209497070311,10.092739988820139
1.9049987565282267,-0.5315127685546874,2.844311572265625,9.399635717773437,9.834925814163674
1.9074857000746082,-0.6177040283203125,2.786850732421875,9.165003955078124,9.599239176518164
1.9099726436209896,-0.6943184814453125,2.7054478759765623,8.963891015625,9.388975902797132
1.9124595871673713,-0.7757213378906249,2.6240450195312497,8.82981572265625,9.244079270249314
1.9149465307137528,-0.8283937744140625,2.5570073730468748,8.777143286132812,9.179475323601581
1.9174334742601342,-0.8571241943359375,2.4899697265625,8.786720092773438,9.172843676443103
1.9199204178065157,-0.8810662109374999,2.427720483398437,8.844180932617187,9.213557444463973
1.9224073613528971,-0.8762778076171874,2.365471240234375,8.973467822265624,9.321289703776774
1.9248943048992786,-0.842758984375,2.3367408203125,9.121908325195312,9.45408968967013
1.9273812484456603,-0.7948749511718749,2.327164013671875,9.294290844726563,9.614122988650493
1.9298681919920417,-0.737414111328125,2.31758720703125,9.481038574218749,9.788007073945371
1.9323551355384232,-0.6847416748046875,2.3319524169921872,9.648632690429688,9.95002442364633
1.9348420790848047,-0.622492431640625,2.375048046875,9.801861596679688,10.104693998972888
1.9373290226311861,-0.55545478515625,2.422932080078125,9.9215716796875,10.228231248764457
1.9398159661775676,-0.49799394531249996,2.47081611328125,9.988609326171874,10.301710853353724
1.9423029097239493,-0.44053310546874996,2.5139117431640625,10.01733974609375,10.33735542864333
1.9447898532703307,-0.4070142822265625,2.5713725830078125,9.983820922851562,10.317669204144378
1.9472767968167122,-0.38786066894531246,2.6384102294921874,9.888052856445311,10.241349214310583
1.9497637403630936,-0.38786066894531246,2.6958710693359373,9.758765966796874,10.131716040025506
1.952250683909475,-0.39743747558593745,2.7341782958984373,9.619902270507811,10.008806482037883
1.9547376274558566,-0.411802685546875,2.7581203125,9.481038574218749,9.88265660416634
1.9572245710022382,-0.45010991210937495,2.767697119140625,9.337386474609374,9.749334974884006
1.9597115145486197,-0.49320554199218747,2.767697119140625,9.208099584960937,9.627694273111755
1.9621984580950012,-0.5410895751953124,2.7533319091796873,9.102754711914063,9.525426913045198
1.9646854016413826,-0.59376201171875,2.729389892578125,9.030928662109375,9.453030996054999
1.967172345187764,-0.6272808349609375,2.6862942626953124,9.026140258789061,9.438266052778536
1.9696592887341455,-0.6655880615234374,2.6527754394531247,9.074024291992187,9.477243367745315
1.9721462322805272,-0.7038952880859375,2.6048914062499997,9.117119921875,9.508038887425457
1.9746331758269087,-0.7326257080078125,2.5426421630859375,9.188945971679686,9.562347916070856
1.9771201193732901,-0.7326257080078125,2.4899697265625,9.303867651367186,9.659122265578194
1.9796070629196716,-0.7326257080078125,2.461239306640625,9.423577734375,9.767203113911117
1.982094006466053,-0.718260498046875,2.43250888671875,9.543287817382812,9.874580497035174
1.9845809500124345,-0.6943184814453125,2.398990063476562,9.648632690429688,9.966611473974705
1.9870678935588162,-0.6703764648437499,2.39420166015625,9.739612353515625,10.051947820739299
1.9895548371051976,-0.622492431640625,2.403778466796875,9.801861596679688,10.111485474713904
1.992041780651579,-0.5746083984375,2.418143676757812,9.80665,10.116717742207632
1.9945287241979606,-0.5267243652343749,2.446874096679687,9.782707983398437,10.09782188842629
1.997015667744342,-0.4740519287109375,2.4899697265625,9.753977563476562,10.07793395389732
1.9995026112907235,-0.4213794921875,2.518700146484375,9.686939916992188,10.017894791808967
2.001989554837105,-0.38786066894531246,2.5570073730468748,9.605537060546874,9.947616037316191
2.0044764983834864,-0.3591302490234375,2.6001030029296874,9.524134204101562,9.879202523450205
2.006963441929868,-0.3495534423828125,2.6384102294921874,9.4618849609375,9.829072344946187
2.0094503854762498,-0.354341845703125,2.6767174560546874,9.414000927734374,9.79355849273122
2.011937329022631,-0.3591302490234375,2.710236279296875,9.34696328125,9.738587053901421
2.0144242725690127,-0.3591302490234375,2.729389892578125,9.294290844726563,9.693419728240352
2.016911216115394,-0.38307226562499996,2.7341782958984373,9.270348828125,9.672737084691784
2.0193981596617756,-0.4261678955078125,2.7437551025390623,9.270348828125,9.677250566818515
2.021885103208157,-0.4644751220703125,2.7437551025390623,9.275137231445312,9.683599530333458
2.0243720467545385,-0.49320554199218747,2.7150246826171873,9.3086560546875,9.709051873295488
2.02685899030092,-0.5315127685546874,2.6862942626953124,9.351751684570312,9.744431346096604
2.0293459338473014,-0.5698199951171875,2.6671406494140624,9.399635717773437,9.787312485939864
2.031832877393683,-0.5985504150390625,2.6336218261718747,9.452308154296874,9.830582687024178
2.0343198209400644,-0.63206923828125,2.6001030029296874,9.509768994140625,9.879056304614517
2.036806764486446,-0.6512228515624999,2.5809493896484375,9.548076220703125,9.912171834198613
2.0392937080328277,-0.6703764648437499,2.5426421630859375,9.586383447265625,9.940481948684736
2.041780651579209,-0.6703764648437499,2.5043349365234375,9.6151138671875,9.958489481738162
2.0442675951255906,-0.6703764648437499,2.4947581298828125,9.629479077148437,9.969959379479553
2.046754538671972,-0.6607996582031249,2.4899697265625,9.619902270507811,9.958871679141188
2.0492414822183536,-0.6464344482421874,2.4947581298828125,9.576806640625,9.917505787969557
2.0517284257647352,-0.622492431640625,2.499546533203125,9.5384994140625,9.880192344846748
2.0542153693111165,-0.5985504150390625,2.5139117431640625,9.509768994140625,9.854629428531547
2.056702312857498,-0.5793968017578125,2.5378537597656248,9.466673364257812,9.818060243520204
2.0591892564038794,-0.565031591796875,2.5570073730468748,9.437942944335937,9.794504297108919
2.061676199950261,-0.5506663818359374,2.5665841796874997,9.404424121093749,9.763901928272137
2.0641631434966423,-0.5267243652343749,2.5809493896484375,9.375693701171874,9.738704774612081
2.066650087043024,-0.5267243652343749,2.6096798095703124,9.351751684570312,9.723328999641746
2.0691370305894057,-0.5219359619140624,2.6144682128906247,9.332598071289063,9.705938797704372
2.071623974135787,-0.507570751953125,2.6288334228515624,9.342174877929686,9.718262431276502
2.0741109176821686,-0.51714755859375,2.6527754394531247,9.366116894531249,9.74827188847074
2.07659786122855,-0.5219359619140624,2.6575638427734374,9.404424121093749,9.78663659160622
2.0790848047749315,-0.5267243652343749,2.6479870361328124,9.447519750976562,9.825726606493346
2.081571748321313,-0.5363011718749999,2.6431986328124997,9.466673364257812,9.843374550681522
2.0840586918676944,-0.5458779785156249,2.6384102294921874,9.495403784179686,9.870252495814443
2.086545635414076,-0.55545478515625,2.6288334228515624,9.528922607421874,9.900487929475503
2.0890325789604574,-0.5698199951171875,2.6240450195312497,9.552864624023437,9.923080651505385
2.091519522506839,-0.5793968017578125,2.6001030029296874,9.562441430664062,9.926556421771435
2.0940064660532203,-0.584185205078125,2.5809493896484375,9.567229833984374,9.926452478203856
2.096493409599602,-0.5985504150390625,2.5761609863281247,9.562441430664062,9.92144919564189
2.0989803531459836,-0.6081272216796875,2.5617957763671875,9.548076220703125,9.90446242023852
2.101467296692365,-0.5793968017578125,2.5522189697265625,9.519345800781249,9.872561308909198
2.1039542402387466,-0.5698199951171875,2.5378537597656248,9.495403784179686,9.84520642533237
2.106441183785128,-0.5793968017578125,2.5474305664062498,9.481038574218749,9.834388419742833
2.1089281273315095,-0.5746083984375,2.5617957763671875,9.452308154296874,9.810152998559953
2.111415070877891,-0.5602431884765625,2.5522189697265625,9.428366137695312,9.783750923143236
2.1139020144242724,-0.5458779785156249,2.5617957763671875,9.418789331054686,9.77621464729732
2.116388957970654,-0.5315127685546874,2.5809493896484375,9.418789331054686,9.780460011566577
2.1188759015170353,-0.5219359619140624,2.5761609863281247,9.418789331054686,9.778681661584441
2.121362845063417,-0.507570751953125,2.5809493896484375,9.433154541015625,9.793024681621537
2.1238497886097982,-0.5027823486328125,2.6048914062499997,9.442731347656249,9.808334447420817
2.12633673215618,-0.5027823486328125,2.6096798095703124,9.457096557617186,9.823435961957022
2.1288236757025616,-0.49799394531249996,2.6048914062499997,9.481038574218749,9.844975858464402
2.131310619248943,-0.49799394531249996,2.6096798095703124,9.495403784179686,9.860077063728292
2.1337975627953245,-0.5027823486328125,2.6144682128906247,9.5001921875,9.8661991529539
2.1362845063417057,-0.5123591552734374,2.6096798095703124,9.528922607421874,9.893093887692928
2.1387714498880874,-0.5315127685546874,2.6192566162109374,9.543287817382812,9.910466861359692
2.141258393434469,-0.5410895751953124,2.6240450195312497,9.528922607421874,9.898421907109613
2.1437453369808503,-0.5458779785156249,2.6192566162109374,9.514557397460937,9.883586922700266
2.146232280527232,-0.5698199951171875,2.6096798095703124,9.519345800781249,9.887015121368323
2.1487192240736133,-0.59376201171875,2.5905261962890624,9.524134204101562,9.887998363569722
2.151206167619995,-0.59376201171875,2.5713725830078125,9.509768994140625,9.869154807232631
2.153693111166376,-0.5985504150390625,2.5570073730468748,9.504980590820312,9.861095544463117
2.156180054712758,-0.612915625,2.5474305664062498,9.5001921875,9.854883036011438
2.1586669982591395,-0.622492431640625,2.5474305664062498,9.471461767578125,9.827791579638067
2.161153941805521,-0.6177040283203125,2.5378537597656248,9.442731347656249,9.797317759293595
2.1636408853519025,-0.6081272216796875,2.528276953125,9.437942944335937,9.789625635844885
2.1661278288982837,-0.5985504150390625,2.5330653564453125,9.428366137695312,9.781041392704893
2.1686147724446654,-0.603338818359375,2.5330653564453125,9.428366137695312,9.781335586524078
2.171101715991047,-0.584185205078125,2.528276953125,9.414000927734374,9.765084237881354
2.1735886595374283,-0.5698199951171875,2.5426421630859375,9.423577734375,9.77719496134479
2.17607560308381,-0.565031591796875,2.5474305664062498,9.442731347656249,9.79662383142271
2.178562546630191,-0.55545478515625,2.5570073730468748,9.442731347656249,9.798570917648096
2.181049490176573,-0.5458779785156249,2.5713725830078125,9.437942944335937,9.797178509581881
2.1835364337229546,-0.5363011718749999,2.5809493896484375,9.442731347656249,9.803779577432937
2.186023377269336,-0.5315127685546874,2.5905261962890624,9.447519750976562,9.810655495016059
2.1885103208157175,-0.51714755859375,2.5905261962890624,9.457096557617186,9.819111103919447
2.1909972643620987,-0.51714755859375,2.5953145996093747,9.476250170898437,9.838821919811219
2.1934842079084804,-0.5219359619140624,2.6096798095703124,9.471461767578125,9.838263763058613
2.1959711514548617,-0.5267243652343749,2.6336218261718747,9.457096557617186,9.831077142425201
2.1984580950012433,-0.5363011718749999,2.6288334228515624,9.4618849609375,9.834919985748293
2.200945038547625,-0.5506663818359374,2.6288334228515624,9.471461767578125,9.8449269496467
2.2034319820940063,-0.55545478515625,2.6288334228515624,9.476250170898437,9.84980266223172
2.205918925640388,-0.5506663818359374,2.6240450195312497,9.476250170898437,9.848256852360407
2.208405869186769,-0.565031591796875,2.6336218261718747,9.481038574218749,9.856232397262216
2.210892812733151,-0.5698199951171875,2.6240450195312497,9.490615380859374,9.863168223180958
2.2133797562795325,-0.565031591796875,2.6192566162109374,9.485826977539062,9.857011685551617
2.2158666998259138,-0.5698199951171875,2.6192566162109374,9.485826977539062,9.857287329494255
2.2183536433722955,-0.5793968017578125,2.6144682128906247,9.495403784179686,9.865791286800901
2.2208405869186767,-0.5793968017578125,2.6144682128906247,9.490615380859374,9.861182738267617
2.2233275304650584,-0.59376201171875,2.6048914062499997,9.495403784179686,9.864112002077496
2.2258144740114396,-0.5889736083984375,2.5953145996093747,9.495403784179686,9.861300158039473
2.2283014175578213,-0.5793968017578125,2.6001030029296874,9.490615380859374,9.857383861204537
2.230788361104203,-0.5698199951171875,2.6048914062499997,9.485826977539062,9.853479969685752
2.233275304650584,-0.5698199951171875,2.6048914062499997,9.476250170898437,9.8442608339399
2.235762248196966,-0.5698199951171875,2.6096798095703124,9.471461767578125,9.840920259305449
2.238249191743347,-0.5746083984375,2.6144682128906247,9.466673364257812,9.837861730748136
2.240736135289729,-0.5698199951171875,2.6144682128906247,9.466673364257812,9.837583211775094
2.2432230788361105,-0.55545478515625,2.6144682128906247,9.471461767578125,9.841369928483667
2.2457100223824917,-0.5458779785156249,2.6096798095703124,9.471461767578125,9.839562972541076
2.2481969659288734,-0.55545478515625,2.6001030029296874,9.457096557617186,9.82373355421918
2.2506839094752547,-0.5602431884765625,2.6001030029296874,9.442731347656249,9.810177539682366
2.2531708530216363,-0.5602431884765625,2.5953145996093747,9.423577734375,9.790472287739147
2.2556577965680176,-0.5602431884765625,2.5809493896484375,9.414000927734374,9.777452922389587
2.2581447401143993,-0.5506663818359374,2.5713725830078125,9.418789331054686,9.778997028709956
2.260631683660781,-0.55545478515625,2.5665841796874997,9.423577734375,9.78262243396848
2.263118627207162,-0.565031591796875,2.5665841796874997,9.433154541015625,9.792396011489444
2.265605570753544,-0.5698199951171875,2.5617957763671875,9.452308154296874,9.809873692888981
2.268092514299925,-0.5698199951171875,2.5474305664062498,9.471461767578125,9.824595937349809
2.2705794578463068,-0.5746083984375,2.5426421630859375,9.495403784179686,9.846720114112676
2.2730664013926885,-0.5698199951171875,2.5426421630859375,9.5001921875,9.851059617917947
2.2755533449390697,-0.5746083984375,2.5426421630859375,9.481038574218749,9.832868168895642
2.2780402884854514,-0.5698199951171875,2.5378537597656248,9.481038574218749,9.831352347394317
2.2805272320318326,-0.565031591796875,2.5330653564453125,9.471461767578125,9.820604299860884
2.2830141755782143,-0.5698199951171875,2.5378537597656248,9.471461767578125,9.822117111269138
2.2855011191245955,-0.5698199951171875,2.5474305664062498,9.490615380859374,9.843062410901434
2.287988062670977,-0.5746083984375,2.5570073730468748,9.5001921875,9.85505520617754
2.290475006217359,-0.565031591796875,2.5570073730468748,9.5001921875,9.85450145897704
2.29296194976374,-0.55545478515625,2.5617957763671875,9.495403784179686,9.850584786842841
2.295448893310122,-0.5506663818359374,2.5713725830078125,9.490615380859374,9.84819631872421
2.297935836856503,-0.5458779785156249,2.5809493896484375,9.476250170898437,9.836594930198538
2.3004227804028847,-0.5410895751953124,2.5905261962890624,9.4618849609375,9.825012514804252
2.3029097239492664,-0.5410895751953124,2.6001030029296874,9.466673364257812,9.832152263862543
2.3053966674956476,-0.5410895751953124,2.6096798095703124,9.476250170898437,9.84390796067886
2.3078836110420293,-0.5458779785156249,2.6048914062499997,9.481038574218749,9.84751412548402
2.3103705545884106,-0.5410895751953124,2.6096798095703124,9.481038574218749,9.848517608385938
2.3128574981347922,-0.5458779785156249,2.6144682128906247,9.476250170898437,9.84544280899018
2.315344441681174,-0.5458779785156249,2.6192566162109374,9.471461767578125,9.84210729486766
2.317831385227555,-0.5410895751953124,2.6192566162109374,9.476250170898437,9.846451160260862
2.320318328773937,-0.55545478515625,2.6192566162109374,9.476250170898437,9.847251014439024
2.322805272320318,-0.55545478515625,2.6192566162109374,9.485826977539062,9.856467353353615
2.3252922158666998,-0.5506663818359374,2.6192566162109374,9.481038574218749,9.851590284389264
2.327779159413081,-0.5602431884765625,2.6240450195312497,9.476250170898437,9.848796982180808
2.3302661029594627,-0.565031591796875,2.6288334228515624,9.485826977539062,9.859560807289432
2.3327530465058444,-0.55545478515625,2.6288334228515624,9.490615380859374,9.863623851853788
2.3352399900522256,-0.55545478515625,2.6288334228515624,9.490615380859374,9.863623851853788
2.3377269335986073,-0.5602431884765625,2.6288334228515624,9.485826977539062,9.859287552513301
2.3402138771449885,-0.565031591796875,2.6288334228515624,9.481038574218749,9.85495399840374
2.34270082069137,-0.565031591796875,2.6288334228515624,9.476250170898437,9.850347362721918
2.345187764237752,-0.565031591796875,2.6240450195312497,9.471461767578125,9.84446346831301
2.347674707784133,-0.565031591796875,2.6192566162109374,9.471461767578125,9.84318819976472
2.350161651330515,-0.5746083984375,2.6192566162109374,9.471461767578125,9.843742583378225
2.352648594876896,-0.565031591796875,2.6192566162109374,9.466673364257812,9.838580716081035
2.3551355384232777,-0.5458779785156249,2.6096798095703124,9.4618849609375,9.830344779809225
2.357622481969659,-0.5458779785156249,2.6001030029296874,9.457096557617186,9.823196714581618
2.3601094255160406,-0.5602431884765625,2.5857377929687497,9.457096557617186,9.820213218882579
2.3625963690624223,-0.5602431884765625,2.5857377929687497,9.457096557617186,9.820213218882579
2.3650833126088036,-0.5602431884765625,2.5809493896484375,9.452308154296874,9.814341629775694
2.3675702561551852,-0.5602431884765625,2.5713725830078125,9.471461767578125,9.830280637172715
2.3700571997015665,-0.5602431884765625,2.5713725830078125,9.490615380859374,9.848736451864431
2.372544143247948,-0.5458779785156249,2.5665841796874997,9.481038574218749,9.837450358943334
2.37503108679433,-0.5315127685546874,2.5617957763671875,9.4618849609375,9.81695321558398
2.377518030340711,-0.5363011718749999,2.5426421630859375,9.466673364257812,9.816850447165077
2.3800049738870928,-0.5458779785156249,2.5378537597656248,9.476250170898437,9.825375401216865
2.382491917433474,-0.5506663818359374,2.5378537597656248,9.481038574218749,9.830260811182209
2.3849788609798557,-0.5458779785156249,2.5330653564453125,9.466673364257812,9.814902315000392
2.387465804526237,-1.5275006591796874,0.19153613281249998,28.347347656249998,28.38911875170255
2.3899527480726186,-1.1348515869140625,0.3016694091796875,26.56606162109375,26.59200110207027
2.3924396916190003,-0.7326257080078125,0.622492431640625,23.573309545898436,23.59290486994406
2.3949266351653815,-0.33039982910156246,1.1013327636718748,19.646818823242185,19.6804366764742
2.397413578711763,0.0383072265625,1.695094775390625,15.1313544921875,15.226053412142173
2.3999005222581444,0.3447650390625,2.3415292236328122,10.395623608398436,10.661642098887825
2.402387465804526,0.5698199951171875,2.959233251953125,5.774814404296874,6.513849681284876
2.404874409350908,0.7038952880859375,3.5242648437499997,1.6232687255859375,3.9434645454152606
2.407361352897289,0.74699091796875,3.9647979492187497,-1.7621324218749999,4.402582069863099
2.4098482964436707,0.6943184814453125,4.256890551757812,-4.151545678710937,5.986528781000297
2.412335239990052,0.5602431884765625,4.376600634765625,-5.430049365234375,6.996709344781123
2.4148221835364336,0.354341845703125,4.3239281982421875,-5.5449710449218745,7.040498355670017
2.417309127082815,0.09576806640624999,4.11802685546875,-4.529829541015625,6.122636064275163
2.4197960706291965,-0.201112939453125,3.778050219726562,-2.5234885498046875,4.5477581661942805
2.4222830141755782,-0.5123591552734374,3.347093920898437,0.3112462158203125,3.4003564263427224
2.4247699577219595,-0.8044517578125,2.858676782226562,3.7205893798828122,4.760458056698494
2.427256901268341,-1.0630255371093749,2.375048046875,7.388506323242187,7.83331999895965
2.4297438448147224,-1.2928688964843749,1.9393033447265624,11.0707884765625,11.313477137430091
2.432230788361104,-1.4508862060546874,1.5753846923828123,14.480131640624998,14.637661016765726
2.4347177319074857,-1.5227122558593749,1.3311761230468748,17.348385229492187,17.465885392833
2.437204675453867,-1.5227122558593749,1.2114660400390624,19.507955126953124,19.604760029531832
2.4396916190002487,-1.4700398193359374,1.2306196533203124,20.848708056640625,20.936668059474105
2.44217856254663,-1.35990654296875,1.37906015625,21.28445275878906,21.372390646843623
2.4446655060930116,-1.1875240234375,1.637633935546875,20.80561242675781,20.903721359259336
2.4471524496393933,-0.97683427734375,1.9776105712890624,19.512743530273436,19.637013745865122
2.4496393931857745,-0.7565677246093749,2.346317626953125,17.520767749023438,17.69335761362697
2.452126336732156,-0.5315127685546874,2.73896669921875,15.006856005859374,15.264015578581
2.4546132802785374,-0.316034619140625,3.1076737548828124,12.181698046874999,12.575821299323593
2.457100223824919,-0.13407529296874998,3.399766357421875,9.275137231445312,9.87950191717099
2.4595871673713003,0.009576806640625,3.6008792968749996,6.517016918945312,7.445665379783587
2.462074110917682,0.1005564697265625,3.7158009765625,4.0988732421875,5.533357963890224
2.4645610544640637,0.15322890625,3.7158009765625,2.1883003173828124,4.315010344621565
2.467047998010445,0.1484405029296875,3.6104561035156246,0.8954314208984374,3.722798045537179
2.4695349415568266,0.076614453125,3.423708374023437,0.3016694091796875,3.437826818968732
2.472021885103208,-0.01915361328125,3.1651345947265623,0.4213794921875,3.193118309751896
2.4745088286495895,-0.15322890625,2.863465185546875,1.20667763671875,3.111106376436961
2.4769957721959712,-0.316034619140625,2.5570073730468748,2.5809493896484375,3.6468430646571677
2.4794827157423525,-0.47884033203125,2.269703173828125,4.42448466796875,4.995688655026032
2.481969659288734,-0.6416460449218749,2.020706201171875,6.5505357421875,6.885091263599509
2.4844566028351154,-0.7900865478515624,1.8291700683593748,8.810662109374999,9.033153751467653
2.486943546381497,-0.9193734375,1.7094599853515624,11.027692846679686,11.197209941758217
2.4894304899278783,-1.024718310546875,1.6903063720703124,13.038822241210937,13.187799994135812
2.49191743347426,-1.0773907470703123,1.7573440185546874,14.69082138671875,14.834731606533893
2.4944043770206417,-1.0869675537109373,1.8770541015625,15.86398020019531,16.011580132991302
2.496891320567023,-1.0630255371093749,2.0542250244140625,16.5104146484375,16.671642258842265
2.4993782641134046,-1.01514150390625,2.27927998046875,16.615759521484375,16.802056242559043
2.501865207659786,-0.928950244140625,2.5139117431640625,16.194380029296873,16.414647280456453
2.5043521512061675,-0.8283937744140625,2.7341782958984373,15.279794995117186,15.544584339636048
2.506839094752549,-0.70868369140625,2.93050283203125,13.977349291992187,14.298824170307253
2.5093260382989304,-0.5793968017578125,3.0741549316406247,12.382810986328124,12.771849400957798
2.511812981845312,-0.45968671875,3.1651345947265623,10.625466967773438,11.096392979945081
2.5142999253916933,-0.3447650390625,3.19865341796875,8.858546142578124,9.42465311725735
2.516786868938075,-0.26336218261718747,3.1555577880859373,7.235277416992187,7.897856917798641
2.5192738124844563,-0.21068974609375,3.0741549316406247,5.84185205078125,6.604699394829148
2.521760756030838,-0.16759411621093748,2.959233251953125,4.76924970703125,5.615237483425902
2.5242476995772196,-0.1580173095703125,2.8012159423828122,4.07971962890625,4.951352590602533
2.526734643123601,-0.1867477294921875,2.6192566162109374,3.816357446289062,4.632490053295444
2.5292215866699825,-0.2346317626953125,2.4564509033203126,3.9983167724609374,4.698482746316213
2.5317085302163638,-0.296881005859375,2.3127988037109373,4.572925170898437,5.133110290722704
2.5341954737627455,-0.37828386230468747,2.1978771240234374,5.506663818359375,5.941137007443435
2.536682417309127,-0.4836287353515625,2.1260510742187497,6.7037646484375,7.049429082236717
2.5391693608555084,-0.5746083984375,2.1021090576171875,8.058882788085937,8.348330916643091
2.54165630440189,-0.6607996582031249,2.1212626708984375,9.442731347656249,9.700597239924898
2.5441432479482713,-0.74699091796875,2.1883003173828124,10.764330664062498,11.009880487810106
2.546630191494653,-0.7996633544921875,2.2936451904296873,11.93270107421875,12.177422743206389
2.549117135041034,-0.8379705810546875,2.427720483398437,12.871228125,13.124958471782548
2.551604078587416,-0.86191259765625,2.5617957763671875,13.503297363281249,13.771155746959282
2.5540910221337976,-0.852335791015625,2.70065947265625,13.80975517578125,14.097140699550076
2.556577965680179,-0.833182177734375,2.844311572265625,13.7906015625,14.105495110666828
2.5590649092265605,-0.7948749511718749,2.9448680419921875,13.464990136718749,13.806159254285046
2.5615518527729417,-0.7326257080078125,3.0071172851562498,12.861651318359375,13.228815874059737
2.5640387963193234,-0.6560112548828124,3.0358477050781247,11.999738720703125,12.395178555394144
2.566525739865705,-0.59376201171875,3.0310593017578125,10.998962426757812,11.424405817484029
2.5690126834120863,-0.5267243652343749,2.978386865234375,9.9215716796875,10.37235804776856
2.571499626958468,-0.45968671875,2.906560815429687,8.858546142578124,9.334519131341056
2.5739865705048492,-0.411802685546875,2.8012159423828122,7.886500268554687,8.379336411291552
2.576473514051231,-0.3687070556640625,2.6910826660156246,7.062894897460937,7.567189381851492
2.5789604575976126,-0.3447650390625,2.5809493896484375,6.478709692382812,6.982395145096087
2.581447401143994,-0.3399766357421875,2.47081611328125,6.143521459960938,6.6304880896885265
2.5839343446903755,-0.3399766357421875,2.379836450195312,6.0716954101562495,6.5302902535983245
2.5864212882367568,-0.373495458984375,2.31758720703125,6.2392895263671875,6.666291556323662
2.5889082317831384,-0.4070142822265625,2.288856787109375,6.641515405273437,7.036636476067059
2.5913951753295197,-0.44532150878906246,2.288856787109375,7.249642626953125,7.615411666917463
2.5938821188759014,-0.49799394531249996,2.308010400390625,7.987056738281249,8.328744522339674
2.596369062422283,-0.55545478515625,2.346317626953125,8.796296899414061,9.120777136162541
2.5988560059686643,-0.612915625,2.403778466796875,9.634267480468749,9.948513776741887
2.601342949515046,-0.6655880615234374,2.4756045166015626,10.419565624999999,10.730282988064303
2.603829893061427,-0.6943184814453125,2.5522189697265625,11.104307299804686,11.414970014485553
2.606316836607809,-0.7134720947265625,2.6336218261718747,11.635820068359374,11.95145660647593
2.6088037801541906,-0.737414111328125,2.710236279296875,11.980585107421874,12.305428874175073
2.611290723700572,-0.737414111328125,2.748543505859375,12.109871997070313,12.439745606748367
2.6137776672469535,-0.718260498046875,2.7629087158203123,12.052411157226562,12.385886218508942
2.6162646107933347,-0.6943184814453125,2.77727392578125,11.789048974609374,12.131652992821682
2.6187515543397164,-0.6703764648437499,2.77727392578125,11.386823095703125,11.739778331650003
2.6212384978860976,-0.6416460449218749,2.73896669921875,10.8409451171875,11.199988359827195
2.6237254414324793,-0.5985504150390625,2.6815058593749996,10.204087475585936,10.567503843510806
2.626212384978861,-0.5410895751953124,2.6192566162109374,9.557653027343749,9.924818111232213
2.6286993285252422,-0.5027823486328125,2.5617957763671875,8.920795385742187,9.294954437983469
2.631186272071624,-0.469263525390625,2.5043349365234375,8.365340600585936,8.7447598648771
2.633673215618005,-0.44053310546874996,2.4516625,7.900865478515625,8.284225596911284
2.636160159164387,-0.430956298828125,2.4133552734375,7.560888842773437,7.948399027483715
2.6386471027107685,-0.4261678955078125,2.403778466796875,7.4028715332031245,7.795016159682228
2.6411340462571498,-0.4261678955078125,2.398990063476562,7.3932947265625,7.784444701687957
2.6436209898035314,-0.430956298828125,2.4133552734375,7.5465236328125,7.934735405035621
2.6461079333499127,-0.44532150878906246,2.446874096679687,7.829039428710937,8.214582306331994
2.6485948768962944,-0.47884033203125,2.499546533203125,8.221688500976562,8.60657787638721
2.6510818204426756,-0.5123591552734374,2.5522189697265625,8.690952026367187,9.072429702017015
2.6535687639890573,-0.5315127685546874,2.6048914062499997,9.208099584960937,9.584209045510724
2.656055707535439,-0.5602431884765625,2.6575638427734374,9.725247143554688,10.097373421433403
2.65854265108182,-0.5985504150390625,2.710236279296875,10.189722265624999,10.560969801089968
2.661029594628202,-0.6177040283203125,2.7437551025390623,10.582371337890624,10.949718419316604
2.663516538174583,-0.6368576416015624,2.7629087158203123,10.888829150390624,11.25192661254146
2.666003481720965,-0.6560112548828124,2.77727392578125,11.080365283203124,11.441944591483145
2.6684904252673465,-0.6560112548828124,2.7724855224609373,11.133037719726563,11.491803844812303
2.6709773688137277,-0.6560112548828124,2.748543505859375,11.061211669921875,11.416446284941323
2.6734643123601094,-0.6607996582031249,2.7198130859375,10.855310327148437,11.210343514335936
2.6759512559064906,-0.6512228515624999,2.6767174560546874,10.563217724609375,10.916523083814129
2.6784381994528723,-0.63206923828125,2.6240450195312497,10.218452685546874,10.568911915295175
2.6809251429992536,-0.6081272216796875,2.5905261962890624,9.82580361328125,10.179737783370385
2.6834120865456352,-0.5793968017578125,2.5665841796874997,9.433154541015625,9.793235400009184
2.685899030092017,-0.5602431884765625,2.5234885498046875,9.064447485351561,9.425819598630454
2.688385973638398,-0.5506663818359374,2.5043349365234375,8.729259252929687,9.098070896801953
2.69087291718478,-0.5219359619140624,2.4899697265625,8.44674345703125,8.821555498688262
2.693359860731161,-0.5123591552734374,2.480392919921875,8.279149340820313,8.657896670023066
2.6958468042775428,-0.51714755859375,2.4947581298828125,8.202534887695313,8.589111613422812
2.6983337478239244,-0.5123591552734374,2.50912333984375,8.207323291015625,8.597579161705271
2.7008206913703057,-0.51714755859375,2.5234885498046875,8.322244970703125,8.711784972710719
2.7033076349166874,-0.5219359619140624,2.5378537597656248,8.518569506835936,8.903883719877003
2.7057945784630686,-0.5219359619140624,2.5665841796874997,8.777143286132812,9.159586004021557
2.7082815220094503,-0.5315127685546874,2.5905261962890624,9.074024291992187,9.45152097011168
2.7107684655558315,-0.5506663818359374,2.6001030029296874,9.3852705078125,9.754336040692024
2.713255409102213,-0.5602431884765625,2.6096798095703124,9.6917283203125,10.052556837614034
2.715742352648595,-0.5746083984375,2.6192566162109374,9.969455712890625,10.323794227143777
2.718229296194976,-0.5889736083984375,2.6192566162109374,10.194510668945313,10.54207962938027
2.720716239741358,-0.59376201171875,2.6096798095703124,10.352527978515624,10.692886307306743
2.723203183287739,-0.5985504150390625,2.5953145996093747,10.43871923828125,10.773150876412716
2.7256901268341207,-0.59376201171875,2.5665841796874997,10.457872851562499,10.784572882475707
2.7281770703805024,-0.5793968017578125,2.5522189697265625,10.40041201171875,10.724648821142022
2.7306640139268836,-0.5698199951171875,2.5330653564453125,10.261548315429687,10.584917985358064
2.7331509574732653,-0.5602431884765625,2.50912333984375,10.070012182617187,10.39301292806093
2.7356379010196465,-0.5602431884765625,2.4947581298828125,9.835380419921874,10.162302817837764
2.7381248445660282,-0.5458779785156249,2.4899697265625,9.595960253906249,9.928765542663122
2.74061178811241,-0.5315127685546874,2.4899697265625,9.361328491210937,9.701387848276763
2.743098731658791,-0.5267243652343749,2.499546533203125,9.141061938476563,9.491268871528412
2.745585675205173,-0.5123591552734374,2.5139117431640625,8.949525805664061,9.310009468451558
2.748072618751554,-0.5123591552734374,2.5330653564453125,8.796296899414061,9.168084377156298
2.7505595622979357,-0.5123591552734374,2.5570073730468748,8.710105639648438,9.092125101627458
2.753046505844317,-0.49799394531249996,2.5857377929687497,8.681375219726561,9.071952028600966
2.7555334493906987,-0.49320554199218747,2.5953145996093747,8.71489404296875,9.106497008058016
2.7580203929370803,-0.49799394531249996,2.6096798095703124,8.825027319335938,9.216264637317686
2.7605073364834616,-0.507570751953125,2.6384102294921874,8.963891015625,9.357893926911647
2.7629942800298433,-0.5123591552734374,2.6527754394531247,9.126696728515624,9.518210052864772
2.7654812235762245,-0.5219359619140624,2.6575638427734374,9.3086560546875,9.694644927547689
2.767968167122606,-0.5267243652343749,2.6575638427734374,9.5001921875,9.878954182239347
2.770455110668988,-0.5458779785156249,2.6623522460937497,9.672574707031249,10.047129127905611
2.772942054215369,-0.565031591796875,2.6527754394531247,9.82580361328125,10.193276945058694
2.775428997761751,-0.5793968017578125,2.6384102294921874,9.95987890625,10.319694618550487
2.777915941308132,-0.5889736083984375,2.6336218261718747,10.050858569335936,10.40685407870565
2.7804028848545137,-0.603338818359375,2.6096798095703124,10.098742602539062,10.44792077834416
2.782889828400895,-0.603338818359375,2.6048914062499997,10.089165795898436,10.437468247866496
2.7853767719472766,-0.59376201171875,2.5905261962890624,10.041281762695311,10.387045717529967
2.7878637154936583,-0.5985504150390625,2.5809493896484375,9.95987890625,10.306248113568476
2.7903506590400395,-0.5985504150390625,2.5617957763671875,9.830592016601562,10.176521979341791
2.792837602586421,-0.5985504150390625,2.5522189697265625,9.677363110351562,10.02613789244736
2.7953245461328025,-0.584185205078125,2.5617957763671875,9.504980590820312,9.86147686634795
2.797811489679184,-0.5793968017578125,2.5522189697265625,9.342174877929686,9.701842802949336
2.800298433225566,-0.5746083984375,2.5570073730468748,9.217676391601563,9.583006812982019
2.802785376771947,-0.565031591796875,2.5665841796874997,9.126696728515624,9.497536955729545
2.8052723203183287,-0.55545478515625,2.5665841796874997,9.064447485351561,9.437165495235917
2.80775926386471,-0.5410895751953124,2.5713725830078125,9.006986645507812,9.382459342911398
2.8102462074110917,-0.5315127685546874,2.5809493896484375,8.992621435546875,9.370754817949322
2.812733150957473,-0.5410895751953124,2.5905261962890624,9.016563452148437,9.396915472039954
2.8152200945038546,-0.5410895751953124,2.5953145996093747,9.054870678710937,9.43499437241537
2.8177070380502363,-0.5267243652343749,2.5857377929687497,9.126696728515624,9.500530072854685
2.8201939815966175,-0.51714755859375,2.5857377929687497,9.227253198242186,9.59664957762953
2.822680925142999,-0.51714755859375,2.5905261962890624,9.351751684570312,9.7176914512081
2.8251678686893804,-0.5123591552734374,2.5857377929687497,9.476250170898437,9.836049468126523
2.827654812235762,-0.5123591552734374,2.5761609863281247,9.605537060546874,9.958185555261114
2.8301417557821438,-0.5315127685546874,2.5665841796874997,9.730035546875,10.07687709154031
2.832628699328525,-0.5458779785156249,2.5617957763671875,9.80665,10.150426818106766
2.8351156428749067,-0.5410895751953124,2.5522189697265625,9.8449572265625,10.184781901968364
2.837602586421288,-0.5410895751953124,2.5617957763671875,9.873687646484374,10.214953904376463
2.8400895299676696,-0.5506663818359374,2.5713725830078125,9.859322436523437,10.203990853193812
2.842576473514051,-0.5506663818359374,2.5665841796874997,9.80665,10.151894997388736
2.8450634170604325,-0.5506663818359374,2.5665841796874997,9.749189160156249,10.096399214374129
2.847550360606814,-0.55545478515625,2.5761609863281247,9.667786303710937,10.02054027785193
2.8500373041531954,-0.565031591796875,2.5857377929687497,9.581595043945311,9.940435816395214
2.852524247699577,-0.55545478515625,2.5857377929687497,9.490615380859374,9.852225650062243
2.8550111912459584,-0.5458779785156249,2.5905261962890624,9.394847314453125,9.760735874050445
2.85749813479234,-0.5506663818359374,2.6001030029296874,9.313444458007812,9.685247377446004
2.8599850783387217,-0.5506663818359374,2.6001030029296874,9.246406811523437,9.620800799003963
2.862472021885103,-0.5458779785156249,2.5953145996093747,9.203311181640624,9.57781694043508
2.8649589654314846,-0.5458779785156249,2.5953145996093747,9.169792358398437,9.54561326131099
2.867445908977866,-0.5458779785156249,2.6001030029296874,9.1554271484375,9.53311935641313
2.8699328525242476,-0.55545478515625,2.6001030029296874,9.184157568359375,9.56126643727962
2.8724197960706292,-0.565031591796875,2.5953145996093747,9.236830004882812,9.611136619036142
2.8749067396170105,-0.565031591796875,2.6001030029296874,9.294290844726563,9.667659418491143
2.877393683163392,-0.5602431884765625,2.5953145996093747,9.34696328125,9.716751148517478
2.8798806267097734,-0.5698199951171875,2.5905261962890624,9.418789331054686,9.785147585156027
2.882367570256155,-0.5793968017578125,2.5857377929687497,9.495403784179686,9.858216553337018
2.8848545138025363,-0.5746083984375,2.5809493896484375,9.548076220703125,9.907433274054286
2.887341457348918,-0.5793968017578125,2.5761609863281247,9.600748657226562,9.957242633410312
2.8898284008952997,-0.5793968017578125,2.5761609863281247,9.65342109375,10.008039013444328
2.892315344441681,-0.5889736083984375,2.5761609863281247,9.682151513671874,10.036311736517929
2.8948022879880626,-0.584185205078125,2.5713725830078125,9.696516723632811,10.048664880777308
2.897289231534444,-0.5793968017578125,2.5857377929687497,9.6917283203125,10.047454325480729
2.8997761750808255,-0.5793968017578125,2.5905261962890624,9.677363110351562,10.034833501216665
2.902263118627207,-0.584185205078125,2.5905261962890624,9.648632690429688,10.007407812331847
2.9047500621735884,-0.584185205078125,2.6001030029296874,9.595960253906249,9.95912953898204
2.90723700571997,-0.5793968017578125,2.6048914062499997,9.5384994140625,9.904752948171547
2.9097239492663514,-0.5746083984375,2.6096798095703124,9.490615380859374,9.859634061537902
2.912210892812733,-0.5746083984375,2.6096798095703124,9.428366137695312,9.799729156791704
2.9146978363591143,-0.565031591796875,2.6096798095703124,9.375693701171874,9.748503566517346
2.917184779905496,-0.565031591796875,2.6192566162109374,9.34696328125,9.723450442221067
2.9196717234518776,-0.5746083984375,2.6192566162109374,9.313444458007812,9.691796928615256
2.922158666998259,-0.565031591796875,2.6240450195312497,9.294290844726563,9.674126072706684
2.9246456105446406,-0.565031591796875,2.6144682128906247,9.289502441406249,9.6669312785825
2.927132554091022,-0.5602431884765625,2.6048914062499997,9.303867651367186,9.677876055351518
2.9296194976374035,-0.5602431884765625,2.6144682128906247,9.351751684570312,9.726488371262958
2.932106441183785,-0.5602431884765625,2.6096798095703124,9.394847314453125,9.766650254851989
2.9345933847301664,-0.5506663818359374,2.6048914062499997,9.428366137695312,9.797080214476097
2.937080328276548,-0.5506663818359374,2.6144682128906247,9.466673364257812,9.836492366989775
2.9395672718229293,-0.5410895751953124,2.6048914062499997,9.514557397460937,9.87952628602803
2.942054215369311,-0.5363011718749999,2.6048914062499997,9.557653027343749,9.92077666195559
2.9445411589156922,-0.5410895751953124,2.6048914062499997,9.591171850585937,9.953331835833275
2.947028102462074,-0.5458779785156249,2.5953145996093747,9.619902270507811,9.978785513903745
2.9495150460084556,-0.5458779785156249,2.6001030029296874,9.634267480468749,9.993879540923531
2.952001989554837,-0.5458779785156249,2.6001030029296874,9.639055883789062,9.998495723061586
2.9544889331012185,-0.55545478515625,2.5905261962890624,9.610325463867188,9.96883701910443
2.9569758766475998,-0.55545478515625,2.5953145996093747,9.586383447265625,9.947006358061047
2.9594628201939814,-0.55545478515625,2.5857377929687497,9.543287817382812,9.90297492260518
2.961949763740363,-0.5602431884765625,2.5809493896484375,9.495403784179686,9.855854362092357
2.9644367072867444,-0.55545478515625,2.5761609863281247,9.466673364257812,9.826649481455028
2.966923650833126,-0.5698199951171875,2.5665841796874997,9.433154541015625,9.792673474232725
2.9694105943795073,-0.5698199951171875,2.5570073730468748,9.390058911132812,9.748650567498876
2.971897537925889,-0.565031591796875,2.5474305664062498,9.342174877929686,9.699736833554296
2.97438448147227,-0.565031591796875,2.5426421630859375,9.323021264648437,9.680031785604724
2.976871425018652,-0.5746083984375,2.5474305664062498,9.318232861328125,9.677243458761959
2.9793583685650336,-0.5698199951171875,2.5522189697265625,9.332598071289063,9.692053613992021
2.981845312111415,-0.5698199951171875,2.5522189697265625,9.342174877929686,9.701275583452313
2.9843322556577965,-0.5746083984375,2.5474305664062498,9.34696328125,9.704911121862557
2.9868191992041777,-0.565031591796875,2.5426421630859375,9.366116894531249,9.721544915868801
2.9893061427505594,-0.5506663818359374,2.5522189697265625,9.390058911132812,9.746294756883824
2.991793086296941,-0.5506663818359374,2.5617957763671875,9.414000927734374,9.771870063159902
2.9942800298433223,-0.5602431884765625,2.5665841796874997,9.447519750976562,9.805960239912704
2.996766973389704,-0.5602431884765625,2.5761609863281247,9.5001921875,9.859215458501223
2.9992539169360852,-0.55545478515625,2.5905261962890624,9.543287817382812,9.904226287672351
3.001740860482467,-0.5506663818359374,2.6001030029296874,9.567229833984374,9.929534520117695
3.0042278040288486,-0.5602431884765625,2.5953145996093747,9.581595043945311,9.942660302320366
3.00671474757523,-0.5602431884765625,2.6001030029296874,9.591171850585937,9.95313948076437
3.0092016911216115,-0.5506663818359374,2.6144682128906247,9.591171850585937,9.956367558892744
3.0116886346679927,-0.5458779785156249,2.6096798095703124,9.591171850585937,9.954847509800404
3.0141755782143744,-0.55545478515625,2.6096798095703124,9.576806640625,9.941538319533402
3.0166625217607557,-0.5506663818359374,2.6144682128906247,9.548076220703125,9.914859404785135
3.0191494653071373,-0.5506663818359374,2.6192566162109374,9.524134204101562,9.893071869919188
3.021636408853519,-0.565031591796875,2.6144682128906247,9.5001921875,9.869567180752155
3.0241233523999003,-0.565031591796875,2.6001030029296874,9.471461767578125,9.838108778635588
3.026610295946282,-0.5602431884765625,2.6001030029296874,9.442731347656249,9.810177539682366
3.029097239492663,-0.5602431884765625,2.6048914062499997,9.414000927734374,9.783800137777403
3.031584183039045,-0.5698199951171875,2.6144682128906247,9.390058911132812,9.763879619167556
3.0340711265854265,-0.565031591796875,2.6240450195312497,9.370905297851563,9.747755591189069
3.036558070131808,-0.5602431884765625,2.6192566162109374,9.380482104492186,9.755399641454845
3.0390450136781895,-0.565031591796875,2.6096798095703124,9.3852705078125,9.757714482040482
3.0415319572245707,-0.565031591796875,2.6048914062499997,9.394847314453125,9.765647751171999
3.0440189007709524,-0.5602431884765625,2.6001030029296874,9.428366137695312,9.796351161657997
3.0465058443173336,-0.5602431884765625,2.6001030029296874,9.452308154296874,9.819395984472036
3.0489927878637153,-0.5602431884765625,2.5953145996093747,9.471461767578125,9.836570454984507
3.051479731410097,-0.5602431884765625,2.5809493896484375,9.495403784179686,9.855854362092357
3.0539666749564782,-0.5602431884765625,2.5761609863281247,9.504980590820312,9.863829575250392
3.05645361850286,-0.5506663818359374,2.5857377929687497,9.5001921875,9.861182738267617
3.058940562049241,-0.5506663818359374,2.5713725830078125,9.509768994140625,9.866655803596625
3.061427505595623,-0.5602431884765625,2.5617957763671875,9.528922607421874,9.883169334190468
3.0639144491420045,-0.5506663818359374,2.5617957763671875,9.5384994140625,9.891865452783296
3.0664013926883857,-0.5506663818359374,2.5617957763671875,9.548076220703125,9.901100473192539
3.0688883362347674,-0.55545478515625,2.5617957763671875,9.5384994140625,9.892133171881401
3.0713752797811487,-0.55545478515625,2.5617957763671875,9.514557397460937,9.869049097443197
3.0738622233275303,-0.5602431884765625,2.5617957763671875,9.4618849609375,9.818550659036312
3.0763491668739116,-0.55545478515625,2.5570073730468748,9.447519750976562,9.803185511315254
3.0788361104202933,-0.5506663818359374,2.5617957763671875,9.433154541015625,9.790323572721217
3.081323053966675,-0.5506663818359374,2.5617957763671875,9.433154541015625,9.790323572721217
3.083809997513056,-0.5506663818359374,2.5474305664062498,9.433154541015625,9.786574505383836
3.086296941059438,-0.55545478515625,2.5426421630859375,9.433154541015625,9.785599817207887
3.088783884605819,-0.5506663818359374,2.5474305664062498,9.452308154296874,9.805037756099276
3.091270828152201,-0.5458779785156249,2.5522189697265625,9.476250170898437,9.829095672457008
3.0937577716985825,-0.5458779785156249,2.5522189697265625,9.490615380859374,9.8429459382984
3.0962447152449637,-0.5410895751953124,2.5474305664062498,9.476250170898437,9.827588601508438
3.0987316587913454,-0.5410895751953124,2.5522189697265625,9.476250170898437,9.828830901957252
3.1012186023377266,-0.5410895751953124,2.5522189697265625,9.481038574218749,9.833447617374134
3.1037055458841083,-0.5458779785156249,2.5570073730468748,9.4618849609375,9.816493084969785
3.1061924894304895,-0.5410895751953124,2.5713725830078125,9.466673364257812,9.8245936035328
3.108679432976871,-0.5410895751953124,2.5761609863281247,9.485826977539062,9.84430275863517
3.111166376523253,-0.5363011718749999,2.5761609863281247,9.5001921875,9.857883950111688
3.113653320069634,-0.5315127685546874,2.5761609863281247,9.495403784179686,9.853009909425124
3.116140263616016,-0.5315127685546874,2.5761609863281247,9.490615380859374,9.848395379858603
3.118627207162397,-0.5363011718749999,2.5857377929687497,9.490615380859374,9.851164356985722
3.1211141507087787,-0.5363011718749999,2.5953145996093747,9.485826977539062,9.849070528009632
3.1236010942551604,-0.5410895751953124,2.5857377929687497,9.476250170898437,9.837587873245383
3.1260880378015417,-0.5458779785156249,2.5857377929687497,9.4618849609375,9.824015966773999
3.1285749813479233,-0.5458779785156249,2.5953145996093747,9.447519750976562,9.812709619848441
3.1310619248943046,-0.5410895751953124,2.6001030029296874,9.447519750976562,9.813711988810415
3.1335488684406863,-0.5458779785156249,2.5905261962890624,9.457096557617186,9.82066617094701
3.136035811987068,-0.5458779785156249,2.5905261962890624,9.457096557617186,9.82066617094701
3.138522755533449,-0.5458779785156249,2.5953145996093747,9.471461767578125,9.835762738754326
3.141009699079831,-0.5506663818359374,2.6001030029296874,9.495403784179686,9.860347971270697
3.143496642626212,-0.5602431884765625,2.6001030029296874,9.504980590820312,9.870109628973186
3.1459835861725938,-0.5506663818359374,2.6048914062499997,9.504980590820312,9.870833234044136
3.148470529718975,-0.5458779785156249,2.6001030029296874,9.504980590820312,9.869304657631313
3.1509574732653567,-0.5458779785156249,2.5953145996093747,9.485826977539062,9.849596645862293
3.1534444168117384,-0.5506663818359374,2.6001030029296874,9.476250170898437,9.841904611983441
3.1559313603581196,-0.5602431884765625,2.6096798095703124,9.471461767578125,9.840370376840877
3.1584183039045013,-0.5602431884765625,2.6096798095703124,9.4618849609375,9.831152941172697
3.1609052474508825,-0.5602431884765625,2.6048914062499997,9.457096557617186,9.825273887718566
3.163392190997264,-0.5698199951171875,2.5953145996093747,9.447519750976562,9.814070620434375
3.165879134543646,-0.5602431884765625,2.6001030029296874,9.447519750976562,9.81478667629463
3.168366078090027,-0.5602431884765625,2.6048914062499997,9.457096557617186,9.825273887718566
3.170853021636409,-0.5602431884765625,2.6001030029296874,9.471461767578125,9.837834928009949
3.17333996518279,-0.5698199951171875,2.6001030029296874,9.471461767578125,9.838384952184656
3.1758269087291717,-0.5698199951171875,2.5953145996093747,9.452308154296874,9.818680264759012
3.178313852275553,-0.5698199951171875,2.5761609863281247,9.447519750976562,9.809022871795474
3.1808007958219346,-0.5746083984375,2.5857377929687497,9.4618849609375,9.825654266233729
3.1832877393683163,-0.5698199951171875,2.5905261962890624,9.476250170898437,9.840469404553215
3.1857746829146976,-0.565031591796875,2.5809493896484375,9.485826977539062,9.846901741129695
3.1882616264610792,-0.5746083984375,2.5857377929687497,9.495403784179686,9.857936283530936
3.1907485700074605,-0.5889736083984375,2.5857377929687497,9.485826977539062,9.849560563455846
3.193235513553842,-0.5793968017578125,2.5857377929687497,9.471461767578125,9.835157782291457
3.195722457100224,-0.5698199951171875,2.5809493896484375,9.457096557617186,9.819504563818727
3.198209400646605,-0.5746083984375,2.5809493896484375,9.4618849609375,9.82439522706089
3.2006963441929868,-0.5746083984375,2.5953145996093747,9.4618849609375,9.828178859611567
3.203183287739368,-0.584185205078125,2.5905261962890624,9.452308154296874,9.818259915651002
3.2056702312857497,-0.5698199951171875,2.5905261962890624,9.452308154296874,9.817415660156312
3.208157174832131,-0.5698199951171875,2.5761609863281247,9.447519750976562,9.809022871795474
