Time (s),Acceleration x (m/s^2),Acceleration y (m/s^2),Acceleration z (m/s^2),Absolute acceleration (m/s^2)
0.0,-1.6711527587890624,0.6560112548828124,25.680207006835936,25.742885118488307
0.002486943546381497,-1.4700398193359374,0.5267243652343749,25.7807634765625,25.828012332772023
0.004973887092762994,-1.1923124267578125,0.5410895751953124,24.832659619140625,24.86715445344488
0.007460830639144491,-0.852335791015625,0.689530078125,22.941240307617186,22.967421163054524
0.009947774185525988,-0.507570751953125,0.9576806640625,20.288464868164063,20.317396167552694
0.012434717731907486,-0.1771709228515625,1.3263877197265623,17.099388256835937,17.151669676068398
0.014921661278288981,0.1149216796875,1.7477672119140624,13.632584252929687,13.744644434569071
0.01740860482467048,0.32561142578124996,2.1930887207031247,10.122684619140625,10.362644683480214
0.019895548371051976,0.45968671875,2.6479870361328124,6.775590698242187,7.2891547200638165
0.022382491917433474,0.49799394531249996,3.0645781249999997,3.806780639648437,4.912353396509517
0.02486943546381497,0.44532150878906246,3.414131567382812,1.4030021728515625,3.7179323154969066
0.027356379010196465,0.2920926025390625,3.687070556640625,-0.32561142578124996,3.7129274405384693
0.029843322556577963,0.086191259765625,3.864241479492187,-1.3359645263671873,4.089571170770776
0.032330266102959464,-0.1580173095703125,3.9456443359374997,-1.5849614990234373,4.255018407624829
0.03481720964934096,-0.43574470214843747,3.921702319335937,-1.0869675537109373,4.092813334340529
0.03730415319572245,-0.6943184814453125,3.801992236328125,0.062249243164062495,3.865371662214432
0.03979109674210395,-0.9193734375,3.6056677001953124,1.7334020019531249,4.104968889308105
0.04227804028848545,-1.0965443603515623,3.337517114257812,3.801992236328125,5.176540832185326
0.04476498383486695,-1.216254443359375,3.0358477050781247,6.124367846679687,6.942876038131714
0.04725192738124844,-1.254561669921875,2.7341782958984373,8.499415893554687,9.016081547380173
0.04973887092762994,-1.22583125,2.43250888671875,10.773907470703124,11.112913385998958
0.05222581447401144,-1.13006318359375,2.1547814941406247,12.828132495117186,13.056841478653496
0.05471275802039293,-0.9864110839843749,1.915361328125,14.532804077148437,14.691630617078086
0.05719970156677443,-0.8092401611328125,1.7429788085937499,15.80173095703125,15.918151463156672
0.059686645113155926,-0.6177040283203125,1.637633935546875,16.5870291015625,16.679116810836813
0.062173588659537427,-0.430956298828125,1.599326708984375,16.85996809082031,16.94113612710344
0.06466053220591893,-0.2537853759765625,1.618480322265625,16.64448994140625,16.724919461097397
0.06714747575230041,-0.1149216796875,1.6998831787109374,15.983690283203124,16.074239169649324
0.06963441929868192,-0.028730419921875,1.838746875,14.939818359375,15.052574135956595
0.07212136284506342,-0.0047884033203125,2.0302830078125,13.584700219726562,13.735579786833078
0.0746083063914449,-0.023942016601562498,2.2361843505859373,12.057199560546874,12.2628363323016
0.0770952499378264,-0.09576806640624999,2.446874096679687,10.462661254882812,10.745401104750405
0.0795821934842079,-0.2059013427734375,2.6527754394531247,8.916006982421875,9.304557668461046
0.0820691370305894,-0.33518823242187495,2.834734765625,7.493851196289062,8.019094593201912
0.0845560805769709,-0.488417138671875,2.987963671875,6.287173559570312,6.978182397584144
0.0870430241233524,-0.6368576416015624,3.1172505615234374,5.377376928710937,6.248121425870113
0.0895299676697339,-0.7709329345703124,3.1842882080078123,4.783614916992187,5.798016958869038
0.09201691121611538,-0.8810662109374999,3.19865341796875,4.529829541015625,5.614892432362062
0.09450385476249688,-0.948103857421875,3.1794998046874996,4.5968671875,5.669154070227784
0.09699079830887838,-0.9864110839843749,3.1124621582031247,4.96078583984375,5.938840262344824
0.09947774185525989,-0.9864110839843749,3.0119056884765625,5.597643481445312,6.432588534039147
0.10196468540164137,-0.9528922607421875,2.896984008789062,6.449979272460937,7.134616501462263
0.10445162894802287,-0.8810662109374999,2.7629087158203123,7.455543969726562,7.999692376869107
0.10693857249440437,-0.7709329345703124,2.6240450195312497,8.532934716796875,8.960520338420606
0.10942551604078586,-0.6512228515624999,2.4851813232421875,9.581595043945311,9.92003936473774
0.11191245958716736,-0.5315127685546874,2.360682836914062,10.558429321289061,10.832163173267558
0.11439940313354886,-0.4261678955078125,2.2553379638671873,11.391611499023437,11.620541336405337
0.11688634667993036,-0.3495534423828125,2.1835119140624997,12.071564770507813,12.272432028595631
0.11937329022631185,-0.2825157958984375,2.1499930908203124,12.54561669921875,12.731644977347726
0.12186023377269335,-0.2442085693359375,2.1452046874999997,12.780248461914061,12.961338346207377
0.12434717731907485,-0.2442085693359375,2.1739351074218747,12.780248461914061,12.966124418070157
0.12683412086545634,-0.26815058593749996,2.212242333984375,12.574347119140624,12.77028293945171
0.12932106441183785,-0.316034619140625,2.2744915771484373,12.186486450195313,12.400953262383037
0.13180800795821934,-0.38307226562499996,2.370259643554687,11.631031665039062,11.876269310338849
0.13429495150460083,-0.45968671875,2.4660277099609376,10.97502041015625,11.258049455791024
0.13678189505098234,-0.5410895751953124,2.5617957763671875,10.280701928710936,10.608883432067607
0.13926883859736383,-0.6272808349609375,2.6479870361328124,9.576806640625,9.95592999279102
0.14175578214374532,-0.689530078125,2.729389892578125,8.882488159179687,9.317919124585384
0.14424272569012683,-0.7230489013671875,2.7916391357421872,8.283937744140625,8.771526282624555
0.14672966923650832,-0.7565677246093749,2.839523168945312,7.81467421875,8.348917276754738
0.1492166127828898,-0.7613561279296874,2.863465185546875,7.484274389648437,8.049438437675175
0.15170355632927132,-0.7278373046875,2.868253588867187,7.287949853515625,7.865801857376187
0.1541904998756528,-0.6751648681640625,2.849099975585937,7.249642626953125,7.81860195230724
0.15667744342203432,-0.6272808349609375,2.806004345703125,7.3549875,7.897023664594805
0.1591643869684158,-0.5698199951171875,2.7629087158203123,7.570465649414062,8.079004242340108
0.1616513305147973,-0.49799394531249996,2.7054478759765623,7.900865478515625,8.366069655985058
0.1641382740611788,-0.4213794921875,2.6431986328124997,8.307879760742187,8.72839766554479
0.1666252176075603,-0.373495458984375,2.5713725830078125,8.772354882812499,9.149080063510786
0.1691121611539418,-0.3399766357421875,2.50912333984375,9.241618408203124,9.582212419386146
0.1715991047003233,-0.32082302246093747,2.461239306640625,9.701305126953125,10.013787869859277
0.1740860482467048,-0.3112462158203125,2.418143676757812,10.122684619140625,10.412158131093305
0.17657299179308628,-0.3112462158203125,2.39420166015625,10.472238061523436,10.746945883067317
0.1790599353394678,-0.33518823242187495,2.379836450195312,10.726023437499999,10.991976685866451
0.18154687888584928,-0.38307226562499996,2.379836450195312,10.874463940429687,11.138416937881022
0.18403382243223076,-0.430956298828125,2.39420166015625,10.927136376953124,11.194652041109935
0.18652076597861228,-0.4836287353515625,2.408566870117187,10.89840595703125,11.171854972462635
0.18900770952499377,-0.5315127685546874,2.437297290039062,10.764330664062498,11.049603547116277
0.19149465307137528,-0.5698199951171875,2.4756045166015626,10.539275708007812,10.841109029931253
0.19398159661775677,-0.603338818359375,2.5139117431640625,10.266336718749999,10.586852204735454
0.19646854016413826,-0.622492431640625,2.5522189697265625,9.964667309570311,10.305140129435465
0.19895548371051977,-0.622492431640625,2.5953145996093747,9.634267480468749,9.997112812388039
0.20144242725690126,-0.6177040283203125,2.6240450195312497,9.327809667968749,9.70954189099471
0.20392937080328274,-0.6081272216796875,2.6527754394531247,9.05965908203125,9.459622557615333
0.20641631434966426,-0.584185205078125,2.6767174560546874,8.815450512695312,9.231373485844893
0.20890325789604575,-0.5363011718749999,2.6862942626953124,8.628702783203124,9.05308276409763
0.21139020144242723,-0.507570751953125,2.6767174560546874,8.52335791015625,8.948188334652398
0.21387714498880875,-0.4740519287109375,2.6623522460937497,8.470685473632813,8.891870281701648
0.21636408853519024,-0.44532150878906246,2.6479870361328124,8.489839086914062,8.904353671738978
0.21885103208157172,-0.430956298828125,2.6144682128906247,8.566453540039062,8.96689988911234
0.22133797562795324,-0.4213794921875,2.5905261962890624,8.705317236328124,9.092355846270404
0.22382491917433472,-0.411802685546875,2.5665841796874997,8.872911352539061,9.245836450709168
0.22631186272071624,-0.4213794921875,2.5330653564453125,9.05965908203125,9.416549445475816
0.22879880626709773,-0.44532150878906246,2.50912333984375,9.275137231445312,9.61884514080988
0.2312857498134792,-0.4644751220703125,2.4947581298828125,9.485826977539062,9.819392481892477
0.23377269335986073,-0.5027823486328125,2.480392919921875,9.677363110351562,10.002824395983794
0.23625963690624222,-0.5363011718749999,2.4756045166015626,9.849745629882811,10.170237246149576
0.2387465804526237,-0.565031591796875,2.480392919921875,9.9981861328125,10.316750248178504
0.24123352399900522,-0.5985504150390625,2.4851813232421875,10.09395419921875,10.412602949534811
0.2437204675453867,-0.6272808349609375,2.499546533203125,10.137049829101562,10.459492977924173
0.2462074110917682,-0.6368576416015624,2.5234885498046875,10.108319409179687,10.437993264735347
0.2486943546381497,-0.6368576416015624,2.5426421630859375,10.026916552734374,10.363863776635972
0.2511812981845312,-0.6416460449218749,2.5617957763671875,9.950302099609374,10.294805443536433
0.2536682417309127,-0.6416460449218749,2.5809493896484375,9.86411083984375,10.216344358899297
0.2561551852772942,-0.63206923828125,2.6001030029296874,9.744400756835937,10.105117181787167
0.2586421288236757,-0.6177040283203125,2.6096798095703124,9.624690673828125,9.991329117887979
0.26112907237005717,-0.603338818359375,2.6192566162109374,9.495403784179686,9.868496135476668
0.2636160159164387,-0.5746083984375,2.6336218261718747,9.370905297851563,9.750897642583798
0.2661029594628202,-0.5602431884765625,2.6288334228515624,9.246406811523437,9.629157622529755
0.26858990300920166,-0.55545478515625,2.6240450195312497,9.145850341796875,9.531039857089349
0.2710768465555832,-0.5458779785156249,2.6431986328124997,9.069235888671875,9.462321141469682
0.2735637901019647,-0.5267243652343749,2.6336218261718747,9.016563452148437,9.408072011142314
0.27605073364834615,-0.5267243652343749,2.6096798095703124,9.02135185546875,9.405990461699393
0.27853767719472766,-0.5315127685546874,2.6048914062499997,9.054870678710937,9.43708896162746
0.2810246207411092,-0.5410895751953124,2.5905261962890624,9.09796630859375,9.475051179510952
0.28351156428749064,-0.5506663818359374,2.5665841796874997,9.17458076171875,9.54272078438881
0.28599850783387215,-0.5602431884765625,2.5570073730468748,9.255983618164063,9.61901200102027
0.28848545138025367,-0.5698199951171875,2.5570073730468748,9.332598071289063,9.693315650120951
0.2909723949266351,-0.584185205078125,2.5426421630859375,9.428366137695312,9.782657591359012
0.29345933847301664,-0.584185205078125,2.5330653564453125,9.504980590820312,9.854052389028913
0.29594628201939815,-0.5889736083984375,2.5330653564453125,9.581595043945311,9.928256322112693
0.2984332255657796,-0.59376201171875,2.528276953125,9.667786303710937,10.010535934328598
0.30092016911216113,-0.584185205078125,2.518700146484375,9.744400756835937,10.081590593331857
0.30340711265854264,-0.5698199951171875,2.5139117431640625,9.777919580078125,10.111980933216236
0.30589405620492416,-0.55545478515625,2.518700146484375,9.792284790039062,10.126263963352118
0.3083809997513056,-0.5410895751953124,2.5330653564453125,9.792284790039062,10.129069031141945
0.31086794329768713,-0.5219359619140624,2.5426421630859375,9.749189160156249,10.088812397817177
0.31335488684406865,-0.5027823486328125,2.5522189697265625,9.686939916992188,10.030125458584527
0.3158418303904501,-0.507570751953125,2.5474305664062498,9.634267480468749,9.978283441760752
0.3183287739368316,-0.49320554199218747,2.5522189697265625,9.576806640625,9.923320956615433
0.32081571748321314,-0.4644751220703125,2.5617957763671875,9.504980590820312,9.85510988120913
0.3233026610295946,-0.45489831542968745,2.5665841796874997,9.433154541015625,9.786658848835318
0.3257896045759761,-0.45968671875,2.5713725830078125,9.356540087890625,9.714325054080891
0.3282765481223576,-0.4644751220703125,2.5713725830078125,9.299079248046874,9.659221964585063
0.3307634916687391,-0.45968671875,2.5713725830078125,9.260772021484375,9.62211864788349
0.3332504352151206,-0.469263525390625,2.5617957763671875,9.236830004882812,9.596980483213363
0.3357373787615021,-0.4836287353515625,2.5522189697265625,9.2320416015625,9.590532339556056
0.3382243223078836,-0.4836287353515625,2.5522189697265625,9.251195214843749,9.608971397930048
0.3407112658542651,-0.49320554199218747,2.5426421630859375,9.284714038085937,9.63920098582783
0.3431982094006466,-0.49799394531249996,2.5378537597656248,9.303867651367186,9.656637766307753
0.34568515294702806,-0.49799394531249996,2.5378537597656248,9.313444458007812,9.665865059471958
0.3481720964934096,-0.5027823486328125,2.528276953125,9.34696328125,9.695911355970388
0.3506590400397911,-0.5027823486328125,2.5234885498046875,9.390058911132812,9.73622056578613
0.35314598358617255,-0.5027823486328125,2.5139117431640625,9.442731347656249,9.784565276317844
0.35563292713255407,-0.507570751953125,2.518700146484375,9.490615380859374,9.83225603834355
0.3581198706789356,-0.49799394531249996,2.518700146484375,9.524134204101562,9.864125948871783
0.36060681422531704,-0.4740519287109375,2.5139117431640625,9.567229833984374,9.903351159067995
0.36309375777169856,-0.469263525390625,2.528276953125,9.591171850585937,9.929902823061116
0.36558070131808007,-0.47884033203125,2.5474305664062498,9.586383447265625,9.930631306832867
0.36806764486446153,-0.4740519287109375,2.5474305664062498,9.591171850585937,9.935024166515525
0.37055458841084304,-0.4740519287109375,2.5522189697265625,9.586383447265625,9.931631008981105
0.37304153195722456,-0.469263525390625,2.5665841796874997,9.557653027343749,9.907385830721307
0.3755284755036061,-0.469263525390625,2.5713725830078125,9.524134204101562,9.876299790642426
0.37801541904998753,-0.488417138671875,2.5761609863281247,9.5001921875,9.855394884440884
0.38050236259636905,-0.49320554199218747,2.5761609863281247,9.481038574218749,9.837171828323157
0.38298930614275056,-0.49799394531249996,2.5713725830078125,9.452308154296874,9.808470032273094
0.385476249689132,-0.507570751953125,2.5713725830078125,9.447519750976562,9.804346713268293
0.38796319323551354,-0.51714755859375,2.5713725830078125,9.442731347656249,9.80023335752847
0.39045013678189505,-0.5315127685546874,2.5713725830078125,9.423577734375,9.782549774960984
0.3929370803282765,-0.5410895751953124,2.5713725830078125,9.404424121093749,9.764626359387195
0.395424023874658,-0.55545478515625,2.5617957763671875,9.404424121093749,9.762915582323533
0.39791096742103954,-0.565031591796875,2.5617957763671875,9.414000927734374,9.772690098786768
0.400397910967421,-0.565031591796875,2.5713725830078125,9.404424121093749,9.765982321803717
0.4028848545138025,-0.5602431884765625,2.5713725830078125,9.394847314453125,9.756484277277638
0.40537179806018403,-0.565031591796875,2.5665841796874997,9.409212524414063,9.76933443898514
0.4078587416065655,-0.5698199951171875,2.5713725830078125,9.437942944335937,9.79854166741256
0.410345685152947,-0.565031591796875,2.5809493896484375,9.457096557617186,9.81922785924382
0.4128326286993285,-0.55545478515625,2.5761609863281247,9.4618849609375,9.822036573941645
0.41531957224571,-0.5506663818359374,2.5665841796874997,9.476250170898437,9.833102517362416
0.4178065157920915,-0.5602431884765625,2.5665841796874997,9.490615380859374,9.84748734901757
0.420293459338473,-0.5602431884765625,2.5713725830078125,9.5001921875,9.857965357532693
0.42278040288485447,-0.55545478515625,2.5665841796874997,9.504980590820312,9.861061829318684
0.425267346431236,-0.5602431884765625,2.5665841796874997,9.514557397460937,9.870563775754412
0.4277542899776175,-0.565031591796875,2.5713725830078125,9.514557397460937,9.872082866849905
0.43024123352399896,-0.5698199951171875,2.5713725830078125,9.5001921875,9.858514258594733
0.43272817707038047,-0.5746083984375,2.5713725830078125,9.495403784179686,9.854178037604814
0.435215120616762,-0.5746083984375,2.5713725830078125,9.495403784179686,9.854178037604814
0.43770206416314344,-0.5746083984375,2.5617957763671875,9.490615380859374,9.847068229619016
0.44018900770952496,-0.5793968017578125,2.5570073730468748,9.481038574218749,9.836873477153558
0.4426759512559065,-0.5698199951171875,2.5713725830078125,9.4618849609375,9.821604695847562
0.445162894802288,-0.55545478515625,2.5713725830078125,9.433154541015625,9.793104286878648
0.44764983834866945,-0.5602431884765625,2.5761609863281247,9.414000927734374,9.776190020918023
0.45013678189505096,-0.5698199951171875,2.5761609863281247,9.409212524414063,9.772132857462843
0.4526237254414325,-0.565031591796875,2.5713725830078125,9.409212524414063,9.77059353314645
0.45511066898781394,-0.565031591796875,2.5713725830078125,9.423577734375,9.784428188513678
0.45759761253419545,-0.5698199951171875,2.5761609863281247,9.490615380859374,9.850537069709397
0.46008455608057697,-0.5602431884765625,2.5809493896484375,9.481038574218749,9.842015272696182
0.4625714996269584,-0.55545478515625,2.5713725830078125,9.471461767578125,9.830008900997568
0.46505844317333994,-0.5506663818359374,2.5761609863281247,9.471461767578125,9.830993180053454
0.46754538671972146,-0.5363011718749999,2.5809493896484375,9.471461767578125,9.831454964224537
0.4700323302661029,-0.5410895751953124,2.5905261962890624,9.476250170898437,9.838847554642646
0.47251927381248443,-0.5458779785156249,2.5809493896484375,9.490615380859374,9.850434651666873
0.47500621735886595,-0.5410895751953124,2.5761609863281247,9.509768994140625,9.867375014550857
0.4774931609052474,-0.5363011718749999,2.5857377929687497,9.514557397460937,9.874232190429797
0.4799801044516289,-0.5267243652343749,2.5761609863281247,9.5001921875,9.85736757881366
0.48246704799801043,-0.5219359619140624,2.5809493896484375,9.490615380859374,9.849136876278566
0.4849539915443919,-0.51714755859375,2.5809493896484375,9.476250170898437,9.835042381745936
0.4874409350907734,-0.507570751953125,2.5761609863281247,9.457096557617186,9.814831063029674
0.4899278786371549,-0.5219359619140624,2.5665841796874997,9.437942944335937,9.794617834316039
0.4924148221835364,-0.5219359619140624,2.5713725830078125,9.418789331054686,9.777421263900466
0.4949017657299179,-0.51714755859375,2.5713725830078125,9.414000927734374,9.772554017522102
0.4973887092762994,-0.5123591552734374,2.5713725830078125,9.423577734375,9.781527804001021
0.49987565282268087,-2.27927998046875,0.7134720947265625,20.07298671875,20.214572849071853
0.5023625963690624,-1.7956512451171873,0.7134720947265625,19.416975463867185,19.51287631253949
0.5048495399154439,-1.2210428466796874,0.8475473876953125,17.98524287109375,18.046557659012016
0.5073364834618254,-0.6177040283203125,1.0965443603515623,15.926229443359373,15.975880322641034
0.5098234270082069,-0.0430956298828125,1.446097802734375,13.455413330078125,13.532967301062701
0.5123103705545884,0.45968671875,1.85790048828125,10.773907470703124,10.942585996510305
0.5147973141009698,0.8379705810546875,2.2840683837890623,8.125920434570313,8.48231961113853
0.5172842576473514,1.0678139404296874,2.70065947265625,5.722141967773437,6.416907113086332
0.5197712011937329,1.139639990234375,3.0789433349609374,3.763685009765625,4.994396482056291
0.5222581447401143,1.0582371337890624,3.394977954101562,2.370259643554687,4.273625149452126
0.5247450882864959,0.8379705810546875,3.6391865234374996,1.6328455322265625,4.07578922163481
0.5272320318328774,0.49799394531249996,3.787627026367187,1.5945383056640625,4.139645983494853
0.5297189753792588,0.0909796630859375,3.821145849609375,2.1930887207031247,4.406707505605228
0.5322059189256404,-0.33518823242187495,3.754108203125,3.35188232421875,5.043886861075951
0.5346928624720219,-0.7422025146484375,3.6104561035156246,4.946420629882812,6.168738517387
0.5371798060184033,-1.1061211669921875,3.39018955078125,6.823474731445312,7.699136096794705
0.5396667495647849,-1.388636962890625,3.1268273681640624,8.815450512695312,9.456084271345404
0.5421536931111663,-1.5753846923828123,2.844311572265625,10.754753857421875,11.235509591596143
0.5446406366575478,-1.6472107421875,2.5617957763671875,12.492944262695312,12.858839651376107
0.5471275802039294,-1.608903515625,2.288856787109375,13.88636962890625,14.165404949562756
0.5496145237503108,-1.4700398193359374,2.059013427734375,14.839261889648437,15.053379912683935
0.5521014672966923,-1.235408056640625,1.8770541015625,15.294160205078125,15.458360247620073
0.5545884108430739,-0.9528922607421875,1.7429788085937499,15.255852978515625,15.384636131214586
0.5570753543894553,-0.6655880615234374,1.68551796875,14.7482822265625,14.859199403903327
0.5595622979358368,-0.37828386230468747,1.70467158203125,13.833697192382811,13.94346376958054
0.5620492414822184,-0.1005564697265625,1.7812860351562498,12.617442749023438,12.742956998574964
0.5645361850285998,0.11013327636718749,1.9009961181640624,11.204863769531249,11.36551308448467
0.5670231285749813,0.2442085693359375,2.0638018310546875,9.734823950195311,9.954180687756176
0.5695100721213628,0.3064578125,2.250549560546875,8.322244970703125,8.626624546583297
0.5719970156677443,0.27293898925781246,2.437297290039062,7.072471704101562,7.48563756651403
0.5744839592141258,0.16759411621093748,2.6144682128906247,6.095637426757812,6.634781643919762
0.5769709027605073,0.009576806640625,2.7916391357421872,5.449202978515625,6.122675385850239
0.5794578463068888,-0.1867477294921875,2.940079638671875,5.1523219726562495,5.9350960149031975
0.5819447898532703,-0.411802685546875,3.0502129150390624,5.224148022460938,6.0634233597430125
0.5844317333996518,-0.6368576416015624,3.1124621582031247,5.659892724609374,6.490561916814205
0.5869186769460333,-0.833182177734375,3.1316157714843746,6.382941625976562,7.158432348086289
0.5894056204924147,-0.9864110839843749,3.1124621582031247,7.311891870117187,8.007758127787046
0.5918925640387963,-1.0965443603515623,3.0502129150390624,8.360552197265624,8.96688582532938
0.5943795075851778,-1.1444283935546875,2.9640216552734375,9.442731347656249,9.962947155581729
0.5968664511315592,-1.139639990234375,2.844311572265625,10.481814868164061,10.92050047195323
0.5993533946779408,-1.0869675537109373,2.7198130859375,11.372457885742186,11.743580376028294
0.6018403382243223,-0.97683427734375,2.5905261962890624,12.066776367187499,12.380311913468429
0.6043272817707037,-0.842758984375,2.4564509033203126,12.502521069335936,12.76939414519565
0.6068142253170853,-0.689530078125,2.35589443359375,12.66053837890625,12.896314293418689
0.6093011688634667,-0.5315127685546874,2.269703173828125,12.569558715820312,12.783890825209534
0.6117881124098483,-0.38786066894531246,2.212242333984375,12.224793676757812,12.429401935816749
0.6142750559562298,-0.26336218261718747,2.1787235107421874,11.650185278320311,11.855083837522406
0.6167619995026112,-0.181959326171875,2.1787235107421874,10.922347973632812,11.13901389665003
0.6192489430489928,-0.1484405029296875,2.212242333984375,10.117896215820313,10.357986028243793
0.6217358865953743,-0.1388636962890625,2.269703173828125,9.313444458007812,9.58702682252579
0.6242228301417557,-0.1771709228515625,2.3415292236328122,8.566453540039062,8.882470089714815
0.6267097736881373,-0.24899697265624998,2.422932080078125,7.9295958984374995,8.295245051810133
0.6291967172345188,-0.33518823242187495,2.5043349365234375,7.45075556640625,7.867515690215029
0.6316836607809002,-0.45010991210937495,2.5857377929687497,7.173028173828125,7.638126213247465
0.6341706043272818,-0.565031591796875,2.6767174560546874,7.086836914062499,7.596534373370219
0.6366575478736632,-0.6607996582031249,2.73896669921875,7.187393383789062,7.719923472486331
0.6391444914200447,-0.74699091796875,2.7964275390625,7.4699091796875,8.011088912596996
0.6416314349664263,-0.8092401611328125,2.834734765625,7.915230688476562,8.4463878481653
0.6441183785128077,-0.842758984375,2.834734765625,8.456320263671875,8.958533155543678
0.6466053220591892,-0.8475473876953125,2.81558115234375,9.050082275390624,9.51576707318764
0.6490922656055708,-0.82360537109375,2.7964275390625,9.648632690429688,10.079407005541052
0.6515792091519522,-0.7757213378906249,2.7629087158203123,10.204087475585936,10.599943838314637
0.6540661526983337,-0.70868369140625,2.7150246826171873,10.66856259765625,11.03140152028724
0.6565530962447153,-0.63206923828125,2.6527754394531247,11.008539233398437,11.341281457905003
0.6590400397910967,-0.55545478515625,2.5857377929687497,11.209652172851563,11.517416020473327
0.6615269833374782,-0.4836287353515625,2.518700146484375,11.247959399414063,11.536651933400146
0.6640139268838597,-0.4070142822265625,2.4660277099609376,11.128249316406249,11.40547614702375
0.6665008704302412,-0.3399766357421875,2.437297290039062,10.888829150390624,11.163449397891268
0.6689878139766227,-0.316034619140625,2.408566870117187,10.55364091796875,10.829607974148729
0.6714747575230042,-0.3064578125,2.389413256835937,10.146626635742187,10.428674133749622
0.6739617010693857,-0.3112462158203125,2.384624853515625,9.715670336914062,10.008874062273872
0.6764486446157671,-0.3399766357421875,2.403778466796875,9.275137231445312,9.587591235155465
0.6789355881621487,-0.38307226562499996,2.43250888671875,8.872911352539061,9.20827886820731
0.6814225317085302,-0.44053310546874996,2.4660277099609376,8.542511523437499,8.902239336895608
0.6839094752549116,-0.49320554199218747,2.5139117431640625,8.29351455078125,8.680172092942069
0.6863964188012932,-0.5458779785156249,2.5522189697265625,8.1594392578125,8.5666944289377
0.6888833623476747,-0.5889736083984375,2.5953145996093747,8.149862451171874,8.573377733154924
0.6913703058940561,-0.612915625,2.6384102294921874,8.240842114257813,8.674580846045723
0.6938572494404377,-0.63206923828125,2.6671406494140624,8.40843623046875,8.843921675795068
0.6963441929868192,-0.6512228515624999,2.6910826660156246,8.662221606445312,9.093959548892602
0.6988311365332006,-0.6512228515624999,2.6910826660156246,8.98304462890625,9.400058931871031
0.7013180800795822,-0.6272808349609375,2.6910826660156246,9.318232861328125,9.719304029567878
0.7038050236259636,-0.5985504150390625,2.6767174560546874,9.639055883789062,10.02170031829429
0.7062919671723451,-0.55545478515625,2.6671406494140624,9.94072529296875,10.307288130850834
0.7087789107187267,-0.5027823486328125,2.6479870361328124,10.180145458984374,10.530906276275767
0.7112658542651081,-0.45489831542968745,2.6144682128906247,10.338162768554687,10.673330592777804
0.7137527978114896,-0.4261678955078125,2.5905261962890624,10.419565624999999,10.745221861948828
0.7162397413578712,-0.39743747558593745,2.5617957763671875,10.414777221679687,10.732583040630571
0.7187266849042526,-0.37828386230468747,2.528276953125,10.32379755859375,10.635604311133875
0.7212136284506341,-0.37828386230468747,2.50912333984375,10.175357055664062,10.486977153845679
0.7237005719970157,-0.373495458984375,2.4899697265625,9.97903251953125,10.29177040760927
0.7261875155433971,-0.38307226562499996,2.47081611328125,9.739612353515625,10.055432632318487
0.7286744590897786,-0.411802685546875,2.461239306640625,9.490615380859374,9.813208480603118
0.7311614026361601,-0.44053310546874996,2.461239306640625,9.265560424804686,9.596998401962646
0.7336483461825416,-0.4644751220703125,2.47081611328125,9.069235888671875,9.411254380211302
0.7361352897289231,-0.49320554199218747,2.480392919921875,8.9255837890625,9.276941668428538
0.7386222332753046,-0.51714755859375,2.499546533203125,8.834604125976561,9.195945004823013
0.7411091768216861,-0.5410895751953124,2.528276953125,8.786720092773438,9.159225527785443
0.7435961203680675,-0.5602431884765625,2.5378537597656248,8.786720092773438,9.163024834897008
0.7460830639144491,-0.584185205078125,2.5474305664062498,8.853757739257812,9.231451724943408
0.7485700074608306,-0.59376201171875,2.5617957763671875,8.963891015625,9.341664362755475
0.7510569510072121,-0.5889736083984375,2.5761609863281247,9.107543115234375,9.483187066314892
0.7535438945535936,-0.5889736083984375,2.5905261962890624,9.279925634765624,9.652706132055918
0.7560308380999751,-0.5793968017578125,2.5953145996093747,9.4618849609375,9.82845997798475
0.7585177816463566,-0.5602431884765625,2.5905261962890624,9.639055883789062,9.996804326118562
0.7610047251927381,-0.5458779785156249,2.5809493896484375,9.801861596679688,10.15065383508959
0.7634916687391196,-0.5363011718749999,2.5809493896484375,9.916783276367187,10.261165101942229
0.7659786122855011,-0.5315127685546874,2.5713725830078125,9.97903251953125,10.318699182050185
0.7684655558318826,-0.51714755859375,2.5522189697265625,10.012551342773437,10.345648730672512
0.770952499378264,-0.5123591552734374,2.5378537597656248,9.988609326171874,10.318698071018298
0.7734394429246456,-0.5123591552734374,2.5234885498046875,9.9215716796875,10.250272726135872
0.7759263864710271,-0.5123591552734374,2.50912333984375,9.82580361328125,10.154044932208643
0.7784133300174085,-0.5315127685546874,2.499546533203125,9.696516723632811,10.027595687226087
0.7809002735637901,-0.5506663818359374,2.50912333984375,9.576806640625,9.915349657503361
0.7833872171101716,-0.565031591796875,2.50912333984375,9.452308154296874,9.795973156254785
0.785874160656553,-0.5746083984375,2.5139117431640625,9.313444458007812,9.663859205119325
0.7883611042029346,-0.5793968017578125,2.5330653564453125,9.203311181640624,9.563109194191078
0.790848047749316,-0.584185205078125,2.5330653564453125,9.141061938476563,9.503510183975207
0.7933349912956975,-0.5985504150390625,2.5426421630859375,9.093177905273437,9.460928928271198
0.7958219348420791,-0.603338818359375,2.5617957763671875,9.045293872070312,9.420411698098167
0.7983088783884605,-0.5985504150390625,2.5713725830078125,9.050082275390624,9.427311851812648
0.800795821934842,-0.5985504150390625,2.5809493896484375,9.107543115234375,9.48508850497048
0.8032827654812236,-0.5985504150390625,2.6001030029296874,9.17458076171875,9.554670605441467
0.805769709027605,-0.5793968017578125,2.6144682128906247,9.255983618164063,9.63557872832889
0.8082566525739865,-0.5698199951171875,2.6096798095703124,9.366116894531249,9.739572332363366
0.8107435961203681,-0.5793968017578125,2.6048914062499997,9.485826977539062,9.85403842797714
0.8132305396667495,-0.5602431884765625,2.6001030029296874,9.567229833984374,9.930070228974166
0.815717483213131,-0.5458779785156249,2.5953145996093747,9.634267480468749,9.992634813881248
0.8182044267595125,-0.5410895751953124,2.6048914062499997,9.715670336914062,10.07335531301919
0.820691370305894,-0.5363011718749999,2.6001030029296874,9.753977563476562,10.108819559256297
0.8231783138522755,-0.5363011718749999,2.5857377929687497,9.763554370117188,10.114378518681997
0.825665257398657,-0.5315127685546874,2.5713725830078125,9.773131176757811,10.119711249926869
0.8281522009450385,-0.5315127685546874,2.5713725830078125,9.734823950195311,10.082720869144259
0.83063914449142,-0.5363011718749999,2.5665841796874997,9.682151513671874,10.030903809332198
0.8331260880378015,-0.5363011718749999,2.5570073730468748,9.610325463867188,9.959129538982042
0.835613031584183,-0.5267243652343749,2.5522189697265625,9.519345800781249,9.869610159535952
0.8380999751305644,-0.5267243652343749,2.5570073730468748,9.447519750976562,9.801599599444975
0.840586918676946,-0.5315127685546874,2.5665841796874997,9.380482104492186,9.739779498903298
0.8430738622233275,-0.5363011718749999,2.5713725830078125,9.318232861328125,9.681375912830475
0.8455608057697089,-0.5315127685546874,2.5713725830078125,9.260772021484375,9.6258174311426
0.8480477493160905,-0.5363011718749999,2.5713725830078125,9.236830004882812,9.603051829845665
0.850534692862472,-0.5363011718749999,2.5809493896484375,9.241618408203124,9.610225257595161
0.8530216364088534,-0.51714755859375,2.5713725830078125,9.260772021484375,9.625034908607425
0.855508579955235,-0.51714755859375,2.5665841796874997,9.303867651367186,9.665234049051186
0.8579955235016165,-0.51714755859375,2.5713725830078125,9.356540087890625,9.717213642516462
0.8604824670479979,-0.507570751953125,2.5713725830078125,9.399635717773437,9.75821380457124
0.8629694105943795,-0.5027823486328125,2.5617957763671875,9.457096557617186,9.810823767146381
0.8654563541407609,-0.49799394531249996,2.5665841796874997,9.504980590820312,9.857992105538576
0.8679432976871424,-0.49799394531249996,2.5665841796874997,9.5384994140625,9.890314625585008
0.870430241233524,-0.488417138671875,2.5617957763671875,9.581595043945311,9.93017182566941
0.8729171847799054,-0.488417138671875,2.5617957763671875,9.610325463867188,9.957896586258327
0.8754041283262869,-0.49320554199218747,2.5617957763671875,9.610325463867188,9.958132597426017
0.8778910718726685,-0.49320554199218747,2.5617957763671875,9.605537060546874,9.953511517449712
0.8803780154190499,-0.488417138671875,2.5617957763671875,9.605537060546874,9.95327539670739
0.8828649589654315,-0.5027823486328125,2.5617957763671875,9.576806640625,9.926268841907747
0.885351902511813,-0.5027823486328125,2.5617957763671875,9.543287817382812,9.893934002979638
0.8878388460581944,-0.49799394531249996,2.5617957763671875,9.504980590820312,9.856746501825615
0.890325789604576,-0.5027823486328125,2.5617957763671875,9.452308154296874,9.806208091494728
0.8928127331509574,-0.507570751953125,2.5570073730468748,9.399635717773437,9.754438292433681
0.8952996766973389,-0.507570751953125,2.5522189697265625,9.356540087890625,9.71165753895671
0.8977866202437205,-0.5123591552734374,2.5522189697265625,9.342174877929686,9.698070170051626
0.9002735637901019,-0.5027823486328125,2.5474305664062498,9.327809667968749,9.682470024875308
0.9027605073364834,-0.507570751953125,2.5426421630859375,9.3086560546875,9.663008578191931
0.905247450882865,-0.5123591552734374,2.5378537597656248,9.327809667968749,9.680456952634017
0.9077343944292464,-0.507570751953125,2.528276953125,9.342174877929686,9.691544968154552
0.9102213379756279,-0.5027823486328125,2.5378537597656248,9.361328491210937,9.7122583839399
0.9127082815220094,-0.49320554199218747,2.5522189697265625,9.394847314453125,9.747832037841595
0.9151952250683909,-0.49799394531249996,2.5522189697265625,9.423577734375,9.775767844768424
0.9176821686147724,-0.49799394531249996,2.5378537597656248,9.4618849609375,9.808973783711508
0.9201691121611539,-0.49799394531249996,2.5330653564453125,9.5001921875,9.844697540759054
0.9226560557075354,-0.5027823486328125,2.5378537597656248,9.519345800781249,9.864655912443416
0.9251429992539169,-0.488417138671875,2.528276953125,9.528922607421874,9.870719412043236
0.9276299428002984,-0.488417138671875,2.518700146484375,9.557653027343749,9.896016022639715
0.9301168863466799,-0.5027823486328125,2.528276953125,9.586383447265625,9.926919060806737
0.9326038298930613,-0.5123591552734374,2.5330653564453125,9.591171850585937,9.933252713562059
0.9350907734394429,-0.5219359619140624,2.528276953125,9.586383447265625,9.927907589117183
0.9375777169858244,-0.5267243652343749,2.528276953125,9.572018237304688,9.914290496244709
0.9400646605322058,-0.5267243652343749,2.528276953125,9.533711010742186,9.877310795200351
0.9425516040785874,-0.5363011718749999,2.528276953125,9.504980590820312,9.85009945790033
0.9450385476249689,-0.5410895751953124,2.5330653564453125,9.471461767578125,9.819255880315097
0.9475254911713503,-0.5410895751953124,2.5474305664062498,9.433154541015625,9.786040313310059
0.9500124347177319,-0.5267243652343749,2.5474305664062498,9.404424121093749,9.757562917911539
0.9524993782641133,-0.5315127685546874,2.5522189697265625,9.390058911132812,9.745231338819694
0.9549863218104948,-0.5458779785156249,2.5522189697265625,9.380482104492186,9.736798701295955
0.9574732653568764,-0.5410895751953124,2.5570073730468748,9.390058911132812,9.74701343944625
0.9599602089032578,-0.5506663818359374,2.5522189697265625,9.414000927734374,9.769363776669392
0.9624471524496393,-0.5506663818359374,2.5570073730468748,9.418789331054686,9.775229543733996
0.9649340959960209,-0.5458779785156249,2.5570073730468748,9.428366137695312,9.784189159030195
0.9674210395424023,-0.5506663818359374,2.5617957763671875,9.442731347656249,9.799551335030959
0.9699079830887838,-0.5458779785156249,2.5809493896484375,9.447519750976562,9.808920020290062
0.9723949266351654,-0.5410895751953124,2.5905261962890624,9.457096557617186,9.820401173177181
0.9748818701815468,-0.55545478515625,2.5905261962890624,9.471461767578125,9.835036553399636
0.9773688137279283,-0.5602431884765625,2.5905261962890624,9.481038574218749,9.844531012177175
0.9798557572743098,-0.5506663818359374,2.5953145996093747,9.490615380859374,9.85447470149649
0.9823427008206913,-0.5458779785156249,2.6001030029296874,9.485826977539062,9.850859446823923
0.9848296443670728,-0.55545478515625,2.5953145996093747,9.495403784179686,9.85935499482154
0.9873165879134543,-0.5602431884765625,2.6048914062499997,9.5001921875,9.866761539027156
0.9898035314598358,-0.55545478515625,2.6048914062499997,9.495403784179686,9.861880260950342
0.9922904750062173,-0.5506663818359374,2.5953145996093747,9.504980590820312,9.868310258950146
0.9947774185525988,-0.55545478515625,2.5953145996093747,9.5001921875,9.863966721797807
0.9972643620989803,-0.55545478515625,2.5953145996093747,9.481038574218749,9.845520825996074
0.9997513056453617,-0.5602431884765625,2.5857377929687497,9.476250170898437,9.838659952741224
1.0022382491917432,-0.565031591796875,2.5809493896484375,9.466673364257812,9.82845181283418
1.0047251927381249,-0.5602431884765625,2.5761609863281247,9.452308154296874,9.813083475722637
1.0072121362845063,-0.55545478515625,2.5665841796874997,9.442731347656249,9.801074414256078
1.0096990798308878,-0.55545478515625,2.5617957763671875,9.433154541015625,9.790594068433714
1.0121860233772693,-0.5506663818359374,2.5665841796874997,9.437942944335937,9.796190832974158
1.0146729669236507,-0.5458779785156249,2.5713725830078125,9.447519750976562,9.806404497733347
1.0171599104700322,-0.5410895751953124,2.5570073730468748,9.4618849609375,9.816227974543805
1.0196468540164139,-0.5315127685546874,2.5522189697265625,9.481038574218749,9.832925299136196
1.0221337975627953,-0.5410895751953124,2.5522189697265625,9.481038574218749,9.833447617374134
1.0246207411091768,-0.5315127685546874,2.5570073730468748,9.485826977539062,9.838785797889932
1.0271076846555582,-0.51714755859375,2.5617957763671875,9.490615380859374,9.843882339025429
1.0295946282019397,-0.51714755859375,2.5570073730468748,9.481038574218749,9.833403314671855
1.0320815717483212,-0.51714755859375,2.5570073730468748,9.476250170898437,9.828786578445388
1.0345685152947028,-0.51714755859375,2.5570073730468748,9.4618849609375,9.814937356763455
1.0370554588410843,-0.51714755859375,2.5570073730468748,9.4618849609375,9.814937356763455
1.0395424023874658,-0.5219359619140624,2.5474305664062498,9.447519750976562,9.798849375518142
1.0420293459338472,-0.51714755859375,2.5474305664062498,9.447519750976562,9.79859548777847
1.0445162894802287,-0.5027823486328125,2.5570073730468748,9.433154541015625,9.786494847012209
1.0470032330266101,-0.507570751953125,2.5617957763671875,9.433154541015625,9.787994189962248
1.0494901765729918,-0.5123591552734374,2.5522189697265625,9.447519750976562,9.799589941345346
1.0519771201193733,-0.49799394531249996,2.5474305664062498,9.447519750976562,9.797603273521592
1.0544640636657547,-0.49320554199218747,2.5426421630859375,9.452308154296874,9.800735192828206
1.0569510072121362,-0.49799394531249996,2.5426421630859375,9.457096557617186,9.805595465812624
1.0594379507585177,-0.5027823486328125,2.5474305664062498,9.457096557617186,9.807082536659536
1.0619248943048991,-0.5123591552734374,2.5522189697265625,9.466673364257812,9.81805674046412
1.0644118378512808,-0.5123591552734374,2.5522189697265625,9.466673364257812,9.81805674046412
1.0668987813976623,-0.49799394531249996,2.5522189697265625,9.457096557617186,9.80808314295382
1.0693857249440437,-0.49320554199218747,2.5617957763671875,9.457096557617186,9.810337639783832
1.0718726684904252,-0.507570751953125,2.5665841796874997,9.452308154296874,9.807706758638718
1.0743596120368066,-0.507570751953125,2.5665841796874997,9.442731347656249,9.798477316587022
1.076846555583188,-0.5027823486328125,2.5665841796874997,9.447519750976562,9.802845193443133
1.0793334991295698,-0.51714755859375,2.5570073730468748,9.452308154296874,9.805705367130033
1.0818204426759512,-0.51714755859375,2.5570073730468748,9.466673364257812,9.819553599259178
1.0843073862223327,-0.507570751953125,2.5570073730468748,9.471461767578125,9.823670535433713
1.0867943297687142,-0.51714755859375,2.5617957763671875,9.471461767578125,9.825417406495582
1.0892812733150956,-0.5219359619140624,2.5665841796874997,9.466673364257812,9.82230502913189
1.0917682168614773,-0.5219359619140624,2.5617957763671875,9.457096557617186,9.811823991911329
1.0942551604078588,-0.5219359619140624,2.5570073730468748,9.447519750976562,9.801343443592184
1.0967421039542402,-0.5267243652343749,2.5522189697265625,9.452308154296874,9.804967601687975
1.0992290475006217,-0.5315127685546874,2.5522189697265625,9.457096557617186,9.809842139028722
1.1017159910470031,-0.5315127685546874,2.5522189697265625,9.447519750976562,9.80061002885336
1.1042029345933846,-0.5267243652343749,2.5522189697265625,9.457096557617186,9.809583861023794
1.1066898781397663,-0.5219359619140624,2.5522189697265625,9.466673364257812,9.818561167672154
1.1091768216861477,-0.5219359619140624,2.5522189697265625,9.476250170898437,9.827795079224227
1.1116637652325292,-0.5219359619140624,2.5522189697265625,9.481038574218749,9.832412281001806
1.1141507087789106,-0.5219359619140624,2.5522189697265625,9.490615380859374,9.841647175405944
1.116637652325292,-0.5267243652343749,2.5522189697265625,9.5001921875,9.851137590440999
1.1191245958716736,-0.5315127685546874,2.5570073730468748,9.495403784179686,9.848019372115727
1.1216115394180552,-0.5363011718749999,2.5522189697265625,9.495403784179686,9.84703679494499
1.1240984829644367,-0.5315127685546874,2.5522189697265625,9.490615380859374,9.842159712175642
1.1265854265108182,-0.5458779785156249,2.5617957763671875,9.485826977539062,9.840817741176235
1.1290723700571996,-0.5458779785156249,2.5713725830078125,9.476250170898437,9.834086486782859
1.131559313603581,-0.5315127685546874,2.5761609863281247,9.457096557617186,9.81609833644257
1.1340462571499625,-0.5315127685546874,2.5761609863281247,9.457096557617186,9.81609833644257
1.1365332006963442,-0.5363011718749999,2.5713725830078125,9.452308154296874,9.810489557172259
1.1390201442427257,-0.5410895751953124,2.5761609863281247,9.437942944335937,9.798170766852587
1.1415070877891071,-0.5410895751953124,2.5713725830078125,9.442731347656249,9.801525911460894
1.1439940313354886,-0.5410895751953124,2.5665841796874997,9.452308154296874,9.809498545980542
1.14648097488187,-0.5506663818359374,2.5761609863281247,9.442731347656249,9.803316489615817
1.1489679184282515,-0.5410895751953124,2.5665841796874997,9.437942944335937,9.795657165312988
1.1514548619746332,-0.5267243652343749,2.5522189697265625,9.457096557617186,9.809583861023794
1.1539418055210147,-0.5458779785156249,2.5617957763671875,9.4618849609375,9.817741460298102
1.1564287490673961,-0.5458779785156249,2.5665841796874997,9.476250170898437,9.832835522894865
1.1589156926137776,-0.5458779785156249,2.5570073730468748,9.495403784179686,9.848805130464218
1.161402636160159,-0.5506663818359374,2.5570073730468748,9.490615380859374,9.844455316435994
1.1638895797065405,-0.5410895751953124,2.5617957763671875,9.481038574218749,9.83593757473184
1.1663765232529222,-0.5458779785156249,2.5617957763671875,9.466673364257812,9.822356384940905
1.1688634667993036,-0.5410895751953124,2.5713725830078125,9.4618849609375,9.819979730276664
1.171350410345685,-0.5410895751953124,2.5761609863281247,9.457096557617186,9.816621550001761
1.1738373538920666,-0.5410895751953124,2.5713725830078125,9.447519750976562,9.806139114560917
1.176324297438448,-0.5410895751953124,2.5713725830078125,9.433154541015625,9.79230000989109
1.1788112409848295,-0.5315127685546874,2.5713725830078125,9.437942944335937,9.796388610315612
1.1812981845312112,-0.5315127685546874,2.5665841796874997,9.4618849609375,9.818203867743533
1.1837851280775926,-0.5363011718749999,2.5665841796874997,9.466673364257812,9.823078839341816
1.186272071623974,-0.5363011718749999,2.5713725830078125,9.4618849609375,9.819717048958896
1.1887590151703555,-0.5315127685546874,2.5522189697265625,9.457096557617186,9.809842139028722
1.191245958716737,-0.5315127685546874,2.5474305664062498,9.471461767578125,9.8224485912878
1.1937329022631185,-0.5410895751953124,2.5617957763671875,9.476250170898437,9.831322028580411
1.1962198458095001,-0.5315127685546874,2.5522189697265625,9.481038574218749,9.832925299136196
1.1987067893558816,-0.5315127685546874,2.5474305664062498,9.490615380859374,9.840919094332707
1.201193732902263,-0.5315127685546874,2.5522189697265625,9.504980590820312,9.856012557035406
1.2036806764486445,-0.5267243652343749,2.5570073730468748,9.495403784179686,9.847762095388045
1.206167619995026,-0.5219359619140624,2.5570073730468748,9.476250170898437,9.829039686338024
1.2086545635414074,-0.5267243652343749,2.5617957763671875,9.4618849609375,9.816695124672027
1.2111415070877891,-0.5315127685546874,2.5617957763671875,9.452308154296874,9.80772312347451
1.2136284506341706,-0.5267243652343749,2.5617957763671875,9.442731347656249,9.798235119691418
1.216115394180552,-0.5267243652343749,2.5665841796874997,9.437942944335937,9.794874166057173
1.2186023377269335,-0.5315127685546874,2.5713725830078125,9.442731347656249,9.801001892040983
1.221089281273315,-0.5315127685546874,2.5809493896484375,9.437942944335937,9.798906704097341
1.2235762248196966,-0.5363011718749999,2.5761609863281247,9.447519750976562,9.807132803196144
1.226063168366078,-0.5267243652343749,2.5665841796874997,9.447519750976562,9.804102322673197
1.2285501119124596,-0.5219359619140624,2.5809493896484375,9.433154541015625,9.793779734859749
1.231037055458841,-0.5267243652343749,2.5761609863281247,9.433154541015625,9.792775325672205
1.2335239990052225,-0.51714755859375,2.5665841796874997,9.447519750976562,9.803592473877822
1.236010942551604,-0.51714755859375,2.5665841796874997,9.457096557617186,9.812821778106258
1.2384978860979856,-0.5219359619140624,2.5617957763671875,9.466673364257812,9.821054899230543
1.240984829644367,-0.5267243652343749,2.5617957763671875,9.481038574218749,9.835157782291455
1.2434717731907485,-0.5219359619140624,2.5522189697265625,9.485826977539062,9.837029646472514
1.24595871673713,-0.51714755859375,2.5474305664062498,9.481038574218749,9.830917380074162
1.2484456602835114,-0.51714755859375,2.5426421630859375,9.471461767578125,9.820440864928415
1.250932603829893,-0.51714755859375,2.5426421630859375,9.471461767578125,9.820440864928415
1.2534195473762746,-0.51714755859375,2.5426421630859375,9.476250170898437,9.825059189048913
1.255906490922656,-0.5219359619140624,2.5426421630859375,9.471461767578125,9.820694187914398
1.2583934344690375,-0.5267243652343749,2.5522189697265625,9.481038574218749,9.83266762746446
1.260880378015419,-0.51714755859375,2.5570073730468748,9.495403784179686,9.847254507109556
1.2633673215618004,-0.51714755859375,2.5617957763671875,9.481038574218749,9.834649543476173
1.2658542651081819,-0.5267243652343749,2.5665841796874997,9.466673364257812,9.822560638341818
1.2683412086545636,-0.5267243652343749,2.5570073730468748,9.452308154296874,9.806215106070987
1.270828152200945,-0.5219359619140624,2.5570073730468748,9.447519750976562,9.801343443592184
1.2733150957473265,-0.5219359619140624,2.5617957763671875,9.442731347656249,9.79797887587853
1.275802039293708,-0.5219359619140624,2.5665841796874997,9.428366137695312,9.78539010597947
1.2782889828400894,-0.5219359619140624,2.5617957763671875,9.428366137695312,9.784135259418255
1.2807759263864709,-0.5219359619140624,2.5665841796874997,9.428366137695312,9.78539010597947
1.2832628699328525,-0.5267243652343749,2.5713725830078125,9.428366137695312,9.786903675014658
1.285749813479234,-0.5219359619140624,2.5617957763671875,9.452308154296874,9.80720878700658
1.2882367570256155,-0.5267243652343749,2.5617957763671875,9.466673364257812,9.821310540976322
1.290723700571997,-0.5267243652343749,2.5713725830078125,9.481038574218749,9.837656629675571
1.2932106441183784,-0.5267243652343749,2.5570073730468748,9.5001921875,9.85237924879994
1.2956975876647598,-0.5315127685546874,2.5474305664062498,9.504980590820312,9.854773683127807
1.2981845312111415,-0.5219359619140624,2.5522189697265625,9.514557397460937,9.86473726397971
1.300671474757523,-0.5219359619140624,2.5474305664062498,9.514557397460937,9.863499485911614
1.3031584183039044,-0.5219359619140624,2.5474305664062498,9.495403784179686,9.845024767039133
1.305645361850286,-0.5219359619140624,2.5570073730468748,9.481038574218749,9.833656303734594
1.3081323053966674,-0.5267243652343749,2.5474305664062498,9.466673364257812,9.81757330673628
1.3106192489430488,-0.5267243652343749,2.5474305664062498,9.457096557617186,9.80833912279175
1.3131061924894305,-0.5267243652343749,2.5474305664062498,9.457096557617186,9.80833912279175
1.315593136035812,-0.5267243652343749,2.5570073730468748,9.442731347656249,9.7969842587787
1.3180800795821934,-0.5363011718749999,2.5617957763671875,9.428366137695312,9.784912088169564
1.3205670231285749,-0.5410895751953124,2.5570073730468748,9.433154541015625,9.788537645066542
1.3230539666749563,-0.5315127685546874,2.5617957763671875,9.442731347656249,9.798493696837255
1.3255409102213378,-0.5363011718749999,2.5617957763671875,9.452308154296874,9.807983788248961
1.3280278537677195,-0.5410895751953124,2.5617957763671875,9.447519750976562,9.803632233682068
1.330514797314101,-0.5458779785156249,2.5665841796874997,9.457096557617186,9.814377841664
1.3330017408604824,-0.5410895751953124,2.5665841796874997,9.457096557617186,9.814112674098562
1.3354886844068639,-0.5315127685546874,2.5617957763671875,9.452308154296874,9.80772312347451
1.3379756279532453,-0.5315127685546874,2.5570073730468748,9.447519750976562,9.801858087834418
1.3404625714996268,-0.5410895751953124,2.5665841796874997,9.442731347656249,9.800270791351492
1.3429495150460085,-2.6958710693359373,0.47884033203125,23.44402265625,23.60337279273506
1.34543645859239,-2.1739351074218747,0.4644751220703125,22.788011401367186,22.89618297051158
1.3479234021387714,-1.5705962890624998,0.6081272216796875,21.32275998535156,21.389172139516628
1.3504103456851528,-0.928950244140625,0.8762778076171874,19.191920507812497,19.23436050744618
1.3528972892315343,-0.2825157958984375,1.254561669921875,16.577452294921873,16.627256681394552
1.3553842327779158,0.3016694091796875,1.7094599853515624,13.6756798828125,13.785408159757747
1.3578711763242974,0.7757213378906249,2.2026655273437497,10.687716210937499,10.939870055212884
1.360358119870679,1.120486376953125,2.6862942626953124,7.819462622070312,8.34360007938312
1.3628450634170604,1.2976572998046874,3.1220389648437497,5.252878442382812,6.246901127454244
1.3653320069634418,1.3263877197265623,3.5051112304687497,3.1364041748046874,4.886935672661536
1.3678189505098233,1.20667763671875,3.7924154296875,1.5658078857421873,4.276709020419953
1.370305894056205,0.9528922607421875,3.9791631591796874,0.5889736083984375,4.133839984729102
1.3727928376025864,0.6081272216796875,4.050989208984375,0.2346317626953125,4.103094485034584
1.3752797811489679,0.181959326171875,4.00310517578125,0.49799394531249996,4.038063671404336
1.3777667246953493,-0.26815058593749996,3.864241479492187,1.3072341064453123,4.088169267241813
1.3802536682417308,-0.7038952880859375,3.6343981201171873,2.5857377929687497,4.515568425579202
1.3827406117881123,-1.0965443603515623,3.342305517578125,4.228160131835938,5.500068527527533
1.385227555334494,-1.4173673828125,3.0166940917968748,6.095637426757812,6.947385780265375
1.3877144988808754,-1.6472107421875,2.6719290527343746,8.058882788085937,8.648589473673246
1.3902014424272569,-1.7717092285156248,2.3367408203125,9.993397729492187,10.414764012282841
1.3926883859736383,-1.7908628417968748,2.04943662109375,11.750741748046874,12.061812128005503
1.3951753295200198,-1.6998831787109374,1.8100164550781248,13.244723583984374,13.47547643703442
1.3976622730664012,-1.5275006591796874,1.6328455322265625,14.413093994140624,14.585496950047302
1.400149216612783,-1.2880804931640624,1.5562310791015623,15.174450122070311,15.308329204574584
1.4026361601591644,-1.0103531005859374,1.5418658691406248,15.528791967773437,15.637824136518136
1.4051231037055458,-0.699106884765625,1.599326708984375,15.480907934570311,15.578995694108126
1.4076100472519273,-0.39264907226562495,1.7238251953125,15.040374829101562,15.14393018994135
1.4100969907983087,-0.12449848632812499,1.9009961181640624,14.274230297851561,14.400796391536002
1.4125839343446902,0.0909796630859375,2.1212626708984375,13.254300390625,13.423282439960966
1.4150708778910719,0.2346317626953125,2.35589443359375,12.066776367187499,12.296844413995741
1.4175578214374533,0.33039982910156246,2.6096798095703124,10.769119067382812,11.085734898644173
1.4200447649838348,0.3399766357421875,2.834734765625,9.481038574218749,9.90158561797642
1.4225317085302163,0.27293898925781246,3.0119056884765625,8.288726147460936,8.82321102069633
1.4250186520765977,0.1580173095703125,3.1603461914062496,7.216123803710937,7.8794162391730165
1.4275055956229792,-0.009576806640625,3.2609026611328122,6.363788012695312,7.150620654959472
1.4299925391693609,-0.21068974609375,3.299209887695312,5.7891796142578125,6.666616582518737
1.4324794827157423,-0.411802685546875,3.2800562744140622,5.4779333984375,6.398132925538801
1.4349664262621238,-0.612915625,3.208230224609375,5.425260961914062,6.332603196343109
1.4374533698085052,-0.8044517578125,3.0885201416015624,5.65031591796875,6.489388974978861
1.4399403133548867,-0.9576806640625,2.9544448486328125,6.119579443359375,6.862590559075981
1.4424272569012682,-1.0534487304687499,2.8012159423828122,6.756437084960937,7.389587746729942
1.4449142004476498,-1.1156979736328125,2.6144682128906247,7.50821640625,8.028296183354568
1.4474011439940313,-1.13006318359375,2.446874096679687,8.360552197265624,8.784251173954393
1.4498880875404128,-1.0821791503906248,2.31758720703125,9.2320416015625,9.579818072840203
1.4523750310867942,-0.9959878906249999,2.1930887207031247,10.036493359375,10.32147416641273
1.4548619746331757,-0.8762778076171874,2.0973206542968748,10.74517705078125,10.982961648649178
1.4573489181795571,-0.7422025146484375,2.059013427734375,11.348515869140625,11.557647394711328
1.4598358617259388,-0.603338818359375,2.0542250244140625,11.784260571289062,11.977172261961762
1.4623228052723203,-0.4740519287109375,2.0877438476562498,12.033257543945313,12.222221022525238
1.4648097488187017,-0.3399766357421875,2.1404162841796874,12.100295190429687,12.292847907542335
1.4672966923650832,-0.22505495605468748,2.2266075439453124,12.00931552734375,12.216058706608225
1.4697836359114647,-0.16280571289062498,2.346317626953125,11.7603185546875,11.993198264617652
1.4722705794578461,-0.1292868896484375,2.4564509033203126,11.382034692382812,11.644809138790727
1.4747575230042278,-0.1292868896484375,2.5713725830078125,10.903194360351561,11.203049554477625
1.4772444665506093,-0.16280571289062498,2.6862942626953124,10.366893188476562,10.710516184910105
1.4797314100969907,-0.2154781494140625,2.786850732421875,9.797073193359374,10.18801310333453
1.4822183536433722,-0.2920926025390625,2.863465185546875,9.2320416015625,9.67033314267289
1.4847052971897536,-0.37828386230468747,2.901772412109375,8.743624462890624,9.220322692846414
1.487192240736135,-0.4740519287109375,2.920926025390625,8.33182177734375,8.84170731286319
1.4896791842825168,-0.565031591796875,2.920926025390625,8.001421948242188,8.536616586174208
1.4921661278288982,-0.6560112548828124,2.877830395507812,7.805097412109374,8.344567344347938
1.4946530713752797,-0.7278373046875,2.8203695556640622,7.723694555664062,8.254676805411956
1.4971400149216612,-0.7805097412109374,2.7533319091796873,7.738059765625,8.250309145396713
1.4996269584680426,-0.8092401611328125,2.6671406494140624,7.867346655273437,8.34647544035141
1.5021139020144243,-0.8188169677734375,2.5857377929687497,8.106766821289062,8.548460063394678
1.5046008455608058,-0.7996633544921875,2.5043349365234375,8.413224633789062,8.814391850457106
1.5070877891071872,-0.737414111328125,2.43250888671875,8.767566479492187,9.128587022527997
1.5095747326535687,-0.699106884765625,2.370259643554687,9.131485131835937,9.459963103899057
1.5120616761999501,-0.6512228515624999,2.3367408203125,9.495403784179686,9.800364375283493
1.5145486197463316,-0.5698199951171875,2.3127988037109373,9.835380419921874,10.119705585532845
1.5170355632927133,-0.5027823486328125,2.3032219970703123,10.122684619140625,10.393573281430763
1.5195225068390947,-0.44053310546874996,2.31758720703125,10.352527978515624,10.617914834145056
1.5220094503854762,-0.39264907226562495,2.3511060302734372,10.510545288085936,10.777450306656238
1.5244963939318577,-0.3591302490234375,2.403778466796875,10.601524951171875,10.876555371234028
1.5269833374782391,-0.3399766357421875,2.4564509033203126,10.601524951171875,10.88770253283922
1.5294702810246206,-0.33518823242187495,2.499546533203125,10.524910498046875,10.82283812198534
1.5319572245710023,-0.3447650390625,2.5617957763671875,10.390835205078124,10.70752617512857
1.5344441681173837,-0.38307226562499996,2.6240450195312497,10.218452685546874,10.55694709241161
1.5369311116637652,-0.4165910888671875,2.6623522460937497,9.9981861328125,10.354969510528177
1.5394180552101466,-0.45010991210937495,2.6910826660156246,9.758765966796874,10.133017223069436
1.541904998756528,-0.5027823486328125,2.7150246826171873,9.519345800781249,9.911714967258133
1.5443919423029095,-0.5458779785156249,2.7341782958984373,9.289502441406249,9.698895263383509
1.5468788858492912,-0.5793968017578125,2.73896669921875,9.083601098632812,9.505232672186391
1.5493658293956727,-0.622492431640625,2.7150246826171873,8.916006982421875,9.340986905314987
1.5518527729420541,-0.6464344482421874,2.6862942626953124,8.801085302734375,9.224595214299159
1.5543397164884356,-0.6560112548828124,2.6623522460937497,8.729259252929687,9.14977799477517
1.556826660034817,-0.6512228515624999,2.6288334228515624,8.700528833007812,9.1123025817572
1.5593136035811985,-0.6416460449218749,2.5905261962890624,8.719682446289061,9.118958141407678
1.5618005471275802,-0.6272808349609375,2.5570073730468748,8.786720092773438,9.172688697458005
1.5642874906739617,-0.5985504150390625,2.518700146484375,8.896853369140624,9.265857375290897
1.5667744342203431,-0.565031591796875,2.4756045166015626,9.04050546875,9.390347041129269
1.5692613777667246,-0.5410895751953124,2.4564509033203126,9.212887988281249,9.550090787705901
1.571748321313106,-0.5123591552734374,2.442085693359375,9.3852705078125,9.711312833109545
1.5742352648594875,-0.47884033203125,2.43250888671875,9.548076220703125,9.864691939635113
1.5767222084058692,-0.45968671875,2.43250888671875,9.706093530273437,10.016819005142137
1.5792091519522506,-0.45489831542968745,2.446874096679687,9.82580361328125,10.136100925363445
1.581696095498632,-0.44053310546874996,2.4660277099609376,9.897629663085937,10.20972257365046
1.5841830390450136,-0.44053310546874996,2.4899697265625,9.955090502929687,10.271214415916578
1.586669982591395,-0.45010991210937495,2.5139117431640625,9.97903251953125,10.300652465317889
1.5891569261377765,-0.45968671875,2.5426421630859375,9.95987890625,10.289583513245868
1.5916438696841582,-0.4644751220703125,2.5761609863281247,9.916783276367187,10.256458117544149
1.5941308132305396,-0.49320554199218747,2.5953145996093747,9.8449572265625,10.19323758039822
1.596617756776921,-0.5219359619140624,2.6144682128906247,9.749189160156249,10.107153430371122
1.5991047003233025,-0.5410895751953124,2.6240450195312497,9.634267480468749,9.999875003125263
1.601591643869684,-0.5506663818359374,2.6288334228515624,9.524134204101562,9.895611702513547
1.6040785874160655,-0.565031591796875,2.6336218261718747,9.414000927734374,9.79176378853172
1.6065655309624471,-0.584185205078125,2.6288334228515624,9.318232861328125,9.69956190644036
1.6090524745088286,-0.5985504150390625,2.6096798095703124,9.2320416015625,9.612454600194638
1.61153941805521,-0.59376201171875,2.6001030029296874,9.160215551757812,9.540578489120561
1.6140263616015915,-0.5889736083984375,2.5857377929687497,9.141061938476563,9.517979996219875
1.616513305147973,-0.5793968017578125,2.5617957763671875,9.141061938476563,9.510915393208208
1.6190002486943544,-0.565031591796875,2.5474305664062498,9.141061938476563,9.506191485208694
1.6214871922407361,-0.5506663818359374,2.5234885498046875,9.165003955078124,9.52200217505107
1.6239741357871176,-0.5363011718749999,2.5043349365234375,9.212887988281249,9.5622496048714
1.626461079333499,-0.51714755859375,2.499546533203125,9.255983618164063,9.601479428126101
1.6289480228798805,-0.49320554199218747,2.4899697265625,9.3086560546875,9.648537634808697
1.631434966426262,-0.4836287353515625,2.4947581298828125,9.3852705078125,9.7232205253758
1.6339219099726436,-0.488417138671875,2.499546533203125,9.4618849609375,9.798650477847008
1.636408853519025,-0.488417138671875,2.50912333984375,9.5384994140625,9.87508087602161
1.6388957970654066,-0.4836287353515625,2.518700146484375,9.605537060546874,9.942036481682093
1.641382740611788,-0.4836287353515625,2.528276953125,9.658209497070311,9.995353510239642
1.6438696841581695,-0.49320554199218747,2.5522189697265625,9.677363110351562,10.0204006978602
1.646356627704551,-0.49320554199218747,2.5665841796874997,9.710881933593749,10.05643246814055
1.6488435712509326,-0.507570751953125,2.5857377929687497,9.715670336914062,10.066673636202625
1.651330514797314,-0.51714755859375,2.6096798095703124,9.686939916992188,10.045629659770213
1.6538174583436955,-0.5267243652343749,2.6096798095703124,9.667786303710937,10.027659711000931
1.656304401890077,-0.5410895751953124,2.6192566162109374,9.624690673828125,9.989392059421029
1.6587913454364585,-0.5410895751953124,2.6336218261718747,9.552864624023437,9.924009490956383
1.66127828898284,-0.5506663818359374,2.6240450195312497,9.509768994140625,9.880513754381877
1.6637652325292216,-0.55545478515625,2.6240450195312497,9.471461767578125,9.843918442245135
1.666252176075603,-0.5602431884765625,2.6240450195312497,9.414000927734374,9.788917108758497
1.6687391196219845,-0.55545478515625,2.6096798095703124,9.366116894531249,9.738742444938957
1.671226063168366,-0.5506663818359374,2.6001030029296874,9.332598071289063,9.70366713413834
1.6737130067147474,-0.5410895751953124,2.5953145996093747,9.3086560546875,9.678817765812148
1.676199950261129,-0.5363011718749999,2.5809493896484375,9.299079248046874,9.665494998205585
1.6786868938075106,-0.5315127685546874,2.5761609863281247,9.299079248046874,9.663952923730113
1.681173837353892,-0.5267243652343749,2.5617957763671875,9.3086560546875,9.669090634657147
1.6836607809002735,-0.5219359619140624,2.5522189697265625,9.313444458007812,9.670909289729053
1.686147724446655,-0.51714755859375,2.5426421630859375,9.342174877929686,9.695808487005214
1.6886346679930364,-0.5123591552734374,2.5330653564453125,9.370905297851563,9.720740615062127
1.6911216115394179,-0.5123591552734374,2.5378537597656248,9.390058911132812,9.740452759728049
1.6936085550857995,-0.5123591552734374,2.5378537597656248,9.437942944335937,9.786622534382815
1.696095498632181,-0.5123591552734374,2.5330653564453125,9.471461767578125,9.8177146026308
1.6985824421785625,-0.51714755859375,2.5522189697265625,9.490615380859374,9.841394391761572
1.701069385724944,-0.5219359619140624,2.5522189697265625,9.504980590820312,9.855500740684976
1.7035563292713254,-0.5219359619140624,2.5522189697265625,9.509768994140625,9.860118921173806
1.7060432728177068,-0.5267243652343749,2.5570073730468748,9.528922607421874,9.880085592796418
1.7085302163640885,-0.5315127685546874,2.5617957763671875,9.533711010742186,9.886199930170147
1.71101715991047,-0.5410895751953124,2.5713725830078125,9.5384994140625,9.893821605481875
1.7135041034568514,-0.5458779785156249,2.5665841796874997,9.533711010742186,9.888224449070584
1.715991047003233,-0.5363011718749999,2.5617957763671875,9.533711010742186,9.88645852583796
1.7184779905496144,-0.5410895751953124,2.5570073730468748,9.533711010742186,9.885479769366174
1.7209649340959958,-0.5458779785156249,2.5617957763671875,9.509768994140625,9.863898148762459
1.7234518776423775,-0.5410895751953124,2.5617957763671875,9.481038574218749,9.83593757473184
1.725938821188759,-0.5363011718749999,2.5474305664062498,9.4618849609375,9.813474840831386
1.7284257647351404,-0.5363011718749999,2.5474305664062498,9.452308154296874,9.804241474045941
1.7309127082815219,-0.5363011718749999,2.5570073730468748,9.442731347656249,9.797503812542283
1.7333996518279033,-0.5363011718749999,2.5474305664062498,9.423577734375,9.776545338381222
1.7358865953742848,-0.5219359619140624,2.5378537597656248,9.414000927734374,9.764042826702438
1.7383735389206665,-0.51714755859375,2.5378537597656248,9.414000927734374,9.763788033888265
1.740860482467048,-0.5267243652343749,2.5426421630859375,9.414000927734374,9.76554561680081
1.7433474260134294,-0.5267243652343749,2.5378537597656248,9.414000927734374,9.764299961096635
1.7458343695598109,-0.5267243652343749,2.5330653564453125,9.414000927734374,9.763056494988577
1.7483213131061923,-0.5267243652343749,2.5330653564453125,9.414000927734374,9.763056494988577
1.7508082566525738,-0.5219359619140624,2.5330653564453125,9.423577734375,9.772034310427427
1.7532952001989555,-0.5219359619140624,2.5426421630859375,9.433154541015625,9.783754438482458
1.755782143745337,-0.51714755859375,2.5426421630859375,9.447519750976562,9.797351693797363
1.7582690872917184,-0.5219359619140624,2.5378537597656248,9.447519750976562,9.7963640346502
1.7607560308380998,-0.5267243652343749,2.5522189697265625,9.457096557617186,9.809583861023794
1.7632429743844813,-0.5315127685546874,2.5522189697265625,9.481038574218749,9.832925299136196
1.765729917930863,-0.5410895751953124,2.5570073730468748,9.490615380859374,9.843924265332685
1.7682168614772444,-0.5315127685546874,2.5617957763671875,9.490615380859374,9.844647466027107
1.770703805023626,-0.5315127685546874,2.5665841796874997,9.490615380859374,9.8458946003887
1.7731907485700074,-0.5315127685546874,2.5713725830078125,9.495403784179686,9.851759021027405
1.7756776921163888,-0.5315127685546874,2.5665841796874997,9.504980590820312,9.859742197767124
1.7781646356627703,-0.5363011718749999,2.5617957763671875,9.485826977539062,9.840291153953482
1.780651579209152,-0.5363011718749999,2.5522189697265625,9.476250170898437,9.8285684571986
1.7831385227555334,-0.5267243652343749,2.5570073730468748,9.457096557617186,9.810830778422512
1.7856254663019149,-0.5267243652343749,2.5665841796874997,9.442731347656249,9.79948816073389
1.7881124098482963,-0.5267243652343749,2.5617957763671875,9.442731347656249,9.798235119691418
1.7905993533946778,-0.5267243652343749,2.5570073730468748,9.4618849609375,9.815446616265756
1.7930862969410593,-0.5315127685546874,2.5570073730468748,9.471461767578125,9.824936668683767
1.795573240487441,-0.5267243652343749,2.5570073730468748,9.476250170898437,9.829295120414296
1.7980601840338224,-0.5219359619140624,2.5570073730468748,9.481038574218749,9.833656303734594
1.8005471275802039,-0.5267243652343749,2.5570073730468748,9.490615380859374,9.84314510561295
1.8030340711265853,-0.5267243652343749,2.5570073730468748,9.481038574218749,9.833911617895064
1.8055210146729668,-0.5219359619140624,2.5617957763671875,9.466673364257812,9.821054899230543
1.8080079582193482,-0.5267243652343749,2.5761609863281247,9.4618849609375,9.820453706342997
1.81049490176573,-0.5315127685546874,2.5809493896484375,9.4618849609375,9.821968875387386
1.8129818453121114,-0.5267243652343749,2.5761609863281247,9.452308154296874,9.811226907385123
1.8154687888584928,-0.5219359619140624,2.5665841796874997,9.447519750976562,9.803846232211804
1.8179557324048743,-0.51714755859375,2.5713725830078125,9.442731347656249,9.80023335752847
1.8204426759512558,-0.51714755859375,2.5713725830078125,9.433154541015625,9.79100623800677
1.8229296194976372,-0.5267243652343749,2.5713725830078125,9.447519750976562,9.805356952333153
1.825416563044019,-0.5315127685546874,2.5761609863281247,9.452308154296874,9.81148514213842
1.8279035065904004,-0.5267243652343749,2.5617957763671875,9.452308154296874,9.80746478966565
1.8303904501367818,-0.5267243652343749,2.5570073730468748,9.452308154296874,9.806215106070987
1.8328773936831633,-0.5267243652343749,2.5570073730468748,9.447519750976562,9.801599599444975
1.8353643372295447,-0.5267243652343749,2.5617957763671875,9.452308154296874,9.80746478966565
1.8378512807759262,-0.5267243652343749,2.5474305664062498,9.466673364257812,9.81757330673628
1.8403382243223079,-0.5315127685546874,2.5426421630859375,9.457096557617186,9.807354908064347
1.8428251678686893,-0.5410895751953124,2.5522189697265625,9.447519750976562,9.801134069224306
1.8453121114150708,-0.5315127685546874,2.5617957763671875,9.452308154296874,9.80772312347451
1.8477990549614522,-0.5219359619140624,2.5617957763671875,9.457096557617186,9.811823991911329
1.8502859985078337,-0.5267243652343749,2.5617957763671875,9.466673364257812,9.821310540976322
1.8527729420542152,-0.5219359619140624,2.5617957763671875,9.481038574218749,9.834902500481425
1.8552598856005968,-0.51714755859375,2.5713725830078125,9.481038574218749,9.837148519963884
1.8577468291469783,-0.51714755859375,2.5761609863281247,9.4618849609375,9.819944706506947
1.8602337726933598,-0.5267243652343749,2.5665841796874997,9.457096557617186,9.813331147395798
1.8627207162397412,-0.5315127685546874,2.5665841796874997,9.457096557617186,9.813589326778132
1.8652076597861227,-0.5267243652343749,2.5761609863281247,9.452308154296874,9.811226907385123
1.8676946033325041,-0.5267243652343749,2.5713725830078125,9.447519750976562,9.805356952333153
1.8701815468788858,-0.5267243652343749,2.5713725830078125,9.447519750976562,9.805356952333153
1.8726684904252673,-0.5267243652343749,2.5761609863281247,9.447519750976562,9.806613759575876
1.8751554339716487,-0.5219359619140624,2.5665841796874997,9.457096557617186,9.813075297777763
1.8776423775180302,-0.5267243652343749,2.5665841796874997,9.457096557617186,9.813331147395798
1.8801293210644117,-0.5315127685546874,2.5713725830078125,9.452308154296874,9.810228958977875
1.8826162646107931,-0.5267243652343749,2.5665841796874997,9.447519750976562,9.804102322673197
1.8851032081571748,-0.5219359619140624,2.5522189697265625,9.466673364257812,9.818561167672154
1.8875901517035563,-0.51714755859375,2.5617957763671875,9.481038574218749,9.834649543476173
1.8900770952499377,-0.5219359619140624,2.5665841796874997,9.476250170898437,9.831535424399078
1.8925640387963192,-0.5267243652343749,2.5617957763671875,9.471461767578125,9.825926122836384
1.8950509823427006,-0.5219359619140624,2.5665841796874997,9.471461767578125,9.826920143893277
1.897537925889082,-0.5219359619140624,2.5713725830078125,9.466673364257812,9.82355733400746
1.9000248694354638,-0.5267243652343749,2.5761609863281247,9.452308154296874,9.811226907385123
1.9025118129818452,-0.5219359619140624,2.5761609863281247,9.452308154296874,9.810971002892906
1.9049987565282267,-0.5267243652343749,2.5809493896484375,9.452308154296874,9.812485299486841
1.9074857000746082,-0.5267243652343749,2.5665841796874997,9.447519750976562,9.804102322673197
1.9099726436209896,-0.5267243652343749,2.5570073730468748,9.452308154296874,9.806215106070987
1.9124595871673713,-0.5315127685546874,2.5617957763671875,9.452308154296874,9.80772312347451
1.9149465307137528,-0.5267243652343749,2.5570073730468748,9.457096557617186,9.810830778422512
1.9174334742601342,-0.5267243652343749,2.5617957763671875,9.457096557617186,9.812079874157117
1.9199204178065157,-0.5315127685546874,2.5665841796874997,9.466673364257812,9.822818575139578
1.9224073613528971,-0.5410895751953124,2.5522189697265625,9.481038574218749,9.833447617374134
1.9248943048992786,-0.5363011718749999,2.5474305664062498,9.481038574218749,9.831943545578323
1.9273812484456603,-0.5315127685546874,2.5522189697265625,9.466673364257812,9.819074909486998
1.9298681919920417,-0.5267243652343749,2.5522189697265625,9.447519750976562,9.800351507545836
1.9323551355384232,-0.5267243652343749,2.5522189697265625,9.457096557617186,9.809583861023794
1.9348420790848047,-0.5363011718749999,2.5570073730468748,9.476250170898437,9.829812966390726
1.9373290226311861,-0.5315127685546874,2.5570073730468748,9.4618849609375,9.815704740005579
1.9398159661775676,-0.5219359619140624,2.5426421630859375,9.457096557617186,9.806840552284733
1.9423029097239493,-0.5267243652343749,2.5426421630859375,9.471461767578125,9.820949839049582
1.9447898532703307,-0.5219359619140624,2.5522189697265625,9.471461767578125,9.823178041370594
1.9472767968167122,-0.5219359619140624,2.5474305664062498,9.466673364257812,9.817317567673378
1.9497637403630936,-0.5219359619140624,2.5330653564453125,9.4618849609375,9.808980796309973
1.952250683909475,-0.5267243652343749,2.5426421630859375,9.457096557617186,9.807096564556133
1.9547376274558566,-0.5315127685546874,2.5522189697265625,9.452308154296874,9.805226001289107
1.9572245710022382,-0.5410895751953124,2.5570073730468748,9.452308154296874,9.806997199856248
1.9597115145486197,-0.5410895751953124,2.5522189697265625,9.452308154296874,9.805749794972556
1.9621984580950012,-0.5267243652343749,2.5522189697265625,9.457096557617186,9.809583861023794
1.9646854016413826,-0.5315127685546874,2.5522189697265625,9.466673364257812,9.819074909486998
1.967172345187764,-0.5410895751953124,2.5570073730468748,9.466673364257812,9.820843610390577
1.9696592887341455,-0.5315127685546874,2.5570073730468748,9.457096557617186,9.8110890236022
1.9721462322805272,-0.5315127685546874,2.5522189697265625,9.447519750976562,9.80061002885336
1.9746331758269087,-0.5410895751953124,2.5474305664062498,9.447519750976562,9.799888257737338
1.9771201193732901,-0.5267243652343749,2.5522189697265625,9.452308154296874,9.804967601687975
1.9796070629196716,-0.51714755859375,2.5522189697265625,9.452308154296874,9.80445779788861
1.982094006466053,-0.5219359619140624,2.5570073730468748,9.452308154296874,9.80595907078662
1.9845809500124345,-0.5267243652343749,2.5570073730468748,9.457096557617186,9.810830778422512
1.9870678935588162,-0.5267243652343749,2.5522189697265625,9.471461767578125,9.823433627864436
1.9895548371051976,-0.5315127685546874,2.5474305664062498,9.476250170898437,9.82706597185804
1.992041780651579,-0.5267243652343749,2.5474305664062498,9.481038574218749,9.83142581182487
1.9945287241979606,-0.51714755859375,2.5474305664062498,9.481038574218749,9.830917380074162
1.997015667744342,-0.51714755859375,2.5378537597656248,9.485826977539062,9.833059379009356
1.9995026112907235,-0.5315127685546874,2.5570073730468748,9.481038574218749,9.834169256972174
2.001989554837105,-0.5315127685546874,2.5713725830078125,9.466673364257812,9.82407081455184
2.0044764983834864,-0.5315127685546874,2.5665841796874997,9.466673364257812,9.822818575139578
2.006963441929868,-0.5267243652343749,2.5617957763671875,9.471461767578125,9.825926122836384
2.0094503854762498,-0.5219359619140624,2.5570073730468748,9.471461767578125,9.824423233393876
2.011937329022631,-0.5267243652343749,2.5570073730468748,9.471461767578125,9.824678787494367
2.0144242725690127,-0.5315127685546874,2.5570073730468748,9.466673364257812,9.820320621777125
2.016911216115394,-0.5267243652343749,2.5474305664062498,9.452308154296874,9.803722277348518
2.0193981596617756,-0.5315127685546874,2.5474305664062498,9.442731347656249,9.79474775672184
2.021885103208157,-0.5410895751953124,2.5522189697265625,9.452308154296874,9.805749794972556
2.0243720467545385,-0.5315127685546874,2.5570073730468748,9.466673364257812,9.820320621777125
2.02685899030092,-0.5219359619140624,2.5665841796874997,9.476250170898437,9.831535424399078
2.0293459338473014,-0.5267243652343749,2.5617957763671875,9.471461767578125,9.825926122836384
2.031832877393683,-0.5315127685546874,2.5617957763671875,9.4618849609375,9.81695321558398
2.0343198209400644,-0.5315127685546874,2.5713725830078125,9.466673364257812,9.82407081455184
2.036806764486446,-0.5267243652343749,2.5665841796874997,9.466673364257812,9.822560638341818
2.0392937080328277,-0.5219359619140624,2.5713725830078125,9.457096557617186,9.814328780363853
2.041780651579209,-0.5219359619140624,2.5809493896484375,9.442731347656249,9.803004243816066
2.0442675951255906,-0.5315127685546874,2.5713725830078125,9.447519750976562,9.805615341674034
2.046754538671972,-0.5267243652343749,2.5761609863281247,9.452308154296874,9.811226907385123
2.0492414822183536,-0.5027823486328125,2.5809493896484375,9.452308154296874,9.811229244381693
2.0517284257647352,-0.5027823486328125,2.5761609863281247,9.452308154296874,9.809970691157186
2.0542153693111165,-0.5123591552734374,2.5713725830078125,9.452308154296874,9.80920987176969
2.056702312857498,-0.51714755859375,2.5713725830078125,9.442731347656249,9.80023335752847
2.0591892564038794,-0.5219359619140624,2.5713725830078125,9.433154541015625,9.791260322535967
2.061676199950261,-0.5267243652343749,2.5713725830078125,9.457096557617186,9.814584597305718
2.0641631434966423,-0.5267243652343749,2.5713725830078125,9.476250170898437,9.83304189043393
2.066650087043024,-0.5267243652343749,2.5617957763671875,9.471461767578125,9.825926122836384
2.0691370305894057,-0.5219359619140624,2.5522189697265625,9.466673364257812,9.818561167672154
2.071623974135787,-0.5267243652343749,2.5474305664062498,9.457096557617186,9.80833912279175
2.0741109176821686,-0.5363011718749999,2.5426421630859375,9.447519750976562,9.79838137457147
2.07659786122855,-0.5315127685546874,2.5522189697265625,9.442731347656249,9.795994221955155
2.0790848047749315,-0.5315127685546874,2.5617957763671875,9.437942944335937,9.793879233658638
2.081571748321313,-0.5410895751953124,2.5617957763671875,9.447519750976562,9.803632233682068
2.0840586918676944,-0.5363011718749999,2.5522189697265625,9.452308154296874,9.805486732445962
2.086545635414076,-0.5267243652343749,2.5474305664062498,9.447519750976562,9.799105596567713
2.0890325789604574,-0.5219359619140624,2.5570073730468748,9.457096557617186,9.810574863597447
2.091519522506839,-0.5315127685546874,2.5570073730468748,9.4618849609375,9.815704740005579
2.0940064660532203,-0.5219359619140624,2.5570073730468748,9.457096557617186,9.810574863597447
2.096493409599602,-0.51714755859375,2.5522189697265625,9.457096557617186,9.809074297143765
2.0989803531459836,-0.5219359619140624,2.5617957763671875,9.452308154296874,9.80720878700658
2.101467296692365,-0.5267243652343749,2.5713725830078125,9.447519750976562,9.805356952333153
2.1039542402387466,-0.5219359619140624,2.5570073730468748,9.457096557617186,9.810574863597447
2.106441183785128,-0.5267243652343749,2.5426421630859375,9.476250170898437,9.825567923936333
2.1089281273315095,-0.5267243652343749,2.5522189697265625,9.485826977539062,9.837284873082183
2.111415070877891,-0.5267243652343749,2.5570073730468748,9.471461767578125,9.824678787494367
2.1139020144242724,-0.5315127685546874,2.5474305664062498,9.457096557617186,9.808597433572874
2.116388957970654,-0.5315127685546874,2.5474305664062498,9.447519750976562,9.79936415074416
2.1188759015170353,-0.5410895751953124,2.5617957763671875,9.442731347656249,9.79901785038724
2.121362845063417,-0.5219359619140624,2.5570073730468748,9.447519750976562,9.801343443592184
2.1238497886097982,-0.51714755859375,2.5426421630859375,9.442731347656249,9.792734351082531
2.12633673215618,-0.5267243652343749,2.5378537597656248,9.442731347656249,9.792002633113313
2.1288236757025616,-0.5267243652343749,2.5426421630859375,9.457096557617186,9.807096564556133
2.131310619248943,-0.51714755859375,2.5522189697265625,9.457096557617186,9.809074297143765
2.1337975627953245,-0.51714755859375,2.5570073730468748,9.452308154296874,9.805705367130033
2.1362845063417057,-0.5267243652343749,2.5522189697265625,9.457096557617186,9.809583861023794
2.1387714498880874,-0.5315127685546874,2.5426421630859375,9.452308154296874,9.802737599080482
2.141258393434469,-0.51714755859375,2.5378537597656248,9.4618849609375,9.809964847915166
2.1437453369808503,-0.5027823486328125,2.5426421630859375,9.481038574218749,9.828932378718603
2.146232280527232,-0.5123591552734374,2.5522189697265625,9.471461767578125,9.822673851254493
2.1487192240736133,-0.51714755859375,2.5570073730468748,9.457096557617186,9.810321279309377
2.151206167619995,-0.5123591552734374,2.5617957763671875,9.447519750976562,9.802088499340206
2.153693111166376,-0.507570751953125,2.5570073730468748,9.433154541015625,9.786742020138165
2.156180054712758,-0.5219359619140624,2.5570073730468748,9.442731347656249,9.796727982248218
2.1586669982591395,-0.5219359619140624,2.5665841796874997,9.452308154296874,9.808460681653798
2.161153941805521,-0.51714755859375,2.5617957763671875,9.471461767578125,9.825417406495582
2.1636408853519025,-0.5315127685546874,2.5617957763671875,9.490615380859374,9.844647466027107
2.1661278288982837,-0.5315127685546874,2.5570073730468748,9.490615380859374,9.843402503014762
2.1686147724446654,-0.5219359619140624,2.5522189697265625,9.485826977539062,9.837029646472514
2.171101715991047,-0.5267243652343749,2.5522189697265625,9.481038574218749,9.83266762746446
2.1735886595374283,-0.5219359619140624,2.5570073730468748,9.466673364257812,9.819806945134083
2.17607560308381,-0.51714755859375,2.5665841796874997,9.447519750976562,9.803592473877822
2.178562546630191,-0.5219359619140624,2.5617957763671875,9.433154541015625,9.788749631226432
2.181049490176573,-0.5267243652343749,2.5617957763671875,9.418789331054686,9.775163866633331
2.1835364337229546,-0.5410895751953124,2.5713725830078125,9.409212524414063,9.769238210762381
2.186023377269336,-0.5410895751953124,2.5761609863281247,9.399635717773437,9.761277323317184
2.1885103208157175,-0.5315127685546874,2.5617957763671875,9.409212524414063,9.766195971438412
2.1909972643620987,-0.5410895751953124,2.5665841796874997,9.433154541015625,9.791043707107578
2.1934842079084804,-0.5410895751953124,2.5713725830078125,9.447519750976562,9.806139114560917
2.1959711514548617,-0.5410895751953124,2.5665841796874997,9.4618849609375,9.818726969104622
2.1984580950012433,-0.5363011718749999,2.5665841796874997,9.457096557617186,9.81384983574089
2.200945038547625,-0.5315127685546874,2.5617957763671875,9.466673364257812,9.821568510604493
2.2034319820940063,-0.5267243652343749,2.5617957763671875,9.471461767578125,9.825926122836384
2.205918925640388,-0.5363011718749999,2.5617957763671875,9.466673364257812,9.821828807931626
2.208405869186769,-0.5410895751953124,2.5617957763671875,9.466673364257812,9.822091432772663
2.210892812733151,-0.5410895751953124,2.5665841796874997,9.466673364257812,9.823341430763541
2.2133797562795325,-0.5315127685546874,2.5617957763671875,9.466673364257812,9.821568510604493
2.2158666998259138,-0.5267243652343749,2.5665841796874997,9.452308154296874,9.808716651639035
2.2183536433722955,-0.5219359619140624,2.5713725830078125,9.457096557617186,9.814328780363853
2.2208405869186767,-0.5219359619140624,2.5665841796874997,9.466673364257812,9.82230502913189
2.2233275304650584,-0.5219359619140624,2.5713725830078125,9.4618849609375,9.818942973813355
2.2258144740114396,-0.5219359619140624,2.5713725830078125,9.457096557617186,9.814328780363853
2.2283014175578213,-0.5267243652343749,2.5761609863281247,9.466673364257812,9.82506735701893
2.230788361104203,-0.5219359619140624,2.5665841796874997,9.466673364257812,9.82230502913189
2.233275304650584,-0.5123591552734374,2.5570073730468748,9.447519750976562,9.800838130226458
2.235762248196966,-0.507570751953125,2.5570073730468748,9.4618849609375,9.814437415770175
2.238249191743347,-0.51714755859375,2.5522189697265625,9.476250170898437,9.827541939276793
2.240736135289729,-1.6424223388671875,0.5363011718749999,25.18700146484375,25.246192047043564
2.2432230788361105,-1.446097802734375,0.47884033203125,24.497471386718747,24.544787456031408
2.2457100223824917,-1.2210428466796874,0.584185205078125,22.448034765625,22.48880794586428
2.2481969659288734,-0.9624690673828125,0.8092401611328125,19.321207397460935,19.362083349674904
2.2506839094752547,-0.679953271484375,1.120486376953125,15.461754321289062,15.517205704128589
2.2531708530216363,-0.40222587890625,1.5083470458984374,11.310208642578125,11.417430359199978
2.2556577965680176,-0.16280571289062498,1.9536685546875,7.254431030273437,7.514658747722261
2.2581447401143993,0.062249243164062495,2.408566870117187,3.6679169433593746,4.388471720255627
2.260631683660781,0.239420166015625,2.834734765625,0.86191259765625,2.9725303250491013
2.263118627207162,0.3495534423828125,3.2225954345703123,-0.97683427734375,3.385485806998573
2.265605570753544,0.4070142822265625,3.5338416503906247,-1.695094775390625,3.940436997786988
2.268092514299925,0.38786066894531246,3.763685009765625,-1.3120225097656248,4.004642782743658
2.2705794578463068,0.32561142578124996,3.892971899414062,0.023942016601562498,3.906638738146359
2.2730664013926885,0.2154781494140625,3.9264907226562498,2.1643583007812497,4.488675426241154
2.2755533449390697,0.047884033203124995,3.84987626953125,4.8650177734375,6.204211320320933
2.2780402884854514,-0.12449848632812499,3.6918589599609373,7.809885815429687,8.63942352841853
2.2805272320318326,-0.3112462158203125,3.4859576171874997,10.702081420898438,11.259810009730606
2.2830141755782143,-0.5315127685546874,3.2225954345703123,13.2926076171875,13.68798905692729
2.2855011191245955,-0.7326257080078125,2.920926025390625,15.356409448242186,15.648893264889377
2.287988062670977,-0.8954314208984374,2.6144682128906247,16.730681201171873,16.957385851628004
2.290475006217359,-1.0342951171875,2.327164013671875,17.329231616210937,17.5153568945726
2.29296194976374,-1.1348515869140625,2.0781670410156248,17.152060693359374,17.314729348256318
2.295448893310122,-1.197100830078125,1.8722656982421875,16.270994482421873,16.42204891873091
2.297935836856503,-1.2210428466796874,1.714248388671875,14.805743066406249,14.954585280773534
2.3004227804028847,-1.1875240234375,1.6328455322265625,12.928688964843749,13.085388652540129
2.3029097239492664,-1.120486376953125,1.6232687255859375,10.855310327148437,11.03305276771114
2.3053966674956476,-1.0390835205078124,1.6807295654296874,8.801085302734375,9.020180094693643
2.3078836110420293,-0.9145850341796874,1.7908628417968748,6.943184814453125,7.228517888926243
2.3103705545884106,-0.7661445312499999,1.9536685546875,5.439626171875,5.830380017982232
2.3128574981347922,-0.612915625,2.1404162841796874,4.410119458007812,4.94026325886079
2.315344441681174,-0.469263525390625,2.3415292236328122,3.9264907226562498,4.595682403788812
2.317831385227555,-0.33518823242187495,2.5522189697265625,3.9695863525390624,4.731150878047602
2.320318328773937,-0.2154781494140625,2.748543505859375,4.529829541015625,5.302855637025628
2.322805272320318,-0.12449848632812499,2.920926025390625,5.530605834960937,6.255790087639308
2.3252922158666998,-0.062249243164062495,3.0693665283203124,6.833051538085937,7.49102657688425
2.327779159413081,-0.023942016601562498,3.1603461914062496,8.279149340820313,8.861866342780191
2.3302661029594627,-0.023942016601562498,3.2034418212890623,9.749189160156249,10.262032060125852
2.3327530465058444,-0.05746083984375,3.19865341796875,11.104307299804686,11.55596495516036
2.3352399900522256,-0.12449848632812499,3.1603461914062496,12.20085166015625,12.604129051853265
2.3377269335986073,-0.201112939453125,3.0837317382812497,12.966996191406249,13.330147713961866
2.3402138771449885,-0.296881005859375,2.96881005859375,13.354856860351562,13.68408467001453
2.34270082069137,-0.40222587890625,2.85388837890625,13.3692220703125,13.67635051109209
2.345187764237752,-0.507570751953125,2.7150246826171873,13.010091821289063,13.300055499652299
2.347674707784133,-0.603338818359375,2.5761609863281247,12.339715356445312,12.620190102978269
2.350161651330515,-0.689530078125,2.4516625,11.444283935546874,11.724237098419733
2.352648594876896,-0.7613561279296874,2.3367408203125,10.419565624999999,10.705483110468787
2.3551355384232777,-0.8283937744140625,2.2457611572265623,9.375693701171874,9.676430736536563
2.357622481969659,-0.8667010009765624,2.1883003173828124,8.40843623046875,8.731645248520522
2.3601094255160406,-0.8714894042968749,2.1643583007812497,7.584830859375,7.935590702732199
2.3625963690624223,-0.8714894042968749,2.1595698974609374,6.995857250976562,7.373279772249424
2.3650833126088036,-0.8475473876953125,2.1835119140624997,6.694187841796874,7.092123216252177
2.3675702561551852,-0.7948749511718749,2.2457611572265623,6.660669018554687,7.073880203823242
2.3700571997015665,-0.7326257080078125,2.3223756103515623,6.880935571289062,7.299139897263299
2.372544143247948,-0.6607996582031249,2.398990063476562,7.335833886718749,7.746371300581438
2.37503108679433,-0.584185205078125,2.4851813232421875,7.958326318359375,8.357772212301281
2.377518030340711,-0.5123591552734374,2.5713725830078125,8.686163623046875,9.073252302839352
2.3800049738870928,-0.44053310546874996,2.6575638427734374,9.433154541015625,9.810255837138723
2.382491917433474,-0.38307226562499996,2.729389892578125,10.13226142578125,10.500430236270008
2.3849788609798557,-0.32561142578124996,2.77727392578125,10.730811840820312,11.089165704529494
2.387465804526237,-0.28730419921875,2.81558115234375,11.156979736328124,11.510353503049263
2.3899527480726186,-0.2825157958984375,2.834734765625,11.391611499023437,11.742416655486984
2.3924396916190003,-0.27293898925781246,2.844311572265625,11.439495532226562,11.79095679085513
2.3949266351653815,-0.2920926025390625,2.829946362304687,11.3006318359375,11.653248233577782
2.397413578711763,-0.32561142578124996,2.7820623291015623,10.998962426757812,11.35002502503124
2.3999005222581444,-0.3591302490234375,2.729389892578125,10.563217724609375,10.916048388449592
2.402387465804526,-0.4070142822265625,2.6719290527343746,10.050858569335936,10.407911580599444
2.404874409350908,-0.45968671875,2.6192566162109374,9.533711010742186,9.897649354129834
2.407361352897289,-0.5123591552734374,2.5665841796874997,9.04050546875,9.41172701399235
2.4098482964436707,-0.5698199951171875,2.5043349365234375,8.604760766601562,8.97988285845493
2.412335239990052,-0.6177040283203125,2.4516625,8.288726147460936,8.665748001650638
2.4148221835364336,-0.6560112548828124,2.422932080078125,8.092401611328125,8.47277489788503
2.417309127082815,-0.6943184814453125,2.39420166015625,8.039729174804688,8.417334788837683
2.4197960706291965,-0.718260498046875,2.370259643554687,8.125920434570313,8.494975681535877
2.4222830141755782,-0.699106884765625,2.375048046875,8.317456567382813,8.678115429722686
2.4247699577219595,-0.6943184814453125,2.379836450195312,8.614337573242187,8.96395624203548
2.427256901268341,-0.689530078125,2.39420166015625,8.973467822265624,9.312936060951484
2.4297438448147224,-0.6655880615234374,2.437297290039062,9.34696328125,9.682414374974355
2.432230788361104,-0.63206923828125,2.4851813232421875,9.710881933593749,10.043747590395265
2.4347177319074857,-0.5985504150390625,2.50912333984375,10.022128149414062,10.348768775906137
2.437204675453867,-0.5602431884765625,2.5570073730468748,10.261548315429687,10.590162084026302
2.4396916190002487,-0.51714755859375,2.6048914062499997,10.40041201171875,10.734126459531685
2.44217856254663,-0.4740519287109375,2.6288334228515624,10.448296044921875,10.784358146804387
2.4446655060930116,-0.45010991210937495,2.6479870361328124,10.405200415039062,10.746284472022673
2.4471524496393933,-0.4165910888671875,2.6671406494140624,10.280701928710936,10.629205968748614
2.4496393931857745,-0.38786066894531246,2.6719290527343746,10.09395419921875,10.448806254174999
2.452126336732156,-0.38786066894531246,2.6719290527343746,9.849745629882811,10.2130862002999
2.4546132802785374,-0.39743747558593745,2.6719290527343746,9.567229833984374,9.941280003406343
2.457100223824919,-0.39264907226562495,2.6479870361328124,9.3086560546875,9.685922061525622
2.4595871673713003,-0.4070142822265625,2.6096798095703124,9.083601098632812,9.459804345413206
2.462074110917682,-0.430956298828125,2.5857377929687497,8.882488159179687,9.261228814982053
2.4645610544640637,-0.45489831542968745,2.5617957763671875,8.757989672851561,9.136307415305602
2.467047998010445,-0.4836287353515625,2.528276953125,8.719682446289061,9.091696380185734
2.4695349415568266,-0.51714755859375,2.499546533203125,8.743624462890624,9.108575257254374
2.472021885103208,-0.5506663818359374,2.4756045166015626,8.839392529296875,9.19601606532371
2.4745088286495895,-0.5746083984375,2.461239306640625,8.987833032226561,9.336434884434777
2.4769957721959712,-0.5985504150390625,2.446874096679687,9.160215551757812,9.500263385770479
2.4794827157423525,-0.6177040283203125,2.446874096679687,9.366116894531249,9.700149318109947
2.481969659288734,-0.63206923828125,2.446874096679687,9.567229833984374,9.895382310111327
2.4844566028351154,-0.6272808349609375,2.4516625,9.725247143554688,10.049107535648833
2.486943546381497,-0.622492431640625,2.461239306640625,9.849745629882811,10.171660863664213
2.4894304899278783,-0.6081272216796875,2.480392919921875,9.94072529296875,10.263536773705985
2.49191743347426,-0.5985504150390625,2.50912333984375,9.969455712890625,10.297767221353356
2.4944043770206417,-0.584185205078125,2.528276953125,9.935936889648437,10.269191719926738
2.496891320567023,-0.5698199951171875,2.5522189697265625,9.883264453125,10.22337677808422
2.4993782641134046,-0.5506663818359374,2.5665841796874997,9.792284790039062,10.138018999032148
2.501865207659786,-0.5219359619140624,2.5809493896484375,9.672574707031249,10.024590683083597
2.5043521512061675,-0.49799394531249996,2.6001030029296874,9.543287817382812,9.903679920151857
2.506839094752549,-0.4836287353515625,2.6144682128906247,9.404424121093749,9.77305140881205
2.5093260382989304,-0.4740519287109375,2.6288334228515624,9.289502441406249,9.66593740953813
2.511812981845312,-0.45968671875,2.6240450195312497,9.188945971679686,9.567322102572392
2.5142999253916933,-0.45010991210937495,2.6144682128906247,9.131485131835937,9.509051671020375
2.516786868938075,-0.45489831542968745,2.6144682128906247,9.107543115234375,9.48629106181385
2.5192738124844563,-0.45489831542968745,2.5953145996093747,9.107543115234375,9.481030109865667
2.521760756030838,-0.4644751220703125,2.5761609863281247,9.145850341796875,9.51309208622766
2.5242476995772196,-0.4740519287109375,2.5713725830078125,9.212887988281249,9.576741996962001
2.526734643123601,-0.49320554199218747,2.5617957763671875,9.299079248046874,9.658101478443918
2.5292215866699825,-0.5123591552734374,2.5474305664062498,9.394847314453125,9.747567412259352
2.5317085302163638,-0.5315127685546874,2.5426421630859375,9.490615380859374,9.83968065030789
2.5341954737627455,-0.5458779785156249,2.5378537597656248,9.572018237304688,9.917772814935738
2.536682417309127,-0.5602431884765625,2.5378537597656248,9.648632690429688,9.992531557669423
2.5391693608555084,-0.565031591796875,2.5330653564453125,9.706093530273437,10.04708576743365
2.54165630440189,-0.5698199951171875,2.5426421630859375,9.710881933593749,10.054399630238255
2.5441432479482713,-0.5793968017578125,2.5474305664062498,9.706093530273437,10.051534945617208
2.546630191494653,-0.5889736083984375,2.5522189697265625,9.682151513671874,10.03019289518006
2.549117135041034,-0.5889736083984375,2.5617957763671875,9.619902270507811,9.97257274755737
2.551604078587416,-0.5793968017578125,2.5713725830078125,9.548076220703125,9.905221710334803
2.5540910221337976,-0.565031591796875,2.5761609863281247,9.485826977539062,9.845647747863797
2.556577965680179,-0.5602431884765625,2.5761609863281247,9.418789331054686,9.780801108319453
2.5590649092265605,-0.5506663818359374,2.5857377929687497,9.366116894531249,9.732081949926997
2.5615518527729417,-0.5267243652343749,2.5953145996093747,9.327809667968749,9.69644933105559
2.5640387963193234,-0.5123591552734374,2.6001030029296874,9.294290844726563,9.664723991723948
2.566525739865705,-0.5123591552734374,2.6096798095703124,9.289502441406249,9.662701290082609
2.5690126834120863,-0.507570751953125,2.6144682128906247,9.294290844726563,9.668346001815499
2.571499626958468,-0.49320554199218747,2.6192566162109374,9.323021264648437,9.696519088276139
2.5739865705048492,-0.49320554199218747,2.6096798095703124,9.351751684570312,9.721570859948223
2.576473514051231,-0.4836287353515625,2.5953145996093747,9.3852705078125,9.749505481275367
2.5789604575976126,-0.47884033203125,2.5905261962890624,9.428366137695312,9.789494474367881
2.581447401143994,-0.47884033203125,2.5809493896484375,9.4618849609375,9.819259382943383
2.5839343446903755,-0.488417138671875,2.5665841796874997,9.495403784179686,9.848278970326971
2.5864212882367568,-0.49799394531249996,2.5713725830078125,9.533711010742186,9.886940910441357
2.5889082317831384,-0.49799394531249996,2.5713725830078125,9.552864624023437,9.905411523764705
2.5913951753295197,-0.51714755859375,2.5617957763671875,9.567229833984374,9.917768191153336
2.5938821188759014,-0.5267243652343749,2.5522189697265625,9.562441430664062,9.911182893138651
2.596369062422283,-0.5315127685546874,2.5522189697265625,9.543287817382812,9.892960621471005
2.5988560059686643,-0.5363011718749999,2.5522189697265625,9.514557397460937,9.865507745978675
2.601342949515046,-0.5458779785156249,2.5474305664062498,9.5001921875,9.850940912294886
2.603829893061427,-0.5506663818359374,2.5426421630859375,9.485826977539062,9.836115904227363
2.606316836607809,-0.5602431884765625,2.5570073730468748,9.452308154296874,9.808072623091533
2.6088037801541906,-0.565031591796875,2.5522189697265625,9.428366137695312,9.784026287556683
2.611290723700572,-0.565031591796875,2.5330653564453125,9.399635717773437,9.75135028734965
2.6137776672469535,-0.5602431884765625,2.5522189697265625,9.394847314453125,9.751453746060308
2.6162646107933347,-0.5506663818359374,2.5809493896484375,9.414000927734374,9.776908851134625
2.6187515543397164,-0.5458779785156249,2.5857377929687497,9.404424121093749,9.76868546687962
2.6212384978860976,-0.5363011718749999,2.5905261962890624,9.399635717773437,9.764814209571862
2.6237254414324793,-0.5315127685546874,2.6192566162109374,9.394847314453125,9.767608054513067
2.626212384978861,-0.5315127685546874,2.6192566162109374,9.3852705078125,9.758397078901664
2.6286993285252422,-0.5219359619140624,2.6144682128906247,9.399635717773437,9.770415181116759
2.631186272071624,-0.5219359619140624,2.6288334228515624,9.433154541015625,9.806507375621779
2.633673215618005,-0.51714755859375,2.6288334228515624,9.4618849609375,9.83389413083526
2.636160159164387,-0.5123591552734374,2.6144682128906247,9.5001921875,9.866691823485926
2.6386471027107685,-0.5123591552734374,2.5953145996093747,9.519345800781249,9.88008675315099
2.6411340462571498,-0.5123591552734374,2.5713725830078125,9.509768994140625,9.864591992908535
2.6436209898035314,-0.51714755859375,2.5474305664062498,9.509768994140625,9.858628221509255
2.6461079333499127,-0.5123591552734374,2.5378537597656248,9.514557397460937,9.860528184612003
2.6485948768962944,-0.51714755859375,2.5330653564453125,9.514557397460937,9.85954685403754
2.6510818204426756,-0.5315127685546874,2.5378537597656248,9.504980590820312,9.85230244973042
2.6535687639890573,-0.5267243652343749,2.5426421630859375,9.481038574218749,9.8301861718005
2.656055707535439,-0.5267243652343749,2.5474305664062498,9.466673364257812,9.81757330673628
2.65854265108182,-0.5315127685546874,2.5522189697265625,9.452308154296874,9.805226001289107
2.661029594628202,-0.5315127685546874,2.5617957763671875,9.428366137695312,9.78465080876109
2.663516538174583,-0.5267243652343749,2.5713725830078125,9.409212524414063,9.768453093871429
2.666003481720965,-0.5363011718749999,2.5665841796874997,9.409212524414063,9.767714862134701
2.6684904252673465,-0.5410895751953124,2.5761609863281247,9.418789331054686,9.779722686183577
2.6709773688137277,-0.5363011718749999,2.5713725830078125,9.418789331054686,9.778198626045
2.6734643123601094,-0.5315127685546874,2.5617957763671875,9.423577734375,9.780036847515335
2.6759512559064906,-0.5315127685546874,2.5665841796874997,9.447519750976562,9.804360745079256
2.6784381994528723,-0.5267243652343749,2.5713725830078125,9.466673364257812,9.82381291063323
2.6809251429992536,-0.5315127685546874,2.5665841796874997,9.447519750976562,9.804360745079256
2.6834120865456352,-0.5315127685546874,2.5665841796874997,9.433154541015625,9.790519126647093
2.685899030092017,-0.5219359619140624,2.5617957763671875,9.423577734375,9.77952105493721
2.688385973638398,-0.5219359619140624,2.5713725830078125,9.414000927734374,9.772808581793008
2.69087291718478,-0.5219359619140624,2.5665841796874997,9.414000927734374,9.771549773047516
2.693359860731161,-0.51714755859375,2.5617957763671875,9.418789331054686,9.77465250839956
2.6958468042775428,-0.5219359619140624,2.5570073730468748,9.442731347656249,9.796727982248218
2.6983337478239244,-0.51714755859375,2.5426421630859375,9.457096557617186,9.806586871432723
2.7008206913703057,-0.51714755859375,2.5330653564453125,9.457096557617186,9.804108169409277
2.7033076349166874,-0.5219359619140624,2.5330653564453125,9.471461767578125,9.818219047416731
2.7057945784630686,-0.5315127685546874,2.528276953125,9.481038574218749,9.82673814755759
2.7082815220094503,-0.5315127685546874,2.5330653564453125,9.471461767578125,9.818732807132204
2.7107684655558315,-0.5219359619140624,2.5330653564453125,9.452308154296874,9.79974319521434
2.713255409102213,-0.5219359619140624,2.5234885498046875,9.437942944335937,9.783413444696846
2.715742352648595,-0.5315127685546874,2.5234885498046875,9.442731347656249,9.788548185923284
2.718229296194976,-0.5315127685546874,2.5234885498046875,9.447519750976562,9.793167502357155
2.720716239741358,-0.5410895751953124,2.50912333984375,9.447519750976562,9.790000373239316
2.723203183287739,-0.5506663818359374,2.5043349365234375,9.447519750976562,9.789308268895631
2.7256901268341207,-0.5458779785156249,2.5043349365234375,9.447519750976562,9.789040079947187
2.7281770703805024,-0.5458779785156249,2.50912333984375,9.457096557617186,9.799508048982448
2.7306640139268836,-0.5458779785156249,2.5043349365234375,9.452308154296874,9.793661505561
2.7331509574732653,-0.5506663818359374,2.4947581298828125,9.452308154296874,9.791485129156243
2.7356379010196465,-0.5506663818359374,2.499546533203125,9.457096557617186,9.797328290703893
2.7381248445660282,-0.5458779785156249,2.5043349365234375,9.457096557617186,9.798283091532669
2.74061178811241,-0.5410895751953124,2.5139117431640625,9.457096557617186,9.800469656138835
2.743098731658791,-0.5410895751953124,2.518700146484375,9.457096557617186,9.80169901886302
2.745585675205173,-0.5410895751953124,2.5139117431640625,9.452308154296874,9.795849101767054
2.748072618751554,-0.5363011718749999,2.50912333984375,9.452308154296874,9.79435798433416
2.7505595622979357,-0.5267243652343749,2.5234885498046875,9.442731347656249,9.788289346046986
2.753046505844317,-0.5363011718749999,2.5234885498046875,9.433154541015625,9.779571463138534
2.7555334493906987,-0.5267243652343749,2.5234885498046875,9.442731347656249,9.788289346046986
2.7580203929370803,-0.5219359619140624,2.5330653564453125,9.442731347656249,9.790506245969745
2.7605073364834616,-0.5219359619140624,2.5330653564453125,9.447519750976562,9.795124638995404
2.7629942800298433,-0.51714755859375,2.5330653564453125,9.457096557617186,9.804108169409277
2.7654812235762245,-0.51714755859375,2.5378537597656248,9.466673364257812,9.814583429206984
2.767968167122606,-0.5219359619140624,2.528276953125,9.457096557617186,9.803125868830667
2.770455110668988,-0.5219359619140624,2.5234885498046875,9.457096557617186,9.801892006619404
2.772942054215369,-0.5219359619140624,2.528276953125,9.457096557617186,9.803125868830667
2.775428997761751,-0.5219359619140624,2.528276953125,9.466673364257812,9.812364958846084
2.777915941308132,-0.5267243652343749,2.5330653564453125,9.485826977539062,9.832332993992974
2.7804028848545137,-0.5315127685546874,2.5330653564453125,9.495403784179686,9.841830060907066
2.782889828400895,-0.5219359619140624,2.5426421630859375,9.490615380859374,9.839167984400206
2.7853767719472766,-0.5219359619140624,2.5474305664062498,9.471461767578125,9.821935025935275
2.7878637154936583,-0.5315127685546874,2.5474305664062498,9.457096557617186,9.808597433572874
2.7903506590400395,-0.5363011718749999,2.5665841796874997,9.452308154296874,9.809235583987359
2.792837602586421,-0.5315127685546874,2.5761609863281247,9.433154541015625,9.79303404697949
2.7953245461328025,-0.5267243652343749,2.5713725830078125,9.442731347656249,9.800743381069918
2.797811489679184,-0.51714755859375,2.5713725830078125,9.447519750976562,9.804847168778103
2.800298433225566,-0.5219359619140624,2.5713725830078125,9.447519750976562,9.805100894640283
2.802785376771947,-0.5267243652343749,2.5761609863281247,9.447519750976562,9.806613759575876
2.8052723203183287,-0.5267243652343749,2.5713725830078125,9.442731347656249,9.800743381069918
2.80775926386471,-0.5315127685546874,2.5617957763671875,9.452308154296874,9.80772312347451
2.8102462074110917,-0.5267243652343749,2.5522189697265625,9.452308154296874,9.804967601687975
2.812733150957473,-0.51714755859375,2.5522189697265625,9.442731347656249,9.795225294540273
2.8152200945038546,-0.5219359619140624,2.5522189697265625,9.447519750976562,9.800095319070296
2.8177070380502363,-0.5315127685546874,2.5474305664062498,9.457096557617186,9.808597433572874
2.8201939815966175,-0.5267243652343749,2.5426421630859375,9.471461767578125,9.820949839049582
2.822680925142999,-0.51714755859375,2.5474305664062498,9.476250170898437,9.82629947586949
2.8251678686893804,-0.51714755859375,2.5474305664062498,9.481038574218749,9.830917380074162
2.827654812235762,-0.5219359619140624,2.5474305664062498,9.471461767578125,9.821935025935275
2.8301417557821438,-0.51714755859375,2.5570073730468748,9.457096557617186,9.810321279309377
2.832628699328525,-0.507570751953125,2.5570073730468748,9.457096557617186,9.809821103065497
2.8351156428749067,-0.51714755859375,2.5570073730468748,9.442731347656249,9.796474039530016
2.837602586421288,-0.51714755859375,2.5570073730468748,9.428366137695312,9.782628293542341
2.8400895299676696,-0.5027823486328125,2.5617957763671875,9.423577734375,9.778517525970782
2.842576473514051,-0.5123591552734374,2.5713725830078125,9.428366137695312,9.786141062291938
2.8450634170604325,-0.51714755859375,2.5809493896484375,9.433154541015625,9.793525715694518
2.847550360606814,-0.51714755859375,2.5761609863281247,9.437942944335937,9.79687777025819
2.8500373041531954,-0.5219359619140624,2.5665841796874997,9.447519750976562,9.803846232211804
2.852524247699577,-0.5315127685546874,2.5665841796874997,9.437942944335937,9.795132831927258
2.8550111912459584,-0.5267243652343749,2.5665841796874997,9.433154541015625,9.790260338879524
2.85749813479234,-0.5267243652343749,2.5617957763671875,9.447519750976562,9.80284987143211
2.8599850783387217,-0.5315127685546874,2.5522189697265625,9.452308154296874,9.805226001289107
2.862472021885103,-0.5219359619140624,2.5570073730468748,9.466673364257812,9.819806945134083
2.8649589654314846,-0.5219359619140624,2.5522189697265625,9.490615380859374,9.841647175405944
2.867445908977866,-0.5315127685546874,2.5474305664062498,9.490615380859374,9.840919094332707
2.8699328525242476,-0.5315127685546874,2.5522189697265625,9.476250170898437,9.828308338367362
2.8724197960706292,-0.5315127685546874,2.5474305664062498,9.481038574218749,9.83168351604248
2.8749067396170105,-0.5315127685546874,2.5522189697265625,9.476250170898437,9.828308338367362
2.877393683163392,-0.5315127685546874,2.5665841796874997,9.457096557617186,9.813589326778132
2.8798806267097734,-0.5315127685546874,2.5617957763671875,9.457096557617186,9.812338086462587
2.882367570256155,-0.5219359619140624,2.5570073730468748,9.428366137695312,9.782882595666516
2.8848545138025363,-0.5267243652343749,2.5713725830078125,9.414000927734374,9.77306548555567
2.887341457348918,-0.5315127685546874,2.5761609863281247,9.418789331054686,9.779197498435408
2.8898284008952997,-0.5315127685546874,2.5617957763671875,9.414000927734374,9.77080942861609
2.892315344441681,-0.5267243652343749,2.5665841796874997,9.414000927734374,9.771806709904642
2.8948022879880626,-0.5219359619140624,2.5761609863281247,9.423577734375,9.783293918288795
2.897289231534444,-0.5267243652343749,2.5809493896484375,9.428366137695312,9.789424208568029
2.8997761750808255,-0.5267243652343749,2.5617957763671875,9.433154541015625,9.789006116630432
2.902263118627207,-0.5219359619140624,2.5570073730468748,9.442731347656249,9.796727982248218
2.9047500621735884,-0.5219359619140624,2.5570073730468748,9.452308154296874,9.80595907078662
2.90723700571997,-0.5219359619140624,2.5570073730468748,9.457096557617186,9.810574863597447
2.9097239492663514,-0.5267243652343749,2.5522189697265625,9.466673364257812,9.818816874344485
2.912210892812733,-0.5267243652343749,2.5522189697265625,9.471461767578125,9.823433627864436
2.9146978363591143,-0.5315127685546874,2.5617957763671875,9.471461767578125,9.826183971290359
2.917184779905496,-1.6711527587890624,0.5123591552734374,34.605790795898436,34.64990649419836
2.9196717234518776,-1.4413093994140624,0.507570751953125,32.843658374023434,32.87918636831875
2.922158666998259,-1.1731588134765625,0.6560112548828124,29.261932690429685,29.29278677673751
2.9246456105446406,-0.8714894042968749,0.9241618408203125,24.258051220703123,24.291286872376407
2.927132554091022,-0.584185205078125,1.2976572998046874,18.377891943359373,18.432908047927814
2.9296194976374035,-0.316034619140625,1.7238251953125,12.148179223632813,12.273944338882814
2.932106441183785,-0.06703764648437499,2.1930887207031247,6.114791040039062,6.4965222732061365
2.9345933847301664,0.1388636962890625,2.6623522460937497,0.7852981445312499,2.7792257526569735
2.937080328276548,0.2920926025390625,3.0885201416015624,-3.4668040039062498,4.652204289907848
2.9395672718229293,0.39264907226562495,3.4572271972656248,-6.358999609374999,7.248687413559477
2.942054215369311,0.4261678955078125,3.73495458984375,-7.742848168945312,8.607159963117697
2.9445411589156922,0.39264907226562495,3.907337109375,-7.589619262695312,8.545395083489456
2.947028102462074,0.32082302246093747,3.9791631591796874,-6.028599780273437,7.230538165989222
2.9495150460084556,0.201112939453125,3.9456443359374997,-3.289633081054687,5.141035056104997
2.952001989554837,0.033518823242187495,3.816357446289062,0.32082302246093747,3.8299654151308578
2.9544889331012185,-0.16759411621093748,3.5960908935546874,4.458003491210937,5.730074400053143
2.9569758766475998,-0.3687070556640625,3.318363500976562,8.729259252929687,9.34598567955079
2.9594628201939814,-0.565031591796875,3.0071172851562498,12.765883251953124,13.127444163618113
2.961949763740363,-0.7565677246093749,2.6767174560546874,16.26141767578125,16.497603337687547
2.9644367072867444,-0.9193734375,2.35589443359375,18.952500341796874,19.12047999673725
2.966923650833126,-1.0486603271484374,2.0733786376953125,20.65238352050781,20.782673854322233
2.9694105943795073,-1.139639990234375,1.8531120849609375,21.294029565429685,21.404870913886942
2.971897537925889,-1.1923124267578125,1.675941162109375,20.915745703124998,21.01663165256615
2.97438448147227,-1.197100830078125,1.5849614990234373,19.608511596679687,19.70885284302164
2.976871425018652,-1.1635820068359375,1.5610194824218748,17.549498168945313,17.65716825804602
2.9793583685650336,-1.0917559570312498,1.618480322265625,14.963760375976562,15.090577663327554
2.981845312111415,-0.9911994873046874,1.7334020019531249,12.100295190429687,12.263943192119898
2.9843322556577965,-0.8714894042968749,1.886630908203125,9.203311181640624,9.435030825158995
2.9868191992041777,-0.7278373046875,2.0877438476562498,6.526593725585937,6.890924986848936
2.9893061427505594,-0.5985504150390625,2.3223756103515623,4.266467358398438,4.894326796933218
2.991793086296941,-0.45968671875,2.5330653564453125,2.6001030029296874,3.658998169617271
2.9942800298433223,-0.33039982910156246,2.7437551025390623,1.618480322265625,3.202629335927048
2.996766973389704,-0.22026655273437498,2.93050283203125,1.3455413330078123,3.232158053318108
2.9992539169360852,-0.1388636962890625,3.0645781249999997,1.7812860351562498,3.547379617325759
3.001740860482467,-0.086191259765625,3.1651345947265623,2.8203695556640622,4.240281873473928
3.0042278040288486,-0.05746083984375,3.2130186279296873,4.338293408203125,5.398849891152504
3.00671474757523,-0.05746083984375,3.2034418212890623,6.1818286865234375,6.962783003944861
3.0092016911216115,-0.0909796630859375,3.1603461914062496,8.173804467773436,8.763968554600376
3.0116886346679927,-0.1484405029296875,3.0837317382812497,10.137049829101562,10.596754939804974
3.0141755782143744,-0.2154781494140625,2.959233251953125,11.899182250976562,12.263524392045527
3.0166625217607557,-0.3064578125,2.8107927490234372,13.350068457031249,13.64620093931735
3.0191494653071373,-0.4070142822265625,2.6575638427734374,14.379575170898436,14.628755528064303
3.021636408853519,-0.5027823486328125,2.50912333984375,14.920664746093749,15.13851797534918
3.0241233523999003,-0.5985504150390625,2.370259643554687,14.982913989257812,15.181044265356215
3.026610295946282,-0.689530078125,2.2601263671875,14.585476513671875,14.77564712813517
3.029097239492663,-0.7517793212890624,2.1739351074218747,13.776236352539062,13.966955790014442
3.031584183039045,-0.7996633544921875,2.1164742675781247,12.670115185546875,12.87053781397124
3.0340711265854265,-0.833182177734375,2.1021090576171875,11.372457885742186,11.59507884381948
3.036558070131808,-0.8379705810546875,2.1212626708984375,9.9981861328125,10.255031738616145
3.0390450136781895,-0.8283937744140625,2.1739351074218747,8.667010009765624,8.973811487107742
3.0415319572245707,-0.814028564453125,2.250549560546875,7.493851196289062,7.86672877251697
3.0440189007709524,-0.7565677246093749,2.3415292236328122,6.555324145507812,7.001958903030266
3.0465058443173336,-0.689530078125,2.43250888671875,5.928043310546875,6.444707030139098
3.0489927878637153,-0.6272808349609375,2.5378537597656248,5.655104321289063,6.230119407886821
3.051479731410097,-0.5698199951171875,2.6623522460937497,5.698199951171874,6.315243225137963
3.0539666749564782,-0.5027823486328125,2.7581203125,6.047753393554687,6.6659837126694255
3.05645361850286,-0.45010991210937495,2.81558115234375,6.660669018554687,7.245316275577397
3.058940562049241,-0.39264907226562495,2.8730419921875,7.45075556640625,7.995142406058662
3.061427505595623,-0.3399766357421875,2.896984008789062,8.360552197265624,8.85476896950074
3.0639144491420045,-0.3016694091796875,2.896984008789062,9.299079248046874,9.744557231658623
3.0664013926883857,-0.28730419921875,2.887407202148437,10.184933862304687,10.590209716215636
3.0688883362347674,-0.2920926025390625,2.844311572265625,10.960655200195312,11.32746171152879
3.0713752797811487,-0.32561142578124996,2.77727392578125,11.559205615234374,11.892624088681588
3.0738622233275303,-0.354341845703125,2.7198130859375,11.937489477539062,12.248534458963203
3.0763491668739116,-0.373495458984375,2.6575638427734374,12.081141577148436,12.375626297016378
3.0788361104202933,-0.4070142822265625,2.5809493896484375,12.004527124023436,12.285586345359242
3.081323053966675,-0.45968671875,2.50912333984375,11.726799731445311,12.001035111829713
3.083809997513056,-0.507570751953125,2.442085693359375,11.257536206054686,11.530547776778905
3.086296941059438,-0.5458779785156249,2.389413256835937,10.66856259765625,10.946483744996906
3.088783884605819,-0.584185205078125,2.360682836914062,10.041281762695311,10.331574674180613
3.091270828152201,-0.622492431640625,2.346317626953125,9.399635717773437,9.708030431598521
3.0937577716985825,-0.6464344482421874,2.3319524169921872,8.796296899414061,9.123087126276463
3.0962447152449637,-0.6703764648437499,2.3367408203125,8.317456567382813,8.665439747423706
3.0987316587913454,-0.6943184814453125,2.370259643554687,7.963114721679687,8.337349998780924
3.1012186023377266,-0.689530078125,2.4133552734375,7.728482958984374,8.125834372652418
3.1037055458841083,-0.6703764648437499,2.4564509033203126,7.64229169921875,8.055319860873768
3.1061924894304895,-0.6560112548828124,2.499546533203125,7.733271362304687,8.153623096588564
3.108679432976871,-0.63206923828125,2.5426421630859375,7.967903124999999,8.387611155798087
3.111166376523253,-0.603338818359375,2.5905261962890624,8.312668164062499,8.727845994815523
3.113653320069634,-0.5746083984375,2.6288334228515624,8.729259252929687,9.134599448334608
3.116140263616016,-0.5363011718749999,2.6623522460937497,9.179369165039063,9.572698506550013
3.118627207162397,-0.507570751953125,2.6815058593749996,9.6151138671875,9.994924533035858
3.1211141507087787,-0.488417138671875,2.6767174560546874,10.007762939453125,10.371050414166723
3.1236010942551604,-0.4644751220703125,2.6719290527343746,10.32379755859375,10.674068485478932
3.1260880378015417,-0.44053310546874996,2.6623522460937497,10.548852514648438,10.888548033374287
3.1285749813479233,-0.43574470214843747,2.6336218261718747,10.673351000976561,11.002102479016758
3.1310619248943046,-0.43574470214843747,2.6096798095703124,10.678139404296875,11.001043736460963
3.1335488684406863,-0.44053310546874996,2.5761609863281247,10.577582934570312,10.895684264065572
3.136035811987068,-0.45010991210937495,2.5474305664062498,10.390835205078124,10.708009043829339
3.138522755533449,-0.469263525390625,2.5139117431640625,10.137049829101562,10.45465158416904
3.141009699079831,-0.488417138671875,2.480392919921875,9.849745629882811,10.168991558258986
3.143496642626212,-0.5027823486328125,2.461239306640625,9.572018237304688,9.896161990890361
3.1459835861725938,-0.51714755859375,2.4516625,9.289502441406249,9.621483576879315
3.148470529718975,-0.5315127685546874,2.442085693359375,9.02135185546875,9.361147240430345
3.1509574732653567,-0.5506663818359374,2.43250888671875,8.815450512695312,9.16146826059175
3.1534444168117384,-0.5793968017578125,2.43250888671875,8.667010009765624,9.02052452173544
3.1559313603581196,-0.5889736083984375,2.437297290039062,8.609549169921875,8.96725403346666
3.1584183039045013,-0.59376201171875,2.4660277099609376,8.63827958984375,9.0029839645068
3.1609052474508825,-0.5985504150390625,2.4947581298828125,8.734047656249999,9.10305823268235
3.163392190997264,-0.5985504150390625,2.5234885498046875,8.877699755859375,9.248773433030156
3.165879134543646,-0.59376201171875,2.5474305664062498,9.054870678710937,9.425106833633253
3.168366078090027,-0.5889736083984375,2.5713725830078125,9.260772021484375,9.629161194306695
3.170853021636409,-0.5746083984375,2.6048914062499997,9.476250170898437,9.844539163991511
3.17333996518279,-0.55545478515625,2.6240450195312497,9.658209497070311,10.02372949416428
3.1758269087291717,-0.5363011718749999,2.6336218261718747,9.80665,10.168282406224925
3.178313852275553,-0.5219359619140624,2.6288334228515624,9.926360083007811,10.281819236446994
3.1808007958219346,-0.507570751953125,2.6288334228515624,9.988609326171874,10.341214121379918
3.1832877393683163,-0.488417138671875,2.6336218261718747,10.012551342773437,10.364636974651425
3.1857746829146976,-0.4740519287109375,2.6192566162109374,10.002974536132811,10.351073858455496
3.1882616264610792,-0.4740519287109375,2.6001030029296874,9.95987890625,10.304583867586416
3.1907485700074605,-0.4836287353515625,2.5713725830078125,9.859322436523437,10.200592758346765
3.193235513553842,-0.4836287353515625,2.5474305664062498,9.725247143554688,10.064975471780208
3.195722457100224,-0.47884033203125,2.5234885498046875,9.552864624023437,9.892143602348968
3.198209400646605,-0.4836287353515625,2.50912333984375,9.3852705078125,9.72691622216525
3.2006963441929868,-0.488417138671875,2.4947581298828125,9.270348828125,9.612582214113093
3.203183287739368,-0.49799394531249996,2.4851813232421875,9.179369165039063,9.52286419345722
