Time (s),Acceleration x (m/s^2),Acceleration y (m/s^2),Acceleration z (m/s^2),Absolute acceleration (m/s^2)
0.0,-2.6192566162109374,0.5458779785156249,-9.3086560546875,9.685533828006763
0.002486943546381497,-2.3319524169921872,0.6751648681640625,-7.000645654296875,7.409648389184498
0.004973887092762994,-1.9105729248046874,0.948103857421875,-3.6104561035156246,4.19339756055495
0.007460830639144491,-1.39821376953125,1.3168109130859373,0.59376201171875,2.010359682417379
0.009947774185525988,-0.833182177734375,1.7669208251953124,5.286397265624999,5.6357961100283385
0.012434717731907486,-0.26336218261718747,2.2744915771484373,10.0748005859375,10.331712269520413
0.014921661278288981,0.258573779296875,2.7629087158203123,14.604630126953124,14.865925673041774
0.01740860482467048,0.6943184814453125,3.19865341796875,18.569428076171874,18.855692003161273
0.019895548371051976,1.01514150390625,3.5577836669921874,21.701043847656248,22.014169095652203
0.022382491917433474,1.1923124267578125,3.801992236328125,23.798364501953124,24.129627159488457
0.02486943546381497,1.2210428466796874,3.9456443359374997,24.775198779296872,25.11711626387107
0.027356379010196465,1.1156979736328125,3.9504327392578125,24.602816259765625,24.942920212107406
0.029843322556577963,0.8714894042968749,3.83072265625,23.348254589843748,23.676463465709325
0.032330266102959464,0.5267243652343749,3.6152445068359373,21.150377465820313,21.463594721011173
0.03481720964934096,0.1197100830078125,3.323151904296875,18.191144213867187,18.49257680510532
0.03730415319572245,-0.32082302246093747,2.9735984619140625,14.733917016601561,15.034411391090098
0.03979109674210395,-0.7613561279296874,2.6048914062499997,11.051634863281249,11.37997168463897
0.04227804028848545,-1.1635820068359375,2.250549560546875,7.417236743164062,7.838003401074352
0.04476498383486695,-1.4987702392578124,1.944091748046875,4.089296435546875,4.769502101130185
0.04725192738124844,-1.7477672119140624,1.68551796875,1.3215993164062498,2.7644684485713427
0.04973887092762994,-1.8818425048828125,1.5035586425781249,-0.737414111328125,2.5190870124790923
0.05222581447401144,-1.8914193115234375,1.426944189453125,-1.9632453613281249,3.077006512926846
0.05471275802039293,-1.7908628417968748,1.43652099609375,-2.288856787109375,3.2418586770930666
0.05719970156677443,-1.5945383056640625,1.5322890624999999,-1.7429788085937499,2.8157480900275926
0.059686645113155926,-1.3311761230468748,1.6998831787109374,-0.38786066894531246,2.19364276725934
0.062173588659537427,-1.005564697265625,1.9297265380859374,1.618480322265625,2.711915084537325
0.06466053220591893,-0.6560112548828124,2.2026655273437497,4.108450048828125,4.707594714458463
0.06714747575230041,-0.296881005859375,2.4756045166015626,6.890512377929687,7.3277497831640215
0.06963441929868192,0.01915361328125,2.73896669921875,9.753977563476562,10.131257757511412
0.07212136284506342,0.27293898925781246,2.96881005859375,12.473790649414061,12.825123080160836
0.0746083063914449,0.45010991210937495,3.1603461914062496,14.84883869628906,15.188100526758655
0.0770952499378264,0.5506663818359374,3.284844677734375,16.7402580078125,17.06838235419674
0.0795821934842079,0.5602431884765625,3.327940307617187,18.028338500976563,18.341484351793653
0.0820691370305894,0.469263525390625,3.308786694335937,18.626888916015623,18.92430364199598
0.0845560805769709,0.3112462158203125,3.2417490478515623,18.555062866210935,18.838688092994932
0.0870430241233524,0.08140285644531249,3.0980969482421874,17.827225561523438,18.0946069962069
0.0895299676697339,-0.1771709228515625,2.93050283203125,16.5104146484375,16.769407510338187
0.09201691121611538,-0.44053310546874996,2.7437551025390623,14.757859033203124,15.017212282032178
0.09450385476249688,-0.718260498046875,2.5378537597656248,12.713210815429687,12.983925796405702
0.09699079830887838,-0.9624690673828125,2.346317626953125,10.510545288085936,10.812174405045692
0.09947774185525989,-1.149216796875,2.1883003173828124,8.312668164062499,8.672358936938412
0.10196468540164137,-1.2880804931640624,2.0638018310546875,6.315903979492187,6.768239980445411
0.10445162894802287,-1.35990654296875,1.9823989746093749,4.649539624023437,5.234259280500491
0.10693857249440437,-1.35990654296875,1.9632453613281249,3.4093431640625,4.162607231618822
0.10942551604078586,-1.2928688964843749,1.9776105712890624,2.6767174560546874,3.5703319025993725
0.11191245958716736,-1.1635820068359375,2.039859814453125,2.4851813232421875,3.4192217475099325
0.11439940313354886,-0.9864110839843749,2.1404162841796874,2.806004345703125,3.6644302537084306
0.11688634667993036,-0.7757213378906249,2.2601263671875,3.6008792968749996,4.3216023070590355
0.11937329022631185,-0.5602431884765625,2.398990063476562,4.783614916992187,5.380706034431154
0.12186023377269335,-0.3447650390625,2.5522189697265625,6.268019946289062,6.776485715226545
0.12434717731907485,-0.1580173095703125,2.7054478759765623,7.934384301757812,8.384442255017966
0.12683412086545634,-0.023942016601562498,2.8203695556640622,9.629479077148437,10.034038317044397
0.12932106441183785,0.08140285644531249,2.901772412109375,11.257536206054686,11.625791628416048
0.13180800795821934,0.1292868896484375,2.9544448486328125,12.69884560546875,13.038640234893395
0.13429495150460083,0.1149216796875,2.9735984619140625,13.838485595703125,14.154828801071483
0.13678189505098234,0.05746083984375,2.9544448486328125,14.618995336914061,14.914659592912056
0.13926883859736383,-0.0430956298828125,2.901772412109375,14.987702392578123,15.266085397818461
0.14175578214374532,-0.181959326171875,2.825157958984375,14.949395166015623,15.215092589901811
0.14424272569012683,-0.3447650390625,2.7198130859375,14.508862060546875,14.76561290453509
0.14672966923650832,-0.5123591552734374,2.6096798095703124,13.709198706054687,13.964779617830098
0.1492166127828898,-0.6703764648437499,2.499546533203125,12.641384765624998,12.903555566929604
0.15170355632927132,-0.82360537109375,2.39420166015625,11.415553515625,11.692963245682751
0.1541904998756528,-0.9337386474609375,2.3032219970703123,10.108319409179687,10.409362166220825
0.15667744342203432,-1.0103531005859374,2.2361843505859373,8.82981572265625,9.164441037714006
0.1591643869684158,-1.0582371337890624,2.1978771240234374,7.656656909179687,8.035852456866332
0.1616513305147973,-1.0486603271484374,2.1787235107421874,6.655880615234374,7.0814738142740135
0.1641382740611788,-0.9911994873046874,2.1883003173828124,5.913678100585937,6.383002693093626
0.1666252176075603,-0.9002198242187499,2.24097275390625,5.463568188476562,5.973519227875613
0.1691121611539418,-0.7900865478515624,2.3032219970703123,5.329492895507812,5.859399529316362
0.1715991047003233,-0.6607996582031249,2.370259643554687,5.5258174316406246,6.048920999150902
0.1740860482467048,-0.5219359619140624,2.4516625,5.9950809570312495,6.498004450875986
0.17657299179308628,-0.39264907226562495,2.528276953125,6.694187841796874,7.166485087329435
0.1790599353394678,-0.2825157958984375,2.6048914062499997,7.584830859375,8.024645386471263
0.18154687888584928,-0.19153613281249998,2.6671406494140624,8.576030346679687,8.983241165698523
0.18403382243223076,-0.13407529296874998,2.7150246826171873,9.576806640625,9.955127354450283
0.18652076597861228,-0.1149216796875,2.7437551025390623,10.534487304687499,10.886543153260057
0.18900770952499377,-0.1197100830078125,2.748543505859375,11.386823095703125,11.71445953172461
0.19149465307137528,-0.16759411621093748,2.729389892578125,12.061987963867187,12.36807222706809
0.19398159661775677,-0.239420166015625,2.70065947265625,12.536039892578124,12.825879298958533
0.19646854016413826,-0.33039982910156246,2.6575638427734374,12.7563064453125,13.03438390382178
0.19895548371051977,-0.4261678955078125,2.5953145996093747,12.73715283203125,13.005857880687026
0.20144242725690126,-0.5410895751953124,2.5234885498046875,12.492944262695312,12.756740521786595
0.20392937080328274,-0.6416460449218749,2.4564509033203126,12.033257543945313,12.298176604940418
0.20641631434966426,-0.7134720947265625,2.398990063476562,11.415553515625,11.686704318271728
0.20890325789604575,-0.7805097412109374,2.35589443359375,10.692504614257812,10.976752204741063
0.21139020144242723,-0.842758984375,2.3223756103515623,9.9215716796875,10.224541836995808
0.21387714498880875,-0.86191259765625,2.3032219970703123,9.165003955078124,9.489205572142737
0.21636408853519024,-0.8475473876953125,2.3032219970703123,8.461108666992187,8.809854029257693
0.21885103208157172,-0.8188169677734375,2.3223756103515623,7.862558251953125,8.239157236491222
0.22133797562795324,-0.7565677246093749,2.360682836914062,7.426813549804687,7.829609037620188
0.22382491917433472,-0.6847416748046875,2.408566870117187,7.163451367187499,7.588484764371665
0.22631186272071624,-0.59376201171875,2.446874096679687,7.072471704101562,7.507303255955469
0.22879880626709773,-0.507570751953125,2.4899697265625,7.1586629638671875,7.596317050892474
0.2312857498134792,-0.43574470214843747,2.5378537597656248,7.431601953125,7.865067243266155
0.23377269335986073,-0.3687070556640625,2.5857377929687497,7.843404638671874,8.26686041691904
0.23625963690624222,-0.3112462158203125,2.6240450195312497,8.360552197265624,8.768199331367432
0.2387465804526237,-0.2920926025390625,2.6384102294921874,8.963891015625,9.348682729002501
0.24123352399900522,-0.277727392578125,2.6384102294921874,9.557653027343749,9.91902578052756
0.2437204675453867,-0.27293898925781246,2.6431986328124997,10.13226142578125,10.474908892431172
0.2462074110917682,-0.3064578125,2.6336218261718747,10.654197387695312,10.97915307708681
0.2486943546381497,-0.354341845703125,2.6048914062499997,11.046846459960937,11.355343856172867
0.2511812981845312,-0.40222587890625,2.5809493896484375,11.310208642578125,11.607924230810497
0.2536682417309127,-0.4740519287109375,2.5570073730468748,11.439495532226562,11.731371188772526
0.2561551852772942,-0.5458779785156249,2.5330653564453125,11.434707128906249,11.72462920485382
0.2586421288236757,-0.603338818359375,2.499546533203125,11.281478222656249,11.570803839390512
0.26112907237005717,-0.6512228515624999,2.4564509033203126,11.008539233398437,11.298060820162592
0.2636160159164387,-0.6943184814453125,2.427720483398437,10.649408984374999,10.944670694711458
0.2661029594628202,-0.7134720947265625,2.422932080078125,10.223241088867187,10.530636289214796
0.26858990300920166,-0.7230489013671875,2.4133552734375,9.782707983398437,10.1019037254393
0.2710768465555832,-0.70868369140625,2.4133552734375,9.332598071289063,9.665604120308368
0.2735637901019647,-0.679953271484375,2.422932080078125,8.920795385742187,9.26895499127885
0.27605073364834615,-0.6464344482421874,2.442085693359375,8.571241943359375,8.935762333521842
0.27853767719472766,-0.5985504150390625,2.47081611328125,8.288726147460936,8.669842905877609
0.2810246207411092,-0.5458779785156249,2.5043349365234375,8.116343627929687,8.51144583066561
0.28351156428749064,-0.49320554199218747,2.528276953125,8.054094384765625,8.455996240365058
0.28599850783387215,-0.45010991210937495,2.5522189697265625,8.125920434570313,8.529185395533304
0.28848545138025367,-0.411802685546875,2.5809493896484375,8.2743609375,8.677322751158686
0.2909723949266351,-0.38307226562499996,2.6048914062499997,8.494627490234375,8.893306460304386
0.29345933847301664,-0.3687070556640625,2.6048914062499997,8.805873706054687,9.190474191152319
0.29594628201939815,-0.3591302490234375,2.6192566162109374,9.150638745117186,9.52489733283085
0.2984332255657796,-0.36391865234375,2.6288334228515624,9.509768994140625,9.873140750163726
0.30092016911216113,-0.38307226562499996,2.6144682128906247,9.86411083984375,10.211898504079912
0.30340711265854264,-0.4261678955078125,2.6048914062499997,10.175357055664062,10.512134394297338
0.30589405620492416,-0.45010991210937495,2.5905261962890624,10.414777221679687,10.741555263734254
0.3083809997513056,-0.488417138671875,2.5570073730468748,10.568006127929687,10.88391434765654
0.31086794329768713,-0.5458779785156249,2.5330653564453125,10.654197387695312,10.964776552371022
0.31335488684406865,-0.5746083984375,2.518700146484375,10.658985791015624,10.967588765655297
0.3158418303904501,-0.59376201171875,2.499546533203125,10.582371337890624,10.889759838087205
0.3183287739368316,-0.63206923828125,2.4851813232421875,10.448296044921875,10.758370135559723
0.32081571748321314,-0.6416460449218749,2.480392919921875,10.242394702148436,10.557968929617136
0.3233026610295946,-0.6464344482421874,2.47081611328125,9.964667309570311,10.286758690274779
0.3257896045759761,-0.6368576416015624,2.480392919921875,9.686939916992188,10.01971764314152
0.3282765481223576,-0.612915625,2.4947581298828125,9.414000927734374,9.758222028493162
0.3307634916687391,-0.5889736083984375,2.5043349365234375,9.165003955078124,9.519237410752995
0.3332504352151206,-0.5602431884765625,2.518700146484375,8.98304462890625,9.346272714994797
0.3357373787615021,-0.5363011718749999,2.5330653564453125,8.834604125976561,9.206208183052347
0.3382243223078836,-0.49320554199218747,2.5474305664062498,8.729259252929687,9.106734941908172
0.3407112658542651,-0.45489831542968745,2.5665841796874997,8.690952026367187,9.07341908838222
0.3431982094006466,-0.44532150878906246,2.5905261962890624,8.695740429687499,9.08432930052361
0.34568515294702806,-0.4261678955078125,2.6048914062499997,8.743624462890624,9.133348075135208
0.3481720964934096,-0.4165910888671875,2.6001030029296874,8.877699755859375,9.260001982524255
0.3506590400397911,-0.4213794921875,2.5809493896484375,9.064447485351561,9.434143768411582
0.35314598358617255,-0.4261678955078125,2.5713725830078125,9.265560424804686,9.625184986352867
0.35563292713255407,-0.44053310546874996,2.5617957763671875,9.495403784179686,9.84477323463779
0.3581198706789356,-0.4644751220703125,2.5378537597656248,9.725247143554688,10.061653484800466
0.36060681422531704,-0.4836287353515625,2.518700146484375,9.9215716796875,10.247698852753977
0.36309375777169856,-0.507570751953125,2.5043349365234375,10.065223779296874,10.384510160323083
0.36558070131808007,-0.5458779785156249,2.480392919921875,10.156203442382813,10.468944558440233
0.36806764486446153,-0.565031591796875,2.4660277099609376,10.218452685546874,10.526980984726048
0.37055458841084304,-0.5746083984375,2.461239306640625,10.228029492187499,10.535675632305933
0.37304153195722456,-0.5889736083984375,2.461239306640625,10.175357055664062,10.485345966929042
0.3755284755036061,-0.5985504150390625,2.4660277099609376,10.089165795898436,10.403404333330775
0.37801541904998753,-0.584185205078125,2.4660277099609376,9.95987890625,10.277244418971996
0.38050236259636905,-0.5698199951171875,2.4660277099609376,9.797073193359374,10.11872673063026
0.38298930614275056,-0.5698199951171875,2.4756045166015626,9.634267480468749,9.963554708770914
0.385476249689132,-0.55545478515625,2.4899697265625,9.466673364257812,9.804406348326197
0.38796319323551354,-0.5315127685546874,2.499546533203125,9.303867651367186,9.648429507901335
0.39045013678189505,-0.5267243652343749,2.5139117431640625,9.17458076171875,9.527335564713228
0.3929370803282765,-0.5027823486328125,2.5139117431640625,9.102754711914063,9.456885623067912
0.395424023874658,-0.488417138671875,2.5139117431640625,9.05965908203125,9.41465486549549
0.39791096742103954,-0.4836287353515625,2.5330653564453125,9.04050546875,9.401119932443146
0.400397910967421,-0.4740519287109375,2.5426421630859375,9.04050546875,9.40321719046814
0.4028848545138025,-0.4740519287109375,2.5330653564453125,9.074024291992187,9.432871364690726
0.40537179806018403,-0.4836287353515625,2.5426421630859375,9.141061938476563,9.500417847980424
0.4078587416065655,-0.488417138671875,2.5426421630859375,9.246406811523437,9.602063288431179
0.410345685152947,-0.4836287353515625,2.5378537597656248,9.380482104492186,9.729750406475617
0.4128326286993285,-0.507570751953125,2.5378537597656248,9.514557397460937,9.860280535754214
0.41531957224571,-0.5315127685546874,2.5234885498046875,9.658209497070311,9.996574962127339
0.4178065157920915,-0.5458779785156249,2.5139117431640625,9.782707983398437,10.115290925539115
0.420293459338473,-0.55545478515625,2.5139117431640625,9.888052856445311,10.217723404096796
0.42278040288485447,-0.565031591796875,2.5139117431640625,9.955090502929687,10.283133757452907
0.425267346431236,-0.5698199951171875,2.5043349365234375,9.993397729492187,10.318158095365026
0.4277542899776175,-0.5698199951171875,2.4947581298828125,9.9981861328125,10.320476679873654
0.43024123352399896,-0.5746083984375,2.4947581298828125,9.95987890625,10.283636553541504
0.43272817707038047,-0.5793968017578125,2.4947581298828125,9.888052856445311,10.214357937352688
0.435215120616762,-0.5698199951171875,2.4899697265625,9.811438403320311,10.138489414512485
0.43770206416314344,-0.5746083984375,2.4947581298828125,9.715670336914062,10.047300285836146
0.44018900770952496,-0.5746083984375,2.4899697265625,9.6151138671875,9.948896357372208
0.4426759512559065,-0.565031591796875,2.4899697265625,9.519345800781249,9.855818302595571
0.445162894802288,-0.5458779785156249,2.499546533203125,9.418789331054686,9.760087504826258
0.44764983834866945,-0.5315127685546874,2.5043349365234375,9.327809667968749,9.672757233554442
0.45013678189505096,-0.5219359619140624,2.5139117431640625,9.246406811523437,9.596260121784129
0.4526237254414325,-0.51714755859375,2.5234885498046875,9.193734375,9.54778444543086
0.45511066898781394,-0.5123591552734374,2.5139117431640625,9.17458076171875,9.526552173252949
0.45759761253419545,-0.5027823486328125,2.499546533203125,9.193734375,9.54071667747246
0.46008455608057697,-0.49799394531249996,2.499546533203125,9.227253198242186,9.572770363154353
0.4625714996269584,-0.5123591552734374,2.50912333984375,9.294290844726563,9.640645940231867
0.46505844317333994,-0.5219359619140624,2.5043349365234375,9.366116894531249,9.70918412147255
0.46754538671972146,-0.51714755859375,2.499546533203125,9.442731347656249,9.781633287596566
0.4700323302661029,-0.5315127685546874,2.4899697265625,9.543287817382812,9.877084459887016
0.47251927381248443,-0.5458779785156249,2.4947581298828125,9.624690673828125,9.957734253379067
0.47500621735886595,-0.5458779785156249,2.499546533203125,9.677363110351562,10.00984877051943
0.4774931609052474,-0.5458779785156249,2.499546533203125,9.720458740234374,10.051518977730426
0.4799801044516289,-0.5458779785156249,2.5139117431640625,9.753977563476562,10.08750778580372
0.48246704799801043,-0.5410895751953124,2.50912333984375,9.777919580078125,10.10921308398477
0.4849539915443919,-0.5506663818359374,2.5043349365234375,9.787496386718749,10.117806701968995
0.4874409350907734,-0.55545478515625,2.5139117431640625,9.787496386718749,10.120443062969313
0.4899278786371549,-0.5506663818359374,2.5330653564453125,9.758765966796874,10.097186081221869
0.4924148221835364,-0.5410895751953124,2.5474305664062498,9.706093530273437,10.049399585918643
0.4949017657299179,-0.5315127685546874,2.5522189697265625,9.634267480468749,9.980753347207136
0.4973887092762994,-0.51714755859375,2.5522189697265625,9.562441430664062,9.91067855303925
0.49987565282268087,-0.51714755859375,2.5570073730468748,9.5001921875,9.851871898406495
0.5023625963690624,-0.507570751953125,2.5617957763671875,9.447519750976562,9.801839373971768
0.5048495399154439,-0.49799394531249996,2.5617957763671875,9.409212524414063,9.764429112803837
0.5073364834618254,-0.49799394531249996,2.5617957763671875,9.390058911132812,9.745973626268716
0.5098234270082069,-0.488417138671875,2.5617957763671875,9.3852705078125,9.740875289519739
0.5123103705545884,-0.4836287353515625,2.5570073730468748,9.380482104492186,9.734763888876401
0.5147973141009698,-0.488417138671875,2.5570073730468748,9.390058911132812,9.744231337653536
0.5172842576473514,-0.49320554199218747,2.5665841796874997,9.409212524414063,9.765443481361428
0.5197712011937329,-0.49320554199218747,2.5665841796874997,9.423577734375,9.779285422457114
0.5222581447401143,-0.49799394531249996,2.5617957763671875,9.433154541015625,9.78750224337468
0.5247450882864959,-0.507570751953125,2.5570073730468748,9.471461767578125,9.823670535433713
0.5272320318328774,-0.5123591552734374,2.5426421630859375,9.519345800781249,9.866381583353972
0.5297189753792588,-0.5123591552734374,2.5378537597656248,9.548076220703125,9.89287486660503
0.5322059189256404,-0.5219359619140624,2.5426421630859375,9.586383447265625,9.931575600872696
0.5346928624720219,-0.5219359619140624,2.5330653564453125,9.639055883789062,9.979991762480124
0.5371798060184033,-0.5267243652343749,2.518700146484375,9.662997900390625,9.999740867031784
0.5396667495647849,-0.5315127685546874,2.5139117431640625,9.677363110351562,10.012672712375458
0.5421536931111663,-0.5363011718749999,2.4947581298828125,9.686939916992188,10.017396968723338
0.5446406366575478,-0.5410895751953124,2.499546533203125,9.672574707031249,10.004959383382495
0.5471275802039294,-0.5410895751953124,2.499546533203125,9.643844287109374,9.977186148110343
0.5496145237503108,-0.5315127685546874,2.4947581298828125,9.610325463867188,9.94307193332157
0.5521014672966923,-0.51714755859375,2.4947581298828125,9.595960253906249,9.928429529312496
0.5545884108430739,-0.5123591552734374,2.4947581298828125,9.581595043945311,9.914297434350367
0.5570753543894553,-0.51714755859375,2.4756045166015626,9.552864624023437,9.881967508795807
0.5595622979358368,-0.507570751953125,2.4756045166015626,9.533711010742186,9.862955511772478
0.5620492414822184,-0.507570751953125,2.480392919921875,9.504980590820312,9.836393299238683
0.5645361850285998,-0.51714755859375,2.480392919921875,9.485826977539062,9.818386022273005
0.5670231285749813,-0.507570751953125,2.4899697265625,9.447519750976562,9.783312667625841
0.5695100721213628,-0.49320554199218747,2.499546533203125,9.418789331054686,9.757283281789514
0.5719970156677443,-0.5027823486328125,2.4947581298828125,9.423577734375,9.761169270764716
0.5744839592141258,-0.507570751953125,2.4947581298828125,9.428366137695312,9.766039843319003
0.5769709027605073,-0.507570751953125,2.5043349365234375,9.433154541015625,9.773112407887972
0.5794578463068888,-0.5027823486328125,2.499546533203125,9.457096557617186,9.7947536090419
0.5819447898532703,-0.5027823486328125,2.499546533203125,9.504980590820312,9.840994817274082
0.5844317333996518,-0.507570751953125,2.499546533203125,9.5384994140625,9.873617979846935
0.5869186769460333,-0.5123591552734374,2.4947581298828125,9.572018237304688,9.905042310152059
0.5894056204924147,-0.5219359619140624,2.4899697265625,9.600748657226562,9.932106582531953
0.5918925640387963,-0.51714755859375,2.4756045166015626,9.6151138671875,9.942156405878903
0.5943795075851778,-0.5219359619140624,2.4660277099609376,9.643844287109374,9.967820345925505
0.5968664511315592,-0.5315127685546874,2.4756045166015626,9.658209497070311,9.984594845813918
0.5993533946779408,-0.5267243652343749,2.4899697265625,9.648632690429688,9.978652243211892
0.6018403382243223,-0.51714755859375,2.4899697265625,9.629479077148437,9.95963142559988
0.6043272817707037,-0.5219359619140624,2.4899697265625,9.634267480468749,9.964510839612476
0.6068142253170853,-0.51714755859375,2.4947581298828125,9.610325463867188,9.942314380738015
0.6093011688634667,-0.51714755859375,2.499546533203125,9.572018237304688,9.90649825136515
0.6117881124098483,-0.51714755859375,2.5043349365234375,9.528922607421874,9.866078305481212
0.6142750559562298,-0.507570751953125,2.528276953125,9.5001921875,9.843955709945943
0.6167619995026112,-0.5027823486328125,2.5426421630859375,9.481038574218749,9.828932378718603
0.6192489430489928,-0.507570751953125,2.5426421630859375,9.471461767578125,9.819941204123104
0.6217358865953743,-0.5123591552734374,2.5522189697265625,9.471461767578125,9.822673851254493
0.6242228301417557,-0.51714755859375,2.5617957763671875,9.466673364257812,9.820801585548939
0.6267097736881373,-0.51714755859375,2.5570073730468748,9.4618849609375,9.814937356763455
0.6291967172345188,-0.5267243652343749,2.5474305664062498,9.466673364257812,9.81757330673628
0.6316836607809002,-0.5267243652343749,2.5474305664062498,9.4618849609375,9.812956132665
0.6341706043272818,-0.5267243652343749,2.5522189697265625,9.471461767578125,9.823433627864436
0.6366575478736632,-0.5315127685546874,2.5522189697265625,9.485826977539062,9.83754242381585
0.6391444914200447,-0.5410895751953124,2.5522189697265625,9.509768994140625,9.861151348586814
0.6416314349664263,-0.5506663818359374,2.5617957763671875,9.5384994140625,9.891865452783296
0.6441183785128077,-0.55545478515625,2.5474305664062498,9.562441430664062,9.911519491172603
0.6466053220591892,-0.5602431884765625,2.5378537597656248,9.586383447265625,9.932437854534971
0.6490922656055708,-0.5506663818359374,2.5330653564453125,9.6151138671875,9.958416954671513
0.6515792091519522,-0.5458779785156249,2.5234885498046875,9.634267480468749,9.974221128170425
0.6540661526983337,-0.55545478515625,2.5234885498046875,9.624690673828125,9.965500240641331
0.6565530962447153,-0.5506663818359374,2.5234885498046875,9.610325463867188,9.951360884147139
0.6590400397910967,-0.5458779785156249,2.5234885498046875,9.600748657226562,9.941848520655569
0.6615269833374782,-0.5410895751953124,2.5234885498046875,9.591171850585937,9.932338589519212
0.6640139268838597,-0.5458779785156249,2.5330653564453125,9.581595043945311,9.925792988653807
0.6665008704302412,-0.5410895751953124,2.528276953125,9.567229833984374,9.91044141178226
0.6689878139766227,-0.5267243652343749,2.5234885498046875,9.562441430664062,9.90382346030095
0.6714747575230042,-0.5267243652343749,2.528276953125,9.548076220703125,9.891176998971915
0.6739617010693857,-0.51714755859375,2.5330653564453125,9.548076220703125,9.891896744999887
0.6764486446157671,-0.5315127685546874,2.5330653564453125,9.548076220703125,9.892658158428228
0.6789355881621487,-0.5363011718749999,2.5330653564453125,9.533711010742186,9.879052823187287
0.6814225317085302,-0.5315127685546874,2.528276953125,9.533711010742186,9.877567302285847
0.6839094752549116,-0.5315127685546874,2.5234885498046875,9.548076220703125,9.890210301125478
0.6863964188012932,-0.5267243652343749,2.518700146484375,9.533711010742186,9.874863777347956
0.6888833623476747,-0.5267243652343749,2.518700146484375,9.533711010742186,9.874863777347956
0.6913703058940561,-0.5219359619140624,2.50912333984375,9.524134204101562,9.86292296535997
0.6938572494404377,-0.5219359619140624,2.499546533203125,9.5001921875,9.837367616360737
0.6963441929868192,-0.5267243652343749,2.499546533203125,9.495403784179686,9.832998751814891
0.6988311365332006,-0.5267243652343749,2.4947581298828125,9.495403784179686,9.831782631250645
0.7013180800795822,-0.5267243652343749,2.480392919921875,9.504980590820312,9.837400247321492
0.7038050236259636,-0.5219359619140624,2.4899697265625,9.514557397460937,9.848815606818697
0.7062919671723451,-0.5315127685546874,2.4899697265625,9.519345800781249,9.85395349781934
0.7087789107187267,-0.5315127685546874,2.480392919921875,9.519345800781249,9.851537917258748
0.7112658542651081,-0.5267243652343749,2.480392919921875,9.533711010742186,9.865162605374374
0.7137527978114896,-0.5267243652343749,2.480392919921875,9.533711010742186,9.865162605374374
0.7162397413578712,-0.5123591552734374,2.4899697265625,9.533711010742186,9.866818473020421
0.7187266849042526,-0.5027823486328125,2.499546533203125,9.5384994140625,9.87337298160133
0.7212136284506341,-0.5123591552734374,2.5043349365234375,9.528922607421874,9.865828471878073
0.7237005719970157,-0.51714755859375,2.499546533203125,9.528922607421874,9.864863938607716
0.7261875155433971,-0.507570751953125,2.499546533203125,9.533711010742186,9.86899217631835
0.7286744590897786,-0.51714755859375,2.5139117431640625,9.528922607421874,9.868513561221535
0.7311614026361601,-0.5267243652343749,2.5378537597656248,9.528922607421874,9.875145888599508
0.7336483461825416,-0.5219359619140624,2.5426421630859375,9.524134204101562,9.87150336349934
0.7361352897289231,-0.5219359619140624,2.5474305664062498,9.524134204101562,9.8727378156587
0.7386222332753046,-0.51714755859375,2.5474305664062498,9.524134204101562,9.872485828085935
0.7411091768216861,-0.51714755859375,2.5378537597656248,9.533711010742186,9.879260546197917
0.7435961203680675,-0.5267243652343749,2.5426421630859375,9.5384994140625,9.885617775258385
0.7460830639144491,-0.5315127685546874,2.5426421630859375,9.557653027343749,9.904355929778177
0.7485700074608306,-0.5315127685546874,2.5474305664062498,9.581595043945311,9.928689334446661
0.7510569510072121,-0.5410895751953124,2.5426421630859375,9.581595043945311,9.927979184307587
0.7535438945535936,-0.5363011718749999,2.5426421630859375,9.567229833984374,9.913855698603724
0.7560308380999751,-0.5315127685546874,2.5426421630859375,9.552864624023437,9.89973522461876
0.7585177816463566,-0.5410895751953124,2.5330653564453125,9.557653027343749,9.902420381881472
0.7610047251927381,-0.5458779785156249,2.5426421630859375,9.557653027343749,9.90513721904062
0.7634916687391196,-0.5410895751953124,2.5426421630859375,9.543287817382812,9.891013571080295
0.7659786122855011,-0.5458779785156249,2.5234885498046875,9.533711010742186,9.877126245258307
0.7684655558318826,-0.5506663818359374,2.528276953125,9.528922607421874,9.873995334920055
0.770952499378264,-0.5363011718749999,2.5378537597656248,9.509768994140625,9.857181492436336
0.7734394429246456,-0.5363011718749999,2.5234885498046875,9.509768994140625,9.853492768042623
0.7759263864710271,-0.5363011718749999,2.50912333984375,9.524134204101562,9.863693589079116
0.7784133300174085,-0.5458779785156249,2.518700146484375,9.533711010742186,9.875903950103783
0.7809002735637901,-0.5458779785156249,2.5234885498046875,9.528922607421874,9.872504408034436
0.7833872171101716,-0.5315127685546874,2.5139117431640625,9.509768994140625,9.850784963518047
0.785874160656553,-0.5267243652343749,2.5043349365234375,9.519345800781249,9.857336176983871
0.7883611042029346,-0.5315127685546874,2.499546533203125,9.528922607421874,9.86562743838526
0.790848047749316,-0.5267243652343749,2.499546533203125,9.528922607421874,9.865370620854293
0.7933349912956975,-0.5267243652343749,2.5139117431640625,9.533711010742186,9.873643524337737
0.7958219348420791,-0.5267243652343749,2.5139117431640625,9.543287817382812,9.882890932048017
0.7983088783884605,-0.5267243652343749,2.518700146484375,9.543287817382812,9.884110043410036
0.800795821934842,-0.5123591552734374,2.5330653564453125,9.5384994140625,9.882403709426496
0.8032827654812236,-0.507570751953125,2.5234885498046875,9.5384994140625,9.879706149542317
0.805769709027605,-0.507570751953125,2.5234885498046875,9.533711010742186,9.875083197906761
0.8082566525739865,-0.49799394531249996,2.5378537597656248,9.519345800781249,9.864413016007392
0.8107435961203681,-0.49799394531249996,2.5378537597656248,9.514557397460937,9.859792195837754
0.8132305396667495,-0.5123591552734374,2.5330653564453125,9.519345800781249,9.863917907143568
0.815717483213131,-0.5123591552734374,2.5234885498046875,9.524134204101562,9.866085277491026
0.8182044267595125,-0.507570751953125,2.5234885498046875,9.528922607421874,9.870460404027227
0.820691370305894,-0.5123591552734374,2.518700146484375,9.533711010742186,9.874107958101314
0.8231783138522755,-0.507570751953125,2.5139117431640625,9.548076220703125,9.88651302720089
0.825665257398657,-0.5123591552734374,2.5139117431640625,9.552864624023437,9.891384467370033
0.8281522009450385,-0.5219359619140624,2.518700146484375,9.543287817382812,9.883856025946896
0.83063914449142,-0.5123591552734374,2.518700146484375,9.543287817382812,9.88335493126196
0.8331260880378015,-0.507570751953125,2.5234885498046875,9.548076220703125,9.888952525196492
0.835613031584183,-0.507570751953125,2.5330653564453125,9.543287817382812,9.886778572096619
0.8380999751305644,-0.507570751953125,2.5378537597656248,9.524134204101562,9.869521878588246
0.840586918676946,-0.51714755859375,2.5426421630859375,9.524134204101562,9.871251344414198
0.8430738622233275,-0.51714755859375,2.5522189697265625,9.548076220703125,9.896818821376295
0.8455608057697089,-0.507570751953125,2.5426421630859375,9.557653027343749,9.903099950461659
0.8480477493160905,-0.507570751953125,2.5378537597656248,9.567229833984374,9.91111580350444
0.850534692862472,-0.5123591552734374,2.5426421630859375,9.576806640625,9.921832819868209
0.8530216364088534,-0.5123591552734374,2.5522189697265625,9.567229833984374,9.915050189974092
0.855508579955235,-0.507570751953125,2.5522189697265625,9.567229833984374,9.914803902949926
0.8579955235016165,-0.51714755859375,2.5426421630859375,9.562441430664062,9.908216634780569
0.8604824670479979,-0.5219359619140624,2.5426421630859375,9.552864624023437,9.89922566884703
0.8629694105943795,-0.51714755859375,2.5570073730468748,9.548076220703125,9.898054749269274
0.8654563541407609,-0.5219359619140624,2.5522189697265625,9.5384994140625,9.887831404804691
0.8679432976871424,-0.5267243652343749,2.5378537597656248,9.528922607421874,9.875145888599508
0.870430241233524,-0.5315127685546874,2.5330653564453125,9.528922607421874,9.874172977085006
0.8729171847799054,-0.5363011718749999,2.5378537597656248,9.524134204101562,9.871041130025157
0.8754041283262869,-0.5363011718749999,2.5378537597656248,9.519345800781249,9.866421090130029
0.8778910718726685,-0.5315127685546874,2.5330653564453125,9.509768994140625,9.855690348477802
0.8803780154190499,-0.5267243652343749,2.5234885498046875,9.504980590820312,9.848354636679051
0.8828649589654315,-0.5267243652343749,2.5139117431640625,9.514557397460937,9.85515059646114
0.885351902511813,-2.269703173828125,0.40222587890625,-0.19632453613281248,2.313413382522703
0.8878388460581944,-2.01112939453125,0.5985504150390625,1.2689268798828124,2.4521581244651
0.890325789604576,-1.675941162109375,0.9097966308593749,3.1794998046874996,3.7075231214900657
0.8928127331509574,-1.2832920898437499,1.3120225097656248,5.396530541992187,5.7000687315717276
0.8952996766973389,-0.852335791015625,1.7860744384765623,7.752424975585937,8.001039382637371
0.8977866202437205,-0.4261678955078125,2.308010400390625,10.084377392578125,10.35389774333384
0.9002735637901019,-0.023942016601562498,2.8012159423828122,12.248735693359373,12.564987467633802
0.9027605073364834,0.33039982910156246,3.246537451171875,14.130578198242187,14.50249667076567
0.905247450882865,0.6177040283203125,3.6152445068359373,15.619771630859374,16.044588399551102
0.9077343944292464,0.8188169677734375,3.883395092773437,16.678008764648435,17.143721737912703
0.9102213379756279,0.9337386474609375,4.036623999023437,17.223886743164062,17.715204647776353
0.9127082815220094,0.9528922607421875,4.074931225585937,17.223886743164062,17.724992036533624
0.9151952250683909,0.8714894042968749,3.9839515624999997,16.749834814453123,17.239151085410608
0.9176821686147724,0.7134720947265625,3.7924154296875,15.844826586914062,16.307973104916016
0.9201691121611539,0.5027823486328125,3.5242648437499997,14.580688110351561,15.008987259316875
0.9226560557075354,0.2154781494140625,3.19865341796875,13.077129467773437,13.464365177685371
0.9251429992539169,-0.09576806640624999,2.825157958984375,11.444283935546874,11.788228188034545
0.9276299428002984,-0.411802685546875,2.4564509033203126,9.773131176757811,10.085525543587817
0.9301168863466799,-0.737414111328125,2.1164742675781247,8.169016064453125,8.470895251282442
0.9326038298930613,-1.0295067138671874,1.8052280517578123,6.746860278320312,7.0596640152295755
0.9350907734394429,-1.2689268798828124,1.5610194824218748,5.57370146484375,5.925631212806881
0.9375777169858244,-1.465251416015625,1.4125789794921875,4.7022120605468745,5.123781742794229
0.9400646605322058,-1.5897499023437498,1.3407529296874998,4.1754876953124995,4.664720855975593
0.9425516040785874,-1.6519991455078125,1.3646949462890625,4.012681982421875,4.5489680329981
0.9450385476249689,-1.6328455322265625,1.465251416015625,4.228160131835938,4.76345298546075
0.9475254911713503,-1.5466542724609373,1.6232687255859375,4.76924970703125,5.269998440417675
0.9500124347177319,-1.39821376953125,1.8531120849609375,5.5832782714843745,6.046653818564827
0.9524993782641133,-1.20667763671875,2.1212626708984375,6.598419775390624,7.035266147785056
0.9549863218104948,-0.9816226806640624,2.39420166015625,7.738059765625,8.159249574138142
0.9574732653568764,-0.7230489013671875,2.6671406494140624,8.930372192382812,9.34815417352588
0.9599602089032578,-0.4836287353515625,2.916137622070312,10.103531005859374,10.5270648412021
0.9624471524496393,-0.258573779296875,3.1268273681640624,11.166556542968749,11.598960936952839
0.9649340959960209,-0.0526724365234375,3.294421484375,12.08592998046875,12.526998475096669
0.9674210395424023,0.11013327636718749,3.375824340820312,12.804190478515624,13.242190646896322
0.9699079830887838,0.2346317626953125,3.394977954101562,13.254300390625,13.684202798037713
0.9723949266351654,0.32561142578124996,3.35188232421875,13.455413330078125,13.87044648882124
0.9748818701815468,0.33518823242187495,3.246537451171875,13.397952490234374,13.789760240975662
0.9773688137279283,0.2920926025390625,3.1028853515624997,13.091494677734374,13.457356668029076
0.9798557572743098,0.22026655273437498,2.935291235351562,12.593500732421875,12.932931326195755
0.9823427008206913,0.0909796630859375,2.7437551025390623,11.93270107421875,12.24442012871437
0.9848296443670728,-0.0718260498046875,2.528276953125,11.137826123046874,11.421405959003426
0.9873165879134543,-0.24899697265624998,2.3415292236328122,10.28549033203125,10.551590873788975
0.9898035314598358,-0.430956298828125,2.1787235107421874,9.433154541015625,9.69107651721129
0.9922904750062173,-0.622492431640625,2.0446482177734375,8.647856396484375,8.908058341530419
0.9947774185525988,-0.8044517578125,1.9536685546875,7.953537915039062,8.229382043518594
0.9972643620989803,-0.948103857421875,1.915361328125,7.378929516601562,7.682194396961637
0.9997513056453617,-1.0582371337890624,1.9201497314453124,6.976703637695312,7.313086521485343
1.0022382491917432,-1.1252747802734375,1.9536685546875,6.766013891601562,7.131760521360732
1.0047251927381249,-1.158793603515625,2.039859814453125,6.746860278320312,7.143105367649697
1.0072121362845063,-1.149216796875,2.1595698974609374,6.885723974609375,7.307368612759959
1.0096990798308878,-1.1109095703125,2.29843359375,7.187393383789062,7.627289211222112
1.0121860233772693,-1.0342951171875,2.446874096679687,7.64229169921875,8.090833186414594
1.0146729669236507,-0.9337386474609375,2.5953145996093747,8.183381274414062,8.635696544873404
1.0171599104700322,-0.814028564453125,2.729389892578125,8.777143286132812,9.227700469497238
1.0196468540164139,-0.6751648681640625,2.834734765625,9.399635717773437,9.840971517969564
1.0221337975627953,-0.5267243652343749,2.91134921875,9.97903251953125,10.40838521848178
1.0246207411091768,-0.38786066894531246,2.959233251953125,10.491391674804687,10.907648537248571
1.0271076846555582,-0.258573779296875,2.978386865234375,10.93671318359375,11.33796030944428
1.0295946282019397,-0.15322890625,2.9640216552734375,11.267113012695312,11.651469397097024
1.0320815717483212,-0.086191259765625,2.920926025390625,11.463437548828125,11.830031200928712
1.0345685152947028,-0.0383072265625,2.839523168945312,11.525686791992188,11.870375533136569
1.0370554588410843,-0.01915361328125,2.73896669921875,11.487379565429686,11.809411277476219
1.0395424023874658,-0.0383072265625,2.6384102294921874,11.314997045898437,11.618598630273201
1.0420293459338472,-0.08140285644531249,2.528276953125,11.037269653320312,11.323432879513437
1.0445162894802287,-0.16759411621093748,2.418143676757812,10.687716210937499,10.95914159205768
1.0470032330266101,-0.24899697265624998,2.3319524169921872,10.275913525390624,10.540132843034458
1.0494901765729918,-0.3399766357421875,2.269703173828125,9.840168823242188,10.10425945233215
1.0519771201193733,-0.45968671875,2.212242333984375,9.404424121093749,9.672048442448874
1.0544640636657547,-0.565031591796875,2.1883003173828124,8.997409838867187,9.276923131476853
1.0569510072121362,-0.6751648681640625,2.2026655273437497,8.643067993164061,8.944842500514392
1.0594379507585177,-0.7709329345703124,2.2170307373046874,8.350975390624999,8.674580846045723
1.0619248943048991,-0.833182177734375,2.2601263671875,8.173804467773436,8.52135219400908
1.0644118378512808,-0.8762778076171874,2.31758720703125,8.097190014648437,8.467795426888845
1.0668987813976623,-0.9097966308593749,2.39420166015625,8.12113203125,8.515439916293975
1.0693857249440437,-0.9050082275390624,2.4756045166015626,8.21690009765625,8.62931659109774
1.0718726684904252,-0.8810662109374999,2.5617957763671875,8.374917407226562,8.802176824271084
1.0743596120368066,-0.8475473876953125,2.6240450195312497,8.614337573242187,9.04493010833627
1.076846555583188,-0.7900865478515624,2.6767174560546874,8.911218579101561,9.338033500537934
1.0793334991295698,-0.7230489013671875,2.7198130859375,9.217676391601563,9.63772488694785
1.0818204426759512,-0.6464344482421874,2.748543505859375,9.533711010742186,9.943038496145066
1.0843073862223327,-0.55545478515625,2.7533319091796873,9.830592016601562,10.223986796613659
1.0867943297687142,-0.47884033203125,2.748543505859375,10.09395419921875,10.472425260803124
1.0892812733150956,-0.40222587890625,2.7246014892578123,10.299855541992187,10.661719519797684
1.0917682168614773,-0.33518823242187495,2.6862942626953124,10.433930834960936,10.77939890187261
1.0942551604078588,-0.28730419921875,2.6431986328124997,10.520122094726561,10.850899114974048
1.0967421039542402,-0.26336218261718747,2.5857377929687497,10.544064111328124,10.859681742897328
1.0992290475006217,-0.2442085693359375,2.518700146484375,10.496180078124999,10.79691087699003
1.1017159910470031,-0.24899697265624998,2.4660277099609376,10.386046801757812,10.67769920568054
1.1042029345933846,-0.277727392578125,2.427720483398437,10.232817895507813,10.520528567174063
1.1066898781397663,-0.316034619140625,2.389413256835937,10.046070166015625,10.331151889936953
1.1091768216861477,-0.354341845703125,2.360682836914062,9.82580361328125,10.111616994669438
1.1116637652325292,-0.411802685546875,2.3415292236328122,9.610325463867188,9.900035155412539
1.1141507087789106,-0.4740519287109375,2.3415292236328122,9.414000927734374,9.712409474668204
1.116637652325292,-0.5315127685546874,2.360682836914062,9.227253198242186,9.539262595405786
1.1191245958716736,-0.59376201171875,2.384624853515625,9.069235888671875,9.396277381119539
1.1216115394180552,-0.6512228515624999,2.408566870117187,8.954314208984375,9.295430518455978
1.1240984829644367,-0.689530078125,2.4516625,8.882488159179687,9.24038400936415
1.1265854265108182,-0.718260498046875,2.5043349365234375,8.844180932617187,9.21993101851721
1.1290723700571996,-0.7230489013671875,2.5474305664062498,8.863334545898438,9.250454122741532
1.131559313603581,-0.7326257080078125,2.5809493896484375,8.9255837890625,9.320090458548988
1.1340462571499625,-0.7326257080078125,2.6144682128906247,9.011775048828124,9.411921907609019
1.1365332006963442,-0.7038952880859375,2.6479870361328124,9.131485131835937,9.533694175557438
1.1390201442427257,-0.6655880615234374,2.6623522460937497,9.265560424804686,9.66342263049846
1.1415070877891071,-0.63206923828125,2.6623522460937497,9.423577734375,9.812820609797681
1.1439940313354886,-0.5889736083984375,2.6623522460937497,9.572018237304688,9.952815809054433
1.14648097488187,-0.5363011718749999,2.6575638427734374,9.706093530273437,10.077624528815662
1.1489679184282515,-0.488417138671875,2.6288334228515624,9.821015209960937,10.178489879188069
1.1514548619746332,-0.44053310546874996,2.5953145996093747,9.916783276367187,10.260229911575834
1.1539418055210147,-0.39743747558593745,2.5570073730468748,9.983820922851562,10.313725004690827
1.1564287490673961,-0.37828386230468747,2.5234885498046875,10.01733974609375,10.337223453623565
1.1589156926137776,-0.36391865234375,2.4899697265625,10.022128149414062,10.333220149982248
1.161402636160159,-0.3591302490234375,2.4516625,10.002974536132811,10.305295877372533
1.1638895797065405,-0.3591302490234375,2.418143676757812,9.955090502929687,10.250864368370518
1.1663765232529222,-0.373495458984375,2.398990063476562,9.873687646484374,10.16780998656443
1.1688634667993036,-0.38786066894531246,2.384624853515625,9.763554370117188,10.058024931802146
1.171350410345685,-0.4261678955078125,2.360682836914062,9.65342109375,9.94700866315696
1.1738373538920666,-0.4644751220703125,2.375048046875,9.528922607421874,9.831426977922517
1.176324297438448,-0.49320554199218747,2.39420166015625,9.409212524414063,9.721560246469556
1.1788112409848295,-0.5315127685546874,2.403778466796875,9.323021264648437,9.642581720766485
1.1812981845312112,-0.565031591796875,2.427720483398437,9.255983618164063,9.585735244881446
1.1837851280775926,-0.59376201171875,2.461239306640625,9.203311181640624,9.545218119939662
1.186272071623974,-0.6177040283203125,2.480392919921875,9.179369165039063,9.528626636188012
1.1887590151703555,-0.6368576416015624,2.5139117431640625,9.160215551757812,9.52023575667904
1.191245958716737,-0.6368576416015624,2.5378537597656248,9.179369165039063,9.545004328427137
1.1937329022631185,-0.6368576416015624,2.5474305664062498,9.227253198242186,9.59360160371473
1.1962198458095001,-0.6368576416015624,2.5713725830078125,9.289502441406249,9.65983437876671
1.1987067893558816,-0.63206923828125,2.5761609863281247,9.351751684570312,9.720667493507028
1.201193732902263,-0.612915625,2.5665841796874997,9.418789331054686,9.781442244249101
1.2036806764486445,-0.584185205078125,2.5665841796874997,9.519345800781249,9.87656677090303
1.206167619995026,-0.55545478515625,2.5570073730468748,9.595960253906249,9.946319415679225
1.2086545635414074,-0.5219359619140624,2.5474305664062498,9.658209497070311,10.002141287159423
1.2111415070877891,-0.49320554199218747,2.5426421630859375,9.720458740234374,10.05960232796272
1.2136284506341706,-0.4644751220703125,2.5330653564453125,9.758765966796874,10.092852442880485
1.216115394180552,-0.45489831542968745,2.518700146484375,9.787496386718749,10.11661348600972
1.2186023377269335,-0.44532150878906246,2.50912333984375,9.80665,10.132344023138911
1.221089281273315,-0.4261678955078125,2.499546533203125,9.811438403320311,10.133788802267292
1.2235762248196966,-0.4165910888671875,2.4947581298828125,9.7683427734375,10.090484963633243
1.226063168366078,-0.4165910888671875,2.480392919921875,9.734823950195311,10.054486287912395
1.2285501119124596,-0.430956298828125,2.4899697265625,9.715670336914062,10.038920393463092
1.231037055458841,-0.44532150878906246,2.4947581298828125,9.672574707031249,9.999041495858851
1.2335239990052225,-0.45489831542968745,2.4947581298828125,9.6151138671875,9.943900908746954
1.236010942551604,-0.47884033203125,2.5043349365234375,9.557653027343749,9.891901380875407
1.2384978860979856,-0.5123591552734374,2.5234885498046875,9.481038574218749,9.824489748114747
1.240984829644367,-0.5315127685546874,2.5474305664062498,9.423577734375,9.776283835364325
1.2434717731907485,-0.5458779785156249,2.5617957763671875,9.399635717773437,9.757762653092318
1.24595871673713,-0.5602431884765625,2.5761609863281247,9.361328491210937,9.725479370091282
1.2484456602835114,-0.5793968017578125,2.5809493896484375,9.337386474609374,9.704833155806023
1.250932603829893,-0.5889736083984375,2.5905261962890624,9.342174877929686,9.712566464888171
1.2534195473762746,-0.59376201171875,2.6048914062499997,9.366116894531249,9.73972064522074
1.255906490922656,-0.5985504150390625,2.5953145996093747,9.390058911132812,9.76048804234879
1.2583934344690375,-0.59376201171875,2.5713725830078125,9.414000927734374,9.776907678534569
1.260880378015419,-0.5985504150390625,2.5617957763671875,9.457096557617186,9.81619760901598
1.2633673215618004,-0.5889736083984375,2.5570073730468748,9.485826977539062,9.84205720695698
1.2658542651081819,-0.5746083984375,2.5378537597656248,9.519345800781249,9.868577455356117
1.2683412086545636,-0.5602431884765625,2.5234885498046875,9.557653027343749,9.901040262635178
1.270828152200945,-0.5410895751953124,2.50912333984375,9.591171850585937,9.928698571837387
1.2733150957473265,-0.5219359619140624,2.499546533203125,9.624690673828125,9.957651358973209
1.275802039293708,-0.5123591552734374,2.480392919921875,9.65342109375,9.980150287167449
1.2782889828400894,-0.507570751953125,2.4756045166015626,9.658209497070311,9.98334896115304
1.2807759263864709,-0.49320554199218747,2.480392919921875,9.643844287109374,9.969921432883133
1.2832628699328525,-0.4836287353515625,2.480392919921875,9.639055883789062,9.964820325608729
1.285749813479234,-0.4740519287109375,2.4756045166015626,9.624690673828125,9.949272009579731
1.2882367570256155,-0.4644751220703125,2.480392919921875,9.600748657226562,9.926855542187488
1.290723700571997,-0.4740519287109375,2.480392919921875,9.591171850585937,9.91804677019549
1.2932106441183784,-0.4836287353515625,2.480392919921875,9.572018237304688,9.899988834647738
1.2956975876647598,-0.4836287353515625,2.4899697265625,9.548076220703125,9.879251262581185
1.2981845312111415,-0.49799394531249996,2.4947581298828125,9.533711010742186,9.867292522902678
1.300671474757523,-0.5123591552734374,2.499546533203125,9.509768994140625,9.84611350216717
1.3031584183039044,-0.5267243652343749,2.5139117431640625,9.490615380859374,9.832037994065841
1.305645361850286,-0.5315127685546874,2.5234885498046875,9.490615380859374,9.83474862879253
1.3081323053966674,-0.5363011718749999,2.528276953125,9.476250170898437,9.822378561229973
1.3106192489430488,-0.5410895751953124,2.5330653564453125,9.4618849609375,9.810018605610475
1.3131061924894305,-0.5506663818359374,2.5330653564453125,9.457096557617186,9.80593334997758
1.315593136035812,-0.5458779785156249,2.5378537597656248,9.466673364257812,9.81613921350615
1.3180800795821934,-0.5506663818359374,2.5522189697265625,9.490615380859374,9.843212658523687
1.3205670231285749,-0.565031591796875,2.5522189697265625,9.490615380859374,9.844026751109789
1.3230539666749563,-0.55545478515625,2.5474305664062498,9.476250170898437,9.828389990759753
1.3255409102213378,-0.5363011718749999,2.5474305664062498,9.485826977539062,9.836561131077426
1.3280278537677195,-0.5363011718749999,2.5426421630859375,9.514557397460937,9.863034552612877
1.330514797314101,-0.5315127685546874,2.528276953125,9.533711010742186,9.877567302285847
1.3330017408604824,-0.5315127685546874,2.5234885498046875,9.567229833984374,9.908702588150112
1.3354886844068639,-0.5219359619140624,2.5234885498046875,9.600748657226562,9.940562679676244
1.3379756279532453,-0.5123591552734374,2.50912333984375,9.610325463867188,9.945680839439563
1.3404625714996268,-0.507570751953125,2.50912333984375,9.6151138671875,9.950062446124058
1.3429495150460085,-0.5027823486328125,2.50912333984375,9.610325463867188,9.945192081910708
1.34543645859239,-0.507570751953125,2.5043349365234375,9.595960253906249,9.930346153940384
1.3479234021387714,-0.49799394531249996,2.50912333984375,9.581595043945311,9.917190201376291
1.3504103456851528,-0.49320554199218747,2.50912333984375,9.552864624023437,9.889194818897993
1.3528972892315343,-0.49320554199218747,2.518700146484375,9.5384994140625,9.877756486501521
1.3553842327779158,-0.49799394531249996,2.518700146484375,9.533711010742186,9.87337298160133
1.3578711763242974,-0.507570751953125,2.50912333984375,9.514557397460937,9.85292497040171
1.360358119870679,-0.5219359619140624,2.5139117431640625,9.504980590820312,9.84565007669012
1.3628450634170604,-0.5315127685546874,2.50912333984375,9.504980590820312,9.844940923619408
1.3653320069634418,-0.5315127685546874,2.5139117431640625,9.495403784179686,9.836917764227204
1.3678189505098233,-0.5363011718749999,2.5139117431640625,9.495403784179686,9.837177655404348
1.370305894056205,-0.5458779785156249,2.5043349365234375,9.504980590820312,9.84450772124188
1.3727928376025864,-0.5506663818359374,2.5043349365234375,9.490615380859374,9.830905718487013
1.3752797811489679,-0.5506663818359374,2.5043349365234375,9.485826977539062,9.826283141971027
1.3777667246953493,-0.55545478515625,2.499546533203125,9.490615380859374,9.829956418896538
1.3802536682417308,-0.5506663818359374,2.5043349365234375,9.5001921875,9.840151347302141
1.3827406117881123,-0.5458779785156249,2.5043349365234375,9.514557397460937,9.853754548967556
1.385227555334494,-0.5458779785156249,2.4947581298828125,9.543287817382812,9.879076032678961
1.3877144988808754,-0.5458779785156249,2.4899697265625,9.567229833984374,9.901000893995855
1.3902014424272569,-0.5363011718749999,2.480392919921875,9.562441430664062,9.893445006620981
1.3926883859736383,-0.5315127685546874,2.4660277099609376,9.567229833984374,9.894224840062638
1.3951753295200198,-0.5363011718749999,2.461239306640625,9.567229833984374,9.893290886645758
1.3976622730664012,-0.5315127685546874,2.4660277099609376,9.557653027343749,9.884964839620068
1.400149216612783,-0.51714755859375,2.4660277099609376,9.557653027343749,9.884202833549491
1.4026361601591644,-0.51714755859375,2.47081611328125,9.562441430664062,9.890028310267382
1.4051231037055458,-0.5219359619140624,2.4851813232421875,9.562441430664062,9.893878383758894
1.4076100472519273,-0.51714755859375,2.4899697265625,9.562441430664062,9.894830819748146
1.4100969907983087,-0.51714755859375,2.4899697265625,9.567229833984374,9.899458446442305
1.4125839343446902,-0.507570751953125,2.518700146484375,9.576806640625,9.915477997961458
1.4150708778910719,-0.49320554199218747,2.5378537597656248,9.557653027343749,9.90114563087027
1.4175578214374533,-0.49799394531249996,2.5378537597656248,9.5384994140625,9.88289789219716
1.4200447649838348,-0.5027823486328125,2.5426421630859375,9.524134204101562,9.870509186325515
1.4225317085302163,-0.507570751953125,2.5426421630859375,9.504980590820312,9.852274522647622
1.4250186520765977,-0.51714755859375,2.5378537597656248,9.490615380859374,9.837678771474526
1.4275055956229792,-0.5267243652343749,2.5474305664062498,9.495403784179686,9.845279786385266
1.4299925391693609,-0.5267243652343749,2.5665841796874997,9.533711010742186,9.887185572482217
1.4324794827157423,-0.5267243652343749,2.5761609863281247,9.552864624023437,9.908141425581748
1.4349664262621238,-0.5363011718749999,2.5713725830078125,9.548076220703125,9.902794324025681
1.4374533698085052,-0.5410895751953124,2.5665841796874997,9.543287817382812,9.897195291859932
1.4399403133548867,-0.5410895751953124,2.5665841796874997,9.567229833984374,9.920283210477807
1.4424272569012682,-0.5410895751953124,2.5665841796874997,9.567229833984374,9.920283210477807
1.4449142004476498,-0.5458779785156249,2.5665841796874997,9.552864624023437,9.906692669290237
1.4474011439940313,-0.5458779785156249,2.5665841796874997,9.5384994140625,9.892841259765625
1.4498880875404128,-0.5458779785156249,2.5617957763671875,9.5384994140625,9.891600044447395
1.4523750310867942,-0.5458779785156249,2.5522189697265625,9.543287817382812,9.893742810598404
1.4548619746331757,-0.5410895751953124,2.5570073730468748,9.5384994140625,9.890097861309147
1.4573489181795571,-1.7812860351562498,0.507570751953125,-14.188039038085936,14.308426180175493
1.4598358617259388,-1.5418658691406248,0.70868369140625,-10.419565624999999,10.556842839910406
1.4623228052723203,-1.235408056640625,1.0726023437499999,-5.3199160888671875,5.565807762294572
1.4648097488187017,-0.8858546142578124,1.5466542724609373,0.689530078125,1.9111068951690269
1.4672966923650832,-0.51714755859375,2.0877438476562498,7.048529687499999,7.3693884906656155
1.4697836359114647,-0.181959326171875,2.6336218261718747,13.249511987304686,13.509946003644885
1.4722705794578461,0.1005564697265625,3.1411925781249996,18.84715546875,19.107393115747225
1.4747575230042278,0.3112462158203125,3.5625720703124997,23.42965744628906,23.701005084457528
1.4772444665506093,0.430956298828125,3.859453076171875,26.700136914062497,26.9810750825158
1.4797314100969907,0.469263525390625,4.0222587890625,28.476634545898435,28.76312724797338
1.4822183536433722,0.4165910888671875,4.031835595703125,28.69690109863281,28.98174216762711
1.4847052971897536,0.2825157958984375,3.88818349609375,27.408820605468748,27.68467505781847
1.487192240736135,0.08140285644531249,3.6296097167968746,24.799140795898435,25.06348095010144
1.4896791842825168,-0.16280571289062498,3.284844677734375,21.145589062499997,21.39982820157931
1.4921661278288982,-0.4261678955078125,2.887407202148437,16.78335363769531,17.03524871418438
1.4946530713752797,-0.6607996582031249,2.4756045166015626,12.100295190429687,12.368606130297596
1.4971400149216612,-0.8714894042968749,2.0877438476562498,7.4794859863281244,7.814146068183462
1.4996269584680426,-1.0534487304687499,1.7669208251953124,3.2609026611328122,3.855547898239388
1.5021139020144243,-1.1635820068359375,1.5227122558593749,-0.2442085693359375,1.9318937667775107
1.5046008455608058,-1.2114660400390624,1.3838485595703125,-2.8203695556640622,3.36707161083774
1.5070877891071872,-1.2018892333984375,1.3646949462890625,-4.304774584960938,4.673116118085619
1.5095747326535687,-1.120486376953125,1.446097802734375,-4.659116430664063,5.005402530316075
1.5120616761999501,-0.9911994873046874,1.608903515625,-3.902548706054687,4.33600430688816
1.5145486197463316,-0.8475473876953125,1.838746875,-2.1356278808593747,2.9428273972856984
1.5170355632927133,-0.679953271484375,2.1260510742187497,0.44053310546874996,2.2751920882868206
1.5195225068390947,-0.49320554199218747,2.437297290039062,3.6104561035156246,4.383955184772854
1.5220094503854762,-0.33518823242187495,2.7198130859375,7.086836914062499,7.598222938300103
1.5244963939318577,-0.201112939453125,2.96881005859375,10.534487304687499,10.946675401739332
1.5269833374782391,-0.105344873046875,3.1651345947265623,13.718775512695311,14.079558803909327
1.5294702810246206,-0.0430956298828125,3.289633081054687,16.41943498535156,16.745787180048335
1.5319572245710023,-0.033518823242187495,3.337517114257812,18.440141186523437,18.73976923492905
1.5344441681173837,-0.0718260498046875,3.294421484375,19.670760839843748,19.944854071074886
1.5369311116637652,-0.12449848632812499,3.1842882080078123,20.053833105468748,20.305452801815328
1.5394180552101466,-0.22505495605468748,3.0262708984374997,19.584569580078124,19.81828274399414
1.541904998756528,-0.3495534423828125,2.8203695556640622,18.36831513671875,18.586868294616213
1.5443919423029095,-0.469263525390625,2.5905261962890624,16.548721875,16.756826367961963
1.5468788858492912,-0.5889736083984375,2.379836450195312,14.293383911132812,14.502114848259147
1.5493658293956727,-0.699106884765625,2.1930887207031247,11.77947216796875,12.002264500049662
1.5518527729420541,-0.7805097412109374,2.039859814453125,9.227253198242186,9.482216254822315
1.5543397164884356,-0.8283937744140625,1.9393033447265624,6.823474731445312,7.1419143875454205
1.556826660034817,-0.852335791015625,1.9105729248046874,4.76924970703125,5.20792741593627
1.5593136035811985,-0.852335791015625,1.93451494140625,3.189076611328125,3.8260990567535407
1.5618005471275802,-0.8188169677734375,2.001552587890625,2.1739351074218747,3.066376989231217
1.5642874906739617,-0.7565677246093749,2.1116858642578125,1.8004396484374998,2.876316192440014
1.5667744342203431,-0.6751648681640625,2.2601263671875,2.0350714111328125,3.115370675099395
1.5692613777667246,-0.5889736083984375,2.418143676757812,2.839523168945312,3.7758708372785867
1.571748321313106,-0.49320554199218747,2.5713725830078125,4.122815258789062,4.88393430805534
1.5742352648594875,-0.40222587890625,2.7198130859375,5.746083984375,6.36998037952941
1.5767222084058692,-0.33039982910156246,2.825157958984375,7.580042456054687,8.096154962442029
1.5792091519522506,-0.2920926025390625,2.896984008789062,9.471461767578125,9.908906218666706
1.581696095498632,-0.277727392578125,2.940079638671875,11.276689819335937,11.656969334601337
1.5841830390450136,-0.27293898925781246,2.935291235351562,12.85207451171875,13.185835187160482
1.586669982591395,-0.2920926025390625,2.89219560546875,14.087482568359373,14.384271918403796
1.5891569261377765,-0.32561142578124996,2.8203695556640622,14.891934326171874,15.160152215796916
1.5916438696841582,-0.36391865234375,2.710236279296875,15.227122558593749,15.470716818867032
1.5941308132305396,-0.430956298828125,2.5905261962890624,15.116989282226562,15.343399697072101
1.596617756776921,-0.49320554199218747,2.480392919921875,14.590264916992187,14.80781655382938
1.5991047003233025,-0.5458779785156249,2.375048046875,13.699621899414062,13.914685629912679
1.601591643869684,-0.5985504150390625,2.27927998046875,12.531251489257812,12.750907564394591
1.6040785874160655,-0.6272808349609375,2.2266075439453124,11.190498559570312,11.427095887075101
1.6065655309624471,-0.6655880615234374,2.2026655273437497,9.797073193359374,10.063666630459888
1.6090524745088286,-0.689530078125,2.1978771240234374,8.456320263671875,8.764443392636647
1.61153941805521,-0.6751648681640625,2.231395947265625,7.254431030273437,7.619825788406883
1.6140263616015915,-0.6464344482421874,2.2936451904296873,6.306327172851562,6.741546422483598
1.616513305147973,-0.622492431640625,2.370259643554687,5.674257934570313,6.1808438512348784
1.6190002486943544,-0.59376201171875,2.4564509033203126,5.358223315429687,5.924294174414181
1.6214871922407361,-0.5410895751953124,2.5474305664062498,5.382165332031249,5.97912067785598
1.6239741357871176,-0.5027823486328125,2.6336218261718747,5.741295581054687,6.336499740584204
1.626461079333499,-0.47884033203125,2.7150246826171873,6.354211206054687,6.926517677877631
1.6289480228798805,-0.44532150878906246,2.767697119140625,7.182604980468749,7.710270611006073
1.631434966426262,-0.430956298828125,2.8012159423828122,8.1594392578125,8.637649164517569
1.6339219099726436,-0.4213794921875,2.8107927490234372,9.188945971679686,9.618463735173474
1.636408853519025,-0.4165910888671875,2.7964275390625,10.184933862304687,10.570072511391366
1.6388957970654066,-0.430956298828125,2.7533319091796873,11.094730493164063,11.43938829874881
1.641382740611788,-0.45010991210937495,2.710236279296875,11.822567797851562,12.137589915522472
1.6438696841581695,-0.4740519287109375,2.6479870361328124,12.334926953124999,12.624855781891988
1.646356627704551,-0.5123591552734374,2.5665841796874997,12.612654345703124,12.881339833247106
1.6488435712509326,-0.5458779785156249,2.499546533203125,12.627019555664061,12.883607355791261
1.651330514797314,-0.5746083984375,2.446874096679687,12.401964599609375,12.654093945696825
1.6538174583436955,-0.5889736083984375,2.408566870117187,11.961431494140625,12.21572460676137
1.656304401890077,-0.6081272216796875,2.384624853515625,11.358092675781249,11.621640316297349
1.6587913454364585,-0.6272808349609375,2.375048046875,10.663774194335938,10.94305325485804
1.66127828898284,-0.6272808349609375,2.375048046875,9.907206469726562,10.20720698843057
1.6637652325292216,-0.63206923828125,2.39420166015625,9.165003955078124,9.49363000164184
1.666252176075603,-0.6272808349609375,2.437297290039062,8.48505068359375,8.850422839000169
1.6687391196219845,-0.603338818359375,2.4756045166015626,7.915230688476562,8.31525780142495
1.671226063168366,-0.5746083984375,2.5139117431640625,7.513004809570312,7.943246712308496
1.6737130067147474,-0.55545478515625,2.5426421630859375,7.287949853515625,7.738719031933756
1.676199950261129,-0.5267243652343749,2.5809493896484375,7.225700610351562,7.690870407131635
1.6786868938075106,-0.507570751953125,2.6096798095703124,7.359775903320312,7.825238534627013
1.681173837353892,-0.49799394531249996,2.6192566162109374,7.675810522460937,8.125673533182017
1.6836607809002735,-0.488417138671875,2.6240450195312497,8.092401611328125,8.521216310181382
1.686147724446655,-0.469263525390625,2.6096798095703124,8.590395556640624,8.990302152002009
1.6886346679930364,-0.4740519287109375,2.5905261962890624,9.1554271484375,9.526667700466982
1.6911216115394179,-0.488417138671875,2.5665841796874997,9.715670336914062,10.060822816666755
1.6936085550857995,-0.488417138671875,2.528276953125,10.20887587890625,10.528622054379449
1.696095498632181,-0.5027823486328125,2.4899697265625,10.639832177734375,10.938865027947198
1.6985824421785625,-0.507570751953125,2.4564509033203126,10.960655200195312,11.244009139369728
1.701069385724944,-0.507570751953125,2.43250888671875,11.142614526367186,11.416329797067576
1.7035563292713254,-0.5219359619140624,2.4133552734375,11.200075366210937,11.469018660416104
1.7060432728177068,-0.5410895751953124,2.398990063476562,11.137826123046874,11.406099333263308
1.7085302163640885,-0.5363011718749999,2.384624853515625,10.955866796875,11.22519807886823
1.71101715991047,-0.5410895751953124,2.384624853515625,10.682927807617187,10.959204358125183
1.7135041034568514,-0.5410895751953124,2.403778466796875,10.328585961914062,10.61840933560529
1.715991047003233,-0.5315127685546874,2.43250888671875,9.9215716796875,10.229232126717987
1.7184779905496144,-0.5315127685546874,2.4564509033203126,9.5001921875,9.82701930714476
1.7209649340959958,-0.5315127685546874,2.4899697265625,9.117119921875,9.465956408740979
1.7234518776423775,-0.5219359619140624,2.5234885498046875,8.786720092773438,9.156793194021747
1.725938821188759,-0.507570751953125,2.5474305664062498,8.532934716796875,8.919529440503938
1.7284257647351404,-0.5027823486328125,2.5617957763671875,8.389282617187499,8.786105537776894
1.7309127082815219,-0.5027823486328125,2.5857377929687497,8.327033374023436,8.733745750603447
1.7333996518279033,-0.49320554199218747,2.5953145996093747,8.360552197265624,8.767995359305367
1.7358865953742848,-0.49799394531249996,2.5905261962890624,8.494627490234375,8.894802984949882
1.7383735389206665,-0.5027823486328125,2.5809493896484375,8.695740429687499,9.08460188794892
1.740860482467048,-0.5027823486328125,2.5713725830078125,8.949525805664061,9.325168051943512
1.7433474260134294,-0.5123591552734374,2.5522189697265625,9.236830004882812,9.596632852856674
1.7458343695598109,-0.5267243652343749,2.528276953125,9.5384994140625,9.88193270472458
1.7483213131061923,-0.5267243652343749,2.518700146484375,9.82580361328125,10.157150468098957
1.7508082566525738,-0.5363011718749999,2.5043349365234375,10.065223779296874,10.385954079841177
1.7532952001989555,-0.5506663818359374,2.4947581298828125,10.251971508789062,10.565508573075094
1.755782143745337,-0.5506663818359374,2.4756045166015626,10.371681591796875,10.67724825169484
1.7582690872917184,-0.55545478515625,2.47081611328125,10.424354028320312,10.727563525412524
1.7607560308380998,-0.565031591796875,2.4756045166015626,10.409988818359375,10.715210946160314
1.7632429743844813,-0.5698199951171875,2.4756045166015626,10.328585961914062,10.636399791381557
1.765729917930863,-0.565031591796875,2.4756045166015626,10.184933862304687,10.496702158386093
1.7682168614772444,-0.565031591796875,2.4947581298828125,10.002974536132811,10.324852463685199
1.770703805023626,-0.565031591796875,2.50912333984375,9.792284790039062,10.124416133462093
1.7731907485700074,-0.5698199951171875,2.5139117431640625,9.576806640625,9.917644504173994
1.7756776921163888,-0.5602431884765625,2.518700146484375,9.356540087890625,9.70580059935496
1.7781646356627703,-0.55545478515625,2.5330653564453125,9.1554271484375,9.51560804093584
1.780651579209152,-0.5506663818359374,2.5378537597656248,8.992621435546875,9.360084158440987
1.7831385227555334,-0.5363011718749999,2.5426421630859375,8.8872765625,9.259391600684069
1.7856254663019149,-0.5315127685546874,2.5426421630859375,8.825027319335938,9.199382706446377
1.7881124098482963,-0.5267243652343749,2.5378537597656248,8.815450512695312,9.18859662868428
1.7905993533946778,-0.5267243652343749,2.528276953125,8.872911352539061,9.241113503179752
1.7930862969410593,-0.5315127685546874,2.518700146484375,8.98304462890625,9.344594536733977
1.795573240487441,-0.5315127685546874,2.50912333984375,9.121908325195312,9.475622261938941
1.7980601840338224,-0.51714755859375,2.4947581298828125,9.299079248046874,9.641791046555193
1.8005471275802039,-0.5219359619140624,2.4851813232421875,9.485826977539062,9.819850141704752
1.8030340711265853,-0.5267243652343749,2.4851813232421875,9.65342109375,9.982089139032007
1.8055210146729668,-0.5219359619140624,2.4899697265625,9.816226806640625,10.140546095104883
1.8080079582193482,-0.5123591552734374,2.4851813232421875,9.950302099609374,10.268746271423549
1.81049490176573,-0.5123591552734374,2.4899697265625,10.050858569335936,10.367363171220726
1.8129818453121114,-0.507570751953125,2.499546533203125,10.09395419921875,10.41120897474505
1.8154687888584928,-0.5123591552734374,2.5139117431640625,10.0748005859375,10.396339307795666
1.8179557324048743,-0.5123591552734374,2.528276953125,10.026916552734374,10.35344154429792
1.8204426759512558,-0.5027823486328125,2.5378537597656248,9.950302099609374,10.281147974304425
1.8229296194976372,-0.49799394531249996,2.5617957763671875,9.8449572265625,10.18498789210011
1.825416563044019,-0.49320554199218747,2.5809493896484375,9.725247143554688,10.073975553960665
1.8279035065904004,-0.49799394531249996,2.5905261962890624,9.595960253906249,9.951948409119506
1.8303904501367818,-0.49799394531249996,2.5857377929687497,9.471461767578125,9.83069813992114
1.8328773936831633,-0.488417138671875,2.5905261962890624,9.356540087890625,9.720813736067193
1.8353643372295447,-0.4836287353515625,2.6001030029296874,9.260772021484375,9.631008815976108
1.8378512807759262,-0.49320554199218747,2.5857377929687497,9.198522778320312,9.56776426046944
1.8403382243223079,-0.5123591552734374,2.5761609863281247,9.169792358398437,9.538564316898743
1.8428251678686893,-0.5123591552734374,2.5809493896484375,9.165003955078124,9.535256113629922
1.8453121114150708,-0.49320554199218747,2.5665841796874997,9.198522778320312,9.562605678440976
1.8477990549614522,-0.49320554199218747,2.5570073730468748,9.251195214843749,9.61073105000945
1.8502859985078337,-0.5027823486328125,2.5474305664062498,9.323021264648437,9.6778571017475
1.8527729420542152,-0.507570751953125,2.5330653564453125,9.404424121093749,9.75280683791449
1.8552598856005968,-0.5123591552734374,2.5378537597656248,9.485826977539062,9.832808706456
1.8577468291469783,-0.5123591552734374,2.5378537597656248,9.581595043945311,9.925229327129243
1.8602337726933598,-0.507570751953125,2.5330653564453125,9.65342109375,9.99312698716068
1.8627207162397412,-0.5123591552734374,2.5378537597656248,9.715670336914062,10.05472345246456
1.8652076597861227,-0.51714755859375,2.5330653564453125,9.763554370117188,10.100042358110056
1.8676946033325041,-0.5315127685546874,2.5234885498046875,9.801861596679688,10.135432454739961
1.8701815468788858,-0.5267243652343749,2.528276953125,9.80665,10.141006218868746
1.8726684904252673,-0.5219359619140624,2.5234885498046875,9.792284790039062,10.125672966206487
1.8751554339716487,-0.5315127685546874,2.50912333984375,9.753977563476562,10.085548277931622
1.8776423775180302,-0.5315127685546874,2.499546533203125,9.701305126953125,10.032226067081593
1.8801293210644117,-0.5315127685546874,2.4947581298828125,9.643844287109374,9.975472749888356
1.8826162646107931,-0.5315127685546874,2.4899697265625,9.576806640625,9.909474279408242
1.8851032081571748,-0.5219359619140624,2.4899697265625,9.519345800781249,9.853441574515399
1.8875901517035563,-0.5267243652343749,2.4851813232421875,9.4618849609375,9.796980748186584
1.8900770952499377,-0.5219359619140624,2.480392919921875,9.414000927734374,9.749265595567769
1.8925640387963192,-0.5219359619140624,2.47081611328125,9.375693701171874,9.709839431843525
1.8950509823427006,-0.5315127685546874,2.4851813232421875,9.351751684570312,9.690917995855301
1.897537925889082,-0.5315127685546874,2.4851813232421875,9.332598071289063,9.67243603198061
1.9000248694354638,-0.5219359619140624,2.4756045166015626,9.332598071289063,9.669458187053996
1.9025118129818452,-0.51714755859375,2.4756045166015626,9.361328491210937,9.6969340742492
1.9049987565282267,-0.5219359619140624,2.4660277099609376,9.394847314453125,9.727120122447417
1.9074857000746082,-0.5267243652343749,2.47081611328125,9.433154541015625,9.765591401306196
1.9099726436209896,-0.5219359619140624,2.480392919921875,9.485826977539062,9.818639398274366
1.9124595871673713,-0.5219359619140624,2.4851813232421875,9.548076220703125,9.879995084719802
1.9149465307137528,-0.5267243652343749,2.4851813232421875,9.581595043945311,9.912644871702037
1.9174334742601342,-0.5219359619140624,2.499546533203125,9.605537060546874,9.939139411514782
1.9199204178065157,-0.51714755859375,2.5043349365234375,9.648632690429688,9.981745732409726
1.9224073613528971,-0.51714755859375,2.50912333984375,9.672574707031249,10.006090295165679
1.9248943048992786,-0.51714755859375,2.5139117431640625,9.677363110351562,10.011920426140577
1.9273812484456603,-0.51714755859375,2.5139117431640625,9.677363110351562,10.011920426140577
1.9298681919920417,-0.5219359619140624,2.5234885498046875,9.677363110351562,10.01457779334345
1.9323551355384232,-0.5267243652343749,2.5330653564453125,9.658209497070311,9.998743388359065
1.9348420790848047,-0.5267243652343749,2.5378537597656248,9.619902270507811,9.962964416126828
1.9373290226311861,-0.5219359619140624,2.5426421630859375,9.581595043945311,9.926953707155022
1.9398159661775676,-0.5219359619140624,2.5474305664062498,9.557653027343749,9.905077033021659
1.9423029097239493,-0.51714755859375,2.5570073730468748,9.528922607421874,9.879579665219126
1.9447898532703307,-0.51714755859375,2.5617957763671875,9.490615380859374,9.843882339025429
1.9472767968167122,-0.5219359619140624,2.5665841796874997,9.466673364257812,9.82230502913189
1.9497637403630936,-0.5267243652343749,2.5809493896484375,9.452308154296874,9.812485299486841
1.952250683909475,-0.5267243652343749,2.5761609863281247,9.442731347656249,9.802000779862276
1.9547376274558566,-0.5267243652343749,2.5761609863281247,9.428366137695312,9.788162851671924
1.9572245710022382,-0.5219359619140624,2.5857377929687497,9.433154541015625,9.795042709299933
1.9597115145486197,-0.5219359619140624,2.5857377929687497,9.471461767578125,9.83194004746877
1.9621984580950012,-0.5219359619140624,2.5809493896484375,9.481038574218749,9.839909011067617
1.9646854016413826,-0.5123591552734374,2.5761609863281247,9.490615380859374,9.847380242423673
1.967172345187764,-0.5219359619140624,2.5665841796874997,9.509768994140625,9.863847009239333
1.9696592887341455,-0.5315127685546874,2.5665841796874997,9.5384994140625,9.892058999350413
1.9721462322805272,-0.5267243652343749,2.5713725830078125,9.567229833984374,9.920750083227402
1.9746331758269087,-0.5267243652343749,2.5617957763671875,9.581595043945311,9.932129668047113
1.9771201193732901,-0.5267243652343749,2.5426421630859375,9.605537060546874,9.950317077760555
1.9796070629196716,-0.5315127685546874,2.5378537597656248,9.624690673828125,9.967842198588784
1.982094006466053,-0.5315127685546874,2.5330653564453125,9.624690673828125,9.966624127056974
1.9845809500124345,-0.5315127685546874,2.5330653564453125,9.619902270507811,9.962000081172526
1.9870678935588162,-0.5219359619140624,2.5234885498046875,9.619902270507811,9.959062772342378
1.9895548371051976,-0.51714755859375,2.5043349365234375,9.605537060546874,9.940094430798473
1.992041780651579,-0.51714755859375,2.4947581298828125,9.591171850585937,9.92380154937854
1.9945287241979606,-0.5123591552734374,2.4947581298828125,9.562441430664062,9.895787798123475
1.997015667744342,-0.51714755859375,2.4899697265625,9.533711010742186,9.867068281556787
1.9995026112907235,-0.51714755859375,2.4851813232421875,9.519345800781249,9.851980119833923
2.001989554837105,-0.51714755859375,2.4851813232421875,9.504980590820312,9.838100621493059
2.0044764983834864,-0.5123591552734374,2.480392919921875,9.543287817382812,9.87366210210772
2.006963441929868,-0.5027823486328125,2.47081611328125,9.533711010742186,9.861509417533087
2.0094503854762498,-0.507570751953125,2.4756045166015626,9.533711010742186,9.862955511772478
2.011937329022631,-0.5123591552734374,2.4851813232421875,9.514557397460937,9.847103156916909
2.0144242725690127,-0.5123591552734374,2.4756045166015626,9.495403784179686,9.826180471130401
2.016911216115394,-0.5123591552734374,2.4660277099609376,9.509768994140625,9.837657795034655
2.0193981596617756,-0.507570751953125,2.4564509033203126,9.519345800781249,9.844273644282397
2.021885103208157,-0.5027823486328125,2.461239306640625,9.528922607421874,9.854484008454488
2.0243720467545385,-0.507570751953125,2.4516625,9.5384994140625,9.86160474538577
2.02685899030092,-0.507570751953125,2.4516625,9.543287817382812,9.866236336493856
2.0293459338473014,-0.507570751953125,2.461239306640625,9.543287817382812,9.868620438450264
2.031832877393683,-0.5123591552734374,2.4564509033203126,9.543287817382812,9.867674767128419
2.0343198209400644,-0.51714755859375,2.4564509033203126,9.533711010742186,9.858663107852376
2.036806764486446,-0.5219359619140624,2.4660277099609376,9.524134204101562,9.852047612165283
2.0392937080328277,-0.5123591552734374,2.4756045166015626,9.533711010742186,9.863203093466005
2.041780651579209,-0.51714755859375,2.4899697265625,9.5384994140625,9.87169498660832
2.0442675951255906,-0.51714755859375,2.499546533203125,9.533711010742186,9.86948935382951
2.046754538671972,-0.5123591552734374,2.5139117431640625,9.548076220703125,9.886760018973211
2.0492414822183536,-0.51714755859375,2.5234885498046875,9.567229833984374,9.907942407716929
2.0517284257647352,-0.51714755859375,2.5234885498046875,9.557653027343749,9.898695239749932
2.0542153693111165,-0.5123591552734374,2.5330653564453125,9.552864624023437,9.896269727980052
2.056702312857498,-0.5219359619140624,2.5426421630859375,9.548076220703125,9.8946048851987
2.0591892564038794,-0.51714755859375,2.5570073730468748,9.528922607421874,9.879579665219126
2.061676199950261,-0.5123591552734374,2.5570073730468748,9.5384994140625,9.888567625388383
2.0641631434966423,-0.5219359619140624,2.5426421630859375,9.552864624023437,9.89922566884703
2.066650087043024,-0.5315127685546874,2.5426421630859375,9.552864624023437,9.89973522461876
2.0691370305894057,-0.5267243652343749,2.5426421630859375,9.552864624023437,9.899479291930072
2.071623974135787,-0.5410895751953124,2.5426421630859375,9.552864624023437,9.900254018094982
2.0741109176821686,-0.5506663818359374,2.5570073730468748,9.5384994140625,9.890626433243296
2.07659786122855,-0.5458779785156249,2.5665841796874997,9.528922607421874,9.883607801662617
2.0790848047749315,-0.55545478515625,2.5665841796874997,9.533711010742186,9.888757758491302
2.081571748321313,-0.5698199951171875,2.5570073730468748,9.524134204101562,9.877859781875259
2.0840586918676944,-0.5602431884765625,2.5570073730468748,9.5001921875,9.854228063906705
2.086545635414076,-0.5458779785156249,2.5665841796874997,9.481038574218749,9.837450358943334
2.0890325789604574,-0.5410895751953124,2.5713725830078125,9.5001921875,9.856895377778205
2.091519522506839,-0.5458779785156249,2.5713725830078125,9.528922607421874,9.884852340136815
2.0940064660532203,-0.5458779785156249,2.5761609863281247,9.5384994140625,9.89533017473283
2.096493409599602,-0.5410895751953124,2.5713725830078125,9.548076220703125,9.903054801695575
2.0989803531459836,-0.5458779785156249,2.5665841796874997,9.562441430664062,9.915927754563917
2.101467296692365,-0.5458779785156249,2.5665841796874997,9.567229833984374,9.92054554019743
2.1039542402387466,-0.5315127685546874,2.5617957763671875,9.567229833984374,9.918527618514258
2.106441183785128,-0.5219359619140624,2.5474305664062498,9.567229833984374,9.914318248638214
2.1089281273315095,-0.5315127685546874,2.5426421630859375,9.548076220703125,9.89511467892088
2.111415070877891,-0.5267243652343749,2.5378537597656248,9.5384994140625,9.884387251365595
2.1139020144242724,-0.51714755859375,2.528276953125,9.528922607421874,9.872182737738306
2.116388957970654,-0.51714755859375,2.5234885498046875,9.524134204101562,9.866335104591377
2.1188759015170353,-0.51714755859375,2.5139117431640625,9.528922607421874,9.868513561221535
2.121362845063417,-0.5123591552734374,2.50912333984375,9.519345800781249,9.857796727128875
2.1238497886097982,-0.5027823486328125,2.50912333984375,9.519345800781249,9.857303612017688
2.12633673215618,-0.507570751953125,2.4947581298828125,9.5384994140625,9.872406862914701
2.1288236757025616,-0.51714755859375,2.4899697265625,9.543287817382812,9.87632184580699
2.131310619248943,-0.5123591552734374,2.4899697265625,9.543287817382812,9.876072271333246
2.1337975627953245,-0.507570751953125,2.4899697265625,9.5384994140625,9.871197920187127
2.1362845063417057,-0.51714755859375,2.4947581298828125,9.543287817382812,9.877530161400827
2.1387714498880874,-0.5123591552734374,2.499546533203125,9.543287817382812,9.87849113686131
2.141258393434469,-0.49799394531249996,2.5043349365234375,9.533711010742186,9.869718186463409
2.1437453369808503,-0.507570751953125,2.5139117431640625,9.528922607421874,9.86801633454729
2.146232280527232,-0.507570751953125,2.5234885498046875,9.528922607421874,9.870460404027227
2.1487192240736133,-0.5027823486328125,2.5234885498046875,9.524134204101562,9.865592576669147
2.151206167619995,-0.507570751953125,2.518700146484375,9.524134204101562,9.864614074249229
2.153693111166376,-0.5123591552734374,2.518700146484375,9.504980590820312,9.846370821971096
2.156180054712758,-0.51714755859375,2.5234885498046875,9.490615380859374,9.833982731617915
2.1586669982591395,-0.5219359619140624,2.5234885498046875,9.5001921875,9.843478206852014
2.161153941805521,-0.5267243652343749,2.518700146484375,9.509768994140625,9.851750875187129
2.1636408853519025,-0.5267243652343749,2.518700146484375,9.5001921875,9.842506824192096
2.1661278288982837,-0.5219359619140624,2.5139117431640625,9.509768994140625,9.850272875543892
2.1686147724446654,-0.5267243652343749,2.5043349365234375,9.533711010742186,9.871209534174127
2.171101715991047,-0.5315127685546874,2.5139117431640625,9.543287817382812,9.88314729430671
2.1735886595374283,-0.5315127685546874,2.5139117431640625,9.543287817382812,9.88314729430671
2.17607560308381,-0.5267243652343749,2.5139117431640625,9.543287817382812,9.882890932048017
2.178562546630191,-0.5315127685546874,2.518700146484375,9.5384994140625,9.879743282247153
2.181049490176573,-0.5315127685546874,2.518700146484375,9.548076220703125,9.88898962318161
2.1835364337229546,-0.5267243652343749,2.518700146484375,9.562441430664062,9.902604460429211
2.186023377269336,-0.5267243652343749,2.518700146484375,9.576806640625,9.9164769155558
2.1885103208157175,-0.5315127685546874,2.518700146484375,9.576806640625,9.916732409566983
2.1909972643620987,-0.5363011718749999,2.5234885498046875,9.586383447265625,9.927454910799556
2.1934842079084804,-0.5410895751953124,2.518700146484375,9.591171850585937,9.931123089749594
2.1959711514548617,-0.5458779785156249,2.518700146484375,9.572018237304688,9.912888899338187
2.1984580950012433,-0.5410895751953124,2.5139117431640625,9.562441430664062,9.902162203058673
2.200945038547625,-2.39420166015625,0.19632453613281248,-4.376600634765625,4.99253222615674
2.2034319820940063,-2.0877438476562498,0.4261678955078125,-1.7190367919921874,2.7377693366700693
2.205918925640388,-1.6998831787109374,0.8379705810546875,1.7908628417968748,2.6074867658544902
2.208405869186769,-1.235408056640625,1.3742717529296875,5.755660791015624,6.045038218121339
2.210892812733151,-0.7326257080078125,1.9823989746093749,9.792284790039062,10.017758608181603
2.2133797562795325,-0.258573779296875,2.6096798095703124,13.546392993164062,13.797900283487456
2.2158666998259138,0.181959326171875,3.2034418212890623,16.687585571289063,16.993253393563563
2.2183536433722955,0.5458779785156249,3.706224169921875,18.971653955078125,19.337986817566424
2.2208405869186767,0.8188169677734375,4.074931225585937,20.278888061523435,20.700454746979997
2.2233275304650584,0.9816226806640624,4.285620971679688,20.53746184082031,21.002796696231794
2.2258144740114396,1.0295067138671874,4.333505004882812,19.742586889648436,20.238796574810475
2.2283014175578213,0.9720458740234375,4.218583325195312,18.085799340820312,18.596705521388415
2.230788361104203,0.8044517578125,3.9456443359374997,15.78736574707031,16.292825693787197
2.233275304650584,0.5458779785156249,3.5577836669921874,13.067552661132812,13.554214840411225
2.235762248196966,0.229843359375,3.1028853515624997,10.204087475585936,10.667901700156394
2.238249191743347,-0.12449848632812499,2.6096798095703124,7.465120776367187,7.90910594108626
2.240736135289729,-0.49799394531249996,2.1356278808593747,5.104437939453125,5.5555549761297724
2.2432230788361105,-0.8571241943359375,1.7238251953125,3.299209887695312,3.8198195077224164
2.2457100223824917,-1.158793603515625,1.3934253662109375,2.1787235107421874,2.83395007066278
2.2481969659288734,-1.4173673828125,1.1827356201171875,1.8004396484374998,2.578638550208325
2.2506839094752547,-1.5945383056640625,1.1061211669921875,2.1404162841796874,2.8891933673397077
2.2531708530216363,-1.6903063720703124,1.158793603515625,3.1268273681640624,3.7385809657288456
2.2556577965680176,-1.695094775390625,1.3311761230468748,4.6447512207031245,5.1204579941983575
2.2581447401143993,-1.6136919189453125,1.6041151123046875,6.488286499023437,6.875685318293987
2.260631683660781,-1.4604630126953124,1.944091748046875,8.489839086914062,8.831184102823856
2.263118627207162,-1.24498486328125,2.327164013671875,10.462661254882812,10.790410566366546
2.265605570753544,-0.9864110839843749,2.7150246826171873,12.210428466796873,12.547467043056589
2.268092514299925,-0.7134720947265625,3.0645781249999997,13.5990654296875,13.958340233534347
2.2705794578463068,-0.43574470214843747,3.342305517578125,14.53759248046875,14.923219315766458
2.2730664013926885,-0.1771709228515625,3.5386300537109374,14.9781255859375,15.3914761560107
2.2755533449390697,0.0383072265625,3.6296097167968746,14.896722729492186,15.332575850757834
2.2780402884854514,0.21068974609375,3.6200329101562496,14.331691137695312,14.78331489572003
2.2805272320318326,0.316034619140625,3.5098996337890624,13.374010473632811,13.830525278116088
2.2830141755782143,0.3591302490234375,3.31357509765625,12.133814013671874,12.58325065243283
2.2855011191245955,0.3447650390625,3.0550013183593747,10.740388647460938,11.171743117609045
2.287988062670977,0.26815058593749996,2.7629087158203123,9.323021264648437,9.727501981998328
2.290475006217359,0.1292868896484375,2.461239306640625,8.001421948242188,8.372405103564901
2.29296194976374,-0.0526724365234375,2.1787235107421874,6.904877587890625,7.240645345933215
2.295448893310122,-0.24899697265624998,1.93451494140625,6.124367846679687,6.4274589903289145
2.297935836856503,-0.45968671875,1.7525556152343749,5.702988354492187,5.9838816194305
2.3004227804028847,-0.6655880615234374,1.637633935546875,5.664681127929687,5.934093414803986
2.3029097239492664,-0.852335791015625,1.608903515625,5.97592734375,6.247139700776319
2.3053966674956476,-1.0007762939453124,1.6711527587890624,6.58884296875,6.870746422374903
2.3078836110420293,-1.1156979736328125,1.7956512451171873,7.41244833984375,7.7080176279839705
2.3103705545884106,-1.1827356201171875,1.9728221679687499,8.374917407226562,8.685052241143365
2.3128574981347922,-1.1923124267578125,2.1930887207031247,9.3852705078125,9.71156782217431
2.315344441681174,-1.1540052001953125,2.442085693359375,10.342951171874999,10.689815221956776
2.317831385227555,-1.0821791503906248,2.6767174560546874,11.180921752929686,11.547681122122498
2.320318328773937,-0.9720458740234375,2.877830395507812,11.803414184570311,12.188000959100316
2.322805272320318,-0.8188169677734375,3.0550013183593747,12.172121240234373,12.576328151287083
2.3252922158666998,-0.6607996582031249,3.1747114013671873,12.27746611328125,12.698488998027347
2.327779159413081,-0.49799394531249996,3.2225954345703123,12.119448803710936,12.550464477869008
2.3302661029594627,-0.3399766357421875,3.1938650146484373,11.741164941406248,12.172563905190763
2.3327530465058444,-0.2059013427734375,3.1268273681640624,11.195286962890624,11.625570735870324
2.3352399900522256,-0.09576806640624999,3.0071172851562498,10.544064111328124,10.964908292960157
2.3377269335986073,-0.028730419921875,2.844311572265625,9.86411083984375,10.266041906103638
2.3402138771449885,-0.0,2.6671406494140624,9.193734375,9.572794315235939
2.34270082069137,-0.0047884033203125,2.480392919921875,8.604760766601562,8.955125896180936
2.345187764237752,-0.033518823242187495,2.3127988037109373,8.130708837890625,8.453318166525555
2.347674707784133,-0.105344873046875,2.1691467041015624,7.819462622070312,8.115435334234798
2.350161651330515,-0.2059013427734375,2.0733786376953125,7.68059892578125,7.958196667393893
2.352648594876896,-0.32561142578124996,2.020706201171875,7.709329345703124,7.976404911523307
2.3551355384232777,-0.45010991210937495,2.0159177978515626,7.9104422851562495,8.175672489004304
2.357622481969659,-0.5602431884765625,2.068590234375,8.245630517578125,8.51958688085295
2.3601094255160406,-0.679953271484375,2.1547814941406247,8.695740429687499,8.984504513850217
2.3625963690624223,-0.7757213378906249,2.2649147705078123,9.193734375,9.500333376770518
2.3650833126088036,-0.842758984375,2.403778466796875,9.6917283203125,10.020877778814013
2.3675702561551852,-0.8906430175781249,2.5474305664062498,10.137049829101562,10.490110900896594
2.3700571997015665,-0.9241618408203125,2.6767174560546874,10.491391674804687,10.86683904002159
2.372544143247948,-0.9097966308593749,2.7916391357421872,10.754753857421875,11.148350080054946
2.37503108679433,-0.8667010009765624,2.8730419921875,10.864887133789061,11.271704101152654
2.377518030340711,-0.8044517578125,2.935291235351562,10.836156713867187,11.255459546125525
2.3800049738870928,-0.7278373046875,2.935291235351562,10.721235034179687,11.13959435691212
2.382491917433474,-0.6607996582031249,2.89219560546875,10.510545288085936,10.921218515416657
2.3849788609798557,-0.5698199951171875,2.825157958984375,10.213664282226562,10.612499723914189
2.387465804526237,-0.47884033203125,2.7341782958984373,9.86411083984375,10.247228975584807
2.3899527480726186,-0.40222587890625,2.6288334228515624,9.509768994140625,9.874626936987633
2.3924396916190003,-0.33039982910156246,2.499546533203125,9.17458076171875,9.514716447273555
2.3949266351653815,-0.277727392578125,2.389413256835937,8.892064965820312,9.211690809666841
2.397413578711763,-0.24899697265624998,2.288856787109375,8.695740429687499,8.99537472842518
2.3999005222581444,-0.24899697265624998,2.2074539306640624,8.595183959960938,8.877614524970431
2.402387465804526,-0.258573779296875,2.1595698974609374,8.56166513671875,8.83361265025044
2.404874409350908,-0.277727392578125,2.1452046874999997,8.619125976562499,8.88641481451967
2.407361352897289,-0.32561142578124996,2.1595698974609374,8.772354882812499,9.040131367000317
2.4098482964436707,-0.38786066894531246,2.2074539306640624,8.963891015625,9.239839332722271
2.412335239990052,-0.45489831542968745,2.2840683837890623,9.203311181640624,9.493410217899408
2.4148221835364336,-0.51714755859375,2.379836450195312,9.471461767578125,9.77955270662886
2.417309127082815,-0.5746083984375,2.4851813232421875,9.701305126953125,10.031032957138247
2.4197960706291965,-0.622492431640625,2.5713725830078125,9.916783276367187,10.263627250564493
2.4222830141755782,-0.6751648681640625,2.6575638427734374,10.0748005859375,10.44126908110438
2.4247699577219595,-0.699106884765625,2.73896669921875,10.17056865234375,10.556095666854924
2.427256901268341,-0.7038952880859375,2.806004345703125,10.204087475585936,10.6062495809831
2.4297438448147224,-0.7038952880859375,2.825157958984375,10.189722265624999,10.59751980042388
2.432230788361104,-0.6943184814453125,2.825157958984375,10.127473022460936,10.537044437011897
2.4347177319074857,-0.6655880615234374,2.81558115234375,10.012551342773437,10.422172954079683
2.437204675453867,-0.622492431640625,2.7724855224609373,9.878476049804688,10.279030200669233
2.4396916190002487,-0.584185205078125,2.710236279296875,9.734823950195311,10.121929182954473
2.44217856254663,-0.5315127685546874,2.6431986328124997,9.562441430664062,9.935254951460436
2.4446655060930116,-0.4740519287109375,2.5665841796874997,9.394847314453125,9.750653088097422
2.4471524496393933,-0.43574470214843747,2.499546533203125,9.241618408203124,9.583585817424344
2.4496393931857745,-0.39743747558593745,2.446874096679687,9.126696728515624,9.457364461957672
2.452126336732156,-0.373495458984375,2.408566870117187,9.069235888671875,9.391045353424824
2.4546132802785374,-0.3591302490234375,2.370259643554687,9.064447485351561,9.376103323253423
2.457100223824919,-0.3591302490234375,2.35589443359375,9.093177905273437,9.400271141565794
2.4595871673713003,-0.3687070556640625,2.360682836914062,9.160215551757812,9.46669516273038
2.462074110917682,-0.38786066894531246,2.375048046875,9.270348828125,9.577612255598888
2.4645610544640637,-0.4213794921875,2.418143676757812,9.394847314453125,9.710207803119719
2.467047998010445,-0.45489831542968745,2.461239306640625,9.519345800781249,9.842894689916436
2.4695349415568266,-0.488417138671875,2.4947581298828125,9.634267480468749,9.964009198770466
2.472021885103208,-0.5315127685546874,2.5378537597656248,9.720458740234374,10.060344211292774
2.4745088286495895,-0.5793968017578125,2.5809493896484375,9.777919580078125,10.12939838886244
2.4769957721959712,-0.6081272216796875,2.5905261962890624,9.801861596679688,10.156630122824785
2.4794827157423525,-0.6272808349609375,2.6001030029296874,9.811438403320311,10.16948083305642
2.481969659288734,-0.6560112548828124,2.6144682128906247,9.801861596679688,10.16574077788788
2.4844566028351154,-0.6703764648437499,2.6001030029296874,9.782707983398437,10.144521463277993
2.486943546381497,-0.6703764648437499,2.5665841796874997,9.720458740234374,10.075915694200571
2.4894304899278783,-0.6560112548828124,2.5330653564453125,9.624690673828125,9.974038371363449
2.49191743347426,-0.6416460449218749,2.499546533203125,9.543287817382812,9.8860398989696
2.4944043770206417,-0.612915625,2.47081611328125,9.476250170898437,9.81223293295018
2.496891320567023,-0.5746083984375,2.437297290039062,9.394847314453125,9.722846751516439
2.4993782641134046,-0.5410895751953124,2.398990063476562,9.327809667968749,9.64655194641565
2.501865207659786,-0.5123591552734374,2.365471240234375,9.313444458007812,9.622796566734895
2.5043521512061675,-0.4836287353515625,2.365471240234375,9.323021264648437,9.630580275514069
2.506839094752549,-0.45489831542968745,2.360682836914062,9.34696328125,9.651190523190243
2.5093260382989304,-0.430956298828125,2.35589443359375,9.3852705078125,9.686034504303231
2.511812981845312,-0.4165910888671875,2.375048046875,9.423577734375,9.727189659716549
2.5142999253916933,-0.411802685546875,2.408566870117187,9.466673364257812,9.776946374262161
2.516786868938075,-0.4070142822265625,2.4564509033203126,9.519345800781249,9.839601421867208
2.5192738124844563,-0.4213794921875,2.499546533203125,9.572018237304688,9.90196074943632
2.521760756030838,-0.44053310546874996,2.5330653564453125,9.619902270507811,9.957560404595029
2.5242476995772196,-0.4644751220703125,2.5665841796874997,9.677363110351562,10.022696656091995
2.526734643123601,-0.4836287353515625,2.6048914062499997,9.720458740234374,10.075052065007489
2.5292215866699825,-0.507570751953125,2.6384102294921874,9.725247143554688,10.089562359713423
2.5317085302163638,-0.5219359619140624,2.6527754394531247,9.725247143554688,10.094060960967271
2.5341954737627455,-0.5458779785156249,2.6527754394531247,9.706093530273437,10.07687709154031
2.536682417309127,-0.5698199951171875,2.6623522460937497,9.658209497070311,10.034631283630452
2.5391693608555084,-0.584185205078125,2.6431986328124997,9.6151138671875,9.98890314525651
2.54165630440189,-0.5985504150390625,2.6144682128906247,9.557653027343749,9.926854387299738
2.5441432479482713,-0.603338818359375,2.6001030029296874,9.514557397460937,9.881870057087468
2.546630191494653,-0.5985504150390625,2.5809493896484375,9.490615380859374,9.853493931528785
2.549117135041034,-0.59376201171875,2.5570073730468748,9.466673364257812,9.823886431444771
2.551604078587416,-0.5746083984375,2.5378537597656248,9.433154541015625,9.785462743896945
2.5540910221337976,-0.5698199951171875,2.50912333984375,9.418789331054686,9.763912495724938
2.556577965680179,-0.565031591796875,2.4851813232421875,9.404424121093749,9.743643053731505
2.5590649092265605,-0.5458779785156249,2.480392919921875,9.404424121093749,9.74133075375417
2.5615518527729417,-0.5315127685546874,2.4756045166015626,9.423577734375,9.757814348590722
2.5640387963193234,-0.5123591552734374,2.47081611328125,9.447519750976562,9.77870510930435
2.566525739865705,-0.49799394531249996,2.4756045166015626,9.481038574218749,9.811559923784284
2.5690126834120863,-0.47884033203125,2.4947581298828125,9.519345800781249,9.85246419252807
2.571499626958468,-0.4740519287109375,2.5043349365234375,9.557653027343749,9.891670743433565
2.5739865705048492,-0.47884033203125,2.5043349365234375,9.610325463867188,9.94280327972578
2.576473514051231,-0.49320554199218747,2.5234885498046875,9.634267480468749,9.971477124923108
2.5789604575976126,-0.49799394531249996,2.5426421630859375,9.629479077148437,9.971955396827132
2.581447401143994,-0.5027823486328125,2.5426421630859375,9.619902270507811,9.962948306285666
2.5839343446903755,-0.51714755859375,2.5378537597656248,9.610325463867188,9.953215501774794
2.5864212882367568,-0.5219359619140624,2.5378537597656248,9.595960253906249,9.939596171316225
2.5889082317831384,-0.5267243652343749,2.5330653564453125,9.572018237304688,9.915512684286602
2.5913951753295197,-0.5458779785156249,2.5139117431640625,9.548076220703125,9.888553713066585
2.5938821188759014,-0.5602431884765625,2.4947581298828125,9.533711010742186,9.870629979550321
2.596369062422283,-0.5698199951171875,2.4851813232421875,9.509768994140625,9.845634939309173
2.5988560059686643,-0.5698199951171875,2.4756045166015626,9.485826977539062,9.820092972943854
2.601342949515046,-0.5602431884765625,2.4564509033203126,9.481038574218749,9.810102747498695
2.603829893061427,-0.5602431884765625,2.442085693359375,9.490615380859374,9.815774817677383
2.606316836607809,-0.5506663818359374,2.437297290039062,9.5001921875,9.823304084856177
2.6088037801541906,-0.5363011718749999,2.437297290039062,9.509768994140625,9.83177213674649
2.611290723700572,-0.5363011718749999,2.43250888671875,9.519345800781249,9.83985075627531
2.6137776672469535,-0.5363011718749999,2.442085693359375,9.519345800781249,9.842222612576727
2.6162646107933347,-0.5267243652343749,2.461239306640625,9.533711010742186,9.860364248740062
2.6187515543397164,-0.507570751953125,2.480392919921875,9.552864624023437,9.88267168484086
2.6212384978860976,-0.507570751953125,2.5043349365234375,9.572018237304688,9.907212255615788
2.6237254414324793,-0.5027823486328125,2.528276953125,9.576806640625,9.917671091224937
2.626212384978861,-0.488417138671875,2.5426421630859375,9.576806640625,9.920625277812373
2.6286993285252422,-0.488417138671875,2.5617957763671875,9.567229833984374,9.91631159239371
2.631186272071624,-0.488417138671875,2.5809493896484375,9.576806640625,9.93051239791755
2.633673215618005,-0.488417138671875,2.5905261962890624,9.586383447265625,9.942239429475467
2.636160159164387,-0.49799394531249996,2.6001030029296874,9.576806640625,9.93598304282626
2.6386471027107685,-0.507570751953125,2.5905261962890624,9.543287817382812,9.901656245664427
2.6411340462571498,-0.51714755859375,2.5905261962890624,9.543287817382812,9.902151783144236
2.6436209898035314,-0.5219359619140624,2.5953145996093747,9.528922607421874,9.889815017356009
2.6461079333499127,-0.5267243652343749,2.5809493896484375,9.524134204101562,9.881693713458008
2.6485948768962944,-0.5315127685546874,2.5713725830078125,9.524134204101562,9.879453179276586
2.6510818204426756,-0.5410895751953124,2.5617957763671875,9.524134204101562,9.87748489575839
2.6535687639890573,-0.5458779785156249,2.5474305664062498,9.524134204101562,9.874032489101221
2.656055707535439,-0.5458779785156249,2.5378537597656248,9.524134204101562,9.871566076926301
2.65854265108182,-0.5506663818359374,2.5330653564453125,9.528922607421874,9.875222510016846
2.661029594628202,-0.5506663818359374,2.528276953125,9.519345800781249,9.864753534206463
2.663516538174583,-0.5410895751953124,2.5234885498046875,9.524134204101562,9.867618999896465
2.666003481720965,-0.5315127685546874,2.5234885498046875,9.5384994140625,9.88096510246862
2.6684904252673465,-0.5410895751953124,2.518700146484375,9.5384994140625,9.880263125461594
2.6709773688137277,-0.5410895751953124,2.5139117431640625,9.5384994140625,9.87904353937535
2.6734643123601094,-0.5267243652343749,2.5139117431640625,9.533711010742186,9.873643524337737
2.6759512559064906,-0.5267243652343749,2.50912333984375,9.528922607421874,9.867801404047201
2.6784381994528723,-0.51714755859375,2.50912333984375,9.519345800781249,9.858046764281438
2.6809251429992536,-0.5027823486328125,2.518700146484375,9.5001921875,9.84125460078303
2.6834120865456352,-0.5027823486328125,2.518700146484375,9.5001921875,9.84125460078303
2.685899030092017,-0.507570751953125,2.518700146484375,9.528922607421874,9.869237283314975
2.688385973638398,-0.5123591552734374,2.5139117431640625,9.543287817382812,9.882135726745402
2.69087291718478,-0.507570751953125,2.5139117431640625,9.552864624023437,9.891137591074894
2.693359860731161,-0.49799394531249996,2.50912333984375,9.557653027343749,9.894060303798925
2.6958468042775428,-0.5027823486328125,2.499546533203125,9.557653027343749,9.891878201476079
2.6983337478239244,-0.5027823486328125,2.5043349365234375,9.557653027343749,9.89308925237621
2.7008206913703057,-0.5027823486328125,2.4947581298828125,9.552864624023437,9.886042218280862
2.7033076349166874,-0.507570751953125,2.4851813232421875,9.533711010742186,9.865363648339418
2.7057945784630686,-0.5123591552734374,2.4899697265625,9.528922607421874,9.862191805142807
2.7082815220094503,-0.51714755859375,2.4947581298828125,9.533711010742186,9.868277730198043
2.7107684655558315,-0.51714755859375,2.4947581298828125,9.5384994140625,9.872903868469828
2.713255409102213,-0.51714755859375,2.499546533203125,9.543287817382812,9.878740650225332
2.715742352648595,-0.51714755859375,2.499546533203125,9.543287817382812,9.878740650225332
2.718229296194976,-0.5123591552734374,2.4947581298828125,9.548076220703125,9.881907181661107
2.720716239741358,-0.507570751953125,2.499546533203125,9.548076220703125,9.882870051571178
2.723203183287739,-0.5123591552734374,2.5043349365234375,9.5384994140625,9.875078554135913
2.7256901268341207,-0.51714755859375,2.50912333984375,9.533711010742186,9.871919122858277
2.7281770703805024,-0.5027823486328125,2.5139117431640625,9.528922607421874,9.867771197223343
2.7306640139268836,-0.49799394531249996,2.518700146484375,9.5384994140625,9.877996733626661
2.7331509574732653,-0.49799394531249996,2.5234885498046875,9.552864624023437,9.893089252376212
2.7356379010196465,-0.49799394531249996,2.5234885498046875,9.543287817382812,9.883842106993134
2.7381248445660282,-0.49799394531249996,2.5234885498046875,9.528922607421874,9.869972567783508
2.74061178811241,-0.507570751953125,2.5330653564453125,9.524134204101562,9.868291671104933
2.743098731658791,-0.5123591552734374,2.5378537597656248,9.528922607421874,9.874390090946616
2.745585675205173,-0.507570751953125,2.5378537597656248,9.524134204101562,9.869521878588246
2.748072618751554,-0.5027823486328125,2.528276953125,9.528922607421874,9.87144064967396
2.7505595622979357,-0.51714755859375,2.5234885498046875,9.548076220703125,9.889448699230474
2.753046505844317,-0.5219359619140624,2.5234885498046875,9.5384994140625,9.880454578682357
2.7555334493906987,-0.5219359619140624,2.528276953125,9.5384994140625,9.881678631290983
2.7580203929370803,-0.5267243652343749,2.5234885498046875,9.533711010742186,9.876086201237499
2.7605073364834616,-0.5315127685546874,2.5139117431640625,9.524134204101562,9.86465358810395
2.7629942800298433,-0.5363011718749999,2.5139117431640625,9.524134204101562,9.864912748580698
2.7654812235762245,-0.5315127685546874,2.5043349365234375,9.533711010742186,9.87146619979906
2.767968167122606,-0.5315127685546874,2.499546533203125,9.533711010742186,9.870252495814443
2.770455110668988,-0.5458779785156249,2.499546533203125,9.5384994140625,9.875661330318426
2.772942054215369,-0.55545478515625,2.499546533203125,9.552864624023437,9.890070040951136
2.775428997761751,-0.5458779785156249,2.50912333984375,9.548076220703125,9.8873374686178
2.777915941308132,-0.5458779785156249,2.518700146484375,9.548076220703125,9.8897721263781
2.7804028848545137,-0.5602431884765625,2.518700146484375,9.557653027343749,9.899820920058499
2.782889828400895,-0.5602431884765625,2.528276953125,9.567229833984374,9.911505611067277
2.7853767719472766,-0.5506663818359374,2.518700146484375,9.567229833984374,9.90853019313487
2.7878637154936583,-0.5506663818359374,2.50912333984375,9.576806640625,9.915349657503361
2.7903506590400395,-0.5458779785156249,2.5139117431640625,9.586383447265625,9.925546968195498
2.792837602586421,-0.5410895751953124,2.528276953125,9.572018237304688,9.915064065117361
2.7953245461328025,-0.5363011718749999,2.5330653564453125,9.572018237304688,9.916026027712485
2.797811489679184,-0.5410895751953124,2.528276953125,9.576806640625,9.919686875703647
2.800298433225566,-0.5267243652343749,2.528276953125,9.567229833984374,9.909667482055857
2.802785376771947,-0.5219359619140624,2.5234885498046875,9.562441430664062,9.903569948468839
2.8052723203183287,-0.5315127685546874,2.5139117431640625,9.552864624023437,9.892395089182058
2.80775926386471,-0.5219359619140624,2.50912333984375,9.528922607421874,9.867546966755391
2.8102462074110917,-0.507570751953125,2.518700146484375,9.519345800781249,9.859991022865602
2.812733150957473,-0.5123591552734374,2.50912333984375,9.519345800781249,9.857796727128875
2.8152200945038546,-0.5219359619140624,2.5043349365234375,9.533711010742186,9.870955184731507
2.8177070380502363,-0.507570751953125,2.50912333984375,9.5384994140625,9.876046733124422
2.8201939815966175,-0.49799394531249996,2.499546533203125,9.524134204101562,9.859252668379737
2.822680925142999,-0.5027823486328125,2.4899697265625,9.519345800781249,9.85244557478731
2.8251678686893804,-0.5027823486328125,2.4947581298828125,9.519345800781249,9.853656818235793
2.827654812235762,-0.49799394531249996,2.499546533203125,9.509768994140625,9.845376435826823
2.8301417557821438,-0.5027823486328125,2.4947581298828125,9.509768994140625,9.844405240471946
2.832628699328525,-0.5027823486328125,2.499546533203125,9.509768994140625,9.845619801904952
2.8351156428749067,-0.49799394531249996,2.5043349365234375,9.514557397460937,9.85121788985699
2.837602586421288,-0.5027823486328125,2.50912333984375,9.524134204101562,9.861927923199534
2.8400895299676696,-0.5027823486328125,2.518700146484375,9.524134204101562,9.864368852376437
2.842576473514051,-0.49799394531249996,2.518700146484375,9.533711010742186,9.87337298160133
2.8450634170604325,-0.49799394531249996,2.5043349365234375,9.548076220703125,9.883595042301977
2.847550360606814,-0.5027823486328125,2.499546533203125,9.533711010742186,9.86874706323408
2.8500373041531954,-0.507570751953125,2.518700146484375,9.524134204101562,9.864614074249229
2.852524247699577,-0.507570751953125,2.518700146484375,9.533711010742186,9.873860649841351
2.8550111912459584,-0.5123591552734374,2.499546533203125,9.5384994140625,9.873865294184995
2.85749813479234,-0.5123591552734374,2.5043349365234375,9.533711010742186,9.87045343510779
2.8599850783387217,-0.51714755859375,2.5043349365234375,9.543287817382812,9.879953311481716
2.862472021885103,-0.5219359619140624,2.499546533203125,9.557653027343749,9.892870231185691
2.8649589654314846,-0.5219359619140624,2.499546533203125,9.557653027343749,9.892870231185691
2.867445908977866,-0.5363011718749999,2.5043349365234375,9.562441430664062,9.899474659603252
2.8699328525242476,-0.5410895751953124,2.5043349365234375,9.562441430664062,9.89973522461876
2.8724197960706292,-0.5315127685546874,2.50912333984375,9.548076220703125,9.886554772722487
2.8749067396170105,-0.5410895751953124,2.518700146484375,9.543287817382812,9.884885974137115
2.877393683163392,-0.5410895751953124,2.5139117431640625,9.533711010742186,9.874420277522626
2.8798806267097734,-0.5410895751953124,2.518700146484375,9.528922607421874,9.871017901641206
2.882367570256155,-0.5410895751953124,2.528276953125,9.528922607421874,9.873465872646939
2.8848545138025363,-0.5363011718749999,2.518700146484375,9.533711010742186,9.875379233791566
2.887341457348918,-0.5315127685546874,2.5234885498046875,9.5384994140625,9.88096510246862
2.8898284008952997,-0.5315127685546874,2.5234885498046875,9.567229833984374,9.908702588150112
2.892315344441681,-0.5363011718749999,2.5139117431640625,9.562441430664062,9.901901701908237
2.8948022879880626,-0.5410895751953124,2.5234885498046875,9.5384994140625,9.881484881405783
2.897289231534444,-0.5410895751953124,2.5330653564453125,9.533711010742186,9.87931392682484
2.8997761750808255,-0.5410895751953124,2.5426421630859375,9.524134204101562,9.872534600376172
2.902263118627207,-0.5267243652343749,2.5474305664062498,9.509768994140625,9.859135224222804
2.9047500621735884,-0.5267243652343749,2.5426421630859375,9.504980590820312,9.853279847761593
2.90723700571997,-0.5219359619140624,2.5474305664062498,9.509768994140625,9.85888056327484
2.9097239492663514,-0.5123591552734374,2.5474305664062498,9.509768994140625,9.85837819910414
2.912210892812733,-0.5123591552734374,2.5617957763671875,9.519345800781249,9.87133496436307
2.9146978363591143,-0.5123591552734374,2.5617957763671875,9.533711010742186,9.885188674990077
2.917184779905496,-0.507570751953125,2.5522189697265625,9.533711010742186,9.882464033530159
2.9196717234518776,-0.507570751953125,2.5570073730468748,9.533711010742186,9.883701756447385
2.922158666998259,-0.5027823486328125,2.5426421630859375,9.528922607421874,9.87512963549516
2.9246456105446406,-0.49799394531249996,2.5330653564453125,9.533711010742186,9.877047317186353
2.927132554091022,-0.507570751953125,2.5378537597656248,9.548076220703125,9.892628027503674
2.9296194976374035,-0.507570751953125,2.5426421630859375,9.548076220703125,9.893857526470505
2.932106441183785,-0.5027823486328125,2.5330653564453125,9.552864624023437,9.895778530011603
2.9345933847301664,-0.5027823486328125,2.5330653564453125,9.562441430664062,9.9050237912385
2.937080328276548,-0.5027823486328125,2.5330653564453125,9.567229833984374,9.909646657999508
2.9395672718229293,-0.507570751953125,2.5330653564453125,9.562441430664062,9.905268006628708
2.942054215369311,-0.5123591552734374,2.5378537597656248,9.548076220703125,9.89287486660503
2.9445411589156922,-0.5123591552734374,2.5330653564453125,9.543287817382812,9.887025557235257
2.947028102462074,-0.51714755859375,2.5234885498046875,9.533711010742186,9.875580068770727
2.9495150460084556,-0.51714755859375,2.5234885498046875,9.528922607421874,9.87095750758712
2.952001989554837,-0.51714755859375,2.518700146484375,9.533711010742186,9.874357582223093
2.9544889331012185,-0.51714755859375,2.518700146484375,9.533711010742186,9.874357582223093
2.9569758766475998,-0.5219359619140624,2.50912333984375,9.533711010742186,9.872171124896216
2.9594628201939814,-0.5219359619140624,2.499546533203125,9.533711010742186,9.869741417906232
2.961949763740363,-0.51714755859375,2.499546533203125,9.5384994140625,9.874114924441475
2.9644367072867444,-0.5267243652343749,2.499546533203125,9.543287817382812,9.879246620769546
2.966923650833126,-0.5267243652343749,2.4947581298828125,9.533711010742186,9.868784237174037
2.9694105943795073,-0.5219359619140624,2.4899697265625,9.519345800781249,9.853441574515399
2.971897537925889,-0.5315127685546874,2.4947581298828125,9.519345800781249,9.855164555937392
2.97438448147227,-0.5410895751953124,2.4947581298828125,9.543287817382812,9.878812601745649
2.976871425018652,-0.5410895751953124,2.499546533203125,9.5384994140625,9.875397808296304
2.9793583685650336,-0.5363011718749999,2.4947581298828125,9.524134204101562,9.860049158665904
2.981845312111415,-0.5315127685546874,2.4899697265625,9.533711010742186,9.867831610778591
2.9843322556577965,-0.5315127685546874,2.4899697265625,9.543287817382812,9.877084459887016
2.9868191992041777,-0.5315127685546874,2.499546533203125,9.5384994140625,9.87487770895696
2.9893061427505594,-0.5315127685546874,2.499546533203125,9.528922607421874,9.86562743838526
2.991793086296941,-0.5363011718749999,2.499546533203125,9.533711010742186,9.870511509286084
2.9942800298433223,-0.5458779785156249,2.5043349365234375,9.548076220703125,9.886123393832216
2.996766973389704,-0.5363011718749999,2.5043349365234375,9.552864624023437,9.890224211116996
2.9992539169360852,-0.5267243652343749,2.5043349365234375,9.543287817382812,9.8804592199265
3.001740860482467,-0.5315127685546874,2.5139117431640625,9.528922607421874,9.869276778659646
3.0042278040288486,-0.5363011718749999,2.50912333984375,9.528922607421874,9.868317229383075
3.00671474757523,-0.5267243652343749,2.518700146484375,9.524134204101562,9.865618141939676
3.0092016911216115,-0.5219359619140624,2.5234885498046875,9.509768994140625,9.852721346473416
3.0116886346679927,-0.5267243652343749,2.5234885498046875,9.519345800781249,9.862219704142598
3.0141755782143744,-0.5219359619140624,2.5234885498046875,9.5384994140625,9.880454578682357
3.0166625217607557,-0.51714755859375,2.5234885498046875,9.5384994140625,9.88020278792017
3.0191494653071373,-0.51714755859375,2.518700146484375,9.5384994140625,9.878980873416577
3.021636408853519,-0.51714755859375,2.5139117431640625,9.552864624023437,9.891633655503831
3.0241233523999003,-0.51714755859375,2.50912333984375,9.548076220703125,9.885792889205428
3.026610295946282,-0.5123591552734374,2.5043349365234375,9.5384994140625,9.875078554135913
3.029097239492663,-0.507570751953125,2.5043349365234375,9.548076220703125,9.884082206198338
3.031584183039045,-0.507570751953125,2.5139117431640625,9.552864624023437,9.891137591074894
3.0340711265854265,-0.5219359619140624,2.5139117431640625,9.552864624023437,9.89188515530158
3.036558070131808,-0.51714755859375,2.50912333984375,9.552864624023437,9.890417789801733
3.0390450136781895,-0.5123591552734374,2.5139117431640625,9.543287817382812,9.882135726745402
3.0415319572245707,-0.51714755859375,2.5234885498046875,9.533711010742186,9.875580068770727
3.0440189007709524,-0.51714755859375,2.5234885498046875,9.524134204101562,9.866335104591377
3.0465058443173336,-0.5123591552734374,2.5139117431640625,9.514557397460937,9.85439326523908
3.0489927878637153,-0.5123591552734374,2.499546533203125,9.504980590820312,9.841488749549589
3.051479731410097,-0.507570751953125,2.5043349365234375,9.504980590820312,9.84245790310535
3.0539666749564782,-0.5123591552734374,2.5139117431640625,9.5001921875,9.840524160625119
3.05645361850286,-0.5219359619140624,2.5139117431640625,9.514557397460937,9.854895832546175
3.058940562049241,-0.5267243652343749,2.5043349365234375,9.533711010742186,9.871209534174127
3.061427505595623,-0.5315127685546874,2.5139117431640625,9.5384994140625,9.878523631981931
3.0639144491420045,-0.5315127685546874,2.5139117431640625,9.548076220703125,9.887771113446716
3.0664013926883857,-0.5315127685546874,2.518700146484375,9.548076220703125,9.88898962318161
3.0688883362347674,-0.5363011718749999,2.528276953125,9.528922607421874,9.8732046143536
3.0713752797811487,-0.5315127685546874,2.5330653564453125,9.524134204101562,9.869552080053957
3.0738622233275303,-0.5363011718749999,2.518700146484375,9.543287817382812,9.884625017685906
3.0763491668739116,-0.5458779785156249,2.5234885498046875,9.543287817382812,9.88637039533877
3.0788361104202933,-0.5506663818359374,2.5378537597656248,9.528922607421874,9.87645185419726
3.081323053966675,-0.5506663818359374,2.528276953125,9.5384994140625,9.883237773516226
3.083809997513056,-0.5410895751953124,2.518700146484375,9.548076220703125,9.889508980361054
3.086296941059438,-0.5458779785156249,2.5234885498046875,9.548076220703125,9.890992707750833
3.088783884605819,-0.5363011718749999,2.5234885498046875,9.533711010742186,9.876601593883224
3.091270828152201,-0.5219359619140624,2.518700146484375,9.519345800781249,9.860740948381677
3.0937577716985825,-0.5315127685546874,2.5378537597656248,9.519345800781249,9.866161969273806
3.0962447152449637,-0.5315127685546874,2.5570073730468748,9.533711010742186,9.88496020049143
3.0987316587913454,-0.5219359619140624,2.5426421630859375,9.548076220703125,9.8946048851987
3.1012186023377266,-0.51714755859375,2.5378537597656248,9.548076220703125,9.893124017198636
3.1037055458841083,-0.5267243652343749,2.5522189697265625,9.548076220703125,9.897323867729101
3.1061924894304895,-0.5315127685546874,2.5665841796874997,9.5384994140625,9.892058999350413
3.108679432976871,-0.5219359619140624,2.5570073730468748,9.524134204101562,9.875213222603982
3.111166376523253,-0.5219359619140624,2.5570073730468748,9.519345800781249,9.870595135502562
3.113653320069634,-0.5219359619140624,2.5665841796874997,9.533711010742186,9.886931634036321
3.116140263616016,-0.5219359619140624,2.5570073730468748,9.5384994140625,9.889068455937894
3.118627207162397,-0.5219359619140624,2.5570073730468748,9.543287817382812,9.893687190302836
3.1211141507087787,-0.5219359619140624,2.5617957763671875,9.552864624023437,9.90416262351696
3.1236010942551604,-0.51714755859375,2.5426421630859375,9.562441430664062,9.908216634780569
3.1260880378015417,-2.6958710693359373,1.1013327636718748,-2.5330653564453125,3.8596728849532105
3.1285749813479233,-2.2840683837890623,1.2210428466796874,-0.469263525390625,2.632132647021128
3.1310619248943046,-1.7238251953125,1.4317325927734375,2.360682836914062,3.2548817148560945
3.1335488684406863,-1.0869675537109373,1.7238251953125,5.645527514648437,6.002087360699366
3.136035811987068,-0.4261678955078125,2.059013427734375,9.069235888671875,9.309790275571515
3.138522755533449,0.19632453613281248,2.4133552734375,12.368445776367187,12.603224901677017
3.141009699079831,0.7326257080078125,2.7629087158203123,15.246276171875,15.511909686079054
3.143496642626212,1.120486376953125,3.0789433349609374,17.49203732910156,17.79625667671492
3.1459835861725938,1.3263877197265623,3.337517114257812,18.947711938476562,19.285074865669888
3.148470529718975,1.350329736328125,3.5194764404296874,19.531897143554687,19.892337993256383
3.1509574732653567,1.2114660400390624,3.6200329101562496,19.230227734375,19.605457070742005
3.1534444168117384,0.9145850341796874,3.6391865234374996,18.114529760742187,18.499090053025014
3.1559313603581196,0.49320554199218747,3.5625720703124997,16.328455322265626,16.71985719658057
3.1584183039045013,0.0,3.394977954101562,14.063540551757812,14.467517000500537
3.1609052474508825,-0.507570751953125,3.1699229980468746,11.525686791992188,11.964426267434972
3.163392190997264,-0.9911994873046874,2.91134921875,8.968679418945312,9.481331194350428
3.165879134543646,-1.4221557861328125,2.6192566162109374,6.58884296875,7.231589311378387
3.168366078090027,-1.7429788085937499,2.3223756103515623,4.568136767578125,5.412880668374447
3.170853021636409,-1.9393033447265624,2.068590234375,3.0885201416015624,4.19272222854052
3.17333996518279,-1.9871873779296874,1.848323681640625,2.2266075439453124,3.5104124062381614
3.1758269087291717,-1.89620771484375,1.68551796875,2.0302830078125,3.24940357798539
3.178313852275553,-1.695094775390625,1.5897499023437498,2.499546533203125,3.412972886093049
3.1808007958219346,-1.4030021728515625,1.5753846923828123,3.5434184570312497,4.123841217560397
3.1832877393683163,-1.0199299072265624,1.6328455322265625,5.042188696289062,5.397231549299383
3.1857746829146976,-0.6272808349609375,1.7477672119140624,6.842628344726562,7.090115241447527
3.1882616264610792,-0.239420166015625,1.9201497314453124,8.777143286132812,8.987910840254857
3.1907485700074605,0.1149216796875,2.1356278808593747,10.644620581054687,10.857350540190692
3.193235513553842,0.37828386230468747,2.365471240234375,12.31577333984375,12.546586222047102
3.195722457100224,0.5506663818359374,2.5953145996093747,13.690045092773437,13.944756217919334
3.198209400646605,0.612915625,2.81558115234375,14.642937353515624,14.923765514366194
3.2006963441929868,0.5602431884765625,3.0166940917968748,15.107412475585937,15.415843388579365
3.203183287739368,0.4213794921875,3.1507693847656246,15.073893652343749,15.405426908546927
3.2056702312857497,0.19153613281249998,3.2225954345703123,14.561534497070312,14.915096189245812
3.208157174832131,-0.09576806640624999,3.246537451171875,13.661314672851562,14.042104384139655
3.2106441183785126,-0.39264907226562495,3.21780703125,12.464213842773436,12.878861832580467
3.2131310619248943,-0.699106884765625,3.1268273681640624,11.061211669921875,11.515910881621235
3.2156180054712755,-0.97683427734375,2.9927520751953125,9.610325463867188,10.112819869375386
