Time (s),Acceleration x (m/s^2),Acceleration y (m/s^2),Acceleration z (m/s^2),Absolute acceleration (m/s^2)
0.0,0.7709329345703124,1.3120225097656248,21.140800659179686,21.195499361112233
0.002486943546381497,0.0526724365234375,0.8667010009765624,24.7847755859375,24.79998076321727
0.004973887092762994,-0.6703764648437499,0.59376201171875,27.246014892578124,27.26072789669721
0.007460830639144491,-1.3359645263671873,0.507570751953125,28.452692529296872,28.488561589709224
0.009947774185525988,-1.9105729248046874,0.6177040283203125,28.395231689453123,28.466138302645174
0.012434717731907486,-2.346317626953125,0.8810662109374999,27.155035229492185,27.27044961839772
0.014921661278288981,-2.6144682128906247,1.2593500732421874,24.88054365234375,25.049208751562862
0.01740860482467048,-2.70065947265625,1.7190367919921874,21.748927880859373,21.98327803232022
0.019895548371051976,-2.6240450195312497,2.2361843505859373,18.018761694335936,18.345623611957166
0.022382491917433474,-2.384624853515625,2.7533319091796873,13.96298408203125,14.430252831089605
0.02486943546381497,-2.020706201171875,3.208230224609375,9.8449572265625,10.549842535241783
0.027356379010196465,-1.5610194824218748,3.5721488769531247,5.9376201171875,7.102982618565797
0.029843322556577963,-1.0438719238281249,3.83072265625,2.47081611328125,4.676434210818532
0.032330266102959464,-0.5123591552734374,3.9600095458984375,-0.354341845703125,4.008708726163022
0.03481720964934096,-0.0143652099609375,3.9456443359374997,-2.384624853515625,4.610287548187999
0.03730415319572245,0.4213794921875,3.797203833007812,-3.5625720703124997,5.223814447510182
0.03979109674210395,0.7757213378906249,3.5577836669921874,-3.859453076171875,5.3061234684416965
0.04227804028848545,0.9959878906249999,3.23696064453125,-3.289633081054687,4.721397240275929
0.04476498383486695,1.0726023437499999,2.877830395507812,-1.9488801513671874,3.6373778216621426
0.04725192738124844,1.0342951171875,2.499546533203125,0.0430956298828125,2.7054309258232156
0.04973887092762994,0.8954314208984374,2.1452046874999997,2.5474305664062498,3.448637857396023
0.05222581447401144,0.6416460449218749,1.8435352783203125,5.367800122070312,5.711708161301091
0.05471275802039293,0.3112462158203125,1.6136919189453125,8.264784130859374,8.426596735683795
0.05719970156677443,-0.06703764648437499,1.4796166259765624,11.061211669921875,11.159935618664129
0.059686645113155926,-0.45968671875,1.4508862060546874,13.603853833007811,13.68872608288135
0.062173588659537427,-0.8475473876953125,1.5227122558593749,15.74905852050781,15.845183289281104
0.06466053220591893,-1.1875240234375,1.6711527587890624,17.367538842773435,17.488120834003105
0.06714747575230041,-1.455674609375,1.8770541015625,18.397045556640624,18.54976026480348
0.06963441929868192,-1.6472107421875,2.1308394775390624,18.82800185546875,19.019659144625898
0.07212136284506342,-1.7429788085937499,2.403778466796875,18.646042529296874,18.880969997566094
0.0746083063914449,-1.7429788085937499,2.6719290527343746,17.8894748046875,18.171694713966602
0.0770952499378264,-1.6615759521484375,2.91134921875,16.634913134765625,16.969299452819854
0.0795821934842079,-1.4987702392578124,3.0980969482421874,15.006856005859374,15.39643608473695
0.0820691370305894,-1.2737152832031249,3.2321722412109373,13.125013500976562,13.57701246299556
0.0845560805769709,-1.005564697265625,3.284844677734375,11.118672509765624,11.637278173896357
0.0870430241233524,-0.718260498046875,3.265691064453125,9.121908325195312,9.715443776007922
0.0895299676697339,-0.43574470214843747,3.1842882080078123,7.278373046874999,7.956398622906252
0.09201691121611538,-0.181959326171875,3.0502129150390624,5.679046337890624,6.448912724743678
0.09450385476249688,0.0383072265625,2.868253588867187,4.410119458007812,5.260940954577948
0.09699079830887838,0.1867477294921875,2.6719290527343746,3.5338416503906247,4.434198505632335
0.09947774185525989,0.27293898925781246,2.480392919921875,3.0789433349609374,3.963172566133857
0.10196468540164137,0.2920926025390625,2.3032219970703123,3.0550013183593747,3.8370799719870474
0.10445162894802287,0.2442085693359375,2.1404162841796874,3.42849677734375,4.049149274498925
0.10693857249440437,0.143652099609375,2.0254946044921875,4.180276098632812,4.647361894596751
0.10942551604078586,0.0047884033203125,1.9728221679687499,5.238513232421875,5.597684442829406
0.11191245958716736,-0.1771709228515625,1.9632453613281249,6.4834980957031245,6.776538160570374
0.11439940313354886,-0.38307226562499996,2.001552587890625,7.857769848632812,8.117727768092847
0.11688634667993036,-0.584185205078125,2.0733786376953125,9.255983618164063,9.503336470356341
0.11937329022631185,-0.7709329345703124,2.1883003173828124,10.59194814453125,10.843078961489763
0.12186023377269335,-0.9337386474609375,2.3367408203125,11.77947216796875,12.045255915879386
0.12434717731907485,-1.0534487304687499,2.4756045166015626,12.761094848632812,13.041622356369134
0.12683412086545634,-1.13006318359375,2.6144682128906247,13.493720556640625,13.791047142832749
0.12932106441183785,-1.1540052001953125,2.7533319091796873,13.929465258789062,14.245791203018396
0.13180800795821934,-1.1156979736328125,2.844311572265625,14.053963745117187,14.382238603136885
0.13429495150460083,-1.0486603271484374,2.89219560546875,13.881581225585936,14.2183958738167
0.13678189505098234,-0.948103857421875,2.906560815429687,13.455413330078125,13.798374707968096
0.13926883859736383,-0.814028564453125,2.89219560546875,12.77546005859375,13.124016825376389
0.14175578214374532,-0.6703764648437499,2.85388837890625,11.937489477539062,12.292182007692059
0.14424272569012683,-0.5267243652343749,2.77727392578125,10.998962426757812,11.356401872115395
0.14672966923650832,-0.39264907226562495,2.6719290527343746,9.9981861328125,10.35650057225708
0.1492166127828898,-0.27293898925781246,2.5665841796874997,9.030928662109375,9.39252482261228
0.15170355632927132,-0.181959326171875,2.47081611328125,8.1594392578125,8.527279194676517
0.1541904998756528,-0.1197100830078125,2.379836450195312,7.4220251464843745,7.7951529368382735
0.15667744342203432,-0.09576806640624999,2.308010400390625,6.852205151367187,7.231099430050557
0.1591643869684158,-0.1005564697265625,2.24097275390625,6.4834980957031245,6.8605989566757275
0.1616513305147973,-0.1484405029296875,2.212242333984375,6.330269189453125,6.707336187945418
0.1641382740611788,-0.22505495605468748,2.2170307373046874,6.387730029296875,6.765276782998579
0.1666252176075603,-0.3064578125,2.2457611572265623,6.622361791992187,6.9995025016202295
0.1691121611539418,-0.4213794921875,2.29843359375,7.029376074218749,7.407596482943286
0.1715991047003233,-0.5410895751953124,2.365471240234375,7.560888842773437,7.940734991771029
0.1740860482467048,-0.6512228515624999,2.446874096679687,8.202534887695313,8.584454707857569
0.17657299179308628,-0.7517793212890624,2.5139117431640625,8.896853369140624,9.275716914197247
0.1790599353394678,-0.814028564453125,2.5905261962890624,9.581595043945311,9.95893729589472
0.18154687888584928,-0.852335791015625,2.6623522460937497,10.213664282226562,10.589312246456673
0.18403382243223076,-0.8906430175781249,2.710236279296875,10.773907470703124,11.145210086025754
0.18652076597861228,-0.9002198242187499,2.7341782958984373,11.228805786132812,11.591902607784808
0.18900770952499377,-0.8762778076171874,2.73896669921875,11.5304751953125,11.883671974826152
0.19149465307137528,-0.8283937744140625,2.729389892578125,11.702857714843748,12.0454424628186
0.19398159661775677,-0.7565677246093749,2.7054478759765623,11.717222924804688,12.049280310504658
0.19646854016413826,-0.6703764648437499,2.6575638427734374,11.583147631835937,11.90299790993595
0.19895548371051977,-0.5793968017578125,2.6048914062499997,11.3389390625,11.648720914990223
0.20144242725690126,-0.5027823486328125,2.5522189697265625,10.9941740234375,11.29771986805996
0.20392937080328274,-0.430956298828125,2.5043349365234375,10.582371337890624,10.88319805658247
0.20641631434966426,-0.36391865234375,2.461239306640625,10.117896215820313,10.419307056814647
0.20890325789604575,-0.316034619140625,2.408566870117187,9.648632690429688,9.949732913156508
0.21139020144242723,-0.28730419921875,2.384624853515625,9.193734375,9.50230136087831
0.21387714498880875,-0.2825157958984375,2.375048046875,8.772354882812499,9.092572715678504
0.21636408853519024,-0.28730419921875,2.375048046875,8.413224633789062,8.746756293989709
0.21885103208157172,-0.316034619140625,2.379836450195312,8.149862451171874,8.496102481914564
0.22133797562795324,-0.3495534423828125,2.4133552734375,7.996633544921875,8.360180580387008
0.22382491917433472,-0.39743747558593745,2.442085693359375,7.948749511718749,8.324923896394472
0.22631186272071624,-0.45010991210937495,2.47081611328125,7.987056738281249,8.372610497279405
0.22879880626709773,-0.5027823486328125,2.5043349365234375,8.135497241210937,8.527062737316955
0.2312857498134792,-0.55545478515625,2.5426421630859375,8.360552197265624,8.756277304371897
0.23377269335986073,-0.603338818359375,2.5761609863281247,8.628702783203124,9.025249851282553
0.23625963690624222,-0.63206923828125,2.6001030029296874,8.949525805664061,9.340988132637381
0.2387465804526237,-0.6416460449218749,2.6144682128906247,9.275137231445312,9.657915113797717
0.24123352399900522,-0.6416460449218749,2.6192566162109374,9.591171850585937,9.963071430839022
0.2437204675453867,-0.6368576416015624,2.6192566162109374,9.897629663085937,10.258126818519534
0.2462074110917682,-0.622492431640625,2.5953145996093747,10.160991845703125,10.505660854360416
0.2486943546381497,-0.5985504150390625,2.5522189697265625,10.366893188476562,10.69320151545164
0.2511812981845312,-0.55545478515625,2.528276953125,10.505756884765624,10.81996497646163
0.2536682417309127,-0.5219359619140624,2.499546533203125,10.568006127929687,10.87211587226453
0.2561551852772942,-0.4836287353515625,2.461239306640625,10.563217724609375,10.856940838731333
0.2586421288236757,-0.43574470214843747,2.437297290039062,10.486603271484375,10.77493107629877
0.26112907237005717,-0.4070142822265625,2.408566870117187,10.357316381835936,10.64146877208262
0.2636160159164387,-0.39743747558593745,2.384624853515625,10.204087475585936,10.4865529821965
0.2661029594628202,-0.38307226562499996,2.379836450195312,10.007762939453125,10.293963519590534
0.26858990300920166,-0.3687070556640625,2.389413256835937,9.777919580078125,10.072385612123622
0.2710768465555832,-0.37828386230468747,2.39420166015625,9.548076220703125,9.850942076082449
0.2735637901019647,-0.4070142822265625,2.408566870117187,9.318232861328125,9.633084586553668
0.27605073364834615,-0.430956298828125,2.427720483398437,9.09796630859375,9.426162582372475
0.27853767719472766,-0.45968671875,2.4564509033203126,8.920795385742187,9.264235167249232
0.2810246207411092,-0.49320554199218747,2.4899697265625,8.801085302734375,9.159820055648286
0.28351156428749064,-0.5315127685546874,2.50912333984375,8.743624462890624,9.11203459748396
0.28599850783387215,-0.5698199951171875,2.528276953125,8.748412866210938,9.12423185020106
0.28848545138025367,-0.603338818359375,2.5378537597656248,8.79150849609375,9.170351196796357
0.2909723949266351,-0.6272808349609375,2.5378537597656248,8.882488159179687,9.259199687328984
0.29345933847301664,-0.6464344482421874,2.5426421630859375,9.0021982421875,9.376698771797045
0.29594628201939815,-0.6607996582031249,2.5378537597656248,9.126696728515624,9.495996581114364
0.2984332255657796,-0.6607996582031249,2.528276953125,9.265560424804686,9.62701669914887
0.30092016911216113,-0.6703764648437499,2.518700146484375,9.428366137695312,9.781990751322372
0.30340711265854264,-0.6655880615234374,2.499546533203125,9.591171850585937,9.933847079896205
0.30589405620492416,-0.6368576416015624,2.4851813232421875,9.739612353515625,10.071830154535583
0.3083809997513056,-0.622492431640625,2.47081611328125,9.86411083984375,10.187890446693226
0.31086794329768713,-0.6081272216796875,2.47081611328125,9.969455712890625,10.289062065838927
0.31335488684406865,-0.5793968017578125,2.47081611328125,10.036493359375,10.35238290792588
0.3158418303904501,-0.55545478515625,2.47081611328125,10.041281762695311,10.355713482027237
0.3183287739368316,-0.5410895751953124,2.4756045166015626,10.012551342773437,10.328241866003973
0.32081571748321314,-0.5315127685546874,2.4851813232421875,9.955090502929687,10.274359296523036
0.3233026610295946,-0.5219359619140624,2.5043349365234375,9.859322436523437,10.18579155146842
0.3257896045759761,-0.51714755859375,2.518700146484375,9.749189160156249,10.082558271875644
0.3282765481223576,-0.51714755859375,2.528276953125,9.648632690429688,9.987779470127027
0.3307634916687391,-0.5267243652343749,2.5378537597656248,9.557653027343749,9.902871889203716
0.3332504352151206,-0.5363011718749999,2.5570073730468748,9.457096557617186,9.811349598952502
0.3357373787615021,-0.5602431884765625,2.5713725830078125,9.361328491210937,9.724212076627921
0.3382243223078836,-0.565031591796875,2.5761609863281247,9.284714038085937,9.652035065012853
0.3407112658542651,-0.565031591796875,2.5761609863281247,9.208099584960937,9.57835915456115
0.3431982094006466,-0.5793968017578125,2.5761609863281247,9.165003955078124,9.537798675688428
0.34568515294702806,-0.5985504150390625,2.5761609863281247,9.165003955078124,9.53898136718068
0.3481720964934096,-0.6081272216796875,2.5761609863281247,9.165003955078124,9.539587079209698
0.3506590400397911,-0.603338818359375,2.5617957763671875,9.179369165039063,9.549221622604744
0.35314598358617255,-0.612915625,2.5522189697265625,9.2320416015625,9.597920575092395
0.35563292713255407,-0.6081272216796875,2.5570073730468748,9.299079248046874,9.663383480180219
0.3581198706789356,-0.5985504150390625,2.5426421630859375,9.366116894531249,9.723550660683033
0.36060681422531704,-0.59376201171875,2.5330653564453125,9.433154541015625,9.785365502691631
0.36309375777169856,-0.5793968017578125,2.5330653564453125,9.495403784179686,9.844532176722494
0.36558070131808007,-0.5602431884765625,2.528276953125,9.572018237304688,9.916127768299022
0.36806764486446153,-0.5410895751953124,2.528276953125,9.643844287109374,9.984422612955653
0.37055458841084304,-0.5267243652343749,2.528276953125,9.696516723632811,10.034543311996087
0.37304153195722456,-0.5123591552734374,2.518700146484375,9.730035546875,10.063794218650537
0.3755284755036061,-0.5027823486328125,2.50912333984375,9.753977563476562,10.084074986504689
0.37801541904998753,-0.49320554199218747,2.518700146484375,9.758765966796874,10.090620165741308
0.38050236259636905,-0.488417138671875,2.5330653564453125,9.753977563476562,10.089353285031505
0.38298930614275056,-0.4836287353515625,2.5426421630859375,9.734823950195311,10.073019570340183
0.385476249689132,-0.4836287353515625,2.5474305664062498,9.6917283203125,10.032591742868139
0.38796319323551354,-0.488417138671875,2.5426421630859375,9.639055883789062,9.980730374158961
0.39045013678189505,-0.488417138671875,2.5378537597656248,9.591171850585937,9.933268871563731
0.3929370803282765,-0.49799394531249996,2.5330653564453125,9.528922607421874,9.872425443011814
0.395424023874658,-0.507570751953125,2.5378537597656248,9.457096557617186,9.8048459995193
0.39791096742103954,-0.507570751953125,2.5330653564453125,9.404424121093749,9.75280683791449
0.400397910967421,-0.5219359619140624,2.528276953125,9.366116894531249,9.715387134955863
0.4028848545138025,-0.5315127685546874,2.528276953125,9.323021264648437,9.674369006603305
0.40537179806018403,-0.5363011718749999,2.528276953125,9.299079248046874,9.651563508577953
0.4078587416065655,-0.5410895751953124,2.5139117431640625,9.289502441406249,9.63884774180482
0.410345685152947,-0.5267243652343749,2.5043349365234375,9.299079248046874,9.644791697734037
0.4128326286993285,-0.5219359619140624,2.5139117431640625,9.3086560546875,9.656254291661316
0.41531957224571,-0.5219359619140624,2.5139117431640625,9.337386474609374,9.6839535096455
0.4178065157920915,-0.507570751953125,2.4947581298828125,9.361328491210937,9.701335852098529
0.420293459338473,-0.5027823486328125,2.4851813232421875,9.394847314453125,9.730985169106756
0.42278040288485447,-0.5027823486328125,2.4947581298828125,9.452308154296874,9.788908910624324
0.425267346431236,-0.5027823486328125,2.499546533203125,9.5001921875,9.8363699890346
0.4277542899776175,-0.49320554199218747,2.499546533203125,9.543287817382812,9.87751623353294
0.43024123352399896,-0.49320554199218747,2.499546533203125,9.572018237304688,9.905277265861521
0.43272817707038047,-0.5027823486328125,2.499546533203125,9.600748657226562,9.933523933679433
0.435215120616762,-0.49320554199218747,2.50912333984375,9.619902270507811,9.953967617755334
0.43770206416314344,-0.4836287353515625,2.5139117431640625,9.619902270507811,9.954705857040542
0.44018900770952496,-0.47884033203125,2.5139117431640625,9.639055883789062,9.9729854430259
0.4426759512559065,-0.4836287353515625,2.5139117431640625,9.648632690429688,9.982472729785158
0.445162894802288,-0.488417138671875,2.518700146484375,9.639055883789062,9.974657891880671
0.44764983834866945,-0.49320554199218747,2.5139117431640625,9.629479077148437,9.964430302646985
0.45013678189505096,-0.5027823486328125,2.50912333984375,9.576806640625,9.912805629919538
0.4526237254414325,-0.5123591552734374,2.499546533203125,9.5384994140625,9.873865294184995
0.45511066898781394,-0.5123591552734374,2.4947581298828125,9.509768994140625,9.84489900164178
0.45759761253419545,-0.5219359619140624,2.4899697265625,9.481038574218749,9.81643819485259
0.46008455608057697,-0.5363011718749999,2.4851813232421875,9.4618849609375,9.797500302136333
0.4625714996269584,-0.5458779785156249,2.4851813232421875,9.442731347656249,9.77953395008321
0.46505844317333994,-0.55545478515625,2.480392919921875,9.423577734375,9.760363536844302
0.46754538671972146,-0.55545478515625,2.4851813232421875,9.418789331054686,9.756958987847307
0.4700323302661029,-0.5458779785156249,2.480392919921875,9.414000927734374,9.750576663562546
0.47251927381248443,-0.5506663818359374,2.4756045166015626,9.409212524414063,9.745005465175112
0.47500621735886595,-0.55545478515625,2.4756045166015626,9.423577734375,9.75914776283151
0.4774931609052474,-0.5602431884765625,2.480392919921875,9.442731347656249,9.77913067565021
0.4799801044516289,-0.5602431884765625,2.480392919921875,9.466673364257812,9.80225107069704
0.48246704799801043,-0.55545478515625,2.4851813232421875,9.485826977539062,9.82168873847836
0.4849539915443919,-0.5506663818359374,2.480392919921875,9.490615380859374,9.824833983772315
0.4874409350907734,-0.5602431884765625,2.4756045166015626,9.509768994140625,9.84267222225605
0.4899278786371549,-0.565031591796875,2.480392919921875,9.524134204101562,9.85802932003473
0.4924148221835364,-0.565031591796875,2.4947581298828125,9.5384994140625,9.875527828851254
0.4949017657299179,-0.5602431884765625,2.4899697265625,9.552864624023437,9.887924160022191
0.4973887092762994,-0.565031591796875,2.4851813232421875,9.572018237304688,9.905499484852536
0.49987565282268087,-0.5602431884765625,2.4947581298828125,9.572018237304688,9.907634616402863
0.5023625963690624,-0.565031591796875,2.50912333984375,9.572018237304688,9.911533371258491
0.5048495399154439,-0.5793968017578125,2.50912333984375,9.567229833984374,9.907738757391442
0.5073364834618254,-0.59376201171875,2.5043349365234375,9.543287817382812,9.884259667079743
0.5098234270082069,-0.584185205078125,2.5139117431640625,9.519345800781249,9.863010143009179
0.5123103705545884,-0.5793968017578125,2.5139117431640625,9.504980590820312,9.848863332292524
0.5147973141009698,-0.5793968017578125,2.5234885498046875,9.485826977539062,9.832833191033519
0.5172842576473514,-0.5793968017578125,2.528276953125,9.495403784179686,9.84330117542911
0.5197712011937329,-0.5746083984375,2.518700146484375,9.5001921875,9.845185464931138
0.5222581447401143,-0.5793968017578125,2.5234885498046875,9.509768994140625,9.855932296683097
0.5247450882864959,-0.5889736083984375,2.5234885498046875,9.509768994140625,9.856499921082719
0.5272320318328774,-0.5889736083984375,2.518700146484375,9.495403784179686,9.841414195322956
0.5297189753792588,-0.5746083984375,2.518700146484375,9.485826977539062,9.831324360800187
0.5322059189256404,-0.5698199951171875,2.5234885498046875,9.490615380859374,9.836893289816416
0.5346928624720219,-0.5698199951171875,2.5234885498046875,9.509768994140625,9.85537394570846
0.5371798060184033,-0.5602431884765625,2.518700146484375,9.509768994140625,9.853599808194627
0.5396667495647849,-0.55545478515625,2.5139117431640625,9.514557397460937,9.856727892173437
0.5421536931111663,-0.5602431884765625,2.50912333984375,9.5384994140625,9.878893836703261
0.5446406366575478,-0.5602431884765625,2.50912333984375,9.557653027343749,9.897388734200359
0.5471275802039294,-0.5458779785156249,2.528276953125,9.548076220703125,9.892215456382246
0.5496145237503108,-0.5267243652343749,2.528276953125,9.5384994140625,9.88193270472458
0.5521014672966923,-0.5219359619140624,2.528276953125,9.5384994140625,9.881678631290983
0.5545884108430739,-0.5267243652343749,2.5330653564453125,9.519345800781249,9.86467450713943
0.5570753543894553,-0.5219359619140624,2.5426421630859375,9.504980590820312,9.853025035475772
0.5595622979358368,-0.5267243652343749,2.5474305664062498,9.504980590820312,9.854516582738256
0.5620492414822184,-0.5219359619140624,2.5570073730468748,9.514557397460937,9.865977210785248
0.5645361850285998,-0.51714755859375,2.5522189697265625,9.519345800781249,9.86910369494835
0.5670231285749813,-0.5123591552734374,2.5426421630859375,9.509768994140625,9.85714194862858
0.5695100721213628,-0.5123591552734374,2.5522189697265625,9.495403784179686,9.845761859705856
0.5719970156677443,-0.507570751953125,2.5522189697265625,9.481038574218749,9.831660194671816
0.5744839592141258,-0.5123591552734374,2.5378537597656248,9.476250170898437,9.823570171348178
0.5769709027605073,-0.507570751953125,2.5330653564453125,9.476250170898437,9.822085596741374
0.5794578463068888,-0.5027823486328125,2.5330653564453125,9.471461767578125,9.817219474210317
0.5819447898532703,-0.5123591552734374,2.5330653564453125,9.481038574218749,9.82695397617389
0.5844317333996518,-0.507570751953125,2.5234885498046875,9.490615380859374,9.833483758904478
0.5869186769460333,-0.507570751953125,2.5139117431640625,9.485826977539062,9.826407978934332
0.5894056204924147,-0.5027823486328125,2.5139117431640625,9.481038574218749,9.821539328859748
0.5918925640387963,-0.49799394531249996,2.518700146484375,9.471461767578125,9.813278576100979
0.5943795075851778,-0.49799394531249996,2.5139117431640625,9.471461767578125,9.812050664192487
0.5968664511315592,-0.49320554199218747,2.50912333984375,9.485826977539062,9.824452406572506
0.5993533946779408,-0.5027823486328125,2.5139117431640625,9.509768994140625,9.849276555383817
0.6018403382243223,-0.507570751953125,2.5139117431640625,9.504980590820312,9.844899001641778
0.6043272817707037,-0.5027823486328125,2.5043349365234375,9.5001921875,9.837587873245383
0.6068142253170853,-0.5027823486328125,2.5043349365234375,9.514557397460937,9.851461111630458
0.6093011688634667,-0.5027823486328125,2.50912333984375,9.504980590820312,9.843431619944145
0.6117881124098483,-0.5027823486328125,2.50912333984375,9.5001921875,9.838807937147742
0.6142750559562298,-0.507570751953125,2.50912333984375,9.514557397460937,9.85292497040171
0.6167619995026112,-0.5123591552734374,2.5043349365234375,9.519345800781249,9.856579013691107
0.6192489430489928,-0.507570751953125,2.50912333984375,9.509768994140625,9.848301088243867
0.6217358865953743,-0.51714755859375,2.50912333984375,9.5001921875,9.839552486335146
0.6242228301417557,-0.5315127685546874,2.50912333984375,9.504980590820312,9.844940923619408
0.6267097736881373,-0.51714755859375,2.5139117431640625,9.504980590820312,9.845397395821486
0.6291967172345188,-0.51714755859375,2.50912333984375,9.481038574218749,9.821060735874308
0.6316836607809002,-0.5267243652343749,2.5043349365234375,9.471461767578125,9.811101877257087
0.6341706043272818,-0.5267243652343749,2.499546533203125,9.485826977539062,9.823751059365621
0.6366575478736632,-0.5219359619140624,2.499546533203125,9.495403784179686,9.832743413951206
0.6391444914200447,-0.5267243652343749,2.5043349365234375,9.495403784179686,9.834217053524766
0.6416314349664263,-0.5363011718749999,2.5139117431640625,9.504980590820312,9.846422052260584
0.6441183785128077,-0.5363011718749999,2.5043349365234375,9.519345800781249,9.85785254992678
0.6466053220591892,-0.5219359619140624,2.499546533203125,9.524134204101562,9.860490979546821
0.6490922656055708,-0.51714755859375,2.50912333984375,9.514557397460937,9.853422958621373
0.6515792091519522,-0.5267243652343749,2.518700146484375,9.490615380859374,9.833263410091101
0.6540661526983337,-0.5363011718749999,2.5139117431640625,9.481038574218749,9.823312254285545
0.6565530962447153,-0.5458779785156249,2.5234885498046875,9.481038574218749,9.826294809044127
0.6590400397910967,-0.5363011718749999,2.528276953125,9.476250170898437,9.822378561229973
0.6615269833374782,-0.5315127685546874,2.5139117431640625,9.476250170898437,9.81843039273628
0.6640139268838597,-0.55545478515625,2.518700146484375,9.495403784179686,9.839465100851127
0.6665008704302412,-0.5602431884765625,2.5139117431640625,9.504980590820312,9.847755110405792
0.6689878139766227,-0.55545478515625,2.4899697265625,9.5001921875,9.83677441324069
0.6714747575230042,-0.5698199951171875,2.4851813232421875,9.514557397460937,9.850260073003442
0.6739617010693857,-0.5746083984375,2.4756045166015626,9.528922607421874,9.862005809793901
0.6764486446157671,-0.565031591796875,2.4564509033203126,9.524134204101562,9.852032484613973
0.6789355881621487,-0.565031591796875,2.4564509033203126,9.533711010742186,9.86129085751447
0.6814225317085302,-0.5793968017578125,2.4660277099609376,9.533711010742186,9.864514126733722
0.6839094752549116,-0.584185205078125,2.4660277099609376,9.519345800781249,9.850914145143026
0.6863964188012932,-0.584185205078125,2.4564509033203126,9.504980590820312,9.834636720597572
0.6888833623476747,-0.5746083984375,2.47081611328125,9.504980590820312,9.837670613975446
0.6913703058940561,-0.5698199951171875,2.480392919921875,9.504980590820312,9.839801821983244
0.6938572494404377,-0.565031591796875,2.4851813232421875,9.504980590820312,9.840733861912492
0.6963441929868192,-0.5698199951171875,2.5043349365234375,9.5001921875,9.841241786510645
0.6988311365332006,-0.565031591796875,2.50912333984375,9.5001921875,9.842185338313499
0.7013180800795822,-0.55545478515625,2.518700146484375,9.509768994140625,9.853328715118145
0.7038050236259636,-0.5458779785156249,2.5234885498046875,9.504980590820312,9.849397609006072
0.7062919671723451,-0.5458779785156249,2.528276953125,9.504980590820312,9.85062552079827
0.7087789107187267,-0.5410895751953124,2.5330653564453125,9.504980590820312,9.851591448100114
0.7112658542651081,-0.5458779785156249,2.5378537597656248,9.504980590820312,9.853087866514521
0.7137527978114896,-0.5506663818359374,2.5378537597656248,9.504980590820312,9.853354312208186
0.7162397413578712,-0.55545478515625,2.5378537597656248,9.524134204101562,9.872100286263647
0.7187266849042526,-0.55545478515625,2.5330653564453125,9.528922607421874,9.875490680295947
0.7212136284506341,-0.55545478515625,2.5330653564453125,9.504980590820312,9.85239088497037
0.7237005719970157,-0.55545478515625,2.5234885498046875,9.495403784179686,9.840691922012509
0.7261875155433971,-0.55545478515625,2.518700146484375,9.490615380859374,9.834844216034025
0.7286744590897786,-0.55545478515625,2.528276953125,9.481038574218749,9.828062210623205
0.7311614026361601,-0.5602431884765625,2.528276953125,9.481038574218749,9.828334000620924
0.7336483461825416,-0.565031591796875,2.518700146484375,9.481038574218749,9.826148969634685
0.7361352897289231,-0.5602431884765625,2.5139117431640625,9.481038574218749,9.824648448085888
0.7386222332753046,-0.5698199951171875,2.50912333984375,9.481038574218749,9.823975122485189
0.7411091768216861,-0.565031591796875,2.5139117431640625,9.476250170898437,9.820301943097236
0.7435961203680675,-0.5602431884765625,2.50912333984375,9.481038574218749,9.823424291488529
0.7460830639144491,-0.5698199951171875,2.50912333984375,9.504980590820312,9.847083364796646
0.7485700074608306,-0.565031591796875,2.528276953125,9.524134204101562,9.870186289486579
0.7510569510072121,-0.55545478515625,2.5426421630859375,9.543287817382812,9.891809821931602
0.7535438945535936,-0.5458779785156249,2.5474305664062498,9.548076220703125,9.89712810740801
0.7560308380999751,-0.5458779785156249,2.5474305664062498,9.543287817382812,9.892508661785259
0.7585177816463566,-0.5410895751953124,2.5474305664062498,9.543287817382812,9.892245588563453
0.7610047251927381,-0.5363011718749999,2.5617957763671875,9.528922607421874,9.88184105341727
0.7634916687391196,-0.5363011718749999,2.5665841796874997,9.519345800781249,9.87385020006017
0.7659786122855011,-0.5315127685546874,2.5522189697265625,9.514557397460937,9.865248601132533
0.7684655558318826,-0.5315127685546874,2.5522189697265625,9.509768994140625,9.860630497817429
0.770952499378264,-0.5219359619140624,2.5426421630859375,9.519345800781249,9.866883540039026
0.7734394429246456,-0.5267243652343749,2.5330653564453125,9.524134204101562,9.869295364649508
0.7759263864710271,-0.5267243652343749,2.5330653564453125,9.5001921875,9.846192678207704
0.7784133300174085,-0.5267243652343749,2.5330653564453125,9.471461767578125,9.818474762999044
0.7809002735637901,-0.5219359619140624,2.5234885498046875,9.452308154296874,9.797272123051481
0.7833872171101716,-0.5123591552734374,2.5139117431640625,9.447519750976562,9.78968301843849
0.785874160656553,-0.5027823486328125,2.5139117431640625,9.447519750976562,9.789186472205296
0.7883611042029346,-0.5027823486328125,2.5043349365234375,9.466673364257812,9.805222493647806
0.790848047749316,-0.507570751953125,2.5043349365234375,9.481038574218749,9.8193387755161
0.7933349912956975,-0.507570751953125,2.499546533203125,9.481038574218749,9.818118627604267
0.7958219348420791,-0.49799394531249996,2.4899697265625,9.476250170898437,9.810569020715276
0.7983088783884605,-0.49320554199218747,2.4899697265625,9.485826977539062,9.819578116887579
0.800795821934842,-0.49799394531249996,2.5043349365234375,9.476250170898437,9.814224816322092
0.8032827654812236,-0.49320554199218747,2.499546533203125,9.4618849609375,9.79889032453751
0.805769709027605,-0.47884033203125,2.4851813232421875,9.471461767578125,9.80377489988758
0.8082566525739865,-0.488417138671875,2.480392919921875,9.481038574218749,9.812287846591683
0.8107435961203681,-0.49320554199218747,2.4899697265625,9.5001921875,9.83345577837647
0.8132305396667495,-0.49320554199218747,2.499546533203125,9.519345800781249,9.85438628495713
0.815717483213131,-0.488417138671875,2.499546533203125,9.528922607421874,9.863399527101793
0.8182044267595125,-0.4740519287109375,2.499546533203125,9.524134204101562,9.858072349120777
0.820691370305894,-0.47884033203125,2.5043349365234375,9.519345800781249,9.854893505904732
0.8231783138522755,-0.4836287353515625,2.5043349365234375,9.504980590820312,9.841252270916565
0.825665257398657,-0.47884033203125,2.499546533203125,9.5001921875,9.835175267104475
0.8281522009450385,-0.4836287353515625,2.5043349365234375,9.5001921875,9.83662756372252
0.83063914449142,-0.4836287353515625,2.50912333984375,9.490615380859374,9.828599950939653
0.8331260880378015,-0.488417138671875,2.5139117431640625,9.476250170898437,9.81619176948063
0.835613031584183,-0.49320554199218747,2.5139117431640625,9.471461767578125,9.811808802344455
0.8380999751305644,-0.5027823486328125,2.5043349365234375,9.485826977539062,9.823716049041545
0.840586918676946,-0.507570751953125,2.499546533203125,9.485826977539062,9.822742712078632
0.8430738622233275,-0.5123591552734374,2.4947581298828125,9.5001921875,9.83564851090384
0.8455608057697089,-0.5267243652343749,2.499546533203125,9.524134204101562,9.860745598904609
0.8480477493160905,-0.5267243652343749,2.4947581298828125,9.528922607421874,9.864158491315091
0.850534692862472,-0.5458779785156249,2.4899697265625,9.519345800781249,9.854738783015897
0.8530216364088534,-0.55545478515625,2.4947581298828125,9.509768994140625,9.847235879519072
0.855508579955235,-0.5506663818359374,2.4947581298828125,9.504980590820312,9.84234258815306
0.8579955235016165,-0.5506663818359374,2.4851813232421875,9.519345800781249,9.853796433270157
0.8604824670479979,-0.5458779785156249,2.4756045166015626,9.533711010742186,9.865001070775063
0.8629694105943795,-0.55545478515625,2.4899697265625,9.5384994140625,9.873775890186153
0.8654563541407609,-0.565031591796875,2.5043349365234375,9.557653027343749,9.896448128753743
0.8679432976871424,-0.565031591796875,2.50912333984375,9.557653027343749,9.897660937078532
0.870430241233524,-0.5698199951171875,2.5139117431640625,9.543287817382812,9.885281455004744
0.8729171847799054,-0.5698199951171875,2.518700146484375,9.528922607421874,9.872634466694867
0.8754041283262869,-0.5746083984375,2.518700146484375,9.519345800781249,9.863669181106335
0.8778910718726685,-0.5746083984375,2.528276953125,9.5001921875,9.847639857483312
0.8803780154190499,-0.5746083984375,2.5330653564453125,9.481038574218749,9.830396093617093
0.8828649589654315,-0.5746083984375,2.5330653564453125,9.471461767578125,9.82115995828764
0.885351902511813,-0.584185205078125,2.5330653564453125,9.471461767578125,9.821724923278483
0.8878388460581944,-0.584185205078125,2.5426421630859375,9.471461767578125,9.824199180494492
0.890325789604576,-0.5793968017578125,2.5330653564453125,9.471461767578125,9.821441277562307
0.8928127331509574,-0.584185205078125,2.50912333984375,9.476250170898437,9.82019804229189
0.8952996766973389,-0.5889736083984375,2.50912333984375,9.471461767578125,9.815863582010127
0.8977866202437205,-0.5793968017578125,2.518700146484375,9.466673364257812,9.81312670188946
0.9002735637901019,-0.5746083984375,2.518700146484375,9.476250170898437,9.8220844295347
0.9027605073364834,-0.584185205078125,2.50912333984375,9.490615380859374,9.834060839540568
0.905247450882865,-0.5889736083984375,2.50912333984375,9.490615380859374,9.834346452781855
0.9077343944292464,-0.59376201171875,2.5043349365234375,9.5001921875,9.84265708029535
0.9102213379756279,-0.5889736083984375,2.4947581298828125,9.504980590820312,9.844560125768805
0.9127082815220094,-0.59376201171875,2.499546533203125,9.5001921875,9.841439823402066
0.9151952250683909,-0.5889736083984375,2.499546533203125,9.495403784179686,9.836529662825784
0.9176821686147724,-0.5793968017578125,2.50912333984375,9.485826977539062,9.829156323726044
0.9201691121611539,-0.5698199951171875,2.518700146484375,9.4618849609375,9.807946383864005
0.9226560557075354,-0.5602431884765625,2.50912333984375,9.471461767578125,9.81418159499187
0.9251429992539169,-0.5602431884765625,2.5139117431640625,9.504980590820312,9.847755110405792
0.9276299428002984,0.076614453125,1.3263877197265623,18.67956135253906,18.72675055851228
0.9301168863466799,-0.3399766357421875,0.9911994873046874,21.231780322265625,21.257623484045187
0.9326038298930613,-0.7613561279296874,0.7948749511718749,22.83589543457031,22.862406033490124
0.9350907734394429,-1.139639990234375,0.74699091796875,23.415292236328124,23.454907487592383
0.9375777169858244,-1.4508862060546874,0.8283937744140625,22.98912434082031,23.04975368601809
0.9400646605322058,-1.695094775390625,1.0295067138671874,21.62921779785156,21.719951494383057
0.9425516040785874,-1.838746875,1.3311761230468748,19.47922470703125,19.61104829242713
0.9450385476249689,-1.8770541015625,1.6998831787109374,16.72589279785156,16.916513376185996
0.9475254911713503,-1.8291700683593748,2.0973206542968748,13.603853833007811,13.885584473682172
0.9500124347177319,-1.6998831787109374,2.4947581298828125,10.342951171874999,10.774509728598847
0.9524993782641133,-1.47482822265625,2.868253588867187,7.1778165771484375,7.869119884178904
0.9549863218104948,-1.1875240234375,3.189076611328125,4.3239281982421875,5.502433825382655
0.9574732653568764,-0.8714894042968749,3.4428619873046875,1.9776105712890624,4.064939854057321
0.9599602089032578,-0.5410895751953124,3.6152445068359373,0.277727392578125,3.6660473642849607
0.9624471524496393,-0.22026655273437498,3.6918589599609373,-0.70868369140625,3.7657100935895915
0.9649340959960209,0.06703764648437499,3.6679169433593746,-0.9193734375,3.7819778247643794
0.9674210395424023,0.2825157958984375,3.5673604736328124,-0.38307226562499996,3.5989748935580144
0.9699079830887838,0.44053310546874996,3.404554760742187,0.8188169677734375,3.5292384111334725
0.9723949266351654,0.5315127685546874,3.1794998046874996,2.5617957763671875,4.117586967018095
0.9748818701815468,0.5410895751953124,2.920926025390625,4.7117888671875,5.570057549356324
0.9773688137279283,0.4740519287109375,2.6527754394531247,7.110778930664062,7.604282988162409
0.9798557572743098,0.33039982910156246,2.39420166015625,9.581595043945311,9.881716916746939
0.9823427008206913,0.143652099609375,2.1547814941406247,11.899182250976562,12.093562645274085
0.9848296443670728,-0.0718260498046875,1.9536685546875,13.94861887207031,14.084954676578882
0.9873165879134543,-0.32082302246093747,1.8148048583984373,15.5910412109375,15.699586304325313
0.9898035314598358,-0.5746083984375,1.7477672119140624,16.70673918457031,16.80773629076366
0.9922904750062173,-0.7996633544921875,1.7286135986328124,17.266982373046876,17.371708227028435
0.9947774185525988,-1.005564697265625,1.7717092285156248,17.2765591796875,17.396252787311372
0.9972643620989803,-1.16837041015625,1.8626888916015625,16.735469604492188,16.87929625917818
0.9997513056453617,-1.2641384765625,2.0063409912109376,15.686809277343748,15.865038152008868
1.0022382491917432,-1.2976572998046874,2.1835119140624997,14.250288281249999,14.47488704084838
1.0047251927381249,-1.2785036865234374,2.360682836914062,12.559981909179687,12.843696535338868
1.0072121362845063,-1.20667763671875,2.5474305664062498,10.721235034179687,11.08559218389978
1.0096990798308878,-1.0773907470703123,2.710236279296875,8.877699755859375,9.344501295771503
1.0121860233772693,-0.9193734375,2.85388837890625,7.168239770507812,7.7700442601266175
1.0146729669236507,-0.7422025146484375,2.9496564453125,5.702988354492187,6.463390278298034
1.0171599104700322,-0.5506663818359374,3.0166940917968748,4.587290380859375,5.517871849353825
1.0196468540164139,-0.3591302490234375,3.0454245117187497,3.8690298828125,4.93689955604093
1.0221337975627953,-0.19153613281249998,3.0262708984374997,3.5721488769531247,4.685642884388433
1.0246207411091768,-0.062249243164062495,2.9640216552734375,3.7205893798828122,4.757319063811167
1.0271076846555582,0.033518823242187495,2.868253588867187,4.271255761718749,5.145058594766113
1.0295946282019397,0.09576806640624999,2.7533319091796873,5.166687182617188,5.855310800262527
1.0320815717483212,0.105344873046875,2.6336218261718747,6.320692382812499,6.848227045280413
1.0345685152947028,0.06703764648437499,2.5043349365234375,7.651868505859374,8.05153893062069
1.0370554588410843,-0.0143652099609375,2.39420166015625,9.054870678710937,9.36606058900599
1.0395424023874658,-0.1197100830078125,2.2936451904296873,10.405200415039062,10.655671468316017
1.0420293459338472,-0.258573779296875,2.212242333984375,11.626243261718749,11.837669066343809
1.0445162894802287,-0.4165910888671875,2.1547814941406247,12.655749975585938,12.844634633470815
1.0470032330266101,-0.5698199951171875,2.1356278808593747,13.397952490234374,13.579054908310694
1.0494901765729918,-0.718260498046875,2.1404162841796874,13.838485595703125,14.021446558580145
1.0519771201193733,-0.842758984375,2.1643583007812497,13.953407275390624,14.145397278013421
1.0544640636657547,-0.9528922607421875,2.221819140625,13.757082739257811,13.967884931120214
1.0569510072121362,-1.0199299072265624,2.29843359375,13.283030810546874,13.51894823995089
1.0594379507585177,-1.0534487304687499,2.365471240234375,12.54561669921875,12.810062715686389
1.0619248943048991,-1.0582371337890624,2.446874096679687,11.626243261718749,11.927975144884932
1.0644118378512808,-1.0199299072265624,2.5378537597656248,10.611101757812499,10.95793955250088
1.0668987813976623,-0.9528922607421875,2.6048914062499997,9.557653027343749,9.951994488042615
1.0693857249440437,-0.8714894042968749,2.6623522460937497,8.547299926757812,8.99466226725808
1.0718726684904252,-0.7661445312499999,2.7054478759765623,7.6614453125,8.161137783962392
1.0743596120368066,-0.6512228515624999,2.7437551025390623,6.938396411132812,7.489567946358923
1.076846555583188,-0.5410895751953124,2.7629087158203123,6.4356140625,7.024497908163163
1.0793334991295698,-0.43574470214843747,2.73896669921875,6.196193896484375,6.788566183496329
1.0818204426759512,-0.3495534423828125,2.710236279296875,6.1818286865234375,6.758888533495928
1.0843073862223327,-0.277727392578125,2.6815058593749996,6.37815322265625,6.9244815481110935
1.0867943297687142,-0.229843359375,2.6336218261718747,6.804321118164062,7.299834092103128
1.0892812733150956,-0.22026655273437498,2.5857377929687497,7.4028715332031245,7.844556343436484
1.0917682168614773,-0.2346317626953125,2.5378537597656248,8.12113203125,8.511670766601393
1.0942551604078588,-0.26336218261718747,2.480392919921875,8.90643017578125,9.249119263610902
1.0967421039542402,-0.32561142578124996,2.446874096679687,9.696516723632811,10.0057809399013
1.0992290475006217,-0.4070142822265625,2.422932080078125,10.433930834960936,10.719289769353038
1.1017159910470031,-0.488417138671875,2.398990063476562,11.080365283203124,11.347607652506353
1.1042029345933846,-0.565031591796875,2.384624853515625,11.578359228515625,11.834867925595361
1.1066898781397663,-0.6464344482421874,2.39420166015625,11.899182250976562,12.154859823433785
1.1091768216861477,-0.7134720947265625,2.408566870117187,12.04762275390625,12.306723805230181
1.1116637652325292,-0.7565677246093749,2.427720483398437,11.999738720703125,12.266211755573716
1.1141507087789106,-0.8044517578125,2.4564509033203126,11.77947216796875,12.059737071222623
1.116637652325292,-0.8283937744140625,2.4899697265625,11.429918725585937,11.72728560060621
1.1191245958716736,-0.8283937744140625,2.518700146484375,10.941501586914061,11.258176746251202
1.1216115394180552,-0.8092401611328125,2.5522189697265625,10.381258398437499,10.720970909528273
1.1240984829644367,-0.7757213378906249,2.5761609863281247,9.797073193359374,10.15977323455493
1.1265854265108182,-0.718260498046875,2.5857377929687497,9.212887988281249,9.595792992851521
1.1290723700571996,-0.6416460449218749,2.6048914062499997,8.67658681640625,9.081868071490234
1.131559313603581,-0.565031591796875,2.6192566162109374,8.231265307617187,8.65641348860344
1.1340462571499625,-0.49320554199218747,2.6240450195312497,7.881711865234375,8.321673263097686
1.1365332006963442,-0.43574470214843747,2.6096798095703124,7.651868505859374,8.096381524168185
1.1390201442427257,-0.373495458984375,2.6048914062499997,7.570465649414062,8.014793088108721
1.1415070877891071,-0.316034619140625,2.5953145996093747,7.6279264892578125,8.063547499516694
1.1439940313354886,-0.28730419921875,2.5665841796874997,7.8338278320312495,8.248560877887627
1.14648097488187,-0.27293898925781246,2.5426421630859375,8.145074047851562,8.537081240467636
1.1489679184282515,-0.27293898925781246,2.5139117431640625,8.537723120117187,8.904322771556453
1.1514548619746332,-0.2825157958984375,2.4947581298828125,8.98304462890625,9.327310657765716
1.1539418055210147,-0.32561142578124996,2.47081611328125,9.433154541015625,9.756810937029233
1.1564287490673961,-0.3687070556640625,2.4564509033203126,9.868899243164062,10.176702226411257
1.1589156926137776,-0.411802685546875,2.4660277099609376,10.256759912109374,10.557082836312913
1.161402636160159,-0.469263525390625,2.4564509033203126,10.572794531249999,10.864545250341365
1.1638895797065405,-0.5267243652343749,2.446874096679687,10.788272680664061,11.074811909657704
1.1663765232529222,-0.5793968017578125,2.446874096679687,10.9175595703125,11.203392364378358
1.1688634667993036,-0.612915625,2.4660277099609376,10.941501586914061,11.232694031536123
1.171350410345685,-0.6464344482421874,2.4851813232421875,10.850521923828124,11.150238998548001
1.1738373538920666,-0.6703764648437499,2.4947581298828125,10.66856259765625,10.976859780071104
1.176324297438448,-0.6751648681640625,2.50912333984375,10.419565624999999,10.738663573621873
1.1788112409848295,-0.6655880615234374,2.528276953125,10.1131078125,10.445579995701248
1.1812981845312112,-0.6464344482421874,2.5378537597656248,9.773131176757811,10.117938139756845
1.1837851280775926,-0.622492431640625,2.5426421630859375,9.423577734375,9.780406091403385
1.186272071623974,-0.584185205078125,2.5474305664062498,9.09796630859375,9.465921286214037
1.1887590151703555,-0.5410895751953124,2.5378537597656248,8.82981572265625,9.203212772201297
1.191245958716737,-0.49799394531249996,2.5474305664062498,8.619125976562499,9.001485047484287
1.1937329022631185,-0.469263525390625,2.5522189697265625,8.480262280273436,8.868420280293586
1.1962198458095001,-0.43574470214843747,2.5426421630859375,8.422801440429687,8.809000324659841
1.1987067893558816,-0.4070142822265625,2.5234885498046875,8.437166650390624,8.815862758312173
1.201193732902263,-0.39743747558593745,2.5139117431640625,8.518569506835936,8.890654376490707
1.2036806764486445,-0.38786066894531246,2.499546533203125,8.67658681640625,9.037772267146213
1.206167619995026,-0.39264907226562495,2.4947581298828125,8.882488159179687,9.234532328089754
1.2086545635414074,-0.40222587890625,2.4851813232421875,9.131485131835937,9.472166203144583
1.2111415070877891,-0.4261678955078125,2.47081611328125,9.394847314453125,9.72366738441309
1.2136284506341706,-0.4644751220703125,2.4564509033203126,9.65342109375,9.971881818027269
1.216115394180552,-0.4836287353515625,2.4564509033203126,9.878476049804688,10.190796674482606
1.2186023377269335,-0.5123591552734374,2.4564509033203126,10.079588989257813,10.387241074355742
1.221089281273315,-0.55545478515625,2.461239306640625,10.232817895507813,10.539297463566095
1.2235762248196966,-0.59376201171875,2.4660277099609376,10.314220751953124,10.621534527217616
1.226063168366078,-0.63206923828125,2.47081611328125,10.333374365234375,10.643451956941162
1.2285501119124596,-0.6560112548828124,2.480392919921875,10.304643945312499,10.619246048726673
1.231037055458841,-0.6607996582031249,2.4851813232421875,10.204087475585936,10.523126132812575
1.2335239990052225,-0.6560112548828124,2.4899697265625,10.065223779296874,10.389370997950447
1.236010942551604,-0.6607996582031249,2.50912333984375,9.911994873046874,10.24597474553483
1.2384978860979856,-0.6560112548828124,2.518700146484375,9.749189160156249,10.090633799466783
1.240984829644367,-0.63206923828125,2.5139117431640625,9.557653027343749,9.902928615591085
1.2434717731907485,-0.6177040283203125,2.5139117431640625,9.356540087890625,9.708045783540868
1.24595871673713,-0.6081272216796875,2.5139117431640625,9.179369165039063,9.536791349203147
1.2484456602835114,-0.5793968017578125,2.5139117431640625,9.035717065429687,9.396788589342776
1.250932603829893,-0.5458779785156249,2.5139117431640625,8.9255837890625,9.28890634011463
1.2534195473762746,-0.5315127685546874,2.5139117431640625,8.858546142578124,9.2236705186027
1.255906490922656,-0.51714755859375,2.518700146484375,8.839392529296875,9.205767339676214
1.2583934344690375,-0.5123591552734374,2.5139117431640625,8.877699755859375,9.240985721858696
1.260880378015419,-0.49799394531249996,2.5139117431640625,8.959102612304687,9.31843709211962
1.2633673215618004,-0.49799394531249996,2.50912333984375,9.069235888671875,9.423095961969745
1.2658542651081819,-0.507570751953125,2.499546533203125,9.222464794921875,9.568658099935403
1.2683412086545636,-0.5219359619140624,2.4947581298828125,9.3852705078125,9.725201169115765
1.270828152200945,-0.5410895751953124,2.4947581298828125,9.533711010742186,9.869561372794042
1.2733150957473265,-0.5506663818359374,2.499546533203125,9.677363110351562,10.010111043606125
1.275802039293708,-0.5602431884765625,2.5043349365234375,9.797073193359374,10.127596410825575
1.2782889828400894,-0.5793968017578125,2.5043349365234375,9.873687646484374,10.202798727237402
1.2807759263864709,-0.5985504150390625,2.50912333984375,9.955090502929687,10.283860629910002
1.2832628699328525,-0.612915625,2.5139117431640625,10.007762939453125,10.33686300906028
1.285749813479234,-0.622492431640625,2.5234885498046875,9.993397729492187,10.325865071182406
1.2882367570256155,-0.622492431640625,2.5426421630859375,9.955090502929687,10.29351023307759
1.290723700571997,-0.622492431640625,2.5570073730468748,9.90241806640625,10.246153770813457
1.2932106441183784,-0.6272808349609375,2.5617957763671875,9.80665,10.155129889283645
1.2956975876647598,-0.622492431640625,2.5617957763671875,9.701305126953125,10.053139588880162
1.2981845312111415,-0.603338818359375,2.5713725830078125,9.595960253906249,9.952810049676023
1.300671474757523,-0.584185205078125,2.5665841796874997,9.495403784179686,9.85349276804262
1.3031584183039044,-0.5698199951171875,2.5713725830078125,9.390058911132812,9.752428320271026
1.305645361850286,-0.5506663818359374,2.5761609863281247,9.284714038085937,9.651204777673794
1.3081323053966674,-0.5267243652343749,2.5665841796874997,9.212887988281249,9.578209540042995
1.3106192489430488,-0.507570751953125,2.5570073730468748,9.169792358398437,9.533153028783117
1.3131061924894305,-0.49799394531249996,2.5474305664062498,9.1554271484375,9.516262224769513
1.315593136035812,-0.488417138671875,2.5378537597656248,9.165003955078124,9.52242356251299
1.3180800795821934,-0.469263525390625,2.5378537597656248,9.188945971679686,9.544508265629345
1.3205670231285749,-0.469263525390625,2.5378537597656248,9.227253198242186,9.581394029403508
1.3230539666749563,-0.4740519287109375,2.5234885498046875,9.299079248046874,9.64705108069642
1.3255409102213378,-0.4836287353515625,2.518700146484375,9.370905297851563,9.715534637005863
1.3280278537677195,-0.49320554199218747,2.5234885498046875,9.457096557617186,9.800404148183992
1.330514797314101,-0.5027823486328125,2.5139117431640625,9.552864624023437,9.890893026791533
1.3330017408604824,-0.5027823486328125,2.50912333984375,9.624690673828125,9.959074283863911
1.3354886844068639,-0.49799394531249996,2.50912333984375,9.682151513671874,10.014377456328234
1.3379756279532453,-0.5027823486328125,2.5043349365234375,9.720458740234374,10.050462759743324
1.3404625714996268,-0.51714755859375,2.5043349365234375,9.734823950195311,10.065084818964397
1.3429495150460085,-0.5123591552734374,2.5139117431640625,9.730035546875,10.062596876545426
1.34543645859239,-0.51714755859375,2.518700146484375,9.725247143554688,10.059409725648841
1.3479234021387714,-0.5267243652343749,2.518700146484375,9.710881933593749,10.046019953843881
1.3504103456851528,-0.51714755859375,2.5139117431640625,9.672574707031249,10.00729210690276
1.3528972892315343,-0.5219359619140624,2.50912333984375,9.6151138671875,9.95080558356303
1.3553842327779158,-0.51714755859375,2.50912333984375,9.548076220703125,9.885792889205428
1.3578711763242974,-0.5123591552734374,2.5043349365234375,9.495403784179686,9.833458110090175
1.360358119870679,-0.5027823486328125,2.499546533203125,9.447519750976562,9.785507263644371
1.3628450634170604,-0.49320554199218747,2.499546533203125,9.390058911132812,9.72955245285436
1.3653320069634418,-0.4836287353515625,2.5043349365234375,9.337386474609374,9.679482238434433
1.3678189505098233,-0.469263525390625,2.499546533203125,9.313444458007812,9.654438813328625
1.370305894056205,-0.47884033203125,2.5043349365234375,9.3086560546875,9.651531437152443
1.3727928376025864,-0.4740519287109375,2.5043349365234375,9.289502441406249,9.632822759414765
1.3752797811489679,-0.4644751220703125,2.50912333984375,9.289502441406249,9.633602269268934
1.3777667246953493,-0.47884033203125,2.5043349365234375,9.332598071289063,9.674624969377366
1.3802536682417308,-0.4836287353515625,2.5043349365234375,9.380482104492186,9.721061399901131
1.3827406117881123,-0.488417138671875,2.5043349365234375,9.418789331054686,9.758270197039527
1.385227555334494,-0.49320554199218747,2.4899697265625,9.471461767578125,9.805701859660209
1.3877144988808754,-0.507570751953125,2.4851813232421875,9.5384994140625,9.869991152463141
1.3902014424272569,-0.51714755859375,2.4899697265625,9.591171850585937,9.92259886844315
1.3926883859736383,-0.5267243652343749,2.4899697265625,9.619902270507811,9.950874709805698
1.3951753295200198,-0.5363011718749999,2.4899697265625,9.648632690429688,9.97916233864249
1.3976622730664012,-0.5458779785156249,2.4851813232421875,9.662997900390625,9.99237896598071
1.400149216612783,-0.55545478515625,2.4899697265625,9.662997900390625,9.994098642724332
1.4026361601591644,-0.5698199951171875,2.4947581298828125,9.658209497070311,9.991472546264184
1.4051231037055458,-0.5793968017578125,2.4947581298828125,9.639055883789062,9.973510771604555
1.4076100472519273,-0.5746083984375,2.4899697265625,9.624690673828125,9.958152168832665
1.4100969907983087,-0.5746083984375,2.4851813232421875,9.595960253906249,9.929186986631644
1.4125839343446902,-0.5793968017578125,2.4851813232421875,9.567229833984374,9.901702558628978
1.4150708778910719,-0.584185205078125,2.499546533203125,9.509768994140625,9.850112260649537
1.4175578214374533,-0.584185205078125,2.499546533203125,9.4618849609375,9.803890668479283
1.4200447649838348,-0.584185205078125,2.5043349365234375,9.423577734375,9.768151470157099
1.4225317085302163,-0.5793968017578125,2.5043349365234375,9.404424121093749,9.749389066889728
1.4250186520765977,-0.5698199951171875,2.499546533203125,9.3852705078125,9.729117647726243
1.4275055956229792,-0.565031591796875,2.499546533203125,9.375693701171874,9.71960009205987
1.4299925391693609,-0.565031591796875,2.5139117431640625,9.3852705078125,9.732539003618829
1.4324794827157423,-0.565031591796875,2.5139117431640625,9.399635717773437,9.746392387903786
1.4349664262621238,-0.565031591796875,2.50912333984375,9.423577734375,9.768253577282145
1.4374533698085052,-0.55545478515625,2.5139117431640625,9.437942944335937,9.782793532080275
1.4399403133548867,-0.5602431884765625,2.50912333984375,9.442731347656249,9.78645736049532
1.4424272569012682,-0.5698199951171875,2.50912333984375,9.4618849609375,9.80549140917472
1.4449142004476498,-0.5793968017578125,2.518700146484375,9.485826977539062,9.831605389233005
1.4474011439940313,-0.59376201171875,2.5234885498046875,9.524134204101562,9.870647401528077
1.4498880875404128,-0.584185205078125,2.5234885498046875,9.562441430664062,9.907045620653419
1.4523750310867942,-0.584185205078125,2.5234885498046875,9.581595043945311,9.92553426274802
1.4548619746331757,-0.5746083984375,2.518700146484375,9.586383447265625,9.928382186311307
1.4573489181795571,-0.5793968017578125,2.5139117431640625,9.581595043945311,9.922823010235682
1.4598358617259388,-0.59376201171875,2.518700146484375,9.591171850585937,9.93413213229685
1.4623228052723203,-0.5889736083984375,2.5234885498046875,9.605537060546874,9.948930927186334
1.4648097488187017,-0.584185205078125,2.5330653564453125,9.600748657226562,9.946460035263462
1.4672966923650832,-0.5793968017578125,2.5378537597656248,9.581595043945311,9.928915648045413
1.4697836359114647,-0.5746083984375,2.528276953125,9.562441430664062,9.907706358090076
1.4722705794578461,-0.565031591796875,2.5234885498046875,9.552864624023437,9.896690238945661
1.4747575230042278,-0.55545478515625,2.5330653564453125,9.524134204101562,9.870870400127524
1.4772444665506093,-0.5458779785156249,2.5378537597656248,9.495403784179686,9.843849729551884
1.4797314100969907,-0.5363011718749999,2.5330653564453125,9.490615380859374,9.837470170444352
1.4822183536433722,-0.5410895751953124,2.528276953125,9.481038574218749,9.827260794642216
1.4847052971897536,-0.5315127685546874,2.528276953125,9.452308154296874,9.799021360249547
1.487192240736135,-0.5123591552734374,2.5234885498046875,9.437942944335937,9.782907205198686
1.4896791842825168,-0.51714755859375,2.5234885498046875,9.452308154296874,9.797018194437634
1.4921661278288982,-0.5219359619140624,2.5234885498046875,9.471461767578125,9.815752626468775
1.4946530713752797,-0.5027823486328125,2.528276953125,9.471461767578125,9.815985047691031
1.4971400149216612,-0.49320554199218747,2.518700146484375,9.481038574218749,9.822280518310201
1.4996269584680426,-0.49799394531249996,2.5139117431640625,9.490615380859374,9.830540703816379
1.5021139020144243,-0.507570751953125,2.5234885498046875,9.490615380859374,9.833483758904478
1.5046008455608058,-0.49799394531249996,2.5234885498046875,9.490615380859374,9.832994088169066
1.5070877891071872,-0.488417138671875,2.5234885498046875,9.490615380859374,9.832513720801426
1.5095747326535687,-0.49799394531249996,2.518700146484375,9.495403784179686,9.836388637202285
1.5120616761999501,-0.507570751953125,2.518700146484375,9.495403784179686,9.836878138960174
1.5145486197463316,-0.5123591552734374,2.5234885498046875,9.5001921875,9.842975056578368
1.5170355632927133,-0.507570751953125,2.5234885498046875,9.514557397460937,9.856592971144353
1.5195225068390947,-0.49799394531249996,2.528276953125,9.524134204101562,9.866575629822549
1.5220094503854762,-0.49799394531249996,2.5330653564453125,9.519345800781249,9.86318217130977
1.5244963939318577,-0.5027823486328125,2.528276953125,9.504980590820312,9.848331354786485
1.5269833374782391,-0.507570751953125,2.528276953125,9.504980590820312,9.848576975980446
1.5294702810246206,-0.507570751953125,2.5234885498046875,9.509768994140625,9.851970810510556
1.5319572245710023,-0.507570751953125,2.5139117431640625,9.504980590820312,9.844899001641778
1.5344441681173837,-0.49799394531249996,2.5139117431640625,9.485826977539062,9.825917955580229
1.5369311116637652,-0.49799394531249996,2.5043349365234375,9.476250170898437,9.814224816322092
1.5394180552101466,-0.49799394531249996,2.5043349365234375,9.476250170898437,9.814224816322092
1.541904998756528,-0.49320554199218747,2.5043349365234375,9.490615380859374,9.827854571998314
1.5443919423029095,-0.49320554199218747,2.499546533203125,9.495403784179686,9.831260224554809
1.5468788858492912,-0.5027823486328125,2.499546533203125,9.514557397460937,9.850244942706913
1.5493658293956727,-0.49799394531249996,2.499546533203125,9.514557397460937,9.85000169090312
1.5518527729420541,-0.488417138671875,2.499546533203125,9.509768994140625,9.844896672637788
1.5543397164884356,-0.49320554199218747,2.4947581298828125,9.519345800781249,9.853172804133692
1.556826660034817,-0.5027823486328125,2.4899697265625,9.519345800781249,9.85244557478731
1.5593136035811985,-0.5027823486328125,2.4899697265625,9.514557397460937,9.847819139224335
1.5618005471275802,-0.51714755859375,2.480392919921875,9.514557397460937,9.84614610414332
1.5642874906739617,-0.5267243652343749,2.4851813232421875,9.519345800781249,9.852487464654544
1.5667744342203431,-0.5219359619140624,2.4947581298828125,9.509768994140625,9.84540205359202
1.5692613777667246,-0.5315127685546874,2.4899697265625,9.495403784179686,9.830826419327538
1.571748321313106,-0.5458779785156249,2.4947581298828125,9.495403784179686,9.832827361377733
1.5742352648594875,-0.5410895751953124,2.5043349365234375,9.495403784179686,9.834996920553193
1.5767222084058692,-0.55545478515625,2.5043349365234375,9.490615380859374,9.831175097619274
1.5792091519522506,-0.565031591796875,2.5139117431640625,9.490615380859374,9.834164593881434
1.581696095498632,-0.565031591796875,2.5234885498046875,9.504980590820312,9.850477713928129
1.5841830390450136,-0.5746083984375,2.528276953125,9.514557397460937,9.861498954663869
1.586669982591395,-0.584185205078125,2.5330653564453125,9.514557397460937,9.863290268639275
1.5891569261377765,-0.5746083984375,2.5426421630859375,9.485826977539062,9.837485320388799
1.5916438696841582,-0.5698199951171875,2.5474305664062498,9.447519750976562,9.801516554216928
1.5941308132305396,-0.5746083984375,2.5474305664062498,9.457096557617186,9.811027092119897
1.596617756776921,-0.5793968017578125,2.5474305664062498,9.481038574218749,9.834388419742833
1.5991047003233025,-0.584185205078125,2.5474305664062498,9.495403784179686,9.848521100607286
1.601591643869684,-0.5889736083984375,2.5378537597656248,9.514557397460937,9.864805831182133
1.6040785874160655,-0.5985504150390625,2.5330653564453125,9.533711010742186,9.882627602804511
1.6065655309624471,-0.59376201171875,2.5330653564453125,9.5384994140625,9.886958303677343
1.6090524745088286,-0.59376201171875,2.518700146484375,9.5384994140625,9.88328765272626
1.61153941805521,-0.603338818359375,2.5139117431640625,9.528922607421874,9.873405493566704
1.6140263616015915,-0.6081272216796875,2.5330653564453125,9.519345800781249,9.86935576887483
1.616513305147973,-0.59376201171875,2.5330653564453125,9.504980590820312,9.854624775122316
1.6190002486943544,-0.59376201171875,2.5139117431640625,9.514557397460937,9.858960799625745
1.6214871922407361,-0.59376201171875,2.518700146484375,9.524134204101562,9.869424303990481
1.6239741357871176,-0.59376201171875,2.5234885498046875,9.519345800781249,9.8660271772587
1.626461079333499,-0.5889736083984375,2.5139117431640625,9.524134204101562,9.867916421491689
1.6289480228798805,-0.5793968017578125,2.5139117431640625,9.519345800781249,9.862727684629489
1.631434966426262,-0.5746083984375,2.5234885498046875,9.504980590820312,9.851031687311798
1.6339219099726436,-0.5746083984375,2.5234885498046875,9.5001921875,9.846411573359418
1.636408853519025,-0.5602431884765625,2.5234885498046875,9.485826977539062,9.83172316224565
1.6388957970654066,-0.55545478515625,2.5234885498046875,9.481038574218749,9.82683147943284
1.641382740611788,-0.55545478515625,2.5234885498046875,9.495403784179686,9.840691922012509
1.6438696841581695,-0.5458779785156249,2.50912333984375,9.524134204101562,9.864218926996413
1.646356627704551,-0.5410895751953124,2.5043349365234375,9.528922607421874,9.867362234199806
1.6488435712509326,-0.5315127685546874,2.5043349365234375,9.5384994140625,9.87609084453455
1.651330514797314,-0.5267243652343749,2.5043349365234375,9.543287817382812,9.8804592199265
1.6538174583436955,-0.5219359619140624,2.5043349365234375,9.533711010742186,9.870955184731507
1.656304401890077,-0.5123591552734374,2.5043349365234375,9.514557397460937,9.851954519173493
1.6587913454364585,-0.5267243652343749,2.4947581298828125,9.519345800781249,9.854907465745152
1.66127828898284,-0.5219359619140624,2.4899697265625,9.524134204101562,9.858067697336745
1.6637652325292216,-0.5027823486328125,2.4899697265625,9.514557397460937,9.847819139224335
1.666252176075603,-0.49799394531249996,2.4947581298828125,9.504980590820312,9.839536174437042
1.6687391196219845,-0.5027823486328125,2.4947581298828125,9.485826977539062,9.821279023860436
1.671226063168366,-0.5027823486328125,2.4947581298828125,9.481038574218749,9.81665424992329
1.6737130067147474,-0.49320554199218747,2.4947581298828125,9.476250170898437,9.811543565347955
1.676199950261129,-0.49799394531249996,2.4899697265625,9.471461767578125,9.80594387213489
1.6786868938075106,-0.5027823486328125,2.4851813232421875,9.476250170898437,9.809599054035857
1.681173837353892,-0.49320554199218747,2.4899697265625,9.490615380859374,9.824203848315346
1.6836607809002735,-0.49799394531249996,2.4851813232421875,9.509768994140625,9.841739201019204
1.686147724446655,-0.488417138671875,2.4899697265625,9.5001921875,9.833216774788513
1.6886346679930364,-0.4836287353515625,2.4947581298828125,9.476250170898437,9.811066821795007
1.6911216115394179,-0.488417138671875,2.4899697265625,9.471461767578125,9.805462179583392
1.6936085550857995,-0.4836287353515625,2.4899697265625,9.471461767578125,9.80522483207548
1.696095498632181,-0.488417138671875,2.4851813232421875,9.476250170898437,9.80887326924927
1.6985824421785625,-0.49320554199218747,2.4899697265625,9.485826977539062,9.819578116887579
1.701069385724944,-0.49320554199218747,2.4899697265625,9.485826977539062,9.819578116887579
1.7035563292713254,-0.4740519287109375,2.4851813232421875,9.504980590820312,9.835929415788687
1.7060432728177068,-0.47884033203125,2.499546533203125,9.504980590820312,9.839800656878085
1.7085302163640885,-0.49320554199218747,2.5139117431640625,9.495403784179686,9.834922317114858
1.71101715991047,-0.49320554199218747,2.50912333984375,9.5001921875,9.838323192528108
1.7135041034568514,-0.49799394531249996,2.50912333984375,9.504980590820312,9.843188199764718
1.715991047003233,-0.49320554199218747,2.518700146484375,9.495403784179686,9.836147373802719
1.7184779905496144,-0.49799394531249996,2.518700146484375,9.481038574218749,9.822522122311163
1.7209649340959958,-0.5123591552734374,2.5234885498046875,9.485826977539062,9.829110835309354
1.7234518776423775,-0.51714755859375,2.518700146484375,9.495403784179686,9.837376939503425
1.725938821188759,-0.5219359619140624,2.50912333984375,9.495403784179686,9.835182261020977
1.7284257647351404,-0.5219359619140624,2.50912333984375,9.519345800781249,9.858299120930518
1.7309127082815219,-0.5315127685546874,2.50912333984375,9.5384994140625,9.877306152476796
1.7333996518279033,-0.5363011718749999,2.50912333984375,9.5384994140625,9.877564980984625
1.7358865953742848,-0.5458779785156249,2.50912333984375,9.533711010742186,9.873465872646937
1.7383735389206665,-0.55545478515625,2.5043349365234375,9.5384994140625,9.87740829189092
1.740860482467048,-0.5602431884765625,2.5043349365234375,9.548076220703125,9.88692699583054
1.7433474260134294,-0.5602431884765625,2.518700146484375,9.533711010742186,9.876708383590232
1.7458343695598109,-0.55545478515625,2.5234885498046875,9.514557397460937,9.8591747600358
1.7483213131061923,-0.5602431884765625,2.5234885498046875,9.514557397460937,9.859445692370763
1.7508082566525738,-0.565031591796875,2.528276953125,9.524134204101562,9.870186289486579
1.7532952001989555,-0.5698199951171875,2.5378537597656248,9.524134204101562,9.872918964041444
1.755782143745337,-0.5602431884765625,2.5378537597656248,9.514557397460937,9.863132190423565
1.7582690872917184,-0.5602431884765625,2.5234885498046875,9.504980590820312,9.850204207177665
1.7607560308380998,-0.5746083984375,2.528276953125,9.504980590820312,9.85225939544472
1.7632429743844813,-0.5746083984375,2.528276953125,9.5001921875,9.847639857483312
1.765729917930863,-0.5746083984375,2.5234885498046875,9.495403784179686,9.841791620287648
1.7682168614772444,-0.5793968017578125,2.5234885498046875,9.5001921875,9.846692171197319
1.770703805023626,-0.584185205078125,2.5234885498046875,9.495403784179686,9.842355400992256
1.7731907485700074,-0.5889736083984375,2.528276953125,9.485826977539062,9.834632057728482
1.7756776921163888,-0.5889736083984375,2.5234885498046875,9.485826977539062,9.833402148808576
1.7781646356627703,-0.5889736083984375,2.518700146484375,9.495403784179686,9.841414195322956
1.780651579209152,-0.584185205078125,2.50912333984375,9.5001921875,9.84330350481061
1.7831385227555334,-0.584185205078125,2.5043349365234375,9.504980590820312,9.846706142664909
1.7856254663019149,-0.5746083984375,2.5139117431640625,9.5001921875,9.843961533011448
1.7881124098482963,-0.5602431884765625,2.518700146484375,9.485826977539062,9.830495221805595
1.7905993533946778,-0.565031591796875,2.5234885498046875,9.476250170898437,9.822757884737694
1.7930862969410593,-0.5698199951171875,2.5234885498046875,9.481038574218749,9.827653928260528
1.795573240487441,-0.565031591796875,2.518700146484375,9.490615380859374,9.835389744948262
1.7980601840338224,-0.5698199951171875,2.518700146484375,9.509768994140625,9.854148952428828
1.8005471275802039,-0.5746083984375,2.528276953125,9.533711010742186,9.879979999959755
1.8030340711265853,-0.565031591796875,2.5330653564453125,9.528922607421874,9.876033963995244
1.8055210146729668,-0.565031591796875,2.5234885498046875,9.514557397460937,9.859718942764166
1.8080079582193482,-0.5602431884765625,2.528276953125,9.514557397460937,9.860672352913673
1.81049490176573,-0.5506663818359374,2.5330653564453125,9.514557397460937,9.861361773796068
1.8129818453121114,-0.55545478515625,2.5426421630859375,9.519345800781249,9.868713374230042
1.8154687888584928,-0.5602431884765625,2.5330653564453125,9.533711010742186,9.88038147879952
1.8179557324048743,-0.55545478515625,2.528276953125,9.552864624023437,9.897370200966238
1.8204426759512558,0.2442085693359375,1.455674609375,25.594015747070312,25.636541663317214
1.8229296194976372,-0.201112939453125,1.0965443603515623,30.329746630859372,30.350228774109095
1.825416563044019,-0.6464344482421874,0.86191259765625,33.432631982421874,33.44998732576637
1.8279035065904004,-1.0534487304687499,0.7565677246093749,34.77817331542968,34.80234888779365
1.8303904501367818,-1.4125789794921875,0.7757213378906249,34.38552424316406,34.42326829986638
1.8328773936831633,-1.7094599853515624,0.9145850341796874,32.39354846191406,32.45151307998809
1.8353643372295447,-1.905784521484375,1.16837041015625,29.012935717773434,29.09892683624796
1.8378512807759262,-1.9871873779296874,1.5083470458984374,24.55972062988281,24.686107467637846
1.8403382243223079,-1.9776105712890624,1.905784521484375,19.397821850585938,19.59128507171168
1.8428251678686893,-1.867477294921875,2.327164013671875,13.876792822265624,14.193961491622444
1.8453121114150708,-1.675941162109375,2.7437551025390623,8.394071020507813,8.988737349533066
1.8477990549614522,-1.407790576171875,3.1220389648437497,3.303998291015625,4.758718977980854
1.8502859985078337,-1.0965443603515623,3.447650390625,-1.0821791503906248,3.776216951359615
1.8527729420542152,-0.7613561279296874,3.6918589599609373,-4.515464331054687,5.88208329240645
1.8552598856005968,-0.4261678955078125,3.84987626953125,-6.842628344726562,7.862870279351987
1.8577468291469783,-0.11013327636718749,3.897760302734375,-7.967903124999999,8.870859311561654
1.8602337726933598,0.16280571289062498,3.840299462890625,-7.886500268554687,8.773328453371674
1.8627207162397412,0.37828386230468747,3.6918589599609373,-6.6702458251953125,7.633157972245793
1.8652076597861227,0.5267243652343749,3.4668040039062498,-4.46279189453125,5.675621556475184
1.8676946033325041,0.5985504150390625,3.1938650146484373,-1.4700398193359374,3.566518386546175
1.8701815468788858,0.584185205078125,2.882618798828125,2.0781670410156248,3.6013249983239657
1.8726684904252673,0.49799394531249996,2.5378537597656248,5.904101293945312,6.44570490828514
1.8751554339716487,0.36391865234375,2.2074539306640624,9.730035546875,9.983931158866179
1.8776423775180302,0.181959326171875,1.915361328125,13.321338037109374,13.459560368473955
1.8801293210644117,-0.0430956298828125,1.66636435546875,16.448165405273436,16.532415812509846
1.8826162646107931,-0.28730419921875,1.4987702392578124,18.938135131835935,18.999521525676695
1.8851032081571748,-0.5363011718749999,1.4125789794921875,20.66674873046875,20.721908729858583
1.8875901517035563,-0.7709329345703124,1.4030021728515625,21.57175695800781,21.631076046789484
1.8900770952499377,-0.97683427734375,1.47482822265625,21.62921779785156,21.70143741872035
1.8925640387963192,-1.1444283935546875,1.618480322265625,20.887015283203123,20.980862764488407
1.8950509823427006,-1.24498486328125,1.8100164550781248,19.436129077148436,19.55988906873012
1.897537925889082,-1.2976572998046874,2.0350714111328125,17.4297880859375,17.59610589979599
1.9000248694354638,-1.3120225097656248,2.2936451904296873,15.026009619140623,15.256578135355893
1.9025118129818452,-1.2689268798828124,2.5665841796874997,12.397176196289061,12.723502168025414
1.9049987565282267,-1.158793603515625,2.8107927490234372,9.739612353515625,10.203107727073435
1.9074857000746082,-1.0199299072265624,3.0214824951171875,7.225700610351562,7.898124004748831
1.9099726436209896,-0.86191259765625,3.189076611328125,5.013458276367187,6.003987578917304
1.9124595871673713,-0.6847416748046875,3.303998291015625,3.2225954345703123,4.66587582380435
1.9149465307137528,-0.51714755859375,3.337517114257812,1.944091748046875,3.896916064036692
1.9174334742601342,-0.3591302490234375,3.31357509765625,1.24498486328125,3.5579125584211164
1.9199204178065157,-0.2154781494140625,3.246537451171875,1.1252747802734375,3.442772078697037
1.9224073613528971,-0.1005564697265625,3.1316157714843746,1.5514426757812498,3.496298517010358
1.9248943048992786,-0.023942016601562498,2.9735984619140625,2.47081611328125,3.866237615370645
1.9273812484456603,0.009576806640625,2.7820623291015623,3.816357446289062,4.722768962809574
1.9298681919920417,0.009576806640625,2.5905261962890624,5.453991381835937,6.0379582378504395
1.9323551355384232,-0.023942016601562498,2.398990063476562,7.259219433593749,7.6453903320813765
1.9348420790848047,-0.09576806640624999,2.221819140625,9.093177905273437,9.36117173398415
1.9373290226311861,-0.19153613281249998,2.0781670410156248,10.850521923828124,11.049402262566566
1.9398159661775676,-0.316034619140625,1.9632453613281249,12.425906616210936,12.584012295927975
1.9423029097239493,-0.45010991210937495,1.905784521484375,13.709198706054687,13.848348014741688
1.9447898532703307,-0.5793968017578125,1.886630908203125,14.65251416015625,14.78483168829642
1.9472767968167122,-0.7038952880859375,1.9009961181640624,15.198392138671874,15.332983350239035
1.9497637403630936,-0.814028564453125,1.9728221679687499,15.337255834960937,15.485027812607179
1.952250683909475,-0.9002198242187499,2.0829554443359375,15.097835668945311,15.267407802291864
1.9547376274558566,-0.9624690673828125,2.2074539306640624,14.508862060546875,14.707354549804307
1.9572245710022382,-0.9911994873046874,2.3511060302734372,13.608642236328125,13.845769010986531
1.9597115145486197,-0.9959878906249999,2.5043349365234375,12.483367456054687,12.770988544174987
1.9621984580950012,-0.97683427734375,2.6527754394531247,11.233594189453123,11.583827569110065
1.9646854016413826,-0.9193734375,2.7916391357421872,9.950302099609374,10.375307631838135
1.967172345187764,-0.8475473876953125,2.896984008789062,8.724470849609375,9.23186029612951
1.9696592887341455,-0.7613561279296874,2.96881005859375,7.613561279296874,8.207302338232227
1.9721462322805272,-0.6560112548828124,3.0023288818359375,6.6893994384765625,7.361548364897815
1.9746331758269087,-0.565031591796875,3.0023288818359375,6.019022973632812,6.749953849586998
1.9771201193732901,-0.4740519287109375,2.978386865234375,5.597643481445312,6.358390212583873
1.9796070629196716,-0.38307226562499996,2.916137622070312,5.449202978515625,6.192286822540484
1.982094006466053,-0.316034619140625,2.834734765625,5.57370146484375,6.261129857393133
1.9845809500124345,-0.26815058593749996,2.7341782958984373,5.966350537109375,6.56848341873267
1.9870678935588162,-0.239420166015625,2.6096798095703124,6.555324145507812,7.05974683519541
1.9895548371051976,-0.2346317626953125,2.4851813232421875,7.307103466796875,7.721718678372853
1.992041780651579,-0.2537853759765625,2.384624853515625,8.164227661132813,8.509139557667988
1.9945287241979606,-0.28730419921875,2.29843359375,9.05965908203125,9.35108353991122
1.997015667744342,-0.3399766357421875,2.2266075439453124,9.931148486328125,10.183372502521065
1.9995026112907235,-0.40222587890625,2.1787235107421874,10.726023437499999,10.952451806592073
2.001989554837105,-0.47884033203125,2.1452046874999997,11.396399902343749,11.606425890384704
2.0044764983834864,-0.55545478515625,2.1452046874999997,11.899182250976562,12.103758565486201
2.006963441929868,-0.612915625,2.1739351074218747,12.20085166015625,12.408160244282309
2.0094503854762498,-0.6560112548828124,2.2361843505859373,12.325350146484375,12.543728610336752
2.011937329022631,-0.70868369140625,2.308010400390625,12.258312499999999,12.4938132661903
2.0144242725690127,-0.7422025146484375,2.389413256835937,12.023680737304687,12.281248257295575
2.016911216115394,-0.7565677246093749,2.4756045166015626,11.640608471679688,11.924964487807902
2.0193981596617756,-0.7565677246093749,2.5665841796874997,11.133037719726563,11.450077639134031
2.021885103208157,-0.7422025146484375,2.6575638427734374,10.544064111328124,10.899119144910975
2.0243720467545385,-0.718260498046875,2.7246014892578123,9.926360083007811,10.318525859629915
2.02685899030092,-0.6751648681640625,2.786850732421875,9.303867651367186,9.735724825515566
2.0293459338473014,-0.622492431640625,2.81558115234375,8.734047656249999,9.197748774266957
2.031832877393683,-0.5698199951171875,2.829946362304687,8.264784130859374,8.754424479659518
2.0343198209400644,-0.5027823486328125,2.825157958984375,7.8912886718749995,8.396829430575101
2.036806764486446,-0.44532150878906246,2.7916391357421872,7.6279264892578125,8.134913818591968
2.0392937080328277,-0.411802685546875,2.7437551025390623,7.513004809570312,8.008933436054978
2.041780651579209,-0.37828386230468747,2.6719290527343746,7.556100439453124,8.023525247323017
2.0442675951255906,-0.3495534423828125,2.6001030029296874,7.709329345703124,8.143493242794827
2.046754538671972,-0.33518823242187495,2.5234885498046875,7.967903124999999,8.364677269418959
2.0492414822183536,-0.33039982910156246,2.4564509033203126,8.327033374023436,8.688083787556014
2.0517284257647352,-0.32561142578124996,2.39420166015625,8.734047656249999,9.062108631645303
2.0542153693111165,-0.3399766357421875,2.3367408203125,9.1554271484375,9.45504035128945
2.056702312857498,-0.373495458984375,2.3032219970703123,9.581595043945311,9.861607070443835
2.0591892564038794,-0.4070142822265625,2.27927998046875,9.974244116210937,10.23944937704516
2.061676199950261,-0.44532150878906246,2.2744915771484373,10.304643945312499,10.56206940047143
2.0641631434966423,-0.49320554199218747,2.288856787109375,10.572794531249999,10.828947377219004
2.066650087043024,-0.5219359619140624,2.31758720703125,10.759542260742187,11.01868310059016
2.0691370305894057,-0.5506663818359374,2.3511060302734372,10.8409451171875,11.106620731056946
2.071623974135787,-0.5889736083984375,2.39420166015625,10.831368310546875,11.108448630641629
2.0741109176821686,-0.612915625,2.4516625,10.74517705078125,11.038348809034412
2.07659786122855,-0.6177040283203125,2.50912333984375,10.59194814453125,10.902597107918405
2.0790848047749315,-0.6177040283203125,2.5617957763671875,10.376469995117187,10.70586219909369
2.081571748321313,-0.612915625,2.6096798095703124,10.127473022460936,10.47624952416284
2.0840586918676944,-0.603338818359375,2.6527754394531247,9.830592016601562,10.200086992706257
2.086545635414076,-0.584185205078125,2.6671406494140624,9.524134204101562,9.907776942146322
2.0890325789604574,-0.5746083984375,2.6671406494140624,9.241618408203124,9.635939230721135
2.091519522506839,-0.5602431884765625,2.6671406494140624,8.992621435546875,9.3965287184709
2.0940064660532203,-0.5363011718749999,2.6527754394531247,8.786720092773438,9.194089757440302
2.096493409599602,-0.51714755859375,2.6336218261718747,8.652644799804687,9.059341452458641
2.0989803531459836,-0.49799394531249996,2.5953145996093747,8.580818749999999,8.978535863985009
2.101467296692365,-0.4836287353515625,2.5522189697265625,8.580818749999999,8.965387266785601
2.1039542402387466,-0.4740519287109375,2.499546533203125,8.647856396484375,9.014315190682986
2.106441183785128,-0.4740519287109375,2.4660277099609376,8.762778076171875,9.115497655621892
2.1089281273315095,-0.4836287353515625,2.427720483398437,8.901641772460938,9.239423669493222
2.111415070877891,-0.4836287353515625,2.384624853515625,9.093177905273437,9.413087530805988
2.1139020144242724,-0.49799394531249996,2.35589443359375,9.294290844726563,9.601149871665056
2.116388957970654,-0.5123591552734374,2.3415292236328122,9.490615380859374,9.788618458011504
2.1188759015170353,-0.5267243652343749,2.3319524169921872,9.682151513671874,9.97293831153817
2.121362845063417,-0.55545478515625,2.3367408203125,9.840168823242188,10.129057712816886
2.1238497886097982,-0.5793968017578125,2.375048046875,9.993397729492187,10.288078151854775
2.12633673215618,-0.603338818359375,2.398990063476562,10.103531005859374,10.40194740617161
2.1288236757025616,-0.6177040283203125,2.437297290039062,10.141838232421874,10.44886879424031
2.131310619248943,-0.6272808349609375,2.4851813232421875,10.151415039062499,10.469996883982601
2.1337975627953245,-0.63206923828125,2.518700146484375,10.137049829101562,10.464374858899593
2.1362845063417057,-0.6368576416015624,2.5474305664062498,10.065223779296874,10.402101704638847
2.1387714498880874,-0.6416460449218749,2.5953145996093747,9.926360083007811,10.280077432365978
2.141258393434469,-0.6368576416015624,2.6144682128906247,9.787496386718749,10.150670776451888
2.1437453369808503,-0.63206923828125,2.6336218261718747,9.658209497070311,10.030776945709114
2.146232280527232,-0.622492431640625,2.6527754394531247,9.509768994140625,9.892442604409387
2.1487192240736133,-0.5985504150390625,2.6623522460937497,9.366116894531249,9.755538312345841
2.151206167619995,-0.5889736083984375,2.6479870361328124,9.251195214843749,9.640712533732412
2.153693111166376,-0.5889736083984375,2.6240450195312497,9.17458076171875,9.56061893023754
2.156180054712758,-0.565031591796875,2.5953145996093747,9.093177905273437,9.473162248564472
2.1586669982591395,-0.5458779785156249,2.5713725830078125,9.04050546875,9.414917889104037
2.161153941805521,-0.5363011718749999,2.5522189697265625,9.054870678710937,9.422957265347524
2.1636408853519025,-0.5267243652343749,2.528276953125,9.0788126953125,9.438986326147635
2.1661278288982837,-0.5219359619140624,2.4899697265625,9.126696728515624,9.474648255309253
2.1686147724446654,-0.51714755859375,2.461239306640625,9.222464794921875,9.55923623599112
2.171101715991047,-0.5123591552734374,2.446874096679687,9.313444458007812,9.643129804238402
2.1735886595374283,-0.51714755859375,2.442085693359375,9.409212524414063,9.734706182554278
2.17607560308381,-0.51714755859375,2.43250888671875,9.504980590820312,9.824927333736165
2.178562546630191,-0.5123591552734374,2.43250888671875,9.586383447265625,9.903451872249725
2.181049490176573,-0.51714755859375,2.446874096679687,9.672574707031249,9.990662435767819
2.1835364337229546,-0.5267243652343749,2.47081611328125,9.744400756835937,10.066564306276824
2.186023377269336,-0.5410895751953124,2.4899697265625,9.792284790039062,10.11837776408912
2.1885103208157175,-0.5410895751953124,2.50912333984375,9.801861596679688,10.132372309750455
2.1909972643620987,-0.5506663818359374,2.5330653564453125,9.80665,10.143472668992986
2.1934842079084804,-0.5602431884765625,2.5570073730468748,9.80665,10.15000213588896
2.1959711514548617,-0.5506663818359374,2.5617957763671875,9.782707983398437,10.127556790872346
2.1984580950012433,-0.5506663818359374,2.5665841796874997,9.744400756835937,10.091775558608663
2.200945038547625,-0.55545478515625,2.5809493896484375,9.696516723632811,10.049490849887391
2.2034319820940063,-0.5458779785156249,2.5809493896484375,9.624690673828125,9.979677003101305
2.205918925640388,-0.5410895751953124,2.5761609863281247,9.557653027343749,9.913531900738368
2.208405869186769,-0.5363011718749999,2.5713725830078125,9.485826977539062,9.842788698098046
2.210892812733151,-0.5315127685546874,2.5665841796874997,9.409212524414063,9.767453122700374
2.2133797562795325,-0.5123591552734374,2.5474305664062498,9.361328491210937,9.715265591583744
2.2158666998259138,-0.507570751953125,2.5378537597656248,9.327809667968749,9.68020469701163
2.2183536433722955,-0.5027823486328125,2.518700146484375,9.284714038085937,9.633408290269193
2.2208405869186767,-0.49320554199218747,2.5043349365234375,9.275137231445312,9.619933255646146
2.2233275304650584,-0.4836287353515625,2.4947581298828125,9.294290844726563,9.63543238192465
2.2258144740114396,-0.488417138671875,2.480392919921875,9.3086560546875,9.645826967296129
2.2283014175578213,-0.488417138671875,2.47081611328125,9.337386474609374,9.671104887406441
2.230788361104203,-0.47884033203125,2.4660277099609376,9.375693701171874,9.706400625776217
2.233275304650584,-0.4836287353515625,2.4660277099609376,9.409212524414063,9.739017904775789
2.235762248196966,-0.488417138671875,2.461239306640625,9.447519750976562,9.775064177333748
2.238249191743347,-0.49320554199218747,2.461239306640625,9.481038574218749,9.807703251884638
2.240736135289729,-0.49799394531249996,2.47081611328125,9.5384994140625,9.865895869473224
2.2432230788361105,-0.5027823486328125,2.4756045166015626,9.576806640625,9.904374449940486
2.2457100223824917,-0.5123591552734374,2.480392919921875,9.595960253906249,9.92458130783055
2.2481969659288734,-0.5219359619140624,2.4851813232421875,9.634267480468749,9.963315374058405
2.2506839094752547,-0.5267243652343749,2.4899697265625,9.643844287109374,9.974022279408715
2.2531708530216363,-0.5315127685546874,2.50912333984375,9.639055883789062,9.97444755806024
2.2556577965680176,-0.5219359619140624,2.5330653564453125,9.639055883789062,9.979991762480124
2.2581447401143993,-0.5315127685546874,2.5330653564453125,9.6151138671875,9.957376190650901
2.260631683660781,-0.5315127685546874,2.5234885498046875,9.600748657226562,9.94107011661067
2.263118627207162,-0.5315127685546874,2.5234885498046875,9.576806640625,9.917949672994471
2.265605570753544,-0.5315127685546874,2.5234885498046875,9.533711010742186,9.876342740127988
2.268092514299925,-0.51714755859375,2.50912333984375,9.495403784179686,9.834929311211242
2.2705794578463068,-0.507570751953125,2.499546533203125,9.481038574218749,9.818118627604267
2.2730664013926885,-0.5219359619140624,2.4947581298828125,9.476250170898437,9.813029734817286
2.2755533449390697,-0.5219359619140624,2.4899697265625,9.466673364257812,9.80256451001906
2.2780402884854514,-0.5267243652343749,2.480392919921875,9.452308154296874,9.786517104563671
2.2805272320318326,-0.5267243652343749,2.47081611328125,9.452308154296874,9.784094248645042
2.2830141755782143,-0.5219359619140624,2.4660277099609376,9.433154541015625,9.764123842379204
2.2855011191245955,-0.5267243652343749,2.461239306640625,9.433154541015625,9.763172746406164
2.287988062670977,-0.5267243652343749,2.461239306640625,9.437942944335937,9.767799368436314
2.290475006217359,-0.5267243652343749,2.47081611328125,9.437942944335937,9.770216877998273
2.29296194976374,-0.5219359619140624,2.4660277099609376,9.447519750976562,9.778002825716845
2.295448893310122,-0.5315127685546874,2.4756045166015626,9.466673364257812,9.799440194791897
2.297935836856503,-0.5458779785156249,2.480392919921875,9.490615380859374,9.824566764597378
2.3004227804028847,-0.5458779785156249,2.4851813232421875,9.524134204101562,9.858156080857992
2.3029097239492664,-0.5602431884765625,2.4899697265625,9.562441430664062,9.897176758263575
2.3053966674956476,-0.565031591796875,2.499546533203125,9.576806640625,9.913738901307385
2.3078836110420293,-0.5602431884765625,2.50912333984375,9.581595043945311,9.920510871469292
2.3103705545884106,-0.565031591796875,2.518700146484375,9.586383447265625,9.92783252908898
2.3128574981347922,-0.565031591796875,2.5426421630859375,9.576806640625,9.924692201834269
2.315344441681174,-0.5602431884765625,2.5617957763671875,9.495403784179686,9.850855955431541
2.317831385227555,-0.5793968017578125,2.5665841796874997,9.495403784179686,9.853210036831817
2.320318328773937,-0.5793968017578125,2.5665841796874997,9.490615380859374,9.848595601034386
2.322805272320318,-0.5698199951171875,2.5713725830078125,9.490615380859374,9.849285867253734
2.3252922158666998,-0.565031591796875,2.5713725830078125,9.481038574218749,9.839782015176793
2.327779159413081,-0.5698199951171875,2.5665841796874997,9.490615380859374,9.848036834093485
2.3302661029594627,-0.5698199951171875,2.5713725830078125,9.5001921875,9.858514258594733
2.3327530465058444,-0.565031591796875,2.5665841796874997,9.5001921875,9.856990750253685
2.3352399900522256,-0.5602431884765625,2.5522189697265625,9.519345800781249,9.871455747483148
2.3377269335986073,-0.565031591796875,2.5474305664062498,9.524134204101562,9.875109899546773
2.3402138771449885,-0.55545478515625,2.5426421630859375,9.519345800781249,9.868713374230042
2.34270082069137,-0.5602431884765625,2.528276953125,9.528922607421874,9.87453405686431
2.345187764237752,-0.565031591796875,2.518700146484375,9.524134204101562,9.867737504887645
2.347674707784133,-0.5602431884765625,2.5139117431640625,9.519345800781249,9.861621020780719
2.350161651330515,-0.55545478515625,2.499546533203125,9.519345800781249,9.85769787348204
2.352648594876896,-0.55545478515625,2.4947581298828125,9.514557397460937,9.85186026162308
2.3551355384232777,-0.55545478515625,2.5043349365234375,9.519345800781249,9.858913123032195
2.357622481969659,-0.5506663818359374,2.50912333984375,9.528922607421874,9.869108341530588
2.3601094255160406,-0.5458779785156249,2.499546533203125,9.5384994140625,9.875661330318426
2.3625963690624223,-0.5363011718749999,2.4947581298828125,9.543287817382812,9.878551484857386
2.3650833126088036,-0.5506663818359374,2.499546533203125,9.5384994140625,9.875927166995648
2.3675702561551852,-0.5410895751953124,2.50912333984375,9.533711010742186,9.87320229202666
2.3700571997015665,-0.5315127685546874,2.518700146484375,9.528922607421874,9.870497571514456
2.372544143247948,-0.5267243652343749,2.518700146484375,9.514557397460937,9.856373138959919
2.37503108679433,-0.5315127685546874,2.518700146484375,9.5001921875,9.84276423828556
2.377518030340711,-0.5315127685546874,2.5234885498046875,9.481038574218749,9.825507250516683
2.3800049738870928,-0.5315127685546874,2.5234885498046875,9.476250170898437,9.820886802401537
2.382491917433474,-0.5363011718749999,2.5139117431640625,9.490615380859374,9.832555695584805
2.3849788609798557,-0.5267243652343749,2.50912333984375,9.490615380859374,9.830814757632488
2.387465804526237,-0.51714755859375,2.518700146484375,9.476250170898437,9.8188904325648
2.3899527480726186,-0.51714755859375,2.518700146484375,9.481038574218749,9.823511819664278
2.3924396916190003,-0.5219359619140624,2.50912333984375,9.490615380859374,9.83055936304198
2.3949266351653815,-0.507570751953125,2.499546533203125,9.490615380859374,9.82736695393484
2.397413578711763,-0.5027823486328125,2.4947581298828125,9.495403784179686,9.830529041782391
2.3999005222581444,-0.507570751953125,2.4899697265625,9.504980590820312,9.838812598037775
2.402387465804526,-0.507570751953125,2.4947581298828125,9.504980590820312,9.840025519617594
2.404874409350908,-0.51714755859375,2.4947581298828125,9.509768994140625,9.845149366357743
2.407361352897289,-0.51714755859375,2.4947581298828125,9.514557397460937,9.849774728061272
2.4098482964436707,-0.5027823486328125,2.4947581298828125,9.504980590820312,9.839779684961648
2.412335239990052,-0.5027823486328125,2.5043349365234375,9.5001921875,9.837587873245383
2.4148221835364336,-0.51714755859375,2.50912333984375,9.495403784179686,9.834929311211242
2.417309127082815,-0.51714755859375,2.50912333984375,9.485826977539062,9.825683435757332
2.4197960706291965,-0.5123591552734374,2.5139117431640625,9.490615380859374,9.8312788824148
2.4222830141755782,-0.5219359619140624,2.50912333984375,9.495403784179686,9.835182261020977
2.4247699577219595,-0.5219359619140624,2.50912333984375,9.509768994140625,9.849051903853802
2.427256901268341,-0.51714755859375,2.50912333984375,9.514557397460937,9.853422958621373
2.4297438448147224,-0.5267243652343749,2.518700146484375,9.514557397460937,9.856373138959919
2.432230788361104,-0.5315127685546874,2.5234885498046875,9.509768994140625,9.853233307196701
2.4347177319074857,-0.5315127685546874,2.518700146484375,9.5001921875,9.84276423828556
2.437204675453867,-0.5315127685546874,2.518700146484375,9.490615380859374,9.83352106615131
2.4396916190002487,-0.5363011718749999,2.5139117431640625,9.495403784179686,9.837177655404348
2.44217856254663,-0.5410895751953124,2.5139117431640625,9.5001921875,9.84206186630826
2.4446655060930116,-0.5410895751953124,2.50912333984375,9.490615380859374,9.831594894539656
2.4471524496393933,-0.5363011718749999,2.50912333984375,9.5001921875,9.840577751379193
2.4496393931857745,-0.5315127685546874,2.5043349365234375,9.514557397460937,9.852969185327192
2.452126336732156,-0.5315127685546874,2.50912333984375,9.519345800781249,9.858810792004121
2.4546132802785374,-0.5315127685546874,2.5043349365234375,9.524134204101562,9.862217379228964
2.457100223824919,-0.5315127685546874,2.499546533203125,9.5384994140625,9.87487770895696
2.4595871673713003,-0.5363011718749999,2.499546533203125,9.543287817382812,9.879761848547233
2.462074110917682,-0.5410895751953124,2.5043349365234375,9.5384994140625,9.876610879990542
2.4645610544640637,-0.5458779785156249,2.499546533203125,9.5384994140625,9.875661330318426
2.467047998010445,-0.5410895751953124,2.4947581298828125,9.5384994140625,9.874186909668667
2.4695349415568266,-0.55545478515625,2.50912333984375,9.528922607421874,9.869376677943615
2.472021885103208,-0.55545478515625,2.518700146484375,9.519345800781249,9.862571922227234
2.4745088286495895,-0.5410895751953124,2.5234885498046875,9.504980590820312,9.849133384275556
2.4769957721959712,-0.5410895751953124,2.528276953125,9.504980590820312,9.85036132900509
2.4794827157423525,-0.5458779785156249,2.518700146484375,9.495403784179686,9.838929119571022
2.481969659288734,-0.5506663818359374,2.528276953125,9.481038574218749,9.827792746166923
2.4844566028351154,-0.5506663818359374,2.528276953125,9.485826977539062,9.832412281001808
2.486943546381497,-0.5506663818359374,2.5234885498046875,9.495403784179686,9.840422803400957
2.4894304899278783,-0.5602431884765625,2.5330653564453125,9.485826977539062,9.834185577772349
2.49191743347426,-0.5458779785156249,2.5234885498046875,9.481038574218749,9.826294809044127
2.4944043770206417,-0.5363011718749999,2.50912333984375,9.504980590820312,9.845200603003171
2.496891320567023,-0.55545478515625,2.518700146484375,9.504980590820312,9.848707350618366
2.4993782641134046,-0.55545478515625,2.5234885498046875,9.519345800781249,9.863795869451067
2.501865207659786,-0.55545478515625,2.5139117431640625,9.5384994140625,9.87984075493334
2.5043521512061675,-0.5602431884765625,2.50912333984375,9.5384994140625,9.878893836703261
2.506839094752549,-0.5506663818359374,2.5139117431640625,9.524134204101562,9.865704133727089
2.5093260382989304,-0.55545478515625,2.5139117431640625,9.514557397460937,9.856727892173437
2.511812981845312,-0.5506663818359374,2.5234885498046875,9.504980590820312,9.849664154525803
2.5142999253916933,-0.5506663818359374,2.528276953125,9.5001921875,9.846271853611565
2.516786868938075,-0.5506663818359374,2.5234885498046875,9.490615380859374,9.835802368514944
2.5192738124844563,-0.5458779785156249,2.5234885498046875,9.476250170898437,9.821674731423167
2.521760756030838,-0.5410895751953124,2.5234885498046875,9.481038574218749,9.826029963072791
2.5242476995772196,-0.5410895751953124,2.518700146484375,9.504980590820312,9.847907614724882
2.526734643123601,-0.5458779785156249,2.518700146484375,9.514557397460937,9.857415262882423
2.5292215866699825,-0.5458779785156249,2.5234885498046875,9.504980590820312,9.849397609006072
2.5317085302163638,-0.5410895751953124,2.5043349365234375,9.504980590820312,9.844243365264175
2.5341954737627455,-0.5410895751953124,2.499546533203125,9.514557397460937,9.852274522647622
2.536682417309127,-0.5506663818359374,2.5139117431640625,9.519345800781249,9.86108159338285
2.5391693608555084,-0.5410895751953124,2.5043349365234375,9.524134204101562,9.862738146195213
2.54165630440189,-0.5410895751953124,2.499546533203125,9.5384994140625,9.875397808296304
2.5441432479482713,-0.5410895751953124,2.5043349365234375,9.548076220703125,9.885860150691663
2.546630191494653,-0.5363011718749999,2.50912333984375,9.5384994140625,9.877564980984625
2.549117135041034,-0.5315127685546874,2.50912333984375,9.519345800781249,9.858810792004121
2.551604078587416,-0.5363011718749999,2.5139117431640625,9.504980590820312,9.846422052260584
2.5540910221337976,-0.5410895751953124,2.5139117431640625,9.495403784179686,9.837439870485467
2.556577965680179,-0.5363011718749999,2.5139117431640625,9.485826977539062,9.827933895136889
2.5590649092265605,-0.5363011718749999,2.518700146484375,9.481038574218749,9.824538758673548
2.5615518527729417,-0.5410895751953124,2.5234885498046875,9.485826977539062,9.830650326259615
2.5640387963193234,-0.5410895751953124,2.5330653564453125,9.481038574218749,9.828493804964845
2.566525739865705,-0.5458779785156249,2.528276953125,9.490615380859374,9.836765089526935
2.5690126834120863,-0.5363011718749999,2.518700146484375,9.490615380859374,9.833781047097776
2.571499626958468,-0.5315127685546874,2.5330653564453125,9.481038574218749,9.827971223451154
2.5739865705048492,-0.5363011718749999,2.528276953125,9.476250170898437,9.822378561229973
2.576473514051231,-0.5219359619140624,2.518700146484375,9.490615380859374,9.83300807909991
2.5789604575976126,-0.5267243652343749,2.518700146484375,9.5001921875,9.842506824192096
2.581447401143994,-0.5315127685546874,2.5139117431640625,9.514557397460937,9.855407680311023
2.5839343446903755,-0.5363011718749999,2.5139117431640625,9.524134204101562,9.864912748580698
2.5864212882367568,-0.5315127685546874,2.5043349365234375,9.528922607421874,9.86684171129061
2.5889082317831384,-0.5219359619140624,2.499546533203125,9.524134204101562,9.860490979546821
2.5913951753295197,-0.5267243652343749,2.4947581298828125,9.514557397460937,9.850282186471947
2.5938821188759014,-0.5267243652343749,2.4947581298828125,9.514557397460937,9.850282186471947
2.596369062422283,-0.5267243652343749,2.4947581298828125,9.519345800781249,9.854907465745152
2.5988560059686643,-0.5315127685546874,2.4947581298828125,9.514557397460937,9.850539397379805
2.601342949515046,-0.5363011718749999,2.5043349365234375,9.524134204101562,9.862476603723005
2.603829893061427,-0.5267243652343749,2.50912333984375,9.5384994140625,9.877049638609238
2.606316836607809,-0.5267243652343749,2.5139117431640625,9.524134204101562,9.864396745218992
2.6088037801541906,-0.5363011718749999,2.518700146484375,9.509768994140625,9.852267540864556
2.611290723700572,-0.5363011718749999,2.50912333984375,9.495403784179686,9.835955058158666
2.6137776672469535,-0.5315127685546874,2.50912333984375,9.490615380859374,9.831072477867806
2.6162646107933347,-0.5315127685546874,2.5139117431640625,9.485826977539062,9.827673759510066
2.6187515543397164,-0.5315127685546874,2.518700146484375,9.471461767578125,9.815036641079402
2.6212384978860976,-0.5315127685546874,2.5139117431640625,9.471461767578125,9.813808949141459
2.6237254414324793,-0.5315127685546874,2.518700146484375,9.471461767578125,9.815036641079402
2.626212384978861,-0.5363011718749999,2.5234885498046875,9.471461767578125,9.816526953186855
2.6286993285252422,-0.5315127685546874,2.5139117431640625,9.495403784179686,9.836917764227204
2.631186272071624,-0.5363011718749999,2.5139117431640625,9.509768994140625,9.851044488849448
2.633673215618005,-0.5363011718749999,2.5234885498046875,9.524134204101562,9.86735758679532
2.636160159164387,-0.5363011718749999,2.50912333984375,9.543287817382812,9.88218909184146
2.6386471027107685,-0.5410895751953124,2.499546533203125,9.548076220703125,9.884648214093877
2.6411340462571498,-0.5315127685546874,2.5043349365234375,9.557653027343749,9.89459098136561
2.6436209898035314,-0.5315127685546874,2.499546533203125,9.557653027343749,9.893380114292464
2.6461079333499127,-0.5315127685546874,2.499546533203125,9.5384994140625,9.87487770895696
2.6485948768962944,-0.5315127685546874,2.50912333984375,9.528922607421874,9.868058158316712
2.6510818204426756,-0.5363011718749999,2.499546533203125,9.509768994140625,9.847388391879374
2.6535687639890573,-0.5363011718749999,2.499546533203125,9.5001921875,9.838140241836273
2.656055707535439,-0.5363011718749999,2.499546533203125,9.5001921875,9.838140241836273
2.65854265108182,-0.5363011718749999,2.50912333984375,9.485826977539062,9.82671014782216
2.661029594628202,-0.5458779785156249,2.5139117431640625,9.471461767578125,9.814597446382638
2.663516538174583,-0.5458779785156249,2.50912333984375,9.476250170898437,9.817993685240872
2.666003481720965,-0.5410895751953124,2.5139117431640625,9.485826977539062,9.828196356840408
2.6684904252673465,-0.5458779785156249,2.5139117431640625,9.495403784179686,9.837704409284738
2.6709773688137277,-0.5506663818359374,2.5139117431640625,9.490615380859374,9.833349684817833
2.6734643123601094,-0.55545478515625,2.518700146484375,9.504980590820312,9.848707350618366
2.6759512559064906,-0.5458779785156249,2.518700146484375,9.5001921875,9.843550416123481
2.6784381994528723,-0.5410895751953124,2.5139117431640625,9.495403784179686,9.837439870485467
2.6809251429992536,-0.5410895751953124,2.50912333984375,9.490615380859374,9.831594894539656
2.6834120865456352,-0.5458779785156249,2.518700146484375,9.485826977539062,9.829687006366814
2.685899030092017,-0.5363011718749999,2.50912333984375,9.495403784179686,9.835955058158666
2.688385973638398,-0.5267243652343749,2.50912333984375,9.514557397460937,9.85393022915521
2.69087291718478,-0.5363011718749999,2.5139117431640625,9.524134204101562,9.864912748580698
2.693359860731161,-0.5506663818359374,2.50912333984375,9.528922607421874,9.869108341530588
2.6958468042775428,-0.5410895751953124,2.5043349365234375,9.528922607421874,9.867362234199806
2.6983337478239244,-0.5410895751953124,2.5139117431640625,9.528922607421874,9.869797173145907
2.7008206913703057,-0.5410895751953124,2.518700146484375,9.519345800781249,9.861773310674762
2.7033076349166874,-0.5315127685546874,2.518700146484375,9.509768994140625,9.852008047751255
2.7057945784630686,-0.5363011718749999,2.5139117431640625,9.509768994140625,9.851044488849448
2.7082815220094503,-0.5363011718749999,2.518700146484375,9.519345800781249,9.86151174261363
2.7107684655558315,-0.5363011718749999,2.518700146484375,9.533711010742186,9.875379233791566
2.713255409102213,-0.5363011718749999,2.5234885498046875,9.533711010742186,9.876601593883224
2.715742352648595,-0.5315127685546874,2.5234885498046875,9.519345800781249,9.862476603723003
2.718229296194976,-0.5363011718749999,2.5234885498046875,9.514557397460937,9.858114215078283
2.720716239741358,-0.5363011718749999,2.5234885498046875,9.5001921875,9.844250352738186
2.723203183287739,-0.5315127685546874,2.5234885498046875,9.490615380859374,9.83474862879253
2.7256901268341207,0.5746083984375,1.0726023437499999,19.823989746093748,19.86129955598583
2.7281770703805024,-0.009576806640625,0.5793968017578125,23.281216943359375,23.28842748518835
2.7306640139268836,-0.59376201171875,0.24899697265624998,25.311499951171875,25.319687648095623
2.7331509574732653,-1.1444283935546875,0.09576806640624999,25.847801123046874,25.873301118471538
2.7356379010196465,-1.637633935546875,0.143652099609375,24.928427685546872,24.98257368059017
2.7381248445660282,-2.0350714111328125,0.3591302490234375,22.74012736816406,22.833831980298395
2.74061178811241,-2.327164013671875,0.7230489013671875,19.589357983398436,19.74035051011085
2.743098731658791,-2.499546533203125,1.2210428466796874,15.773000537109374,16.01643607200828
2.745585675205173,-2.5474305664062498,1.7860744384765623,11.693280908203125,12.10009432973925
2.748072618751554,-2.4660277099609376,2.375048046875,7.723694555664062,8.448526704725186
2.7505595622979357,-2.2649147705078123,2.9544448486328125,4.170699291992188,5.590466515909164
2.753046505844317,-1.9776105712890624,3.4715924072265625,1.3359645263671873,4.212801755281023
2.7555334493906987,-1.618480322265625,3.902548706054687,-0.5985504150390625,4.267039671251439
2.7580203929370803,-1.2210428466796874,4.2137949218749995,-1.5227122558593749,4.64388478444411
2.7605073364834616,-0.7805097412109374,4.395754248046875,-1.4508862060546874,4.694349970791172
2.7629942800298433,-0.354341845703125,4.4196962646484375,-0.43574470214843747,4.455238114939995
2.7654812235762245,0.033518823242187495,4.285620971679688,1.37906015625,4.502163650842622
2.767968167122606,0.37828386230468747,4.04141240234375,3.7301661865234372,5.512735497498572
2.770455110668988,0.6464344482421874,3.69664736328125,6.41646044921875,7.433306392226603
2.772942054215369,0.82360537109375,3.2704794677734372,9.208099584960937,9.806296942423266
2.775428997761751,0.928950244140625,2.8107927490234372,11.81777939453125,12.182914850390242
2.777915941308132,0.9337386474609375,2.3415292236328122,14.025233325195313,14.249975326050842
2.7804028848545137,0.8379705810546875,1.89620771484375,15.705962890624999,15.842192673813676
2.782889828400895,0.6703764648437499,1.5370774658203123,16.749834814453123,16.833567003223497
2.7853767719472766,0.44532150878906246,1.2641384765625,17.085023046874998,17.13751352578214
2.7878637154936583,0.16280571289062498,1.0773907470703123,16.72589279785156,16.76134739235618
2.7903506590400395,-0.15322890625,1.0103531005859374,15.796942553710936,15.82996167180507
2.792837602586421,-0.4644751220703125,1.0773907470703123,14.398728784179687,14.446449340971629
2.7953245461328025,-0.7661445312499999,1.2306196533203124,12.655749975585938,12.738501074241269
2.797811489679184,-1.0390835205078124,1.47482822265625,10.754753857421875,10.905023768092622
2.800298433225566,-1.2737152832031249,1.7956512451171873,8.901641772460938,9.16983861700835
2.802785376771947,-1.4604630126953124,2.1547814941406247,7.230489013671875,7.684790620164719
2.8052723203183287,-1.5849614990234373,2.5234885498046875,5.8610056640625,6.575065384355861
2.80775926386471,-1.6232687255859375,2.868253588867187,4.898536596679687,5.904027506247333
2.8102462074110917,-1.5849614990234373,3.1747114013671873,4.410119458007812,5.660393013674629
2.812733150957473,-1.5131354492187499,3.4332851806640625,4.4005426513671875,5.7828886938926685
2.8152200945038546,-1.37906015625,3.5960908935546874,4.8314989501953125,6.1787586726624655
2.8177070380502363,-1.197100830078125,3.67749375,5.626373901367187,6.827378263773629
2.8201939815966175,-0.9911994873046874,3.6679169433593746,6.7037646484375,7.705618183420213
2.822680925142999,-0.7565677246093749,3.5817256835937497,7.939172705078125,8.742517762949825
2.8251678686893804,-0.5219359619140624,3.4093431640625,9.208099584960937,9.83286000740561
2.827654812235762,-0.296881005859375,3.1747114013671873,10.433930834960936,10.910263217831158
2.8301417557821438,-0.09576806640624999,2.906560815429687,11.501744775390625,11.863700947620014
2.832628699328525,0.062249243164062495,2.6240450195312497,12.301408129882812,12.578319808732333
2.8351156428749067,0.17238251953125,2.327164013671875,12.818555688476561,13.029227836604292
2.837602586421288,0.239420166015625,2.068590234375,13.010091821289063,13.175692648662503
2.8400895299676696,0.2537853759765625,1.85790048828125,12.876016528320312,13.011840872028566
2.842576473514051,0.22505495605468748,1.695094775390625,12.459425439453124,12.5762187605056
2.8450634170604325,0.1388636962890625,1.6041151123046875,11.8369330078125,11.945938701128195
2.847550360606814,0.023942016601562498,1.5897499023437498,11.051634863281249,11.165415850896663
2.8500373041531954,-0.09576806640624999,1.637633935546875,10.189722265624999,10.320923228082448
2.852524247699577,-0.27293898925781246,1.7477672119140624,9.323021264648437,9.489357798080219
2.8550111912459584,-0.45968671875,1.9201497314453124,8.532934716796875,8.758382370716754
2.85749813479234,-0.612915625,2.1260510742187497,7.881711865234375,8.186399737377364
2.8599850783387217,-0.7661445312499999,2.3415292236328122,7.41244833984375,7.811154008131137
2.862472021885103,-0.9002198242187499,2.5713725830078125,7.1586629638671875,7.659556653149348
2.8649589654314846,-1.005564697265625,2.7820623291015623,7.129932543945312,7.719259630599517
2.867445908977866,-1.0821791503906248,2.9735984619140625,7.307103466796875,7.962861332505594
2.8699328525242476,-1.1156979736328125,3.1124621582031247,7.656656909179687,8.340059812705412
2.8724197960706292,-1.1156979736328125,3.189076611328125,8.135497241210937,8.809160400573894
2.8749067396170105,-1.0773907470703123,3.2321722412109373,8.705317236328124,9.348275584504277
2.877393683163392,-1.0199299072265624,3.21780703125,9.3086560546875,9.90179865733935
2.8798806267097734,-0.9241618408203125,3.1364041748046874,9.883264453125,10.41009233898359
2.882367570256155,-0.8044517578125,3.0166940917968748,10.381258398437499,10.840577097611497
2.8848545138025363,-0.689530078125,2.868253588867187,10.773907470703124,11.170470561527887
2.887341457348918,-0.565031591796875,2.70065947265625,11.027692846679686,11.36762208237443
2.8898284008952997,-0.43574470214843747,2.5330653564453125,11.133037719726563,11.425883878909687
2.892315344441681,-0.33518823242187495,2.35589443359375,11.089942089843749,11.342372119159204
2.8948022879880626,-0.2442085693359375,2.2026655273437497,10.9175595703125,11.140219038331683
2.897289231534444,-0.16759411621093748,2.0877438476562498,10.635043774414061,10.83932277612021
2.8997761750808255,-0.1197100830078125,2.0063409912109376,10.261548315429687,10.456534249304827
2.902263118627207,-0.105344873046875,1.9680337646484374,9.849745629882811,10.044985983786592
2.9047500621735884,-0.1149216796875,1.9680337646484374,9.442731347656249,9.646322573668604
2.90723700571997,-0.143652099609375,2.01112939453125,9.069235888671875,9.290657510189671
2.9097239492663514,-0.19632453613281248,2.0781670410156248,8.762778076171875,9.007974310914184
2.912210892812733,-0.27293898925781246,2.1835119140624997,8.556876733398436,8.83529056688491
2.9146978363591143,-0.3591302490234375,2.3127988037109373,8.437166650390624,8.755786311272914
2.917184779905496,-0.44532150878906246,2.442085693359375,8.418013037109375,8.776390902463502
2.9196717234518776,-0.5410895751953124,2.5713725830078125,8.504204296874999,8.900911504560446
2.922158666998259,-0.6368576416015624,2.6958710693359373,8.657433203124999,9.08979967572003
2.9246456105446406,-0.70868369140625,2.8012159423828122,8.863334545898438,9.322432225703842
2.927132554091022,-0.7709329345703124,2.877830395507812,9.121908325195312,9.59611675982433
2.9296194976374035,-0.8188169677734375,2.920926025390625,9.399635717773437,9.877014817208696
2.932106441183785,-0.842758984375,2.935291235351562,9.658209497070311,10.129520621992713
2.9345933847301664,-0.842758984375,2.920926025390625,9.892841259765625,10.349413497511353
2.937080328276548,-0.8379705810546875,2.863465185546875,10.079588989257813,10.511885737388866
2.9395672718229293,-0.814028564453125,2.786850732421875,10.194510668945313,10.599869210881131
2.942054215369311,-0.7661445312499999,2.6958710693359373,10.237606298828124,10.614296066864352
2.9445411589156922,-0.699106884765625,2.5857377929687497,10.218452685546874,10.563690910712682
2.947028102462074,-0.6368576416015624,2.4851813232421875,10.141838232421874,10.461290388746129
2.9495150460084556,-0.5793968017578125,2.379836450195312,10.01733974609375,10.31243995241839
2.952001989554837,-0.51714755859375,2.288856787109375,9.8449572265625,10.12074551513382
2.9544889331012185,-0.45489831542968745,2.2266075439453124,9.658209497070311,9.921981874677765
2.9569758766475998,-0.40222587890625,2.1835119140624997,9.495403784179686,9.751523109808472
2.9594628201939814,-0.3591302490234375,2.1595698974609374,9.342174877929686,9.59525654308438
2.961949763740363,-0.32561142578124996,2.1691467041015624,9.193734375,9.45177083844983
2.9644367072867444,-0.3064578125,2.1978771240234374,9.083601098632812,9.35074270645017
2.966923650833126,-0.3064578125,2.2457611572265623,9.026140258789061,9.306372415580762
2.9694105943795073,-0.32082302246093747,2.31758720703125,9.0021982421875,9.3012747011138
2.971897537925889,-0.33518823242187495,2.398990063476562,9.016563452148437,9.336269113646646
2.97438448147227,-0.373495458984375,2.4899697265625,9.088389501953124,9.430708978453923
2.976871425018652,-0.4261678955078125,2.5713725830078125,9.193734375,9.556062358202905
2.9793583685650336,-0.4740519287109375,2.6527754394531247,9.323021264648437,9.70467249650225
2.981845312111415,-0.51714755859375,2.710236279296875,9.4618849609375,9.855967192568759
2.9843322556577965,-0.565031591796875,2.7533319091796873,9.591171850585937,9.994532243647406
2.9868191992041777,-0.612915625,2.786850732421875,9.6917283203125,10.103058962656648
2.9893061427505594,-0.6416460449218749,2.786850732421875,9.797073193359374,10.205924250542186
2.991793086296941,-0.6751648681640625,2.77727392578125,9.859322436523437,10.265248996754137
2.9942800298433223,-0.6943184814453125,2.7533319091796873,9.868899243164062,10.26927879782742
2.996766973389704,-0.699106884765625,2.6910826660156246,9.873687646484374,10.257698771751615
2.9992539169360852,-0.699106884765625,2.6336218261718747,9.830592016601562,10.201237854127603
3.001740860482467,-0.679953271484375,2.5809493896484375,9.744400756835937,10.103315411940464
3.0042278040288486,-0.6655880615234374,2.50912333984375,9.672574707031249,10.01485940317146
3.00671474757523,-0.6416460449218749,2.4516625,9.595960253906249,9.924959035452922
3.0092016911216115,-0.612915625,2.398990063476562,9.495403784179686,9.812925757012652
3.0116886346679927,-0.5698199951171875,2.35589443359375,9.404424121093749,9.711751976779642
3.0141755782143744,-0.5315127685546874,2.3319524169921872,9.337386474609374,9.638842984221212
3.0166625217607557,-0.49799394531249996,2.327164013671875,9.284714038085937,9.584863331583158
3.0191494653071373,-0.469263525390625,2.3367408203125,9.255983618164063,9.557918113129986
3.021636408853519,-0.44532150878906246,2.360682836914062,9.251195214843749,9.558020067243984
3.0241233523999003,-0.4261678955078125,2.389413256835937,9.265560424804686,9.57817961685892
3.026610295946282,-0.4213794921875,2.427720483398437,9.289502441406249,9.610735821509257
3.029097239492663,-0.4165910888671875,2.47081611328125,9.337386474609374,9.667743613542504
3.031584183039045,-0.4165910888671875,2.518700146484375,9.394847314453125,9.735530526124966
3.0340711265854265,-0.430956298828125,2.5713725830078125,9.447519750976562,9.800679044700738
3.036558070131808,-0.45010991210937495,2.6096798095703124,9.519345800781249,9.880838634261247
3.0390450136781895,-0.469263525390625,2.6384102294921874,9.576806640625,9.944679091216074
3.0415319572245707,-0.49799394531249996,2.6719290527343746,9.6151138671875,9.9918775768819
3.0440189007709524,-0.5267243652343749,2.6767174560546874,9.634267480468749,10.013059711281915
3.0465058443173336,-0.5506663818359374,2.6671406494140624,9.639055883789062,10.016400103762313
3.0489927878637153,-0.5698199951171875,2.6527754394531247,9.643844287109374,10.018265568101755
3.051479731410097,-0.59376201171875,2.6240450195312497,9.634267480468749,10.002863363872603
3.0539666749564782,-0.6177040283203125,2.6001030029296874,9.610325463867188,9.974991198687906
3.05645361850286,-0.6272808349609375,2.5522189697265625,9.581595043945311,9.935505347062058
3.058940562049241,-0.622492431640625,2.5043349365234375,9.552864624023437,9.895272246212336
3.061427505595623,-0.6272808349609375,2.461239306640625,9.528922607421874,9.8616198582534
3.0639144491420045,-0.6272808349609375,2.43250888671875,9.485826977539062,9.812822946414698
3.0664013926883857,-0.612915625,2.403778466796875,9.447519750976562,9.767775894536982
3.0688883362347674,-0.59376201171875,2.370259643554687,9.418789331054686,9.730584595347489
3.0713752797811487,-0.5793968017578125,2.365471240234375,9.409212524414063,9.719281618095732
3.0738622233275303,-0.5698199951171875,2.375048046875,9.414000927734374,9.725685658049192
3.0763491668739116,-0.5506663818359374,2.379836450195312,9.409212524414063,9.721118007891528
3.0788361104202933,-0.51714755859375,2.389413256835937,9.418789331054686,9.730895630520983
3.081323053966675,-0.5027823486328125,2.418143676757812,9.447519750976562,9.765031406843132
3.083809997513056,-0.49799394531249996,2.4516625,9.471461767578125,9.796286796443248
3.086296941059438,-0.4836287353515625,2.480392919921875,9.495403784179686,9.825931956586624
3.088783884605819,-0.47884033203125,2.50912333984375,9.514557397460937,9.851486713573088
3.091270828152201,-0.4740519287109375,2.5426421630859375,9.533711010742186,9.878329820215747
3.0937577716985825,-0.4740519287109375,2.5617957763671875,9.552864624023437,9.901754660455174
3.0962447152449637,-0.47884033203125,2.5857377929687497,9.562441430664062,9.91743989709276
3.0987316587913454,-0.47884033203125,2.6001030029296874,9.567229833984374,9.925810313808363
3.1012186023377266,-0.49320554199218747,2.5953145996093747,9.557653027343749,9.916029496158757
3.1037055458841083,-0.507570751953125,2.6001030029296874,9.552864624023437,9.913394283443017
3.1061924894304895,-0.5267243652343749,2.5905261962890624,9.557653027343749,9.916501193550301
3.108679432976871,-0.5458779785156249,2.5761609863281247,9.543287817382812,9.899945987747337
3.111166376523253,-0.5506663818359374,2.5570073730468748,9.524134204101562,9.876773385455275
3.113653320069634,-0.5602431884765625,2.5378537597656248,9.5001921875,9.849275391399457
3.116140263616016,-0.5698199951171875,2.5139117431640625,9.490615380859374,9.834440878192215
3.118627207162397,-0.584185205078125,2.4899697265625,9.485826977539062,9.82456793150914
3.1211141507087787,-0.59376201171875,2.461239306640625,9.4618849609375,9.794769995519465
3.1236010942551604,-0.59376201171875,2.437297290039062,9.452308154296874,9.779524571796895
3.1260880378015417,-0.584185205078125,2.43250888671875,9.447519750976562,9.773126484543731
3.1285749813479233,-0.5793968017578125,2.43250888671875,9.437942944335937,9.76358372516943
3.1310619248943046,-0.5698199951171875,2.43250888671875,9.442731347656249,9.767649134505755
3.1335488684406863,-0.5602431884765625,2.437297290039062,9.471461767578125,9.796064440629221
3.136035811987068,-0.5602431884765625,2.446874096679687,9.514557397460937,9.840115230261029
3.138522755533449,-0.5410895751953124,2.47081611328125,9.519345800781249,9.84965251513407
3.141009699079831,-0.5267243652343749,2.4851813232421875,9.528922607421874,9.86174076036067
3.143496642626212,-0.5219359619140624,2.5043349365234375,9.533711010742186,9.870955184731507
3.1459835861725938,-0.5123591552734374,2.528276953125,9.524134204101562,9.867311112630068
3.148470529718975,-0.5027823486328125,2.5474305664062498,9.514557397460937,9.86250450191716
3.1509574732653567,-0.5027823486328125,2.5761609863281247,9.504980590820312,9.860732809961268
3.1534444168117384,-0.5027823486328125,2.5905261962890624,9.504980590820312,9.864495531735388
3.1559313603581196,-0.49799394531249996,2.5905261962890624,9.495403784179686,9.855024960285068
3.1584183039045013,-0.49799394531249996,2.5857377929687497,9.490615380859374,9.849153172276251
3.1609052474508825,-0.49799394531249996,2.5809493896484375,9.485826977539062,9.843282540357277
3.163392190997264,-0.5027823486328125,2.5713725830078125,9.481038574218749,9.836403788812499
3.165879134543646,-0.51714755859375,2.5617957763671875,9.490615380859374,9.843882339025429
3.168366078090027,-0.5315127685546874,2.5522189697265625,9.495403784179686,9.846777163985315
3.170853021636409,-0.5315127685546874,2.5234885498046875,9.495403784179686,9.839369558500481
3.17333996518279,-0.5410895751953124,2.5043349365234375,9.495403784179686,9.834996920553193
3.1758269087291717,-0.5506663818359374,2.4947581298828125,9.490615380859374,9.828470476025513
3.178313852275553,-0.55545478515625,2.4851813232421875,9.495403784179686,9.83093837089617
3.1808007958219346,-0.55545478515625,2.4564509033203126,9.509768994140625,9.837600692277286
3.1832877393683163,-0.565031591796875,2.446874096679687,9.5001921875,9.826500147263346
3.1857746829146976,-0.5746083984375,2.4564509033203126,9.490615380859374,9.82018870283981
3.1882616264610792,-0.565031591796875,2.4660277099609376,9.495403784179686,9.826659981429987
3.1907485700074605,-0.55545478515625,2.47081611328125,9.5001921875,9.831943545578325
3.193235513553842,-0.55545478515625,2.4756045166015626,9.514557397460937,9.847027480948231
3.195722457100224,-0.5506663818359374,2.4899697265625,9.524134204101562,9.859630573252698
3.198209400646605,-0.5363011718749999,2.50912333984375,9.524134204101562,9.863693589079116
3.2006963441929868,-0.5315127685546874,2.528276953125,9.504980590820312,9.849839907669086
3.203183287739368,-0.5363011718749999,2.528276953125,9.5001921875,9.845478906487665
3.2056702312857497,-0.5315127685546874,2.5378537597656248,9.5001921875,9.847682931965734
3.208157174832131,-0.5267243652343749,2.5570073730468748,9.495403784179686,9.847762095388045
3.2106441183785126,-0.5219359619140624,2.5570073730468748,9.490615380859374,9.84289003095939
3.2131310619248943,-0.51714755859375,2.5617957763671875,9.490615380859374,9.843882339025429
3.2156180054712755,-0.51714755859375,2.5665841796874997,9.490615380859374,9.845129570309684
3.218104949017657,-0.5123591552734374,2.5522189697265625,9.5001921875,9.850379950685184
3.2205918925640384,-0.51714755859375,2.5474305664062498,9.5001921875,9.849390625183691
3.22307883611042,-0.5219359619140624,2.5474305664062498,9.495403784179686,9.845024767039133
3.225565779656802,-0.5219359619140624,2.5330653564453125,9.490615380859374,9.836697492337919
