Time (s),Acceleration x (m/s^2),Acceleration y (m/s^2),Acceleration z (m/s^2),Absolute acceleration (m/s^2)
0.0,0.948103857421875,3.31357509765625,-0.45010991210937495,3.4758135429342256
0.002486943546381497,0.4261678955078125,3.821145849609375,4.386177441406249,5.832780402745296
0.004973887092762994,-0.1292868896484375,4.146757275390625,9.3852705078125,10.261365089775099
0.007460830639144491,-0.6512228515624999,4.319139794921875,14.106636181640624,14.767404786611875
0.009947774185525988,-1.158793603515625,4.4196962646484375,18.181567407226563,18.74689070408262
0.012434717731907486,-1.6519991455078125,4.314351391601562,21.394586035156248,21.88769153480274
0.014921661278288981,-1.9728221679687499,4.11802685546875,23.439234252929687,23.879863375917857
0.01740860482467048,-2.1835119140624997,3.7924154296875,24.277204833984374,24.668457868732265
0.019895548371051976,-2.27927998046875,3.4093431640625,23.889344165039063,24.238801593218078
0.022382491917433474,-2.1883003173828124,2.906560815429687,22.347478295898437,22.641699146453227
0.02486943546381497,-1.9871873779296874,2.4899697265625,19.900604199218748,20.153980014085647
0.027356379010196465,-1.675941162109375,2.068590234375,16.72110439453125,16.93172101439828
0.029843322556577963,-1.3407529296874998,1.6232687255859375,13.072341064453123,13.240797584712125
0.032330266102959464,-0.967257470703125,1.3551181396484375,9.34696328125,9.494085251780238
0.03481720964934096,-0.45489831542968745,1.20667763671875,5.870582470703124,6.010552548781577
0.03730415319572245,-0.0526724365234375,1.1540052001953125,2.839523168945312,3.065516957158183
0.03979109674210395,0.27293898925781246,1.1827356201171875,0.4644751220703125,1.2996524065969701
0.04227804028848545,0.565031591796875,1.3120225097656248,-1.0438719238281249,1.7692745290702712
0.04476498383486695,0.718260498046875,1.5466542724609373,-1.6615759521484375,2.380939357970757
0.04725192738124844,0.7661445312499999,1.9105729248046874,-1.2689268798828124,2.418148417746551
0.04973887092762994,0.7805097412109374,2.221819140625,-0.0909796630859375,2.356682636433682
0.05222581447401144,0.5793968017578125,2.5713725830078125,1.8004396484374998,3.1920589816288167
0.05471275802039293,0.37828386230468747,2.925714428710937,4.204218115234375,5.135986133091911
0.05719970156677443,0.08140285644531249,3.2034418212890623,6.9527616210937495,7.655688087113752
0.059686645113155926,-0.2346317626953125,3.4763808105468748,9.739612353515625,10.344096113279218
0.062173588659537427,-0.6081272216796875,3.5960908935546874,12.382810986328124,12.90874495664018
0.06466053220591893,-0.9002198242187499,3.67749375,14.623783740234375,15.10593945752295
0.06714747575230041,-1.197100830078125,3.6296097167968746,16.33803212890625,16.779106380818167
0.06963441929868192,-1.3407529296874998,3.5577836669921874,17.401057666015625,17.811576318102315
0.07212136284506342,-1.5275006591796874,3.31357509765625,17.731457495117187,18.10297276948594
0.0746083063914449,-1.5610194824218748,3.1938650146484373,17.420211279296876,17.779238357467342
0.0770952499378264,-1.5610194824218748,2.906560815429687,16.443377001953124,16.771091939007814
0.0795821934842079,-1.455674609375,2.6240450195312497,14.973337182617186,15.271065032185941
0.0820691370305894,-1.254561669921875,2.29843359375,13.057975854492186,13.31793735474892
0.0845560805769709,-1.0295067138671874,2.0781670410156248,10.946289990234375,11.189277316903292
0.0870430241233524,-0.7948749511718749,1.9201497314453124,8.858546142578124,9.099046155469031
0.0895299676697339,-0.47884033203125,1.7429788085937499,6.885723974609375,7.119020848775273
0.09201691121611538,-0.28730419921875,1.656787548828125,5.238513232421875,5.501773311496914
0.09450385476249688,-0.0047884033203125,1.6711527587890624,3.9743747558593747,4.311430061131332
0.09699079830887838,0.1292868896484375,1.7286135986328124,3.1794998046874996,3.621331120074647
0.09947774185525989,0.239420166015625,1.89620771484375,3.0597897216796874,3.607663905441382
0.10196468540164137,0.3064578125,2.0302830078125,3.394977954101562,3.96759886978133
0.10445162894802287,0.3064578125,2.269703173828125,4.266467358398438,4.842335449801789
0.10693857249440437,0.17238251953125,2.518700146484375,5.492298608398437,6.044742357185768
0.10942551604078586,0.028730419921875,2.7054478759765623,7.043741284179687,7.545499647148112
0.11191245958716736,-0.143652099609375,2.896984008789062,8.662221606445312,9.134945836296444
0.11439940313354886,-0.33518823242187495,3.0597897216796874,10.32379755859375,10.772903987452827
0.11688634667993036,-0.5315127685546874,3.208230224609375,11.8369330078125,12.275513432385418
0.11937329022631185,-0.7565677246093749,3.2704794677734372,13.000515014648437,13.426906617577545
0.12186023377269335,-0.9528922607421875,3.27526787109375,13.96298408203125,14.373597592915262
0.12434717731907485,-1.0821791503906248,3.227383837890625,14.42267080078125,14.818925439394242
0.12683412086545634,-1.1731588134765625,3.1555577880859373,14.446612817382812,14.833693688726246
0.12932106441183785,-1.2210428466796874,2.9735984619140625,14.030021728515624,14.393566033083875
0.13180800795821934,-1.1923124267578125,2.8203695556640622,13.268665600585937,13.617399905036583
0.13429495150460083,-1.139639990234375,2.6144682128906247,12.176909643554687,12.50645240709179
0.13678189505098234,-0.9816226806640624,2.4660277099609376,10.941501586914061,11.25883354215401
0.13926883859736383,-0.86191259765625,2.308010400390625,9.667786303710937,9.97676788085854
0.14175578214374532,-0.7230489013671875,2.1356278808593747,8.346186987304687,8.645376995037653
0.14424272569012683,-0.507570751953125,2.0063409912109376,7.153874560546875,7.447211120230935
0.14672966923650832,-0.3399766357421875,1.93451494140625,6.224924316406249,6.527450874296981
0.1492166127828898,-0.2154781494140625,1.9105729248046874,5.5832782714843745,5.905058508660282
0.15170355632927132,-0.0718260498046875,1.9776105712890624,5.295974072265625,5.653622195302277
0.1541904998756528,-0.028730419921875,2.068590234375,5.449202978515625,5.828696603516438
0.15667744342203432,0.0383072265625,2.1547814941406247,5.846640454101562,6.231192127565538
0.1591643869684158,-0.01915361328125,2.2936451904296873,6.574477758789062,6.963112301355983
0.1616513305147973,-0.0526724365234375,2.47081611328125,7.541735229492187,7.936339012604184
0.1641382740611788,-0.1388636962890625,2.5905261962890624,8.628702783203124,9.010250874457618
0.1666252176075603,-0.26815058593749996,2.77727392578125,9.744400756835937,10.136000261710128
0.1691121611539418,-0.39743747558593745,2.916137622070312,10.836156713867187,11.22871798137895
0.1715991047003233,-0.5219359619140624,3.0166940917968748,11.688492504882811,12.082785996140252
0.1740860482467048,-0.6751648681640625,3.0693665283203124,12.445060229492187,12.83574628138404
0.17657299179308628,-0.7948749511718749,3.0502129150390624,12.828132495117186,13.209716436296166
0.1790599353394678,-0.9576806640625,2.9975404785156248,12.899958544921875,13.278227729458543
0.18154687888584928,-1.024718310546875,3.0023288818359375,12.770671655273437,13.158802409698259
0.18403382243223076,-1.0486603271484374,2.8730419921875,12.287042919921875,12.661969929146494
0.18652076597861228,-1.0534487304687499,2.748543505859375,11.587936035156249,11.955940246848035
0.18900770952499377,-0.9816226806640624,2.6575638427734374,10.740388647460938,11.107753011483403
0.19149465307137528,-0.8810662109374999,2.5043349365234375,9.797073193359374,10.150399711262038
0.19398159661775677,-0.7613561279296874,2.384624853515625,8.796296899414061,9.145541973452527
0.19646854016413826,-0.6607996582031249,2.288856787109375,7.915230688476562,8.265978371129407
0.19895548371051977,-0.5506663818359374,2.1978771240234374,7.173028173828125,7.522381969756778
0.20144242725690126,-0.39264907226562495,2.1212626708984375,6.603208178710937,6.946674518378793
0.20392937080328274,-0.2825157958984375,2.1068974609374997,6.277596752929687,6.627748718700066
0.20641631434966426,-0.181959326171875,2.1164742675781247,6.335057592773437,6.681730855508748
0.20890325789604575,-0.17238251953125,2.1595698974609374,6.579266162109374,6.926774220871993
0.21139020144242723,-0.1005564697265625,2.24097275390625,7.091625317382812,7.437958061827111
0.21387714498880875,-0.13407529296874998,2.35589443359375,7.742848168945312,8.094437135080021
0.21636408853519024,-0.19153613281249998,2.418143676757812,8.56166513671875,8.898663655005837
0.21885103208157172,-0.24899697265624998,2.5474305664062498,9.481038574218749,9.820463045543052
0.22133797562795324,-0.3447650390625,2.6767174560546874,10.32379755859375,10.670729839262819
0.22382491917433472,-0.45968671875,2.8012159423828122,11.152191333007812,11.50780144785568
0.22631186272071624,-0.5458779785156249,2.829946362304687,11.722011328125,12.071127899150131
0.22879880626709773,-0.6703764648437499,2.916137622070312,12.157756030273436,12.520554896933298
0.2312857498134792,-0.7565677246093749,3.0119056884765625,12.35408056640625,12.738417375775322
0.23377269335986073,-0.82360537109375,2.9544448486328125,12.296619726562499,12.673354996629481
0.23625963690624222,-0.9193734375,2.925714428710937,12.028469140624999,12.413263966536595
0.2387465804526237,-0.9337386474609375,2.877830395507812,11.482591162109374,11.87449685010793
0.24123352399900522,-0.9241618408203125,2.729389892578125,10.797849487304687,11.175741489683004
0.2437204675453867,-0.8714894042968749,2.6479870361328124,9.9981861328125,10.37954984918389
0.2462074110917682,-0.7805097412109374,2.5713725830078125,9.165003955078124,9.55083503749107
0.2486943546381497,-0.7517793212890624,2.4516625,8.379705810546875,8.763292225707023
0.2511812981845312,-0.6847416748046875,2.3511060302734372,7.651868505859374,8.034155982912269
0.2536682417309127,-0.5746083984375,2.2170307373046874,7.086836914062499,7.447728348176212
0.2561551852772942,-0.45010991210937495,2.2361843505859373,6.746860278320312,7.122025203406753
0.2586421288236757,-0.32082302246093747,2.1978771240234374,6.598419775390624,6.962236335855927
0.26112907237005717,-0.258573779296875,2.2074539306640624,6.694187841796874,7.053500132317655
0.2636160159164387,-0.19153613281249998,2.212242333984375,7.043741284179687,7.385458246642703
0.2661029594628202,-0.1867477294921875,2.29843359375,7.584830859375,7.92763084815863
0.26858990300920166,-0.1771709228515625,2.384624853515625,8.336610180664062,8.672767409094988
0.2710768465555832,-0.2346317626953125,2.43250888671875,9.030928662109375,9.355737493545863
0.2735637901019647,-0.277727392578125,2.5426421630859375,9.8449572265625,10.171791605559749
0.27605073364834615,-0.3447650390625,2.6096798095703124,10.620678564453124,10.942033851623416
0.27853767719472766,-0.45010991210937495,2.7341782958984373,11.286266625976562,11.62145189893989
0.2810246207411092,-0.5267243652343749,2.825157958984375,11.77947216796875,12.124970952793856
0.28351156428749064,-0.6655880615234374,2.85388837890625,12.100295190429687,12.450093575649722
0.28599850783387215,-0.7038952880859375,2.882618798828125,12.210428466796873,12.565807696233074
0.28848545138025367,-0.7565677246093749,2.916137622070312,12.133814013671874,12.50222763635163
0.2909723949266351,-0.8379705810546875,2.877830395507812,11.745953344726562,12.122356307934316
0.29345933847301664,-0.8906430175781249,2.7820623291015623,11.133037719726563,11.509893338194802
0.29594628201939815,-0.9002198242187499,2.7629087158203123,10.496180078124999,10.890998876884543
0.2984332255657796,-0.8379705810546875,2.6671406494140624,9.730035546875,10.123706123842249
0.30092016911216113,-0.7805097412109374,2.5953145996093747,8.911218579101561,9.314218694640768
0.30340711265854264,-0.6943184814453125,2.4133552734375,8.183381274414062,8.56002867471458
0.30589405620492416,-0.6751648681640625,2.370259643554687,7.551312036132812,7.943317433170555
0.3083809997513056,-0.51714755859375,2.327164013671875,7.115567333984375,7.50429426584235
0.31086794329768713,-0.45968671875,2.2361843505859373,6.756437084960937,7.131709080734858
0.31335488684406865,-0.3399766357421875,2.2266075439453124,6.72291826171875,7.0902041734604655
0.3158418303904501,-0.296881005859375,2.2074539306640624,6.828263134765624,7.182351190609073
0.3183287739368316,-0.2825157958984375,2.2553379638671873,7.235277416992187,7.583904258825388
0.32081571748321314,-0.21068974609375,2.2744915771484373,7.771578588867187,8.100317022596531
0.3233026610295946,-0.239420166015625,2.370259643554687,8.413224633789062,8.744015183675863
0.3257896045759761,-0.22505495605468748,2.389413256835937,9.184157568359375,9.492560017489533
0.3282765481223576,-0.316034619140625,2.528276953125,9.97903251953125,10.299182115977006
0.3307634916687391,-0.37828386230468747,2.5809493896484375,10.673351000976561,10.987484699532198
0.3332504352151206,-0.45489831542968745,2.70065947265625,11.353304272460937,11.678955945105216
0.3357373787615021,-0.5985504150390625,2.7581203125,11.870451831054687,12.20135717578
0.3382243223078836,-0.6272808349609375,2.8107927490234372,12.061987963867187,12.401031842727802
0.3407112658542651,-0.70868369140625,2.834734765625,12.114660400390624,12.462060438896168
0.3431982094006466,-0.7422025146484375,2.858676782226562,12.071564770507813,12.427613347966576
0.34568515294702806,-0.8044517578125,2.834734765625,11.664550488281249,12.030985076698954
0.3481720964934096,-0.842758984375,2.77727392578125,11.066000073242186,11.440273195407759
0.3506590400397911,-0.814028564453125,2.73896669921875,10.443507641601562,10.827346532893694
0.35314598358617255,-0.8283937744140625,2.6288334228515624,9.667786303710937,10.053014146255352
0.35563292713255407,-0.7613561279296874,2.5905261962890624,8.916006982421875,9.315882654788627
0.3581198706789356,-0.718260498046875,2.4947581298828125,8.21690009765625,8.617259627313908
0.36060681422531704,-0.6272808349609375,2.4660277099609376,7.570465649414062,7.986659130147144
0.36309375777169856,-0.5506663818359374,2.35589443359375,7.058106494140625,7.4612558814821766
0.36558070131808007,-0.45489831542968745,2.3319524169921872,6.813897924804687,7.2162413680637165
0.36806764486446153,-0.3687070556640625,2.269703173828125,6.76122548828125,7.141545175490101
0.37055458841084304,-0.316034619140625,2.250549560546875,6.866570361328125,7.23288598915004
0.37304153195722456,-0.3016694091796875,2.27927998046875,7.216123803710937,7.573543715611871
0.3755284755036061,-0.229843359375,2.3127988037109373,7.742848168945312,8.084155122437675
0.37801541904998753,-0.22505495605468748,2.35589443359375,8.398859423828124,8.725922755600653
0.38050236259636905,-0.229843359375,2.384624853515625,9.150638745117186,9.459040813184656
0.38298930614275056,-0.27293898925781246,2.499546533203125,9.945513696289062,10.258434151788379
0.385476249689132,-0.3591302490234375,2.5857377929687497,10.658985791015624,10.974014423301234
0.38796319323551354,-0.411802685546875,2.6575638427734374,11.362881079101562,11.676784379616018
0.39045013678189505,-0.5458779785156249,2.70065947265625,11.784260571289062,12.102080051243846
0.3929370803282765,-0.6464344482421874,2.7246014892578123,12.076353173828124,12.396759122858226
0.395424023874658,-0.6560112548828124,2.85388837890625,12.181698046874999,12.528718887062126
0.39791096742103954,-0.7613561279296874,2.806004345703125,11.999738720703125,12.346945083978579
0.400397910967421,-0.74699091796875,2.8203695556640622,11.722011328125,12.079653531402931
0.4028848545138025,-0.8188169677734375,2.829946362304687,11.156979736328124,11.539378426807554
0.40537179806018403,-0.814028564453125,2.7533319091796873,10.520122094726561,10.904881842267097
0.4078587416065655,-0.814028564453125,2.70065947265625,9.792284790039062,10.190438925788424
0.410345685152947,-0.7900865478515624,2.6192566162109374,8.997409838867187,9.404154708595813
0.4128326286993285,-0.7038952880859375,2.5043349365234375,8.322244970703125,8.719341913428725
0.41531957224571,-0.63206923828125,2.47081611328125,7.690175732421874,8.102051998300308
0.4178065157920915,-0.5698199951171875,2.418143676757812,7.134720947265625,7.554889586461872
0.420293459338473,-0.488417138671875,2.3367408203125,6.828263134765624,7.233538995558289
0.42278040288485447,-0.411802685546875,2.308010400390625,6.7277066650390625,7.124502118109443
0.425267346431236,-0.33039982910156246,2.2601263671875,6.852205151367187,7.222883820133722
0.4277542899776175,-0.28730419921875,2.27927998046875,7.134720947265625,7.495458887059901
0.43024123352399896,-0.26815058593749996,2.31758720703125,7.613561279296874,7.963003864908154
0.43272817707038047,-0.1867477294921875,2.327164013671875,8.33182177734375,8.652734896575732
0.435215120616762,-0.2442085693359375,2.398990063476562,9.050082275390624,9.365830467253607
0.43770206416314344,-0.277727392578125,2.442085693359375,9.763554370117188,10.068163138156494
0.44018900770952496,-0.3495534423828125,2.5857377929687497,10.572794531249999,10.890005130535911
0.4426759512559065,-0.39743747558593745,2.6192566162109374,11.200075366210937,11.509133328681616
0.445162894802288,-0.5267243652343749,2.6815058593749996,11.717222924804688,12.031675914034691
0.44764983834866945,-0.5985504150390625,2.729389892578125,12.066776367187499,12.386077816676504
0.45013678189505096,-0.6560112548828124,2.844311572265625,12.220005273437499,12.563796717931142
0.4526237254414325,-0.7230489013671875,2.825157958984375,12.071564770507813,12.418816095568305
0.45511066898781394,-0.7757213378906249,2.786850732421875,11.736376538085937,12.087630654623478
0.45759761253419545,-0.7948749511718749,2.825157958984375,11.281478222656249,11.656976218963493
0.46008455608057697,-0.8092401611328125,2.748543505859375,10.66856259765625,11.046609839317304
0.4625714996269584,-0.82360537109375,2.7054478759765623,9.95987890625,10.353596565642505
0.46505844317333994,-0.7565677246093749,2.6240450195312497,9.179369165039063,9.57699458361115
0.46754538671972146,-0.70868369140625,2.5665841796874997,8.40843623046875,8.819942560342833
0.4700323302661029,-0.6416460449218749,2.4947581298828125,7.785943798828124,8.201002902821728
0.47251927381248443,-0.5602431884765625,2.4564509033203126,7.216123803710937,7.643328216238079
0.47500621735886595,-0.51714755859375,2.35589443359375,6.861781958007812,7.273357671587382
0.4774931609052474,-0.4644751220703125,2.3032219970703123,6.713341455078124,7.1126311727293485
0.4799801044516289,-0.36391865234375,2.288856787109375,6.775590698242187,7.161000732266851
0.48246704799801043,-0.277727392578125,2.2649147705078123,7.058106494140625,7.417805518135587
0.4849539915443919,-0.26336218261718747,2.2936451904296873,7.541735229492187,7.887200908470488
0.4874409350907734,-0.26336218261718747,2.288856787109375,8.092401611328125,8.413987691347996
0.4899278786371549,-0.22505495605468748,2.408566870117187,8.892064965820312,9.215240824712064
0.4924148221835364,-0.27293898925781246,2.43250888671875,9.639055883789062,9.944998416622866
0.4949017657299179,-0.2920926025390625,2.5570073730468748,10.328585961914062,10.644401945009514
0.4973887092762994,-0.38307226562499996,2.5809493896484375,11.056423266601563,11.360129381431626
0.49987565282268087,-0.47884033203125,2.6384102294921874,11.544840405273437,11.852165902732839
0.5023625963690624,-0.5602431884765625,2.7581203125,12.014103930664062,12.339359519248037
0.5048495399154439,-0.6512228515624999,2.748543505859375,12.16254443359375,12.486235209427269
0.5073364834618254,-0.6943184814453125,2.839523168945312,12.133814013671874,12.480962002146859
0.5098234270082069,-0.7709329345703124,2.81558115234375,11.903970654296874,12.256686018390113
0.5123103705545884,-0.7996633544921875,2.849099975585937,11.468225952148437,11.843860799626633
0.5147973141009698,-0.8044517578125,2.7724855224609373,10.89840595703125,11.274265874422039
0.5172842576473514,-0.7996633544921875,2.6815058593749996,10.141838232421874,10.520780288885145
0.5197712011937329,-0.8044517578125,2.6384102294921874,9.423577734375,9.818969828120713
0.5222581447401143,-0.70868369140625,2.6336218261718747,8.657433203124999,9.076857725244196
0.5247450882864959,-0.6847416748046875,2.499546533203125,7.963114721679687,8.374234299534127
0.5272320318328774,-0.6416460449218749,2.398990063476562,7.326257080078125,7.735690387742908
0.5297189753792588,-0.5219359619140624,2.422932080078125,6.962338427734375,7.390343252875176
0.5322059189256404,-0.45968671875,2.31758720703125,6.7277066650390625,7.130537098452057
0.5346928624720219,-0.373495458984375,2.2936451904296873,6.713341455078124,7.104172056611077
0.5371798060184033,-0.296881005859375,2.3127988037109373,6.981492041015625,7.3605983287265
0.5396667495647849,-0.277727392578125,2.2936451904296873,7.307103466796875,7.663661124987481
0.5421536931111663,-0.239420166015625,2.27927998046875,7.943961108398437,8.267947589154607
0.5446406366575478,-0.3016694091796875,2.35589443359375,8.614337573242187,8.935773880333192
0.5471275802039294,-0.27293898925781246,2.442085693359375,9.452308154296874,9.766494133994797
0.5496145237503108,-0.3399766357421875,2.528276953125,10.228029492187499,10.541364036860262
0.5521014672966923,-0.4070142822265625,2.5617957763671875,10.912771166992187,11.21681919123622
0.5545884108430739,-0.45489831542968745,2.6384102294921874,11.49216796875,11.799918035242163
0.5570753543894553,-0.5506663818359374,2.70065947265625,11.889605444335936,12.204897077538792
0.5595622979358368,-0.612915625,2.7054478759765623,12.119448803710936,12.432865843351069
0.5620492414822184,-0.6512228515624999,2.7724855224609373,12.172121240234373,12.500852077423263
0.5645361850285998,-0.7038952880859375,2.8203695556640622,12.033257543945313,12.379387712081039
0.5670231285749813,-0.7757213378906249,2.7916391357421872,11.583147631835937,11.940029385188828
0.5695100721213628,-0.7613561279296874,2.81558115234375,11.061211669921875,11.439299103781897
0.5719970156677443,-0.8379705810546875,2.73896669921875,10.333374365234375,10.723001401017596
0.5744839592141258,-0.7757213378906249,2.6767174560546874,9.581595043945311,9.978653392104771
0.5769709027605073,-0.7278373046875,2.6479870361328124,8.825027319335938,9.242439595293433
0.5794578463068888,-0.7230489013671875,2.5234885498046875,8.06367119140625,8.480187925858646
0.5819447898532703,-0.6416460449218749,2.4564509033203126,7.5465236328125,7.962152951807987
0.5844317333996518,-0.5889736083984375,2.389413256835937,7.024587670898437,7.443185982458823
0.5869186769460333,-0.411802685546875,2.370259643554687,6.794744311523437,7.208069262199672
0.5894056204924147,-0.430956298828125,2.250549560546875,6.737283471679687,7.11629715749319
0.5918925640387963,-0.36391865234375,2.2361843505859373,6.87614716796875,7.239776040106061
0.5943795075851778,-0.296881005859375,2.308010400390625,7.235277416992187,7.600282207970208
0.5968664511315592,-0.27293898925781246,2.3223756103515623,7.728482958984374,8.074489024992525
0.5993533946779408,-0.24899697265624998,2.370259643554687,8.427589843749999,8.75810486605031
0.6018403382243223,-0.2920926025390625,2.389413256835937,9.1554271484375,9.466597069208543
0.6043272817707037,-0.3112462158203125,2.446874096679687,9.907206469726562,10.20964284809495
0.6068142253170853,-0.354341845703125,2.5474305664062498,10.649408984374999,10.95558635358072
0.6093011688634667,-0.40222587890625,2.6384102294921874,11.291055029296874,11.602194528250298
0.6117881124098483,-0.51714755859375,2.73896669921875,11.822567797851562,12.146706941043135
0.6142750559562298,-0.5793968017578125,2.7437551025390623,12.08592998046875,12.406997872547157
0.6167619995026112,-0.6560112548828124,2.786850732421875,12.172121240234373,12.504296192041279
0.6192489430489928,-0.7230489013671875,2.806004345703125,12.052411157226562,12.39584909575429
0.6217358865953743,-0.7852981445312499,2.849099975585937,11.741164941406248,12.107395179310668
0.6242228301417557,-0.7805097412109374,2.7916391357421872,11.267113012695312,11.634013931622249
0.6267097736881373,-0.7996633544921875,2.7581203125,10.596736547851561,10.978957810435189
0.6291967172345188,-0.7900865478515624,2.70065947265625,9.859322436523437,10.253001377532257
0.6316836607809002,-0.7517793212890624,2.6240450195312497,9.102754711914063,9.50320618305834
0.6341706043272818,-0.7278373046875,2.5905261962890624,8.355763793945313,8.778346182280693
0.6366575478736632,-0.6368576416015624,2.5378537597656248,7.733271362304687,8.16393136452436
0.6391444914200447,-0.603338818359375,2.370259643554687,7.187393383789062,7.592152011184844
0.6416314349664263,-0.5123591552734374,2.327164013671875,6.804321118164062,7.209506926941352
0.6441183785128077,-0.4213794921875,2.27927998046875,6.7277066650390625,7.115807394569702
0.6466053220591892,-0.33518823242187495,2.3367408203125,6.813897924804687,7.211235243848758
0.6490922656055708,-0.3064578125,2.3127988037109373,7.115567333984375,7.488274379438465
0.6515792091519522,-0.239420166015625,2.327164013671875,7.56567724609375,7.9191215772006585
0.6540661526983337,-0.258573779296875,2.35589443359375,8.173804467773436,8.510474631826998
0.6565530962447153,-0.2825157958984375,2.370259643554687,8.90643017578125,9.220761597008293
0.6590400397910967,-0.27293898925781246,2.480392919921875,9.715670336914062,10.031006670551438
0.6615269833374782,-0.3447650390625,2.528276953125,10.386046801757812,10.694906051582056
0.6640139268838597,-0.3495534423828125,2.6192566162109374,11.1474029296875,11.45632074042325
0.6665008704302412,-0.5027823486328125,2.6575638427734374,11.6070896484375,11.918052096520572
0.6689878139766227,-0.55545478515625,2.6958710693359373,11.985373510742187,12.297374883804915
0.6714747575230042,-0.63206923828125,2.7533319091796873,12.16254443359375,12.486305907802787
0.6739617010693857,-0.7422025146484375,2.8012159423828122,12.129025610351562,12.470402462838726
0.6764486446157671,-0.7852981445312499,2.7820623291015623,11.889605444335936,12.235983066382243
0.6789355881621487,-0.8044517578125,2.767697119140625,11.425130322265625,11.783076544548981
0.6814225317085302,-0.7900865478515624,2.767697119140625,10.826579907226561,11.202643285580292
0.6839094752549116,-0.833182177734375,2.710236279296875,10.089165795898436,10.480020977461738
0.6863964188012932,-0.7661445312499999,2.6862942626953124,9.337386474609374,9.746278288904545
0.6888833623476747,-0.7134720947265625,2.6240450195312497,8.609549169921875,9.028786829014333
0.6913703058940561,-0.6416460449218749,2.50912333984375,7.915230688476562,8.328162248258238
0.6938572494404377,-0.5746083984375,2.442085693359375,7.3549875,7.7710873415772195
0.6963441929868192,-0.507570751953125,2.3511060302734372,6.900089184570312,7.30729487490758
0.6988311365332006,-0.469263525390625,2.3223756103515623,6.7803791015625,7.182421422662647
0.7013180800795822,-0.373495458984375,2.2601263671875,6.713341455078124,7.093421145400052
0.7038050236259636,-0.3064578125,2.31758720703125,6.967126831054687,7.348876317712751
0.7062919671723451,-0.296881005859375,2.269703173828125,7.321468676757812,7.670957855031621
0.7087789107187267,-0.239420166015625,2.308010400390625,7.972691528320312,8.303495904133193
0.7112658542651081,-0.2442085693359375,2.35589443359375,8.590395556640624,8.910935541632321
0.7137527978114896,-0.26815058593749996,2.461239306640625,9.423577734375,9.743378314378424
0.7162397413578712,-0.2825157958984375,2.528276953125,10.180145458984374,10.493205472719731
0.7187266849042526,-0.39264907226562495,2.5665841796874997,10.855310327148437,11.161509304035397
0.7212136284506341,-0.45489831542968745,2.6144682128906247,11.425130322265625,11.729278724386665
0.7237005719970157,-0.5458779785156249,2.70065947265625,11.9135474609375,12.228007092682216
0.7261875155433971,-0.59376201171875,2.73896669921875,12.133814013671874,12.453270029368571
0.7286744590897786,-0.6607996582031249,2.85388837890625,12.181698046874999,12.528970523262302
0.7311614026361601,-0.7326257080078125,2.7964275390625,11.990161914062499,12.333723287584167
0.7336483461825416,-0.7709329345703124,2.8203695556640622,11.631031665039062,11.992902885176017
0.7361352897289231,-0.8092401611328125,2.7533319091796873,11.037269653320312,11.404254804265063
0.7386222332753046,-0.814028564453125,2.70065947265625,10.347739575195313,10.725293394917307
0.7411091768216861,-0.7996633544921875,2.6719290527343746,9.639055883789062,10.034443914546149
0.7435961203680675,-0.7852981445312499,2.5426421630859375,8.872911352539061,9.263383734647027
0.7460830639144491,-0.6512228515624999,2.5665841796874997,8.130708837890625,8.551015832073524
0.7485700074608306,-0.5985504150390625,2.4564509033203126,7.498639599609374,7.913406945468965
0.7510569510072121,-0.5506663818359374,2.403778466796875,7.086836914062499,7.503641904304836
0.7535438945535936,-0.469263525390625,2.39420166015625,6.785167504882812,7.210472100707042
0.7560308380999751,-0.38307226562499996,2.308010400390625,6.72291826171875,7.1183766634503
0.7585177816463566,-0.33039982910156246,2.2840683837890623,6.880935571289062,7.257644711965877
0.7610047251927381,-0.2825157958984375,2.2457611572265623,7.187393383789062,7.535375372439949
0.7634916687391196,-0.2346317626953125,2.3223756103515623,7.75721337890625,8.100792550454765
0.7659786122855011,-0.26336218261718747,2.3367408203125,8.365340600585936,8.689570798627463
0.7684655558318826,-0.27293898925781246,2.384624853515625,9.13627353515625,9.446291626509208
0.770952499378264,-0.2920926025390625,2.480392919921875,9.916783276367187,10.226448927956007
0.7734394429246456,-0.3687070556640625,2.5713725830078125,10.635043774414061,10.94769646716806
0.7759263864710271,-0.411802685546875,2.5857377929687497,11.238382592773437,11.539361537249949
0.7784133300174085,-0.49320554199218747,2.6815058593749996,11.726799731445311,12.039582938039842
0.7809002735637901,-0.5793968017578125,2.7629087158203123,12.066776367187499,12.39259686754789
0.7833872171101716,-0.6512228515624999,2.8012159423828122,12.172121240234373,12.507255392180237
0.785874160656553,-0.718260498046875,2.786850732421875,12.028469140624999,12.367962848214852
0.7883611042029346,-0.7517793212890624,2.806004345703125,11.769895361328125,12.123088276204045
0.790848047749316,-0.7948749511718749,2.786850732421875,11.276689819335937,11.643113693265887
0.7933349912956975,-0.852335791015625,2.748543505859375,10.601524951171875,10.985139916931773
0.7958219348420791,-0.7613561279296874,2.710236279296875,9.835380419921874,10.230334884437344
0.7983088783884605,-0.7230489013671875,2.6431986328124997,9.141061938476563,9.542971868832845
0.800795821934842,-0.689530078125,2.5665841796874997,8.384494213867187,8.795598291329224
0.8032827654812236,-0.6512228515624999,2.499546533203125,7.714117749023437,8.135074475371653
0.805769709027605,-0.565031591796875,2.389413256835937,7.173028173828125,7.581615236491751
0.8082566525739865,-0.5027823486328125,2.375048046875,6.828263134765624,7.246987012038916
0.8107435961203681,-0.4213794921875,2.308010400390625,6.679822631835937,7.079866035281675
0.8132305396667495,-0.38786066894531246,2.2744915771484373,6.804321118164062,7.184882303289827
0.815717483213131,-0.316034619140625,2.2840683837890623,7.072471704101562,7.438864313027722
0.8182044267595125,-0.2537853759765625,2.2744915771484373,7.5465236328125,7.88592023115732
0.820691370305894,1.0534487304687499,3.0406361083984375,-2.7437551025390623,4.2288786024349
0.8231783138522755,0.612915625,3.5290532470703124,2.5570073730468748,4.400928207758306
0.825665257398657,0.076614453125,3.840299462890625,8.169016064453125,9.026992478140151
0.8281522009450385,-0.4261678955078125,4.0988732421875,13.651737866210937,14.260165766863292
0.83063914449142,-0.9433154541015625,4.146757275390625,18.531120849609373,19.0128346095415
0.8331260880378015,-1.446097802734375,4.1563340820312495,22.457611572265623,22.884724804709506
0.835613031584183,-1.7525556152343749,4.007893579101562,25.225308691406248,25.601774561592965
0.8380999751305644,-2.04943662109375,3.754108203125,26.623522460937497,26.96489323347478
0.840586918676946,-2.1691467041015624,3.4428619873046875,26.618734057617186,26.927968711317444
0.8430738622233275,-2.1978771240234374,3.0214824951171875,25.30671154785156,25.581041215845158
0.8455608057697089,-2.0638018310546875,2.6815058593749996,22.83589543457031,23.085230602494665
0.8480477493160905,-1.8339584716796873,2.29843359375,19.416975463867185,19.63835881190545
0.850534692862472,-1.4891934326171874,1.9823989746093749,15.332467431640625,15.531650276664193
0.8530216364088534,-1.1156979736328125,1.6807295654296874,11.0707884765625,11.253088079867982
0.855508579955235,-0.7230489013671875,1.465251416015625,6.7803791015625,6.974475047400312
0.8579955235016165,-0.26815058593749996,1.3742717529296875,2.93050283203125,3.2478261092894485
0.8604824670479979,0.0430956298828125,1.3263877197265623,-0.1771709228515625,1.3388618869250482
0.8629694105943795,0.316034619140625,1.4508862060546874,-2.5043349365234375,2.9114673513036298
0.8654563541407609,0.584185205078125,1.6041151123046875,-3.782838623046875,4.150219957468716
0.8679432976871424,0.737414111328125,1.8195932617187498,-3.9647979492187497,4.42428773790848
0.870430241233524,0.74699091796875,2.0733786376953125,-3.1220389648437497,3.821520862795557
0.8729171847799054,0.7038952880859375,2.3032219970703123,-1.2832920898437499,2.7289446187553317
0.8754041283262869,0.5027823486328125,2.6719290527343746,1.3120225097656248,3.018840509048868
0.8778910718726685,0.33518823242187495,2.896984008789062,4.367023828124999,5.251263144591515
0.8803780154190499,0.0430956298828125,3.1268273681640624,7.742848168945312,8.350485278770005
0.8828649589654315,-0.239420166015625,3.375824340820312,11.0707884765625,11.576522340010357
0.885351902511813,-0.5985504150390625,3.4428619873046875,14.125789794921873,14.551614982306601
0.8878388460581944,-0.8379705810546875,3.4715924072265625,16.754623217773435,17.13101128673316
0.890325789604576,-1.0821791503906248,3.4715924072265625,18.689138159179688,19.03961529780367
0.8928127331509574,-1.3263877197265623,3.289633081054687,19.814412939453124,20.12938027675413
0.8952996766973389,-1.4891934326171874,3.2034418212890623,20.0346794921875,20.34374889092009
0.8977866202437205,-1.4939818359375,2.978386865234375,19.440917480468748,19.724402209636345
0.9002735637901019,-1.4700398193359374,2.81558115234375,18.20072102050781,18.475788480122343
0.9027605073364834,-1.4030021728515625,2.5713725830078125,16.237475659179687,16.499575383631036
0.905247450882865,-1.235408056640625,2.384624853515625,13.857639208984374,14.115482039406166
0.9077343944292464,-1.024718310546875,2.1883003173828124,11.200075366210937,11.457765668045093
0.9102213379756279,-0.7805097412109374,1.9728221679687499,8.499415893554687,8.760210801925037
0.9127082815220094,-0.5746083984375,1.886630908203125,6.019022973632812,6.333892054058219
0.9151952250683909,-0.33518823242187495,1.8770541015625,3.8690298828125,4.313360115437014
0.9176821686147724,-0.1149216796875,1.8770541015625,2.2649147705078123,2.9438712625247825
0.9201691121611539,0.033518823242187495,1.85790048828125,1.254561669921875,2.2420621578146336
0.9226560557075354,0.2059013427734375,1.9776105712890624,0.9337386474609375,2.1966353353236254
0.9251429992539169,0.2920926025390625,2.1547814941406247,1.2928688964843749,2.5298046089462463
0.9276299428002984,0.2537853759765625,2.288856787109375,2.2266075439453124,3.2032879301914763
0.9301168863466799,0.2154781494140625,2.446874096679687,3.744531396484375,4.478296445874722
0.9326038298930613,0.047884033203124995,2.5857377929687497,5.6311623046875,6.196637936523009
0.9350907734394429,-0.047884033203124995,2.7724855224609373,7.762001782226562,8.242429285118535
0.9375777169858244,-0.2346317626953125,2.868253588867187,9.945513696289062,10.353510196894014
0.9400646605322058,-0.38786066894531246,3.0262708984374997,12.057199560546874,12.437234929520956
0.9425516040785874,-0.612915625,3.0550013183593747,13.795389965820311,14.14289513952509
0.9450385476249689,-0.7900865478515624,3.0741549316406247,15.198392138671874,15.526293469391508
0.9475254911713503,-0.9528922607421875,3.0980969482421874,16.098611962890622,16.42167821792325
0.9500124347177319,-1.0965443603515623,3.0789433349609374,16.457742211914063,16.779141226771326
0.9524993782641133,-1.1444283935546875,2.906560815429687,16.26620607910156,16.563431779965345
0.9549863218104948,-1.139639990234375,2.916137622070312,15.576676000976562,15.888218061746084
0.9574732653568764,-1.1444283935546875,2.710236279296875,14.326902734374999,14.62584147999126
0.9599602089032578,-1.0726023437499999,2.5857377929687497,12.828132495117186,13.130022811636177
0.9624471524496393,-0.9720458740234375,2.422932080078125,11.0707884765625,11.374437592191832
0.9649340959960209,-0.8283937744140625,2.370259643554687,9.294290844726563,9.62747159589266
0.9674210395424023,-0.6751648681640625,2.212242333984375,7.551312036132812,7.897605789764383
0.9699079830887838,-0.5315127685546874,2.1404162841796874,5.9950809570312495,6.387870018564636
0.9723949266351654,-0.3399766357421875,2.1404162841796874,4.84586416015625,5.30842400728493
0.9748818701815468,-0.19632453613281248,2.1164742675781247,3.9743747558593747,4.507067932572172
0.9773688137279283,-0.0909796630859375,2.1499930908203124,3.5769372802734374,4.174353590279607
0.9798557572743098,-0.0430956298828125,2.1547814941406247,3.7205893798828122,4.299735556345607
0.9823427008206913,-0.033518823242187495,2.3032219970703123,4.266467358398438,4.848576987073573
0.9848296443670728,-0.0047884033203125,2.3223756103515623,5.1714755859374995,5.669004422322296
0.9873165879134543,-0.033518823242187495,2.403778466796875,6.41646044921875,6.852024454519727
0.9898035314598358,-0.105344873046875,2.6048914062499997,7.848193041992187,8.26986643211406
0.9922904750062173,-0.2059013427734375,2.6862942626953124,9.404424121093749,9.78272790576103
0.9947774185525988,-0.3399766357421875,2.8012159423828122,10.931924780273437,11.290233579083589
0.9972643620989803,-0.4644751220703125,2.834734765625,12.20085166015625,12.534442132125497
0.9997513056453617,-0.6272808349609375,2.868253588867187,13.354856860351562,13.673791049172792
1.0022382491917432,-0.7757213378906249,2.863465185546875,14.034810131835936,14.344931923839251
1.0047251927381249,-0.8571241943359375,2.920926025390625,14.42267080078125,14.740417353590377
1.0072121362845063,-0.9241618408203125,2.89219560546875,14.38436357421875,14.701319191270978
1.0096990798308878,-1.01514150390625,2.844311572265625,13.996502905273436,14.318614254543103
1.0121860233772693,-0.9959878906249999,2.7724855224609373,13.254300390625,13.577744536389288
1.0146729669236507,-0.9911994873046874,2.6719290527343746,12.167332836914062,12.496626330763286
1.0171599104700322,-0.8858546142578124,2.6336218261718747,10.984597216796875,11.330581553307507
1.0196468540164139,-0.8475473876953125,2.518700146484375,9.639055883789062,9.998679179426556
1.0221337975627953,-0.7278373046875,2.446874096679687,8.355763793945313,8.737032022792647
1.0246207411091768,-0.63206923828125,2.3127988037109373,7.187393383789062,7.5767521723864615
1.0271076846555582,-0.507570751953125,2.3127988037109373,6.167463476562499,6.606381165919614
1.0295946282019397,-0.3687070556640625,2.2074539306640624,5.468356591796875,5.90861418303387
1.0320815717483212,-0.2920926025390625,2.2266075439453124,5.061342309570312,5.537173034848989
1.0345685152947028,-0.22505495605468748,2.2361843505859373,5.046977099609375,5.524775835002872
1.0370554588410843,-0.1388636962890625,2.269703173828125,5.391742138671875,5.851642411610819
1.0395424023874658,-0.12449848632812499,2.2601263671875,6.004657763671875,6.417132219892238
1.0420293459338472,-0.1197100830078125,2.3511060302734372,6.924031201171875,7.313291881523908
1.0445162894802287,-0.17238251953125,2.442085693359375,7.924807495117187,8.294339762839234
1.0470032330266101,-0.239420166015625,2.50912333984375,9.102754711914063,9.445272113375944
1.0494901765729918,-0.3112462158203125,2.6384102294921874,10.338162768554687,10.67406633739372
1.0519771201193733,-0.40222587890625,2.7150246826171873,11.372457885742186,11.698971879950054
1.0544640636657547,-0.5219359619140624,2.7820623291015623,12.272677709960936,12.59487618533494
1.0569510072121362,-0.63206923828125,2.882618798828125,12.97178459472656,13.30324014040655
1.0594379507585177,-0.7326257080078125,2.834734765625,13.33091484375,13.648653860025576
1.0619248943048991,-0.8283937744140625,2.834734765625,13.421894506835937,13.742969460402788
1.0644118378512808,-0.8044517578125,2.863465185546875,13.220781567382812,13.551222850796002
1.0668987813976623,-0.8571241943359375,2.81558115234375,12.598289135742187,12.937505488219474
1.0693857249440437,-0.9050082275390624,2.73896669921875,11.880028637695311,12.2252222435342
1.0718726684904252,-0.8762778076171874,2.6767174560546874,10.931924780273437,11.288917509541236
1.0743596120368066,-0.8092401611328125,2.6048914062499997,9.907206469726562,10.275848817033909
1.076846555583188,-0.7805097412109374,2.5043349365234375,8.820238916015624,9.202038006116553
1.0793334991295698,-0.6847416748046875,2.4564509033203126,7.843404638671874,8.247546212515392
1.0818204426759512,-0.5889736083984375,2.3511060302734372,6.981492041015625,7.390251727494978
1.0843073862223327,-0.49799394531249996,2.3415292236328122,6.335057592773437,6.772275229082968
1.0867943297687142,-0.40222587890625,2.2601263671875,5.923254907226562,6.352551105603293
1.0892812733150956,-0.3016694091796875,2.24097275390625,5.80354482421875,6.228490655279273
1.0917682168614773,-0.19153613281249998,2.2840683837890623,5.985504150390625,6.40936146635068
1.0942551604078588,-0.21068974609375,2.2936451904296873,6.445190869140625,6.844390679114099
1.0967421039542402,-0.2154781494140625,2.288856787109375,7.105990527343749,7.468627557956727
1.0992290475006217,-0.19153613281249998,2.379836450195312,7.963114721679687,8.313332887024478
1.1017159910470031,-0.22505495605468748,2.446874096679687,8.935160595703124,9.2668731214608
1.1042029345933846,-0.24899697265624998,2.518700146484375,9.883264453125,10.202194184130027
1.1066898781397663,-0.36391865234375,2.5905261962890624,10.86009873046875,11.17072097918091
1.1091768216861477,-0.44053310546874996,2.6767174560546874,11.693280908203125,12.003820398302762
1.1116637652325292,-0.5219359619140624,2.73896669921875,12.296619726562499,12.608775215200499
1.1141507087789106,-0.6081272216796875,2.7964275390625,12.703634008789061,13.021986896331796
1.116637652325292,-0.7038952880859375,2.849099975585937,12.885593334960937,13.21557243714638
1.1191245958716736,-0.7757213378906249,2.849099975585937,12.751518041992187,13.088939095289383
1.1216115394180552,-0.8044517578125,2.8203695556640622,12.310984936523436,12.655511730802168
1.1240984829644367,-0.86191259765625,2.7533319091796873,11.731588134765625,12.081137781346557
1.1265854265108182,-0.8762778076171874,2.7724855224609373,10.979808813476561,11.358289499254518
1.1290723700571996,-0.8092401611328125,2.6862942626953124,10.046070166015625,10.43046366585346
1.131559313603581,-0.7422025146484375,2.5905261962890624,9.188945971679686,9.575929125513548
1.1340462571499625,-0.6751648681640625,2.5330653564453125,8.288726147460936,8.693402604666888
1.1365332006963442,-0.612915625,2.4660277099609376,7.436390356445312,7.858553286903204
1.1390201442427257,-0.5410895751953124,2.346317626953125,6.8569935546875,7.2674854622463405
1.1415070877891071,-0.45968671875,2.346317626953125,6.411672045898437,6.84295672279911
1.1439940313354886,-0.3591302490234375,2.27927998046875,6.248866333007812,6.661262809177233
1.14648097488187,-0.2825157958984375,2.29843359375,6.311115576171875,6.722558439731849
1.1489679184282515,-0.201112939453125,2.2601263671875,6.6510922119140625,7.02749210041929
1.1514548619746332,-0.19153613281249998,2.29843359375,7.1586629638671875,7.521033074338595
1.1539418055210147,-0.2154781494140625,2.3223756103515623,7.9295958984374995,8.26549154139955
1.1564287490673961,-0.22026655273437498,2.403778466796875,8.724470849609375,9.052240599839001
1.1589156926137776,-0.2346317626953125,2.5234885498046875,9.600748657226562,9.929623422078931
1.161402636160159,-0.33039982910156246,2.5474305664062498,10.414777221679687,10.726889162984264
1.1638895797065405,-0.39264907226562495,2.6001030029296874,11.247959399414063,11.5512466673802
1.1663765232529222,-0.488417138671875,2.6910826660156246,11.860875024414062,12.17213348437518
1.1688634667993036,-0.5985504150390625,2.7246014892578123,12.272677709960936,12.585719448930258
1.171350410345685,-0.6512228515624999,2.77727392578125,12.564770312499999,12.884517634242382
1.1738373538920666,-0.7422025146484375,2.85388837890625,12.502521069335936,12.84556641574032
1.176324297438448,-0.8044517578125,2.7916391357421872,12.229582080078124,12.56992718945591
1.1788112409848295,-0.833182177734375,2.77727392578125,11.750741748046874,12.103196876421135
1.1812981845312112,-0.7852981445312499,2.7964275390625,11.075576879882812,11.45011368411799
1.1837851280775926,-0.8283937744140625,2.7437551025390623,10.328585961914062,10.71886730400397
1.186272071623974,-0.7613561279296874,2.6623522460937497,9.466673364257812,9.863350709640454
1.1887590151703555,-0.7230489013671875,2.5426421630859375,8.585607153320312,8.983344537220843
1.191245958716737,-0.6464344482421874,2.446874096679687,7.843404638671874,8.241605830590037
1.1937329022631185,-0.5506663818359374,2.403778466796875,7.192181787109375,7.603214007270111
1.1962198458095001,-0.45489831542968745,2.360682836914062,6.7277066650390625,7.144353917933547
1.1987067893558816,-0.45010991210937495,2.2553379638671873,6.512228515625,6.906393306492115
1.201193732902263,-0.3687070556640625,2.308010400390625,6.517016918945312,6.923464914551615
1.2036806764486445,-0.26815058593749996,2.24097275390625,6.68461103515625,7.055344662865274
1.206167619995026,-0.4740519287109375,2.1978771240234374,7.307103466796875,7.645204389543487
1.2086545635414074,-0.26336218261718747,2.3511060302734372,7.728482958984374,8.082481552848288
1.2111415070877891,-0.2154781494140625,2.384624853515625,8.532934716796875,8.862496341663375
1.2136284506341706,-0.2537853759765625,2.437297290039062,9.356540087890625,9.672107707909152
1.216115394180552,-0.3112462158203125,2.4899697265625,10.189722265624999,10.494153767533334
1.2186023377269335,-0.36391865234375,2.5713725830078125,10.9175595703125,11.222187875699195
1.221089281273315,-0.4644751220703125,2.6767174560546874,11.583147631835937,11.897472947625332
1.2235762248196966,-0.5746083984375,2.70065947265625,12.057199560546874,12.369308696998978
1.226063168366078,-0.6081272216796875,2.7916391357421872,12.35408056640625,12.680156719189705
1.2285501119124596,-0.689530078125,2.7533319091796873,12.373234179687499,12.694613518974617
1.231037055458841,-0.7709329345703124,2.8012159423828122,12.176909643554687,12.518717059377929
1.2335239990052225,-0.7948749511718749,2.77727392578125,11.745953344726562,12.095970263824146
1.236010942551604,-0.7900865478515624,2.7629087158203123,11.238382592773437,11.599963130398512
1.2384978860979856,-0.814028564453125,2.7581203125,10.539275708007812,10.924568760888198
1.240984829644367,-0.7900865478515624,2.6958710693359373,9.701305126953125,10.099865283350342
1.2434717731907485,-0.6943184814453125,2.6144682128906247,8.911218579101561,9.312751406239558
1.24595871673713,-0.6703764648437499,2.5761609863281247,8.135497241210937,8.559925548382196
1.2484456602835114,-0.63206923828125,2.4756045166015626,7.4603323730468745,7.885726875877119
1.250932603829893,-0.5363011718749999,2.375048046875,6.981492041015625,7.393896353796404
1.2534195473762746,-0.45010991210937495,2.3223756103515623,6.68461103515625,7.090842834238227
1.255906490922656,-0.36391865234375,2.288856787109375,6.58884296875,6.9845654012448515
1.2583934344690375,-0.3016694091796875,2.250549560546875,6.72291826171875,7.096027600754101
1.260880378015419,-0.277727392578125,2.2744915771484373,7.072471704101562,7.4343998039132035
1.2633673215618004,-0.2346317626953125,2.3223756103515623,7.6279264892578125,7.977076097489752
1.2658542651081819,-0.239420166015625,2.346317626953125,8.29351455078125,8.62234956531375
1.2683412086545636,-0.27293898925781246,2.39420166015625,9.131485131835937,9.44408375620911
1.270828152200945,-0.3064578125,2.499546533203125,9.878476049804688,10.194407208320397
1.2733150957473265,-0.3495534423828125,2.5665841796874997,10.678139404296875,10.987820671002119
1.275802039293708,-0.37828386230468747,2.5953145996093747,11.343727465820312,11.642976825976758
1.2782889828400894,-0.45489831542968745,2.6479870361328124,11.846509814453125,12.147368546514196
1.2807759263864709,-0.5506663818359374,2.7629087158203123,12.186486450195313,12.507891510435885
1.2832628699328525,-0.6464344482421874,2.7916391357421872,12.272677709960936,12.602767344224585
1.285749813479234,-0.7422025146484375,2.7724855224609373,12.205640063476562,12.538548157747375
1.2882367570256155,-0.74699091796875,2.858676782226562,11.918335864257811,12.279118785565315
1.290723700571997,-0.7996633544921875,2.825157958984375,11.396399902343749,11.768555973774822
1.2932106441183784,-0.7996633544921875,2.7341782958984373,10.726023437499999,11.097872373391175
1.2956975876647598,-0.7709329345703124,2.7054478759765623,10.002974536132811,10.391019457673666
1.2981845312111415,-0.7326257080078125,2.6431986328124997,9.179369165039063,9.580399663302453
1.300671474757523,-0.7278373046875,2.528276953125,8.403647827148436,8.805863290815639
1.3031584183039044,-0.6081272216796875,2.4851813232421875,7.75721337890625,8.168249771708854
1.305645361850286,-0.565031591796875,2.446874096679687,7.1778165771484375,7.604439779491811
1.3081323053966674,-0.49320554199218747,2.3511060302734372,6.818686328125,7.229483696198416
1.3106192489430488,-0.411802685546875,2.3223756103515623,6.665457421875,7.070454905464565
1.3131061924894305,-0.33518823242187495,2.269703173828125,6.751648681640624,7.130824886977603
1.315593136035812,-0.2825157958984375,2.24097275390625,6.967126831054687,7.324112938689874
1.3180800795821934,-0.26336218261718747,2.327164013671875,7.4794859863281244,7.83758652937504
1.3205670231285749,-0.26336218261718747,2.327164013671875,8.068459594726562,8.401493451613076
1.3230539666749563,-0.24899697265624998,2.389413256835937,8.8489693359375,9.169272245532765
1.3255409102213378,-0.28730419921875,2.4660277099609376,9.662997900390625,9.976841423623888
1.3280278537677195,-0.3016694091796875,2.4947581298828125,10.395623608398436,10.695036828666938
1.330514797314101,-0.37828386230468747,2.6001030029296874,11.089942089843749,11.396949147136354
1.3330017408604824,-0.39743747558593745,2.6575638427734374,11.674127294921874,11.979392731831474
1.3354886844068639,-0.5602431884765625,2.70065947265625,12.00931552734375,12.3219760368531
1.3379756279532453,-0.59376201171875,2.7437551025390623,12.229582080078124,12.547646123581801
1.3404625714996268,-0.6560112548828124,2.849099975585937,12.253524096679687,12.597482852749849
1.3429495150460085,-0.7230489013671875,2.8203695556640622,11.975796704101562,12.32464972493153
1.34543645859239,-0.82360537109375,2.7916391357421872,11.540052001953125,11.901444243422064
1.3479234021387714,-0.8283937744140625,2.7581203125,10.927136376953124,11.300255453052614
1.3504103456851528,-0.82360537109375,2.70065947265625,10.20887587890625,10.59212132225912
1.3528972892315343,-0.7613561279296874,2.6384102294921874,9.437942944335937,9.829325445480254
1.3553842327779158,-0.7326257080078125,2.6048914062499997,8.695740429687499,9.107035812320646
1.3578711763242974,-0.6847416748046875,2.4899697265625,7.972691528320312,8.380491071898026
1.360358119870679,-0.603338818359375,2.427720483398437,7.41244833984375,7.823185723610554
1.3628450634170604,-0.5363011718749999,2.31758720703125,6.957550024414062,7.352981147220053
1.3653320069634418,-0.4740519287109375,2.3415292236328122,6.785167504882812,7.1934680374322015
1.3678189505098233,-0.3591302490234375,2.3032219970703123,6.732495068359374,7.124626021696542
1.370305894056205,-0.277727392578125,2.3032219970703123,6.976703637695312,7.352302885532383
1.3727928376025864,-0.277727392578125,2.3032219970703123,7.3549875,7.712185500721119
1.3752797811489679,-0.26336218261718747,2.2840683837890623,7.943961108398437,8.26999674200689
1.3777667246953493,-0.26336218261718747,2.375048046875,8.628702783203124,8.953475558968986
1.3802536682417308,-0.26815058593749996,2.4133552734375,9.370905297851563,9.68039536970829
1.3827406117881123,-0.3064578125,2.4899697265625,10.1131078125,10.419636042457938
1.385227555334494,-0.37828386230468747,2.518700146484375,10.850521923828124,11.14543741303388
1.3877144988808754,-0.411802685546875,2.6767174560546874,11.4538607421875,11.769678147374952
1.3902014424272569,-0.507570751953125,2.710236279296875,11.880028637695311,12.195822612284747
1.3926883859736383,-0.5889736083984375,2.729389892578125,12.157756030273436,12.474273156731321
1.3951753295200198,-0.6607996582031249,2.8203695556640622,12.181698046874999,12.521378036144274
1.3976622730664012,-0.7038952880859375,2.8203695556640622,12.028469140624999,12.374733244562252
1.400149216612783,-0.7661445312499999,2.834734765625,11.640608471679688,12.005268186306719
1.4026361601591644,-0.8044517578125,2.73896669921875,11.085153686523437,11.446821107360813
1.4051231037055458,-0.7900865478515624,2.73896669921875,10.424354028320312,10.807096383408597
1.4076100472519273,-0.7852981445312499,2.6527754394531247,9.696516723632811,10.083469010199849
1.4100969907983087,-0.7517793212890624,2.6815058593749996,8.9255837890625,9.349956780507362
1.4125839343446902,-0.7134720947265625,2.50912333984375,8.17859287109375,8.584528159171457
1.4150708778910719,-0.6416460449218749,2.4516625,7.584830859375,7.997000551844262
1.4175578214374533,-0.565031591796875,2.427720483398437,7.115567333984375,7.539521598198811
1.4200447649838348,-0.469263525390625,2.3415292236328122,6.813897924804687,7.220261234266122
1.4225317085302163,-0.4070142822265625,2.3319524169921872,6.737283471679687,7.1410539333364795
1.4250186520765977,-0.354341845703125,2.2553379638671873,6.866570361328125,7.236152016227046
1.4275055956229792,-0.28730419921875,2.3127988037109373,7.216123803710937,7.583140824211237
1.4299925391693609,-0.277727392578125,2.308010400390625,7.690175732421874,8.033856316142941
1.4324794827157423,-0.19153613281249998,2.360682836914062,8.413224633789062,8.740243605602105
1.4349664262621238,-0.26815058593749996,2.384624853515625,9.107543115234375,9.418369393084776
1.4374533698085052,-0.2442085693359375,2.480392919921875,9.907206469726562,10.215905583761408
1.4399403133548867,-0.37828386230468747,2.5570073730468748,10.611101757812499,10.921394869747532
1.4424272569012682,-0.40222587890625,2.6240450195312497,11.276689819335937,11.584952792467625
1.4449142004476498,-0.51714755859375,2.6479870361328124,11.769895361328125,12.075169305541857
1.4474011439940313,-0.5985504150390625,2.7341782958984373,12.08592998046875,12.405792882597181
1.4498880875404128,-0.6464344482421874,2.7820623291015623,12.176909643554687,12.50739288445739
1.4523750310867942,-0.6847416748046875,2.829946362304687,12.133814013671874,12.478257494262403
1.4548619746331757,-0.7134720947265625,2.877830395507812,11.822567797851562,12.188685718733538
1.4573489181795571,-0.7422025146484375,2.786850732421875,11.295843432617186,11.658193703646875
1.4598358617259388,-0.7757213378906249,2.729389892578125,10.697293017578124,11.067221452726612
1.4623228052723203,-0.7948749511718749,2.729389892578125,9.907206469726562,10.306994489544465
1.4648097488187017,-0.737414111328125,2.6623522460937497,9.165003955078124,9.572314064554293
1.4672966923650832,-0.699106884765625,2.5474305664062498,8.461108666992187,8.863888131155417
1.4697836359114647,-0.6655880615234374,2.4899697265625,7.790732202148437,8.206001764101254
1.4722705794578461,-0.5506663818359374,2.403778466796875,7.211335400390625,7.621334701904098
1.4747575230042278,-0.45968671875,2.427720483398437,6.909665991210937,7.338162081543613
1.4772444665506093,-0.38786066894531246,2.288856787109375,6.746860278320312,7.13508408539015
1.4797314100969907,-0.38307226562499996,2.29843359375,6.804321118164062,7.192240765204057
1.4822183536433722,-0.277727392578125,2.2936451904296873,7.101202124023437,7.467597496544953
1.4847052971897536,-0.2825157958984375,2.3127988037109373,7.570465649414062,7.9209092679020845
1.487192240736135,-0.24899697265624998,2.308010400390625,8.116343627929687,8.441797521105213
1.4896791842825168,-0.2442085693359375,2.365471240234375,8.8872765625,9.199933516720373
1.4921661278288982,-0.2537853759765625,2.442085693359375,9.619902270507811,9.92827826185847
1.4946530713752797,-0.3112462158203125,2.5522189697265625,10.342951171874999,10.657735914352775
1.4971400149216612,-0.373495458984375,2.5474305664062498,11.03248125,11.328925098178749
1.4996269584680426,-0.44053310546874996,2.6479870361328124,11.635820068359374,11.941449385387694
1.5021139020144243,-0.5602431884765625,2.7437551025390623,11.975796704101562,12.29885243390266
1.5046008455608058,-0.63206923828125,2.7198130859375,12.148179223632813,12.464957007303404
1.5070877891071872,-0.6703764648437499,2.85388837890625,12.152967626953124,12.501548129157571
1.5095747326535687,-0.7422025146484375,2.7724855224609373,11.923124267578125,12.263703879542932
1.5120616761999501,-0.8044517578125,2.7581203125,11.449072338867186,11.804051326111999
1.5145486197463316,-0.8044517578125,2.7581203125,10.903194360351561,11.275372168956322
1.5170355632927133,-0.8044517578125,2.7150246826171873,10.213664282226562,10.598935782799083
1.5195225068390947,-0.74699091796875,2.6431986328124997,9.428366137695312,9.820314784693476
1.5220094503854762,-0.70868369140625,2.5857377929687497,8.686163623046875,9.090528642207499
1.5244963939318577,-0.6272808349609375,2.5234885498046875,7.982268334960937,8.395122600547577
1.5269833374782391,-0.6081272216796875,2.4851813232421875,7.41244833984375,7.841577348849657
1.5294702810246206,-0.4644751220703125,2.427720483398437,6.962338427734375,7.388079606152152
1.5319572245710023,-0.4165910888671875,2.27927998046875,6.7803791015625,7.165347592796505
1.5344441681173837,-0.38786066894531246,2.269703173828125,6.766013891601562,7.147092582102563
1.5369311116637652,-0.3064578125,2.29843359375,6.9719152343749995,7.347401949739175
1.5394180552101466,-0.2442085693359375,2.2936451904296873,7.369352709960937,7.721904263115864
1.541904998756528,-0.2442085693359375,2.31758720703125,7.876923461914062,8.21442460020081
1.5443919423029095,-0.26336218261718747,2.3319524169921872,8.604760766601562,8.919039722122225
1.5468788858492912,-0.24899697265624998,2.461239306640625,9.34696328125,9.668785911270378
1.5493658293956727,-0.3016694091796875,2.47081611328125,10.1131078125,10.414935733135064
1.5518527729420541,-0.38307226562499996,2.5857377929687497,10.845733520507812,11.156286115573801
1.5543397164884356,-0.430956298828125,2.6288334228515624,11.420341918945311,11.726921933833301
1.556826660034817,-0.5315127685546874,2.6958710693359373,11.899182250976562,12.212320209017399
1.5593136035811985,-0.5889736083984375,2.7341782958984373,12.152967626953124,12.470655275763283
1.5618005471275802,-0.6512228515624999,2.77727392578125,12.20085166015625,12.529889181248137
1.5642874906739617,-0.7134720947265625,2.7916391357421872,11.990161914062499,12.331515487546362
1.5667744342203431,-0.7805097412109374,2.7916391357421872,11.631031665039062,11.986798659920582
1.5692613777667246,-0.833182177734375,2.786850732421875,11.094730493164063,11.469689370773692
1.571748321313106,-0.7757213378906249,2.8012159423828122,10.433930834960936,10.831226478043337
1.5742352648594875,-0.7948749511718749,2.6623522460937497,9.696516723632811,10.086742895601716
1.5767222084058692,-0.699106884765625,2.6431986328124997,8.954314208984375,9.362424493796894
1.5792091519522506,-0.689530078125,2.4947581298828125,8.226476904296874,8.624047316207474
1.581696095498632,-0.6464344482421874,2.4564509033203126,7.560888842773437,7.976156256560751
1.5841830390450136,-0.5458779785156249,2.365471240234375,7.101202124023437,7.5046990987007085
1.586669982591395,-0.4836287353515625,2.3319524169921872,6.83783994140625,7.2407150125567075
1.5891569261377765,-0.3447650390625,2.346317626953125,6.751648681640624,7.15603446463265
1.5916438696841582,-0.3399766357421875,2.29843359375,6.919242797851562,7.298924714870666
1.5941308132305396,-0.26815058593749996,2.327164013671875,7.168239770507812,7.541303500772124
1.596617756776921,-0.27293898925781246,2.3032219970703123,7.728482958984374,8.069000936110834
1.5991047003233025,-0.22505495605468748,2.2936451904296873,8.350975390624999,8.66315461986281
1.601591643869684,-0.229843359375,2.403778466796875,9.088389501953124,9.403712172673984
1.6040785874160655,-0.296881005859375,2.418143676757812,9.859322436523437,10.155874953957355
1.6065655309624471,-0.354341845703125,2.5330653564453125,10.606313354492187,10.910355687021346
1.6090524745088286,-0.4165910888671875,2.6240450195312497,11.233594189453123,11.543517610034009
1.61153941805521,-0.469263525390625,2.6910826660156246,11.755530151367187,12.068745722372928
1.6140263616015915,-0.5698199951171875,2.73896669921875,12.066776367187499,12.386836775463676
1.616513305147973,-0.6703764648437499,2.7581203125,12.186486450195313,12.512676942350723
1.6190002486943544,-0.70868369140625,2.81558115234375,12.095506787109374,12.439092178969792
1.6214871922407361,0.2920926025390625,3.806780639648437,3.5960908935546874,5.2448800407223
1.6239741357871176,-0.19632453613281248,4.141968872070312,7.924807495117187,8.94410550560271
1.626461079333499,-0.7038952880859375,4.218583325195312,12.095506787109374,12.829388071346756
1.6289480228798805,-1.1635820068359375,4.299986181640625,15.80173095703125,16.41762788856333
1.631434966426262,-1.5705962890624998,4.180276098632812,18.780117822265623,19.303738145297054
1.6339219099726436,-1.8195932617187498,3.9312791259765625,20.867861669921872,21.312755004443368
1.636408853519025,-1.9967641845703124,3.6008792968749996,21.921310400390624,22.304646345318275
1.6388957970654066,-2.020706201171875,3.1411925781249996,21.883003173828122,22.199463332929778
1.641382740611788,-1.9680337646484374,2.7437551025390623,20.834342846679686,21.10618844828451
1.6438696841581695,-1.7238251953125,2.3032219970703123,19.091364038085935,19.306905130198977
1.646356627704551,-1.4604630126953124,1.924938134765625,16.606182714843747,16.781050127834707
1.6488435712509326,-1.0869675537109373,1.637633935546875,13.680468286132811,13.820946273593595
1.651330514797314,-0.737414111328125,1.3455413330078123,10.625466967773438,10.735679267454982
1.6538174583436955,-0.3447650390625,1.24498486328125,7.671022119140624,7.779037896443487
1.656304401890077,0.01915361328125,1.2832920898437499,5.099649536132812,5.258671965443069
1.6587913454364585,0.2825157958984375,1.3168109130859373,2.987963671875,3.2774583231826275
1.66127828898284,0.5027823486328125,1.4700398193359374,1.5610194824218748,2.2024052726577414
1.6637652325292216,0.5889736083984375,1.7477672119140624,0.852335791015625,2.0317619051153515
1.666252176075603,0.6081272216796875,2.068590234375,0.8475473876953125,2.3167263217498566
1.6687391196219845,0.5410895751953124,2.379836450195312,1.5658078857421873,2.899681670996954
1.671226063168366,0.39264907226562495,2.6958710693359373,2.906560815429687,3.9837155885209516
1.6737130067147474,0.1867477294921875,3.0454245117187497,4.668693237304687,5.5772916110870865
1.676199950261129,-0.1197100830078125,3.21780703125,6.6271501953125,7.3680209219006825
1.6786868938075106,-0.39264907226562495,3.4332851806640625,8.772354882812499,9.428458549292287
1.681173837353892,-0.6655880615234374,3.5290532470703124,10.778695874023438,11.36122832412895
1.6836607809002735,-0.9193734375,3.6152445068359373,12.603077539062499,13.143546089903198
1.686147724446655,-1.1348515869140625,3.4811692138671875,14.025233325195313,14.495295686741516
1.6886346679930364,-1.235408056640625,3.361459130859375,14.911087939453123,15.335129086282738
1.6911216115394179,-1.3838485595703125,3.1268273681640624,15.385139868164062,15.760539806399269
1.6936085550857995,-1.3742717529296875,2.925714428710937,15.265429785156249,15.6039025341356
1.696095498632181,-1.3168109130859373,2.710236279296875,14.72912861328125,15.034181100978516
1.6985824421785625,-1.1827356201171875,2.427720483398437,13.819331982421874,14.08071826055029
1.701069385724944,-1.01514150390625,2.2074539306640624,12.516886279296875,12.750521842568157
1.7035563292713254,-0.8092401611328125,1.9632453613281249,11.166556542968749,11.366670005524258
1.7060432728177068,-0.584185205078125,1.8339584716796873,9.696516723632811,9.88570243338169
1.7085302163640885,-0.39264907226562495,1.7477672119140624,8.269572534179687,8.461364749202811
1.71101715991047,-0.19632453613281248,1.70467158203125,7.1203557373046875,7.324200594729808
1.7135041034568514,-0.033518823242187495,1.8148048583984373,6.268019946289062,6.525543213607251
1.715991047003233,0.11013327636718749,1.924938134765625,5.736507177734374,6.051861759941013
1.7184779905496144,0.15322890625,2.0877438476562498,5.53539423828125,5.918001592119958
1.7209649340959958,0.143652099609375,2.212242333984375,5.659892724609374,6.0785720135637895
1.7234518776423775,0.06703764648437499,2.4899697265625,6.143521459960938,6.629275919302534
1.725938821188759,-0.0526724365234375,2.6862942626953124,6.871358764648437,7.377975503067895
1.7284257647351404,-0.1580173095703125,2.863465185546875,7.785943798828124,8.297308188652087
1.7309127082815219,-0.33518823242187495,3.0071172851562498,8.743624462890624,9.252355065922348
1.7333996518279033,-0.5123591552734374,3.0980969482421874,9.706093530273437,10.201419912106156
1.7358865953742848,-0.6847416748046875,3.208230224609375,10.568006127929687,11.065458230695684
1.7383735389206665,-0.833182177734375,3.1842882080078123,11.3006318359375,11.770223609785667
1.740860482467048,-0.9624690673828125,3.1172505615234374,11.793837377929687,12.236756018898078
1.7433474260134294,-1.0199299072265624,3.0693665283203124,12.023680737304687,12.45111104976018
1.7458343695598109,-1.0582371337890624,2.868253588867187,12.018892333984374,12.401633659211514
1.7483213131061923,-1.0438719238281249,2.7629087158203123,11.774683764648437,12.139460899182795
1.7508082566525738,-1.01514150390625,2.5522189697265625,11.334150659179686,11.662216989379354
1.7532952001989555,-0.8858546142578124,2.446874096679687,10.764330664062498,11.074418534978713
1.755782143745337,-0.7852981445312499,2.269703173828125,10.065223779296874,10.347800510273327
1.7582690872917184,-0.612915625,2.1499930908203124,9.409212524414063,9.671164158648878
1.7607560308380998,-0.4836287353515625,2.0733786376953125,8.805873706054687,9.05959201376609
1.7632429743844813,-0.3447650390625,2.020706201171875,8.279149340820313,8.529151792014236
1.765729917930863,-0.229843359375,2.0159177978515626,7.948749511718749,8.20361940472573
1.7682168614772444,-0.16280571289062498,2.0829554443359375,7.709329345703124,7.987425620546204
1.770703805023626,-0.0909796630859375,2.0925322509765625,7.709329345703124,7.988787610206672
1.7731907485700074,-0.1292868896484375,2.2457611572265623,7.857769848632812,8.173414541623684
1.7756776921163888,-0.1005564697265625,2.398990063476562,8.192958081054687,8.537553926399672
1.7781646356627703,-0.19153613281249998,2.5426421630859375,8.576030346679687,8.947067215956636
1.780651579209152,-0.277727392578125,2.6527754394531247,9.131485131835937,9.513063163339911
1.7831385227555334,-0.38307226562499996,2.786850732421875,9.600748657226562,10.004381847207206
1.7856254663019149,-0.430956298828125,2.877830395507812,10.09395419921875,10.50502463075333
1.7881124098482963,-0.584185205078125,2.9735984619140625,10.500968481445312,10.92949675030089
1.7905993533946778,-0.7230489013671875,2.978386865234375,10.793061083984375,11.219793028188484
1.7930862969410593,-0.7757213378906249,2.9975404785156248,10.922347973632812,11.352738778441054
1.795573240487441,-0.8092401611328125,2.978386865234375,10.9175595703125,11.3454292527305
1.7980601840338224,-0.8714894042968749,2.85388837890625,10.658985791015624,11.068791747708095
1.8005471275802039,-0.8475473876953125,2.839523168945312,10.419565624999999,10.83275478422031
1.8030340711265853,-0.8379705810546875,2.6288334228515624,9.993397729492187,10.367302351124627
1.8055210146729668,-0.8188169677734375,2.5426421630859375,9.543287817382812,9.910087424519686
1.8080079582193482,-0.7038952880859375,2.427720483398437,9.02135185546875,9.368782451432597
1.81049490176573,-0.603338818359375,2.327164013671875,8.63827958984375,8.966581530805358
1.8129818453121114,-0.5123591552734374,2.2266075439453124,8.307879760742187,8.616330957994613
1.8154687888584928,-0.430956298828125,2.1835119140624997,8.130708837890625,8.429820509174867
1.8179557324048743,-0.3064578125,2.1404162841796874,8.030152368164062,8.3161677061225
1.8204426759512558,-0.277727392578125,2.1691467041015624,8.06367119140625,8.354946020867999
1.8229296194976372,-0.22505495605468748,2.212242333984375,8.25520732421875,8.549451084330052
1.825416563044019,-0.181959326171875,2.269703173828125,8.556876733398436,8.854648560176845
1.8279035065904004,-0.1771709228515625,2.35589443359375,8.949525805664061,9.256113669590983
1.8303904501367818,-0.2346317626953125,2.437297290039062,9.394847314453125,9.708688181519909
1.8328773936831633,-0.3016694091796875,2.6048914062499997,9.926360083007811,10.266892819559418
1.8353643372295447,-0.3591302490234375,2.6336218261718747,10.333374365234375,10.669749961041049
1.8378512807759262,-0.44053310546874996,2.7916391357421872,10.759542260742187,11.124525524350169
1.8403382243223079,-0.584185205078125,2.825157958984375,10.97502041015625,11.347857192016084
1.8428251678686893,-0.6416460449218749,2.89219560546875,11.123460913085937,11.511207050184062
1.8453121114150708,-0.679953271484375,2.896984008789062,11.051634863281249,11.44523857112098
1.8477990549614522,-0.7565677246093749,2.916137622070312,10.907982763671875,11.316374919793759
1.8502859985078337,-0.7996633544921875,2.858676782226562,10.625466967773438,11.032318102239591
1.8527729420542152,-0.7948749511718749,2.8012159423828122,10.213664282226562,10.620620274442107
1.8552598856005968,-0.86191259765625,2.710236279296875,9.648632690429688,10.059045024774665
1.8577468291469783,-0.7709329345703124,2.6192566162109374,9.160215551757812,9.558472250618069
1.8602337726933598,-0.718260498046875,2.5043349365234375,8.628702783203124,9.013440150031714
1.8627207162397412,-0.6368576416015624,2.43250888671875,8.226476904296874,8.602186314917962
1.8652076597861227,-0.5793968017578125,2.3511060302734372,7.900865478515625,8.263599429369458
1.8676946033325041,-0.4644751220703125,2.269703173828125,7.6470801025390625,7.990314369970466
1.8701815468788858,-0.4261678955078125,2.1835119140624997,7.570465649414062,7.890582583242678
1.8726684904252673,-0.3112462158203125,2.24097275390625,7.6997525390625,8.025273967498682
1.8751554339716487,-0.2442085693359375,2.1835119140624997,7.953537915039062,8.251431843635013
1.8776423775180302,-0.2346317626953125,2.2744915771484373,8.336610180664062,8.644503068594306
1.8801293210644117,-0.2442085693359375,2.29843359375,8.858546142578124,9.155122859383232
1.8826162646107931,-0.229843359375,2.384624853515625,9.404424121093749,9.704764639663505
1.8851032081571748,-0.239420166015625,2.4756045166015626,9.964667309570311,10.270371674332543
1.8875901517035563,-0.32561142578124996,2.6048914062499997,10.563217724609375,10.884532637484076
1.8900770952499377,-0.4165910888671875,2.6958710693359373,10.979808813476561,11.313596710962594
1.8925640387963192,-0.45968671875,2.767697119140625,11.319785449218749,11.662289733969011
1.8950509823427006,-0.5602431884765625,2.868253588867187,11.544840405273437,11.908992025504006
1.897537925889082,-0.6368576416015624,2.839523168945312,11.549628808593749,11.910600534773307
1.9000248694354638,-0.6943184814453125,2.858676782226562,11.314997045898437,11.691162014428167
1.9025118129818452,-0.7757213378906249,2.858676782226562,11.042058056640624,11.432446049097374
1.9049987565282267,-0.7709329345703124,2.868253588867187,10.596736547851561,11.00509162634404
1.9074857000746082,-0.7948749511718749,2.7724855224609373,10.060435375976562,10.46569931320677
1.9099726436209896,-0.8092401611328125,2.6527754394531247,9.437942944335937,9.837014495826285
1.9124595871673713,-0.7709329345703124,2.6096798095703124,8.805873706054687,9.216733587614945
1.9149465307137528,-0.70868369140625,2.5043349365234375,8.250418920898436,8.651204449039218
1.9174334742601342,-0.6081272216796875,2.437297290039062,7.7763669921875,8.172032819009164
1.9199204178065157,-0.5793968017578125,2.35589443359375,7.4411787597656245,7.82669026925892
1.9224073613528971,-0.44532150878906246,2.288856787109375,7.273584643554687,7.638207263817956
1.9248943048992786,-0.373495458984375,2.269703173828125,7.235277416992187,7.592120300417042
1.9273812484456603,-0.3016694091796875,2.221819140625,7.455543969726562,7.78541075413549
1.9298681919920417,-0.27293898925781246,2.2266075439453124,7.766790185546874,8.084262899789843
1.9323551355384232,-0.24899697265624998,2.29843359375,8.29351455078125,8.609714285694436
1.9348420790848047,-0.229843359375,2.360682836914062,8.820238916015624,9.133579033541336
1.9373290226311861,-0.26336218261718747,2.389413256835937,9.509768994140625,9.808891969692327
1.9398159661775676,-0.3112462158203125,2.4516625,10.137049829101562,10.433949513892461
1.9423029097239493,-0.33518823242187495,2.5761609863281247,10.70686982421875,11.017532301354928
1.9447898532703307,-0.45010991210937495,2.6527754394531247,11.243170996093749,11.560653550407457
1.9472767968167122,-0.5027823486328125,2.6719290527343746,11.602301245117188,11.916601408765446
1.9497637403630936,-0.6177040283203125,2.7341782958984373,11.774683764648437,12.103737727571625
1.952250683909475,-0.689530078125,2.844311572265625,11.789048974609374,12.146902311886004
1.9547376274558566,-0.7230489013671875,2.877830395507812,11.597512841796874,11.97109066103504
1.9572245710022382,-0.7900865478515624,2.849099975585937,11.2240173828125,11.606901982598842
1.9597115145486197,-0.814028564453125,2.806004345703125,10.740388647460938,11.130689609829133
1.9621984580950012,-0.814028564453125,2.748543505859375,10.089165795898436,10.48848894571922
1.9646854016413826,-0.689530078125,2.6910826660156246,9.452308154296874,9.852081358157575
1.967172345187764,-0.718260498046875,2.5713725830078125,8.757989672851561,9.155885441259814
1.9696592887341455,-0.6512228515624999,2.5713725830078125,8.183381274414062,8.602544812174603
1.9721462322805272,-0.5602431884765625,2.43250888671875,7.64229169921875,8.039626504393588
1.9746331758269087,-0.5267243652343749,2.35589443359375,7.254431030273437,7.645550778862416
1.9771201193732901,-0.430956298828125,2.389413256835937,6.9910688476562495,7.400679879315997
1.9796070629196716,-0.39264907226562495,2.2840683837890623,6.995857250976562,7.369746288157902
1.982094006466053,-0.32561142578124996,2.250549560546875,7.211335400390625,7.561372519721803
1.9845809500124345,-0.2442085693359375,2.288856787109375,7.570465649414062,7.912676751023766
1.9870678935588162,-0.22505495605468748,2.2936451904296873,8.087613208007811,8.409574626291652
1.9895548371051976,-0.24899697265624998,2.3415292236328122,8.71489404296875,9.027410302943512
1.992041780651579,-0.3016694091796875,2.389413256835937,9.3852705078125,9.689355120398531
1.9945287241979606,-0.27293898925781246,2.47081611328125,10.098742602539062,10.400193753476172
1.997015667744342,-0.33518823242187495,2.5378537597656248,10.78348427734375,11.083166786475354
1.9995026112907235,-0.4261678955078125,2.6240450195312497,11.310208642578125,11.61843581891888
2.001989554837105,-0.469263525390625,2.7054478759765623,11.722011328125,12.039319168565095
2.0044764983834864,-0.5698199951171875,2.7581203125,11.956643090820311,12.283860813535846
2.006963441929868,-0.6703764648437499,2.829946362304687,11.942277880859374,12.291297816007917
2.0094503854762498,-0.689530078125,2.834734765625,11.832144604492187,12.186501502141445
2.011937329022631,-0.74699091796875,2.806004345703125,11.429918725585937,11.792993593364352
2.0144242725690127,-0.8044517578125,2.7533319091796873,10.903194360351561,11.27420181176285
2.016911216115394,-0.82360537109375,2.6958710693359373,10.275913525390624,10.655535904452808
2.0193981596617756,-0.7757213378906249,2.6958710693359373,9.610325463867188,10.011384516538927
2.021885103208157,-0.7422025146484375,2.5665841796874997,8.8872765625,9.280188770845905
2.0243720467545385,-0.679953271484375,2.5234885498046875,8.17859287109375,8.586018417375028
2.02685899030092,-0.6368576416015624,2.461239306640625,7.6087728759765625,8.022263474756722
2.0293459338473014,-0.5363011718749999,2.3319524169921872,7.1586629638671875,7.5479849266088195
2.031832877393683,-0.469263525390625,2.3511060302734372,6.9336080078124995,7.336404284651424
2.0343198209400644,-0.3687070556640625,2.308010400390625,6.871358764648437,7.257990642989191
2.036806764486446,-0.316034619140625,2.288856787109375,6.9719152343749995,7.344817581649132
2.0392937080328277,-0.3016694091796875,2.2649147705078123,7.369352709960937,7.715452204110131
2.041780651579209,-0.26336218261718747,2.27927998046875,7.876923461914062,8.204291565604597
2.0442675951255906,-0.239420166015625,2.3319524169921872,8.508992700195313,8.826000275492165
2.046754538671972,-0.26815058593749996,2.422932080078125,9.203311181640624,9.520684917983667
2.0492414822183536,-0.24899697265624998,2.480392919921875,9.993397729492187,10.299628474338778
2.0517284257647352,-0.354341845703125,2.5617957763671875,10.692504614257812,11.000818636326738
2.0542153693111165,-0.44532150878906246,2.5809493896484375,11.2240173828125,11.525544551464542
2.056702312857498,-0.51714755859375,2.6479870361328124,11.693280908203125,12.000503961877376
2.0591892564038794,-0.584185205078125,2.77727392578125,11.975796704101562,12.307486725998384
2.061676199950261,-0.6081272216796875,2.806004345703125,12.08592998046875,12.422285723595559
2.0641631434966423,-0.6751648681640625,2.829946362304687,11.937489477539062,12.286907627189208
2.066650087043024,-0.7134720947265625,2.839523168945312,11.640608471679688,12.0031537459066
2.0691370305894057,-0.842758984375,2.7198130859375,11.089942089843749,11.44964809434201
2.071623974135787,-0.7996633544921875,2.7533319091796873,10.472238061523436,10.857627185524695
2.0741109176821686,-0.7852981445312499,2.748543505859375,9.787496386718749,10.196385148641578
2.07659786122855,-0.7709329345703124,2.6096798095703124,8.997409838867187,9.399901600901373
2.0790848047749315,-0.699106884765625,2.5761609863281247,8.322244970703125,8.739857963159313
2.081571748321313,-0.5985504150390625,2.518700146484375,7.785943798828124,8.205061478487165
2.0840586918676944,-0.5506663818359374,2.389413256835937,7.196970190429687,7.6032170229424025
2.086545635414076,-0.4740519287109375,2.3415292236328122,6.909665991210937,7.311016922859504
2.0890325789604574,-0.40222587890625,2.308010400390625,6.823474731445312,7.214464988940335
2.091519522506839,-0.3591302490234375,2.288856787109375,6.885723974609375,7.2650557177609185
2.0940064660532203,-0.28730419921875,2.2266075439453124,7.187393383789062,7.529870417940649
2.096493409599602,-0.28730419921875,2.2649147705078123,7.690175732421874,8.021919060678902
2.0989803531459836,-0.239420166015625,2.327164013671875,8.307879760742187,8.630983749340166
2.101467296692365,-0.24899697265624998,2.379836450195312,9.030928662109375,9.342552837537438
2.1039542402387466,-0.2920926025390625,2.422932080078125,9.787496386718749,10.087170241111345
2.106441183785128,-0.354341845703125,2.47081611328125,10.481814868164061,10.774921500397658
2.1089281273315095,-0.38307226562499996,2.6719290527343746,11.123460913085937,11.446280265155476
2.111415070877891,-0.488417138671875,2.6815058593749996,11.659762084960937,11.97410025234061
2.1139020144242724,-0.5793968017578125,2.7533319091796873,11.97100830078125,12.297218262410725
2.116388957970654,-0.6416460449218749,2.7916391357421872,12.152967626953124,12.485975366503888
2.1188759015170353,-0.6512228515624999,2.8107927490234372,12.061987963867187,12.40226595106059
2.121362845063417,-0.7709329345703124,2.825157958984375,11.765106958007811,12.124091587256414
2.1238497886097982,-0.8044517578125,2.806004345703125,11.310208642578125,11.680822854465406
2.12633673215618,-0.7996633544921875,2.7629087158203123,10.716446630859375,11.095735867644416
2.1288236757025616,-0.7805097412109374,2.710236279296875,9.9981861328125,10.388373409350777
2.131310619248943,-0.7709329345703124,2.6623522460937497,9.236830004882812,9.64372778602699
2.1337975627953245,-0.718260498046875,2.5761609863281247,8.494627490234375,8.905683565475432
2.1362845063417057,-0.6368576416015624,2.5426421630859375,7.8912886718749995,8.315230227001013
2.1387714498880874,-0.5458779785156249,2.461239306640625,7.350199096679687,7.770528196513543
2.141258393434469,-0.5410895751953124,2.379836450195312,6.938396411132812,7.355116873040425
2.1437453369808503,-0.39743747558593745,2.35589443359375,6.746860278320312,7.157396086875072
2.146232280527232,-0.3591302490234375,2.3032219970703123,6.828263134765624,7.215191164560469
2.1487192240736133,-0.26815058593749996,2.2840683837890623,7.077260107421875,7.441537727289199
2.151206167619995,-0.32082302246093747,2.3032219970703123,7.503428002929687,7.85551976476916
2.153693111166376,-0.258573779296875,2.308010400390625,8.087613208007811,8.41446729211027
2.156180054712758,-0.229843359375,2.408566870117187,8.825027319335938,9.150690111936942
2.1586669982591395,-0.2825157958984375,2.418143676757812,9.572018237304688,9.876779189172423
2.161153941805521,-0.3112462158203125,2.518700146484375,10.338162768554687,10.645108457122134
2.1636408853519025,-0.354341845703125,2.5522189697265625,11.027692846679686,11.324724691300831
2.1661278288982837,-0.45489831542968745,2.6575638427734374,11.583147631835937,11.892808209868011
2.1686147724446654,-0.55545478515625,2.7724855224609373,11.980585107421874,12.309737020212383
2.171101715991047,-0.6081272216796875,2.7820623291015623,12.133814013671874,12.463512026677465
2.1735886595374283,-0.6847416748046875,2.8012159423828122,12.143390820312499,12.48109059865859
2.17607560308381,-0.74699091796875,2.7964275390625,11.908759057617187,12.255469991197169
2.178562546630191,-0.74699091796875,2.839523168945312,11.482591162109374,11.852037253344141
2.181049490176573,-0.814028564453125,2.729389892578125,10.922347973632812,11.2875992552258
2.1835364337229546,-0.8379705810546875,2.7724855224609373,10.213664282226562,10.616393395923083
2.186023377269336,-0.7900865478515624,2.7054478759765623,9.490615380859374,9.90027601989594
2.1885103208157175,-0.7422025146484375,2.5809493896484375,8.743624462890624,9.146755330319952
2.1909972643620987,-0.6847416748046875,2.518700146484375,8.02536396484375,8.439146186512433
2.1934842079084804,-0.5985504150390625,2.4851813232421875,7.445967163085937,7.8725355383440005
2.1959711514548617,-0.5027823486328125,2.437297290039062,6.986280444335937,7.416287657382177
2.1984580950012433,-0.44053310546874996,2.384624853515625,6.737283471679687,7.160411558478092
2.200945038547625,-0.373495458984375,2.269703173828125,6.756437084960937,7.137260919862945
2.2034319820940063,-0.32561142578124996,2.29843359375,6.904877587890625,7.284651967611911
2.205918925640388,-0.24899697265624998,2.288856787109375,7.345410693359375,7.69778689873959
2.208405869186769,-0.229843359375,2.327164013671875,7.867346655273437,8.20753700635095
2.210892812733151,-0.239420166015625,2.346317626953125,8.537723120117187,8.857496514152825
2.2133797562795325,-0.2825157958984375,2.442085693359375,9.318232861328125,9.637067052095155
2.2158666998259138,-0.32561142578124996,2.4899697265625,10.0748005859375,10.383042852950362
2.2183536433722955,-0.38307226562499996,2.5857377929687497,10.797849487304687,11.109740674073542
2.2208405869186767,-0.40222587890625,2.6623522460937497,11.396399902343749,11.710159515313315
2.2233275304650584,-0.51714755859375,2.6815058593749996,11.875240234375,12.18520602597021
2.2258144740114396,-0.5793968017578125,2.767697119140625,12.12423720703125,12.449617498122079
2.2283014175578213,-0.6655880615234374,2.77727392578125,12.16254443359375,12.493348031076748
2.230788361104203,-0.718260498046875,2.8107927490234372,12.028469140624999,12.373379646967322
2.233275304650584,-0.7709329345703124,2.825157958984375,11.674127294921874,12.035825820476877
2.235762248196966,-0.7852981445312499,2.7724855224609373,11.171344946289063,11.536997748852944
2.238249191743347,-0.7900865478515624,2.77727392578125,10.520122094726561,10.909191358660566
2.240736135289729,-0.7852981445312499,2.7198130859375,9.753977563476562,10.156483382896132
2.2432230788361105,-0.7517793212890624,2.6384102294921874,8.959102612304687,9.369733203502197
2.2457100223824917,-0.7134720947265625,2.5617957763671875,8.2743609375,8.691196060024888
2.2481969659288734,-0.6368576416015624,2.4756045166015626,7.64229169921875,8.058463116142692
2.2506839094752547,-0.5123591552734374,2.446874096679687,7.125144140624999,7.550985616042273
2.2531708530216363,-0.4740519287109375,2.3511060302734372,6.87614716796875,7.2824326067782685
2.2556577965680176,-0.37828386230468747,2.31758720703125,6.746860278320312,7.143838797023034
2.2581447401143993,-0.33039982910156246,2.269703173828125,6.813897924804687,7.18957032610527
2.260631683660781,-0.277727392578125,2.3032219970703123,7.1586629638671875,7.525185678946436
2.263118627207162,-0.2442085693359375,2.327164013671875,7.6614453125,8.01080984971524
2.265605570753544,-0.22505495605468748,2.360682836914062,8.327033374023436,8.658115152955956
2.268092514299925,-0.258573779296875,2.398990063476562,9.064447485351561,9.380097117764581
2.2705794578463068,-0.28730419921875,2.4756045166015626,9.811438403320311,10.123017582107392
2.2730664013926885,-0.33518823242187495,2.5953145996093747,10.558429321289061,10.877887605355934
2.2755533449390697,-0.4165910888671875,2.5953145996093747,11.190498559570312,11.495062593044649
2.2780402884854514,-0.47884033203125,2.710236279296875,11.745953344726562,12.064082589641448
2.2805272320318326,-0.5267243652343749,2.73896669921875,12.066776367187499,12.38492910888373
2.2830141755782143,-0.612915625,2.77727392578125,12.224793676757812,12.551274694687043
2.2855011191245955,-0.718260498046875,2.7724855224609373,12.157756030273436,12.490540653108662
2.287988062670977,-0.7517793212890624,2.844311572265625,11.851298217773437,12.211001183958743
2.290475006217359,-0.7948749511718749,2.839523168945312,11.329362255859374,11.706800038416507
2.29296194976374,-0.8092401611328125,2.748543505859375,10.749965454101561,11.125246887434407
2.295448893310122,-0.7565677246093749,2.7341782958984373,10.036493359375,10.42973272085441
2.297935836856503,-0.7422025146484375,2.6527754394531247,9.275137231445312,9.675549223018773
2.3004227804028847,-0.7613561279296874,2.5378537597656248,8.504204296874999,8.907404536815413
2.3029097239492664,-0.6416460449218749,2.480392919921875,7.824251025390624,8.233040920127186
2.3053966674956476,-0.5889736083984375,2.427720483398437,7.268796240234375,7.686098843948574
2.3078836110420293,-0.507570751953125,2.408566870117187,6.924031201171875,7.34853934539824
2.3103705545884106,-0.43574470214843747,2.3367408203125,6.698976245117187,7.108200464211005
2.3128574981347922,-0.38786066894531246,2.29843359375,6.813897924804687,7.201558012892131
2.315344441681174,-0.2825157958984375,2.31758720703125,7.062894897460937,7.4387841728139135
2.317831385227555,-0.26815058593749996,2.288856787109375,7.503428002929687,7.849344044172396
2.320318328773937,-0.2442085693359375,2.3223756103515623,8.068459594726562,8.399589664538858
2.322805272320318,-0.229843359375,2.4660277099609376,8.820238916015624,9.161371904455164
2.3252922158666998,-0.26336218261718747,2.442085693359375,9.576806640625,9.886777412527428
2.327779159413081,-0.28730419921875,2.4851813232421875,10.299855541992187,10.599325171829935
2.3302661029594627,-0.411802685546875,2.6001030029296874,11.008539233398437,11.31892455717151
2.3327530465058444,-0.469263525390625,2.6910826660156246,11.554417211914062,11.872939454009177
2.3352399900522256,-0.5458779785156249,2.7629087158203123,11.990161914062499,12.316477989458635
2.3377269335986073,-0.5746083984375,2.8203695556640622,12.172121240234373,12.507805352220524
2.3402138771449885,-0.6847416748046875,2.806004345703125,12.181698046874999,12.519436842548362
2.34270082069137,-0.7709329345703124,2.7820623291015623,11.9518546875,12.29556988771675
2.345187764237752,-0.7900865478515624,2.8203695556640622,11.559205615234374,11.92451070857327
2.347674707784133,-0.8092401611328125,2.7581203125,10.927136376953124,11.298867496220478
2.350161651330515,-0.7613561279296874,2.729389892578125,10.266336718749999,10.650206662877402
2.352648594876896,-0.7565677246093749,2.6910826660156246,9.5001921875,9.902927457912957
2.3551355384232777,-0.7326257080078125,2.5953145996093747,8.734047656249999,9.140896387150748
2.357622481969659,-0.6703764648437499,2.5426421630859375,8.068459594726562,8.486134220353449
2.3601094255160406,-0.59376201171875,2.442085693359375,7.4699091796875,7.881362763700857
2.3625963690624223,-0.5602431884765625,2.346317626953125,6.986280444335937,7.391021125913257
2.3650833126088036,-0.4261678955078125,2.384624853515625,6.76122548828125,7.182076640537192
2.3675702561551852,-0.373495458984375,2.3032219970703123,6.7277066650390625,7.120840357463544
2.3700571997015665,-0.3112462158203125,2.2744915771484373,6.9144543945312495,7.285593024279778
2.372544143247948,-0.24899697265624998,2.2840683837890623,7.340622290039062,7.691794555188995
2.37503108679433,-0.2537853759765625,2.308010400390625,7.843404638671874,8.17987257549348
2.377518030340711,-0.229843359375,2.3319524169921872,8.52335791015625,8.839596150819764
2.3800049738870928,-0.2920926025390625,2.408566870117187,9.299079248046874,9.610379145368832
2.382491917433474,-0.2920926025390625,2.5139117431640625,10.089165795898436,10.401746814742374
2.3849788609798557,-0.38307226562499996,2.5426421630859375,10.735600244140624,11.03924300539605
2.387465804526237,-0.4165910888671875,2.6192566162109374,11.410765112304686,11.71493123347628
2.3899527480726186,-0.49320554199218747,2.7054478759765623,11.884817041015625,12.198835026947995
2.3924396916190003,-0.603338818359375,2.767697119140625,12.119448803710936,12.446091931960371
2.3949266351653815,-0.63206923828125,2.767697119140625,12.220005273437499,12.545444900366071
2.397413578711763,-0.7517793212890624,2.7581203125,12.066776367187499,12.400785930813324
2.3999005222581444,-0.7900865478515624,2.825157958984375,11.717222924804688,12.078868627312628
2.402387465804526,-0.7948749511718749,2.8107927490234372,11.166556542968749,11.542286042776857
2.404874409350908,-0.7805097412109374,2.786850732421875,10.544064111328124,10.93403038429669
2.407361352897289,-0.8044517578125,2.729389892578125,9.734823950195311,10.142164914733515
2.4098482964436707,-0.7565677246093749,2.6048914062499997,8.992621435546875,9.392821420815624
2.412335239990052,-0.6751648681640625,2.5378537597656248,8.2743609375,8.681105818338201
2.4148221835364336,-0.6272808349609375,2.47081611328125,7.637503295898437,8.051699827143274
2.417309127082815,-0.55545478515625,2.4133552734375,7.173028173828125,7.588487785897373
2.4197960706291965,-0.507570751953125,2.3223756103515623,6.809109521484374,7.212144550642563
2.4222830141755782,-0.39743747558593745,2.29843359375,6.7277066650390625,7.120589196315827
2.4247699577219595,-0.28730419921875,2.3032219970703123,6.861781958007812,7.24371637420453
2.427256901268341,-0.28730419921875,2.288856787109375,7.187393383789062,7.548511955883766
2.4297438448147224,-0.229843359375,2.3367408203125,7.666233715820312,8.017750620762886
2.432230788361104,-0.27293898925781246,2.3223756103515623,8.341398583984375,8.662958761549625
2.4347177319074857,-0.22505495605468748,2.418143676757812,9.05965908203125,9.379525108304783
2.437204675453867,-0.27293898925781246,2.4756045166015626,9.801861596679688,10.113337934378501
2.4396916190002487,-0.32082302246093747,2.4947581298828125,10.539275708007812,10.83527009297696
2.44217856254663,-0.354341845703125,2.6479870361328124,11.209652172851563,11.523614681316774
2.4446655060930116,-0.45968671875,2.6719290527343746,11.731588134765625,12.04079220425362
2.4471524496393933,-0.5315127685546874,2.73896669921875,12.12423720703125,12.441124235973486
2.4496393931857745,-0.63206923828125,2.806004345703125,12.224793676757812,12.558612676143175
2.452126336732156,-0.7422025146484375,2.786850732421875,12.167332836914062,12.504454803860822
2.4546132802785374,-0.7326257080078125,2.806004345703125,11.846509814453125,12.196318936469027
2.457100223824919,-0.7852981445312499,2.834734765625,11.401188305664062,11.77452797985797
2.4595871673713003,-0.7900865478515624,2.8107927490234372,10.773907470703124,11.162520988483351
2.462074110917682,-0.7709329345703124,2.7198130859375,10.01733974609375,10.408593392034856
2.4645610544640637,-0.7613561279296874,2.6623522460937497,9.265560424804686,9.670490815957757
2.467047998010445,-0.7038952880859375,2.6240450195312497,8.518569506835936,8.941314628392817
2.4695349415568266,-0.6703764648437499,2.5234885498046875,7.800309008789062,8.225704814677437
2.472021885103208,-0.5889736083984375,2.403778466796875,7.264007836914062,7.674037443456679
2.4745088286495895,-0.5123591552734374,2.379836450195312,6.909665991210937,7.325955060179372
2.4769957721959712,-0.4213794921875,2.3367408203125,6.751648681640624,7.1570020440160915
2.4794827157423525,-0.33518823242187495,2.327164013671875,6.809109521484374,7.203611314698528
2.481969659288734,-0.3447650390625,2.2840683837890623,7.034164477539062,7.403735625416195
2.4844566028351154,-0.296881005859375,2.2649147705078123,7.474697583007812,7.81595043527832
2.486943546381497,-0.229843359375,2.379836450195312,8.0828248046875,8.429027602446117
2.4894304899278783,-0.24899697265624998,2.360682836914062,8.786720092773438,9.101718131080585
2.49191743347426,-0.28730419921875,2.398990063476562,9.5384994140625,9.83974939211455
2.4944043770206417,-0.3399766357421875,2.4899697265625,10.314220751953124,10.615963596022208
2.496891320567023,-0.36391865234375,2.5857377929687497,11.056423266601563,11.3605885485638
2.4993782641134046,-0.45968671875,2.6958710693359373,11.597512841796874,11.915592172339611
2.501865207659786,-0.5219359619140624,2.70065947265625,11.947066284179687,12.2596236293848
2.5043521512061675,-0.6081272216796875,2.8203695556640622,12.20085166015625,12.537347581582083
2.506839094752549,-0.689530078125,2.849099975585937,12.167332836914062,12.515462866541135
2.5093260382989304,-0.7422025146484375,2.8107927490234372,12.00931552734375,12.356175779180743
2.511812981845312,-0.7422025146484375,2.825157958984375,11.535263598632811,11.899356636218045
2.5142999253916933,-0.7948749511718749,2.7820623291015623,10.9941740234375,11.368533742248136
2.516786868938075,-0.8379705810546875,2.7533319091796873,10.251971508789062,10.648283951597218
2.5192738124844563,-0.7900865478515624,2.6623522460937497,9.509768994140625,9.906970402564793
2.521760756030838,0.507570751953125,3.4763808105468748,-1.0582371337890624,3.6691575926235296
2.5242476995772196,0.0909796630859375,3.73495458984375,3.0406361083984375,4.817014742658207
2.526734643123601,-0.316034619140625,3.902548706054687,7.264007836914062,8.252004249779164
2.5292215866699825,-0.7852981445312499,3.9887399658203124,11.367669482421874,12.07272335276188
2.5317085302163638,-1.1013327636718748,3.9169139160156248,15.188815332031249,15.724352440477842
2.5341954737627455,-1.3934253662109375,3.754108203125,18.330007910156247,18.76230669822773
2.536682417309127,-1.618480322265625,3.5338416503906247,20.623653100585937,20.98672396008735
2.5391693608555084,-1.6807295654296874,3.1268273681640624,21.863849560546875,22.15016521086547
2.54165630440189,-1.7381904052734374,2.825157958984375,22.213403002929685,22.459699382421906
2.5441432479482713,-1.6424223388671875,2.4899697265625,21.485565698242187,21.691635110149925
2.546630191494653,-1.4796166259765624,2.1691467041015624,19.986795458984375,20.15853306922553
2.549117135041034,-1.216254443359375,1.915361328125,17.769764721679685,17.914028641043313
2.551604078587416,-0.9624690673828125,1.7094599853515624,15.112200878906249,15.239003102289917
2.5540910221337976,-0.6464344482421874,1.5849614990234373,12.172121240234373,12.291888216878055
2.556577965680179,-0.3591302490234375,1.5275006591796874,9.165003955078124,9.298361699576741
2.5590649092265605,-0.12449848632812499,1.62805712890625,6.392518432617187,6.597754299716757
2.5615518527729417,0.08140285644531249,1.7429788085937499,4.046200805664062,4.40639790668079
2.5640387963193234,0.181959326171875,1.8435352783203125,2.221819140625,2.892786167769766
2.566525739865705,0.2825157958984375,2.1356278808593747,1.0630255371093749,2.40223748055489
2.5690126834120863,0.3112462158203125,2.398990063476562,0.5793968017578125,2.487514459336654
2.571499626958468,0.229843359375,2.5809493896484375,0.7613561279296874,2.7007019227066715
2.5739865705048492,0.12449848632812499,2.844311572265625,1.618480322265625,3.2749178229053606
2.576473514051231,-0.0047884033203125,3.0597897216796874,2.935291235351562,4.240079091955091
2.5789604575976126,-0.2154781494140625,3.1459809814453124,4.707000463867187,5.665640346451267
2.581447401143994,-0.38307226562499996,3.23696064453125,6.655880615234374,7.411167609708199
2.5839343446903755,-0.565031591796875,3.227383837890625,8.757989672851561,9.35081013851638
2.5864212882367568,-0.7565677246093749,3.1699229980468746,10.692504614257812,11.178124237160352
2.5889082317831384,-0.8571241943359375,3.1459809814453124,12.512097875976561,12.929982655755916
2.5913951753295197,-0.9624690673828125,2.96881005859375,13.895946435546874,14.242103328134647
2.5938821188759014,-1.0582371337890624,2.8203695556640622,14.949395166015623,15.249877576280344
2.596369062422283,-1.0103531005859374,2.6623522460937497,15.490484741210937,15.750049218584458
2.5988560059686643,-0.97683427734375,2.4660277099609376,15.691597680664062,15.914199183229757
2.601342949515046,-0.9528922607421875,2.308010400390625,15.251064575195311,15.454121985595656
2.603829893061427,-0.8762778076171874,2.1739351074218747,14.518438867187498,14.706424575255005
2.606316836607809,-0.718260498046875,2.0973206542968748,13.512874169921874,13.693517459080285
2.6088037801541906,-0.6177040283203125,2.0542250244140625,12.234370483398436,12.420999148320677
2.611290723700572,-0.4836287353515625,2.068590234375,10.87925234375,11.084723445823952
2.6137776672469535,-0.3591302490234375,2.0781670410156248,9.485826977539062,9.717441341934364
2.6162646107933347,-0.3016694091796875,2.1930887207031247,8.183381274414062,8.477521551240127
2.6187515543397164,-0.21068974609375,2.2744915771484373,7.043741284179687,7.404862819937013
2.6212384978860976,-0.2442085693359375,2.3511060302734372,6.205770703124999,6.640702328119351
2.6237254414324793,-0.181959326171875,2.5522189697265625,5.597643481445312,6.154717167439965
2.626212384978861,-0.24899697265624998,2.6240450195312497,5.267243652343749,5.889946302817561
2.6286993285252422,-0.2920926025390625,2.710236279296875,5.291185668945312,5.952087412104031
2.631186272071624,-0.33039982910156246,2.829946362304687,5.616797094726562,6.298108451266985
2.633673215618005,-0.4070142822265625,2.8730419921875,6.129156249999999,6.781341110114074
2.636160159164387,-0.45489831542968745,2.940079638671875,6.842628344726562,7.461404922879409
2.6386471027107685,-0.5458779785156249,2.839523168945312,7.694964135742187,8.220300946118947
2.6411340462571498,-0.6368576416015624,2.849099975585937,8.585607153320312,9.068385110795361
2.6436209898035314,-0.6655880615234374,2.748543505859375,9.524134204101562,9.935121096845352
2.6461079333499127,-0.6703764648437499,2.6623522460937497,10.371681591796875,10.72890036902734
2.6485948768962944,-0.6943184814453125,2.6288334228515624,11.123460913085937,11.450948694485039
2.6510818204426756,-0.6416460449218749,2.5617957763671875,11.726799731445311,12.020496628184814
2.6535687639890573,-0.6416460449218749,2.4516625,12.109871997070313,12.372201034831994
2.656055707535439,-0.6655880615234374,2.384624853515625,12.363657373046875,12.609102537363366
2.65854265108182,-0.584185205078125,2.384624853515625,12.401964599609375,12.642643472620776
2.661029594628202,-0.51714755859375,2.288856787109375,12.220005273437499,12.443264679017979
2.663516538174583,-0.488417138671875,2.327164013671875,11.956643090820311,12.190798072691505
2.666003481720965,-0.5219359619140624,2.3511060302734372,11.477802758789062,11.727747988577905
2.6684904252673465,-0.44532150878906246,2.360682836914062,10.884040747070312,11.146007253118833
2.6709773688137277,-0.4740519287109375,2.427720483398437,10.28549033203125,10.578745830529025
2.6734643123601094,-0.47884033203125,2.5234885498046875,9.586383447265625,9.924516619089493
2.6759512559064906,-0.45489831542968745,2.5809493896484375,9.035717065429687,9.408103693933473
2.6784381994528723,-0.488417138671875,2.6623522460937497,8.451531860351562,8.87440485723783
2.6809251429992536,-0.49320554199218747,2.70065947265625,7.876923461914062,8.341626730965128
2.6834120865456352,-0.5267243652343749,2.7341782958984373,7.589619262695312,8.084274244690699
2.685899030092017,-0.5506663818359374,2.73896669921875,7.359775903320312,7.872196224091969
2.688385973638398,-0.5506663818359374,2.7581203125,7.235277416992187,7.7627121821658776
2.69087291718478,-0.5410895751953124,2.7246014892578123,7.249642626953125,7.763604151564319
2.693359860731161,-0.5315127685546874,2.6767174560546874,7.431601953125,7.916819421483343
2.6958468042775428,-0.5602431884765625,2.6527754394531247,7.728482958984374,8.19027098512082
2.6983337478239244,-0.55545478515625,2.5953145996093747,8.058882788085937,8.484679114816677
2.7008206913703057,-0.5506663818359374,2.5665841796874997,8.556876733398436,8.950459610884902
2.7033076349166874,-0.507570751953125,2.4899697265625,9.050082275390624,9.40008332403365
2.7057945784630686,-0.45010991210937495,2.480392919921875,9.6151138671875,9.940088664049181
2.7082815220094503,-0.4740519287109375,2.398990063476562,10.089165795898436,10.381288215481774
2.7107684655558315,-0.49320554199218747,2.365471240234375,10.544064111328124,10.817393118437801
2.713255409102213,-0.4740519287109375,2.35589443359375,10.979808813476561,11.23971375942689
2.715742352648595,-0.45010991210937495,2.360682836914062,11.262324609375,11.515875042584193
2.718229296194976,-0.45968671875,2.408566870117187,11.434707128906249,11.69465832639332
2.720716239741358,-0.47884033203125,2.499546533203125,11.487379565429686,11.765921562524506
2.723203183287739,-0.5267243652343749,2.5234885498046875,11.420341918945311,11.707674515613526
2.7256901268341207,-0.5363011718749999,2.5713725830078125,11.243170996093749,11.545928717734336
2.7281770703805024,-0.5123591552734374,2.6815058593749996,11.01332763671875,11.34664581325988
2.7306640139268836,-0.612915625,2.6336218261718747,10.529698901367187,10.871347130880853
2.7331509574732653,-0.6607996582031249,2.6958710693359373,10.046070166015625,10.422471050152792
2.7356379010196465,-0.5985504150390625,2.729389892578125,9.524134204101562,9.92557122400461
2.7381248445660282,-0.6655880615234374,2.7246014892578123,9.035717065429687,9.461006480782352
2.74061178811241,-0.6416460449218749,2.7246014892578123,8.518569506835936,8.966671030266742
2.743098731658791,-0.622492431640625,2.6575638427734374,8.039729174804688,8.490429177024694
2.745585675205173,-0.6272808349609375,2.6288334228515624,7.723694555664062,8.18289093170656
2.748072618751554,-0.622492431640625,2.5905261962890624,7.4794859863281244,7.939838374978961
2.7505595622979357,-0.584185205078125,2.50912333984375,7.378929516601562,7.81572601230075
2.753046505844317,-0.5267243652343749,2.4947581298828125,7.45075556640625,7.874961282056037
2.7555334493906987,-0.5315127685546874,2.437297290039062,7.599196069335937,7.998168840639661
2.7580203929370803,-0.44053310546874996,2.437297290039062,7.920019091796875,8.298264271007081
2.7605073364834616,-0.4070142822265625,2.389413256835937,8.33182177734375,8.677223661246684
2.7629942800298433,-0.430956298828125,2.346317626953125,8.86812294921875,9.183383601947096
2.7654812235762245,-0.3687070556640625,2.39420166015625,9.423577734375,9.729951890847131
2.767968167122606,-0.3495534423828125,2.427720483398437,9.988609326171874,10.285345430537651
2.770455110668988,-0.373495458984375,2.4660277099609376,10.568006127929687,10.85833988435325
2.772942054215369,-0.38786066894531246,2.4756045166015626,10.9941740234375,11.276121499822564
2.775428997761751,-0.43574470214843747,2.518700146484375,11.358092675781249,11.642164451036866
2.777915941308132,-0.507570751953125,2.6001030029296874,11.559205615234374,11.8588953174125
2.7804028848545137,-0.5315127685546874,2.6288334228515624,11.659762084960937,11.964251872395982
2.782889828400895,-0.584185205078125,2.6862942626953124,11.592724438476562,11.914222976177408
2.7853767719472766,-0.622492431640625,2.7437551025390623,11.295843432617186,11.640952183750255
2.7878637154936583,-0.6560112548828124,2.7150246826171873,10.941501586914061,11.292394200088676
2.7903506590400395,-0.737414111328125,2.7533319091796873,10.43871923828125,10.82088145713444
2.792837602586421,-0.7134720947265625,2.7533319091796873,9.945513696289062,10.344231325484454
2.7953245461328025,-0.7326257080078125,2.7150246826171873,9.3086560546875,9.724154307687881
2.797811489679184,-0.718260498046875,2.6958710693359373,8.734047656249999,9.168817122572744
2.800298433225566,-0.6655880615234374,2.6431986328124997,8.183381274414062,8.625383212505698
2.802785376771947,-0.6081272216796875,2.5809493896484375,7.728482958984374,8.170714002887776
2.8052723203183287,-0.584185205078125,2.4851813232421875,7.331045483398437,7.762836237025781
2.80775926386471,-0.5123591552734374,2.461239306640625,7.211335400390625,7.636986911437805
2.8102462074110917,-0.43574470214843747,2.4516625,7.1778165771484375,7.597471505345945
2.812733150957473,-0.411802685546875,2.384624853515625,7.345410693359375,7.733762046891945
2.8152200945038546,-0.3399766357421875,2.375048046875,7.6997525390625,8.064900898375301
2.8177070380502363,-0.3112462158203125,2.370259643554687,8.135497241210937,8.479464626170524
2.8201939815966175,-0.3112462158203125,2.375048046875,8.71489404296875,9.03809192318818
2.822680925142999,-0.296881005859375,2.403778466796875,9.342174877929686,9.651037286162403
2.8251678686893804,-0.32082302246093747,2.43250888671875,9.988609326171874,10.285540489764958
2.827654812235762,-0.36391865234375,2.4564509033203126,10.577582934570312,10.86516675268539
2.8301417557821438,-0.40222587890625,2.5330653564453125,11.123460913085937,11.415322529067497
2.832628699328525,-0.469263525390625,2.5761609863281247,11.5304751953125,11.824071714661493
2.8351156428749067,-0.507570751953125,2.6719290527343746,11.77947216796875,12.089367125165596
2.837602586421288,-0.5698199951171875,2.7150246826171873,11.918335864257811,12.236943393973428
2.8400895299676696,-0.6512228515624999,2.7581203125,11.789048974609374,12.124891528849263
2.842576473514051,-0.6464344482421874,2.8203695556640622,11.5304751953125,11.887986379370886
2.8450634170604325,-0.7134720947265625,2.77727392578125,11.085153686523437,11.450018565164951
2.847550360606814,-0.74699091796875,2.7581203125,10.529698901367187,10.910535369229423
2.8500373041531954,-0.7661445312499999,2.7198130859375,9.878476049804688,10.274660565282241
2.852524247699577,-0.737414111328125,2.6910826660156246,9.193734375,9.607833119125885
2.8550111912459584,-0.7134720947265625,2.5857377929687497,8.547299926757812,8.958315600708346
2.85749813479234,-0.6847416748046875,2.5761609863281247,7.967903124999999,8.401961485157985
2.8599850783387217,-0.5985504150390625,2.5043349365234375,7.465120776367187,7.896707179539097
2.862472021885103,-0.5410895751953124,2.446874096679687,7.173028173828125,7.598177673358206
2.8649589654314846,-0.4644751220703125,2.360682836914062,7.000645654296875,7.402540116240409
2.867445908977866,-0.4165910888671875,2.3415292236328122,7.062894897460937,7.4525694611341775
2.8699328525242476,-0.316034619140625,2.3367408203125,7.283161450195312,7.655369112683018
2.8724197960706292,-0.277727392578125,2.360682836914062,7.666233715820312,8.02627530967316
2.8749067396170105,-0.258573779296875,2.3223756103515623,8.231265307617187,8.556519002449415
2.877393683163392,-0.296881005859375,2.327164013671875,8.839392529296875,9.145419124630585
2.8798806267097734,-0.32561142578124996,2.39420166015625,9.5384994140625,9.839776189637897
2.882367570256155,-0.2920926025390625,2.4660277099609376,10.223241088867187,10.520516580275684
2.8848545138025363,-0.3687070556640625,2.5761609863281247,10.864887133789061,11.172212079545869
2.887341457348918,-0.430956298828125,2.6001030029296874,11.391611499023437,11.692522033420618
2.8898284008952997,-0.51714755859375,2.6958710693359373,11.808202587890625,12.123069362851504
2.892315344441681,-0.5602431884765625,2.7341782958984373,11.980585107421874,12.3013829669747
2.8948022879880626,-0.6464344482421874,2.7341782958984373,11.956643090820311,12.282301187110555
2.897289231534444,-0.70868369140625,2.81558115234375,11.846509814453125,12.197111321285576
2.8997761750808255,-0.718260498046875,2.767697119140625,11.463437548828125,11.814670791953386
2.902263118627207,-0.7517793212890624,2.7916391357421872,10.97502041015625,11.349427043488648
2.9047500621735884,-0.7852981445312499,2.73896669921875,10.271125122070313,10.659016982276432
2.90723700571997,-0.7757213378906249,2.7246014892578123,9.595960253906249,10.005381055405795
2.9097239492663514,-0.70868369140625,2.6671406494140624,8.896853369140624,9.315034712238647
2.912210892812733,-0.718260498046875,2.5522189697265625,8.21690009765625,8.63407013101874
2.9146978363591143,-0.603338818359375,2.5043349365234375,7.64229169921875,8.064758745305339
2.917184779905496,-0.565031591796875,2.4564509033203126,7.206546997070312,7.63464022473455
2.9196717234518776,-0.5219359619140624,2.39420166015625,6.957550024414062,7.376457217394962
2.922158666998259,-0.38786066894531246,2.3415292236328122,6.904877587890625,7.301405995244713
2.9246456105446406,-0.32082302246093747,2.35589443359375,7.043741284179687,7.434208584135657
2.927132554091022,-0.32082302246093747,2.3319524169921872,7.345410693359375,7.7133642297621945
2.9296194976374035,-0.2537853759765625,2.327164013671875,7.8338278320312495,8.176121199291043
2.932106441183785,-0.27293898925781246,2.384624853515625,8.465897070312499,8.799565022714887
2.9345933847301664,-0.2920926025390625,2.360682836914062,9.150638745117186,9.454751767687954
2.937080328276548,-0.3112462158203125,2.427720483398437,9.931148486328125,10.228314191980623
2.9395672718229293,-0.3064578125,2.5139117431640625,10.601524951171875,10.899816509170249
2.942054215369311,-0.4213794921875,2.6240450195312497,11.228805786132812,11.539031689169272
2.9445411589156922,-0.45010991210937495,2.6623522460937497,11.6837041015625,11.991649592450903
2.947028102462074,-0.5315127685546874,2.7198130859375,12.038045947265624,12.35291217786526
2.9495150460084556,-0.6368576416015624,2.748543505859375,12.081141577148436,12.406210576415857
2.952001989554837,-0.6751648681640625,2.8012159423828122,12.004527124023436,12.345498362823472
2.9544889331012185,-0.7278373046875,2.8012159423828122,11.736376538085937,12.087973036935864
2.9569758766475998,-0.8044517578125,2.77727392578125,11.252747802734374,11.618292740390702
2.9594628201939814,-0.7948749511718749,2.7629087158203123,10.644620581054687,11.026034558016285
2.961949763740363,-0.7996633544921875,2.7437551025390623,9.945513696289062,10.347989960678362
2.9644367072867444,-0.7709329345703124,2.6527754394531247,9.255983618164063,9.659440349290037
2.966923650833126,-0.689530078125,2.5809493896484375,8.494627490234375,8.904799137454548
2.9694105943795073,-0.6464344482421874,2.5426421630859375,7.862558251953125,8.288710932993904
2.971897537925889,-0.5698199951171875,2.4851813232421875,7.3549875,7.784385792172905
2.97438448147227,-0.49320554199218747,2.384624853515625,7.0102224609374995,7.421112204413085
2.976871425018652,-0.44053310546874996,2.3032219970703123,6.828263134765624,7.219700715569986
2.9793583685650336,-0.3687070556640625,2.3367408203125,6.890512377929687,7.285290892244004
2.981845312111415,-0.2920926025390625,2.365471240234375,7.134720947265625,7.522301195258329
2.9843322556577965,-0.2442085693359375,2.3415292236328122,7.575254052734374,7.932645894903676
2.9868191992041777,-0.22026655273437498,2.288856787109375,8.173804467773436,8.491081334173117
2.9893061427505594,-0.28730419921875,2.3511060302734372,8.853757739257812,9.165111530905909
2.991793086296941,-0.2442085693359375,2.442085693359375,9.562441430664062,9.872370863877036
2.9942800298433223,-0.3064578125,2.5139117431640625,10.256759912109374,10.564790226876934
2.996766973389704,-0.38307226562499996,2.5665841796874997,10.9941740234375,11.296280855650728
2.9992539169360852,-0.4165910888671875,2.70065947265625,11.592724438476562,11.910431126916574
3.001740860482467,-0.49799394531249996,2.7341782958984373,11.927912670898436,12.247400932765673
3.0042278040288486,-0.6272808349609375,2.7916391357421872,12.129025610351562,12.461941765498695
3.00671474757523,-0.6847416748046875,2.825157958984375,12.143390820312499,12.486485865497825
3.0092016911216115,-0.7278373046875,2.806004345703125,11.875240234375,12.223941187453347
3.0116886346679927,-0.7613561279296874,2.829946362304687,11.458649145507811,11.827463794360334
3.0141755782143744,-0.7613561279296874,2.8012159423828122,10.960655200195312,11.33853766263376
3.0166625217607557,-0.7757213378906249,2.729389892578125,10.204087475585936,10.59125648774385
3.0191494653071373,-0.7661445312499999,2.6815058593749996,9.495403784179686,9.896471297449441
3.021636408853519,-0.7230489013671875,2.6384102294921874,8.75320126953125,9.17074373852965
3.0241233523999003,-0.63206923828125,2.5761609863281247,8.111555224609374,8.534251291785834
3.026610295946282,-0.603338818359375,2.4756045166015626,7.4794859863281244,7.901604018934139
3.029097239492663,-0.5410895751953124,2.403778466796875,7.067683300781249,7.484856450591655
3.031584183039045,-0.44053310546874996,2.365471240234375,6.890512377929687,7.29853988382554
3.0340711265854265,-0.40222587890625,2.327164013671875,6.746860278320312,7.148258642450464
3.036558070131808,-0.2920926025390625,2.2936451904296873,6.976703637695312,7.34986530463452
3.0390450136781895,-0.26336218261718747,2.29843359375,7.407659936523437,7.7605143102300795
3.0415319572245707,-0.2825157958984375,2.35589443359375,7.886500268554687,8.23571127730224
3.0440189007709524,-0.229843359375,2.35589443359375,8.547299926757812,8.869013619903901
3.0465058443173336,-0.277727392578125,2.375048046875,9.3086560546875,9.610882543971872
3.0489927878637153,-0.3112462158203125,2.4516625,10.05564697265625,10.354880938932109
3.051479731410097,-0.354341845703125,2.5570073730468748,10.749965454101561,11.055568828143098
3.0539666749564782,-0.44053310546874996,2.5953145996093747,11.3006318359375,11.603189526133049
3.05645361850286,-0.4644751220703125,2.6958710693359373,11.774683764648437,12.088285061123443
3.058940562049241,-0.5602431884765625,2.786850732421875,12.105083593749999,12.434366017079848
3.061427505595623,-0.6416460449218749,2.825157958984375,12.210428466796873,12.549413949780288
3.0639144491420045,-0.718260498046875,2.81558115234375,12.095506787109374,12.439641466115365
3.0664013926883857,-0.7805097412109374,2.825157958984375,11.741164941406248,12.101473758623166
3.0688883362347674,-0.7996633544921875,2.81558115234375,11.195286962890624,11.571577631741482
3.0713752797811487,-0.7805097412109374,2.7820623291015623,10.582371337890624,10.969760680714058
3.0738622233275303,-0.7661445312499999,2.7198130859375,9.816226806640625,10.214825959584978
3.0763491668739116,-0.7422025146484375,2.6384102294921874,9.054870678710937,9.460589628560081
3.0788361104202933,-0.6847416748046875,2.5522189697265625,8.346186987304687,8.7545148385105
3.081323053966675,-0.6416460449218749,2.50912333984375,7.666233715820312,8.091881670359042
3.083809997513056,-0.5506663818359374,2.437297290039062,7.192181787109375,7.613877488044041
3.086296941059438,-0.488417138671875,2.365471240234375,6.809109521484374,7.22481681188482
3.088783884605819,-0.39743747558593745,2.3415292236328122,6.76122548828125,7.166232326370017
3.091270828152201,-0.3495534423828125,2.3127988037109373,6.828263134765624,7.217783825602405
3.0937577716985825,-0.2537853759765625,2.31758720703125,7.163451367187499,7.5333029256306245
3.0962447152449637,-0.2537853759765625,2.31758720703125,7.666233715820312,8.012911884254974
3.0987316587913454,-0.239420166015625,2.35589443359375,8.231265307617187,8.56512049900731
3.1012186023377266,-0.22026655273437498,2.39420166015625,9.026140258789061,9.340873990964715
3.1037055458841083,-0.2442085693359375,2.50912333984375,9.758765966796874,10.079129474046788
3.1061924894304895,-0.316034619140625,2.5043349365234375,10.510545288085936,10.80940024273746
3.108679432976871,-0.4165910888671875,2.5665841796874997,11.123460913085937,11.423321984943623
3.111166376523253,-0.4213794921875,2.6767174560546874,11.717222924804688,12.026457919335709
3.113653320069634,-0.5315127685546874,2.7581203125,12.066776367187499,12.389383575346939
3.116140263616016,-0.5985504150390625,2.786850732421875,12.205640063476562,12.534051578132583
3.118627207162397,-0.7278373046875,2.8203695556640622,12.119448803710936,12.464560597084116
3.1211141507087787,-0.7661445312499999,2.7724855224609373,11.81777939453125,12.162794219784661
3.1236010942551604,-0.7900865478515624,2.8012159423828122,11.396399902343749,11.762184246265496
3.1260880378015417,-0.8092401611328125,2.748543505859375,10.807426293945312,11.180779227811115
3.1285749813479233,-0.7900865478515624,2.7054478759765623,10.050858569335936,10.438555596609893
3.1310619248943046,-0.7996633544921875,2.6527754394531247,9.294290844726563,9.698480361327306
3.1335488684406863,-0.6847416748046875,2.6336218261718747,8.590395556640624,9.011089329490314
3.136035811987068,-0.6751648681640625,2.4516625,7.896077075195312,8.29545235599206
3.138522755533449,-0.5746083984375,2.4133552734375,7.335833886718749,7.743960052900235
3.141009699079831,-0.51714755859375,2.370259643554687,6.943184814453125,7.354820714529753
3.143496642626212,-0.4261678955078125,2.360682836914062,6.76122548828125,7.174162852559607
3.1459835861725938,-0.3447650390625,2.2744915771484373,6.7803791015625,7.1600080745474335
3.148470529718975,-0.32082302246093747,2.29843359375,7.0102224609374995,7.384371560833875
3.1509574732653567,-0.26815058593749996,2.3127988037109373,7.4411787597656245,7.796927880772814
3.1534444168117384,-0.27293898925781246,2.3223756103515623,7.996633544921875,8.331510800520075
3.1559313603581196,-0.2442085693359375,2.384624853515625,8.71489404296875,9.038553628624092
3.1584183039045013,-0.26815058593749996,2.446874096679687,9.485826977539062,9.800000562732052
3.1609052474508825,-0.296881005859375,2.4899697265625,10.256759912109374,10.558845176698618
3.163392190997264,-0.38786066894531246,2.5809493896484375,10.951078393554686,11.25779079714229
3.165879134543646,-0.4261678955078125,2.6431986328124997,11.540052001953125,11.84655723387372
3.168366078090027,-0.4836287353515625,2.7724855224609373,11.9518546875,12.278737850326024
3.170853021636409,-0.5793968017578125,2.7724855224609373,12.172121240234373,12.497316196412232
3.17333996518279,-0.6607996582031249,2.7341782958984373,12.196063256835936,12.51624329049204
3.1758269087291717,-0.7565677246093749,2.825157958984375,12.033257543945313,12.383585883501198
3.178313852275553,-0.7900865478515624,2.81558115234375,11.6070896484375,11.969806351206953
3.1808007958219346,-0.8044517578125,2.806004345703125,11.027692846679686,11.407489317964
3.1832877393683163,-0.833182177734375,2.7437551025390623,10.319009155273436,10.710010950070048
3.1857746829146976,-0.7661445312499999,2.6575638427734374,9.576806640625,9.968191834685973
3.1882616264610792,-0.7422025146484375,2.6001030029296874,8.82981572265625,9.234557157474415
3.1907485700074605,-0.6703764648437499,2.6048914062499997,8.135497241210937,8.568615944522328
3.193235513553842,-0.6177040283203125,2.418143676757812,7.48906279296875,7.893987498411422
3.195722457100224,-0.5219359619140624,2.4133552734375,7.062894897460937,7.4820575483450735
3.198209400646605,-0.4644751220703125,2.35589443359375,6.7803791015625,7.193018593203116
3.2006963441929868,-0.3687070556640625,2.2936451904296873,6.7277066650390625,7.117498867108355
3.203183287739368,-0.32561142578124996,2.327164013671875,6.947973217773437,7.334578855123561
