Time (s),Acceleration x (m/s^2),Acceleration y (m/s^2),Acceleration z (m/s^2),Absolute acceleration (m/s^2)
0.0,-1.0438719238281249,2.6240450195312497,12.454637036132812,12.77079733453219
0.002486943546381497,-0.5027823486328125,2.250549560546875,7.038952880859375,7.407065618281841
0.004973887092762994,0.0047884033203125,1.9297265380859374,2.04943662109375,2.814970320355023
0.007460830639144491,0.44053310546874996,1.6711527587890624,-2.1835119140624997,2.784698410793369
0.009947774185525988,0.7613561279296874,1.484405029296875,-5.367800122070312,5.62106747824966
0.012434717731907486,0.948103857421875,1.39821376953125,-7.345410693359375,7.537171944694062
0.014921661278288981,0.9816226806640624,1.4030021728515625,-8.02536396484375,8.206001764101254
0.01740860482467048,0.8714894042968749,1.484405029296875,-7.436390356445312,7.633010782531124
0.019895548371051976,0.6512228515624999,1.637633935546875,-5.674257934570313,5.9416444876217644
0.022382491917433474,0.32561142578124996,1.867477294921875,-2.896984008789062,3.4620818295972677
0.02486943546381497,-0.062249243164062495,2.1499930908203124,0.6177040283203125,2.2378345616807156
0.027356379010196465,-0.469263525390625,2.437297290039062,4.5968671875,5.224156800461483
0.029843322556577963,-0.8667010009765624,2.70065947265625,8.743624462890624,9.192154315523705
0.032330266102959464,-1.2114660400390624,2.9496564453125,12.732364428710937,13.125594350620664
0.03481720964934096,-1.4604630126953124,3.1411925781249996,16.290148095703124,16.65439785775093
0.03730415319572245,-1.608903515625,3.2609026611328122,19.201497314453125,19.542762235797785
0.03979109674210395,-1.6519991455078125,3.3327287109375,21.28445275878906,21.60703846154278
0.04227804028848545,-1.5897499023437498,3.337517114257812,22.41451594238281,22.71732489029681
0.04476498383486695,-1.43652099609375,3.2609026611328122,22.56774484863281,22.847323394450257
0.04725192738124844,-1.2114660400390624,3.1316157714843746,21.777658300781248,22.03499644592583
0.04973887092762994,-0.9193734375,2.959233251953125,20.15438957519531,20.391216935381443
0.05222581447401144,-0.612915625,2.7437551025390623,17.865532788085936,18.085384138255176
0.05471275802039293,-0.33518823242187495,2.518700146484375,15.083470458984374,15.295989103883045
0.05719970156677443,-0.076614453125,2.31758720703125,12.014103930664062,12.235839713457358
0.059686645113155926,0.1149216796875,2.1452046874999997,8.939948999023438,9.194443879260689
0.062173588659537427,0.229843359375,2.0063409912109376,6.038176586914062,6.366930864837408
0.06466053220591893,0.2825157958984375,1.905784521484375,3.5051112304687497,3.999704308473279
0.06714747575230041,0.229843359375,1.867477294921875,1.5322890624999999,2.4265632462300744
0.06963441929868192,0.1005564697265625,1.8722656982421875,0.2346317626953125,1.8895879213425566
0.07212136284506342,-0.06703764648437499,1.924938134765625,-0.3495534423828125,1.9575669791357846
0.0746083063914449,-0.26815058593749996,2.0350714111328125,-0.22026655273437498,2.0644461095902233
0.0770952499378264,-0.5027823486328125,2.1835119140624997,0.5985504150390625,2.3192190427583683
0.0795821934842079,-0.7230489013671875,2.3415292236328122,2.0159177978515626,3.173244930129011
0.0820691370305894,-0.9002198242187499,2.5043349365234375,3.88818349609375,4.71169397409298
0.0845560805769709,-1.0390835205078124,2.6575638427734374,6.0716954101562495,6.708787170176149
0.0870430241233524,-1.139639990234375,2.77727392578125,8.384494213867187,8.905715748244951
0.0895299676697339,-1.1731588134765625,2.8730419921875,10.66856259765625,11.110756040460087
0.09201691121611538,-1.120486376953125,2.93050283203125,12.77546005859375,13.155064282556925
0.09450385476249688,-1.0390835205078124,2.9496564453125,14.528015673828124,14.860801025750938
0.09699079830887838,-0.9193734375,2.925714428710937,15.835249780273436,16.129481951990826
0.09947774185525989,-0.7565677246093749,2.863465185546875,16.634913134765625,16.896513326481223
0.10196468540164137,-0.584185205078125,2.7724855224609373,16.87433330078125,17.11055442327754
0.10445162894802287,-0.4070142822265625,2.6671406494140624,16.57266389160156,16.790845372812157
0.10693857249440437,-0.2537853759765625,2.5474305664062498,15.777788940429687,15.984130672528481
0.10942551604078586,-0.1388636962890625,2.43250888671875,14.571111303710937,14.773410819280882
0.11191245958716736,-0.0526724365234375,2.3223756103515623,13.057975854492186,13.262991226628557
0.11439940313354886,-0.023942016601562498,2.2266075439453124,11.362881079101562,11.57900776373854
0.11688634667993036,-0.0526724365234375,2.1595698974609374,9.624690673828125,9.864136408954554
0.11937329022631185,-0.11013327636718749,2.1212626708984375,7.953537915039062,8.23229312059978
0.12186023377269335,-0.19153613281249998,2.1068974609374997,6.4739212890625,6.810826664807607
0.12434717731907485,-0.3064578125,2.1308394775390624,5.276820458984375,5.699054959046921
0.12683412086545634,-0.45489831542968745,2.1883003173828124,4.429273071289062,4.9612549517722755
0.12932106441183785,-0.59376201171875,2.269703173828125,3.9887399658203124,4.627542797076867
0.13180800795821934,-0.7038952880859375,2.360682836914062,3.9504327392578125,4.6555569871380795
0.13429495150460083,-0.7900865478515624,2.461239306640625,4.304774584960938,5.021256805320201
0.13678189505098234,-0.852335791015625,2.5665841796874997,5.0182466796875,5.700581583510844
0.13926883859736383,-0.8858546142578124,2.6623522460937497,6.0142345703124995,6.6365559853454315
0.14175578214374532,-0.8906430175781249,2.73896669921875,7.206546997070312,7.760766919910239
0.14424272569012683,-0.842758984375,2.7964275390625,8.504204296874999,8.99175958363874
0.14672966923650832,-0.7565677246093749,2.8203695556640622,9.801861596679688,10.227578888128967
0.1492166127828898,-0.6703764648437499,2.8203695556640622,11.027692846679686,11.402363726694716
0.15170355632927132,-0.5793968017578125,2.8012159423828122,12.081141577148436,12.415171896387557
0.1541904998756528,-0.4836287353515625,2.7629087158203123,12.89038173828125,13.19202420723326
0.15667744342203432,-0.39743747558593745,2.710236279296875,13.421894506835937,13.698561581029221
0.1591643869684158,-0.33039982910156246,2.6527754394531247,13.642161059570311,13.901616451135911
0.1616513305147973,-0.28730419921875,2.5713725830078125,13.546392993164062,13.791274915278043
0.1641382740611788,-0.26815058593749996,2.5043349365234375,13.182474340820312,13.420925003792265
0.1666252176075603,-0.277727392578125,2.442085693359375,12.574347119140624,12.812303481846616
0.1691121611539418,-0.3064578125,2.389413256835937,11.765106958007811,12.009202880963807
0.1715991047003233,-0.3591302490234375,2.365471240234375,10.826579907226561,11.087797852220318
0.1740860482467048,-0.4213794921875,2.3415292236328122,9.849745629882811,10.133005909154411
0.17657299179308628,-0.49799394531249996,2.3367408203125,8.896853369140624,9.212076611865076
0.1790599353394678,-0.5698199951171875,2.360682836914062,8.030152368164062,8.389330446422221
0.18154687888584928,-0.6368576416015624,2.398990063476562,7.297526660156249,7.708089019725758
0.18403382243223076,-0.679953271484375,2.437297290039062,6.737283471679687,7.1967869990157665
0.18652076597861228,-0.70868369140625,2.4660277099609376,6.3973068359375,6.892681625745747
0.18900770952499377,-0.7278373046875,2.5139117431640625,6.320692382812499,6.8411001741428175
0.19149465307137528,-0.7326257080078125,2.5617957763671875,6.4643444824218745,6.991944480276202
0.19398159661775677,-0.7134720947265625,2.6001030029296874,6.813897924804687,7.3279453454194865
0.19646854016413826,-0.6847416748046875,2.6288334228515624,7.3549875,7.840629914201539
0.19895548371051977,-0.6416460449218749,2.6384102294921874,8.010998754882811,8.458665334246701
0.20144242725690126,-0.5793968017578125,2.6240450195312497,8.71489404296875,9.119796658839832
0.20392937080328274,-0.507570751953125,2.6096798095703124,9.437942944335937,9.805244708688187
0.20641631434966426,-0.45968671875,2.5905261962890624,10.141838232421874,10.477548405312621
0.20890325789604575,-0.4261678955078125,2.5570073730468748,10.773907470703124,11.081380237508784
0.21139020144242723,-0.39743747558593745,2.528276953125,11.286266625976562,11.572811034979166
0.21387714498880875,-0.38307226562499996,2.4899697265625,11.635820068359374,11.90541902929601
0.21636408853519024,-0.37828386230468747,2.437297290039062,11.803414184570311,12.058362375257575
0.21885103208157172,-0.38786066894531246,2.389413256835937,11.793837377929687,12.039698156827248
0.22133797562795324,-0.4165910888671875,2.35589443359375,11.631031665039062,11.874539330462587
0.22382491917433472,-0.45489831542968745,2.3367408203125,11.319785449218749,11.56740389002822
0.22631186272071624,-0.49320554199218747,2.327164013671875,10.869675537109375,11.126939845942152
0.22879880626709773,-0.5363011718749999,2.327164013671875,10.352527978515624,10.624412776216513
0.2312857498134792,-0.5698199951171875,2.346317626953125,9.797073193359374,10.090220234931799
0.23377269335986073,-0.603338818359375,2.370259643554687,9.246406811523437,9.56442300569095
0.23625963690624222,-0.6272808349609375,2.398990063476562,8.757989672851561,9.102253439689711
0.2387465804526237,-0.6416460449218749,2.422932080078125,8.322244970703125,8.691494167519705
0.24123352399900522,-0.6464344482421874,2.446874096679687,7.982268334960937,8.373868766119772
0.2437204675453867,-0.63206923828125,2.4851813232421875,7.785943798828124,8.197350704336332
0.2462074110917682,-0.6081272216796875,2.518700146484375,7.690175732421874,8.114953600679339
0.2486943546381497,-0.5746083984375,2.5522189697265625,7.723694555664062,8.154719741976526
0.2511812981845312,-0.5363011718749999,2.5617957763671875,7.9104422851562495,8.332197410860791
0.2536682417309127,-0.5219359619140624,2.5713725830078125,8.197746484375,8.60740504049078
0.2561551852772942,-0.5027823486328125,2.5617957763671875,8.566453540039062,8.955429299791119
0.2586421288236757,-0.4740519287109375,2.5617957763671875,8.992621435546875,9.36241224866671
0.26112907237005717,-0.45010991210937495,2.5617957763671875,9.433154541015625,9.785182733473892
0.2636160159164387,-0.43574470214843747,2.5617957763671875,9.82580361328125,10.163615876843933
0.2661029594628202,-0.4261678955078125,2.5570073730468748,10.175357055664062,10.500371278732484
0.26858990300920166,-0.4261678955078125,2.5426421630859375,10.453084448242187,10.766318903262459
0.2710768465555832,-0.44053310546874996,2.5378537597656248,10.644620581054687,10.951836304363916
0.2735637901019647,-0.4644751220703125,2.5330653564453125,10.769119067382812,11.07276310260965
0.27605073364834615,-0.4836287353515625,2.5234885498046875,10.788272680664061,11.09002789207564
0.27853767719472766,-0.507570751953125,2.50912333984375,10.70686982421875,11.008650663707744
0.2810246207411092,-0.5315127685546874,2.499546533203125,10.563217724609375,10.867925625080717
0.28351156428749064,-0.5602431884765625,2.4899697265625,10.352527978515624,10.662488321934093
0.28599850783387215,-0.565031591796875,2.4851813232421875,10.070012182617187,10.387518099487426
0.28848545138025367,-0.565031591796875,2.4851813232421875,9.744400756835937,10.072176180892841
0.2909723949266351,-0.5746083984375,2.50912333984375,9.428366137695312,9.773431473773332
0.29345933847301664,-0.5793968017578125,2.528276953125,9.13627353515625,9.497335369185754
0.29594628201939815,-0.565031591796875,2.5474305664062498,8.863334545898438,9.239446004112262
0.2984332255657796,-0.55545478515625,2.5617957763671875,8.652644799804687,9.040994947999518
0.30092016911216113,-0.5506663818359374,2.5665841796874997,8.532934716796875,8.927573169491462
0.30340711265854264,-0.5315127685546874,2.5617957763671875,8.48505068359375,8.87926734174077
0.30589405620492416,-0.51714755859375,2.5570073730468748,8.508992700195313,8.899926127510986
0.3083809997513056,-0.507570751953125,2.5522189697265625,8.595183959960938,8.98045862098591
0.31086794329768713,-0.5027823486328125,2.5474305664062498,8.734047656249999,9.111848387808243
0.31335488684406865,-0.49799394531249996,2.5330653564453125,8.920795385742187,9.286819067036378
0.3158418303904501,-0.49320554199218747,2.4947581298828125,9.131485131835937,9.478981514182259
0.3183287739368316,-0.49799394531249996,2.4756045166015626,9.361328491210937,9.695931456675197
0.32081571748321314,-0.5027823486328125,2.4756045166015626,9.586383447265625,9.913634823349263
0.3233026610295946,-0.5123591552734374,2.461239306640625,9.787496386718749,10.105211346061887
0.3257896045759761,-0.5267243652343749,2.4564509033203126,9.964667309570311,10.276486957505174
0.3282765481223576,-0.5458779785156249,2.4564509033203126,10.084377392578125,10.393594238943152
0.3307634916687391,-0.565031591796875,2.437297290039062,10.156203442382813,10.459834948163797
0.3332504352151206,-0.5698199951171875,2.427720483398437,10.180145458984374,10.481120318860377
0.3357373787615021,-0.565031591796875,2.422932080078125,10.156203442382813,10.45649697209676
0.3382243223078836,-0.5698199951171875,2.422932080078125,10.089165795898436,10.391658248260187
0.3407112658542651,-0.565031591796875,2.43250888671875,9.974244116210937,10.282115826689694
0.3431982094006466,-0.5602431884765625,2.427720483398437,9.821015209960937,10.132129042310446
0.34568515294702806,-0.565031591796875,2.43250888671875,9.658209497070311,9.975839356815714
0.3481720964934096,-0.5602431884765625,2.4516625,9.495403784179686,9.822790564231456
0.3506590400397911,-0.5458779785156249,2.4564509033203126,9.332598071289063,9.665894711203915
0.35314598358617255,-0.5363011718749999,2.47081611328125,9.17458076171875,9.51658990216057
0.35563292713255407,-0.5267243652343749,2.480392919921875,9.045293872070312,9.393994295625417
0.3581198706789356,-0.51714755859375,2.4947581298828125,8.94473740234375,9.300515411570643
0.36060681422531704,-0.507570751953125,2.50912333984375,8.8872765625,9.248622205558444
0.36309375777169856,-0.5027823486328125,2.5043349365234375,8.892064965820312,9.251664872916527
0.36558070131808007,-0.5027823486328125,2.50912333984375,8.9255837890625,9.28517829663064
0.36806764486446153,-0.49320554199218747,2.5139117431640625,9.0021982421875,9.359624840276116
0.37055458841084304,-0.49320554199218747,2.518700146484375,9.126696728515624,9.480701203436906
0.37304153195722456,-0.5123591552734374,2.5139117431640625,9.260772021484375,9.60958701455575
0.3755284755036061,-0.5123591552734374,2.5043349365234375,9.394847314453125,9.736393656799804
0.37801541904998753,-0.51714755859375,2.50912333984375,9.528922607421874,9.867294846620517
0.38050236259636905,-0.5267243652343749,2.50912333984375,9.643844287109374,9.97882112904587
0.38298930614275056,-0.5267243652343749,2.50912333984375,9.734823950195311,10.066773854258198
0.385476249689132,-0.5410895751953124,2.5139117431640625,9.821015209960937,10.152086974365778
0.38796319323551354,-0.55545478515625,2.50912333984375,9.892841259765625,10.221180858581006
0.39045013678189505,-0.5458779785156249,2.50912333984375,9.907206469726562,10.234569982943533
0.3929370803282765,-0.5410895751953124,2.518700146484375,9.892841259765625,10.222765601695393
0.395424023874658,-0.5458779785156249,2.5139117431640625,9.849745629882811,10.180138702063052
0.39791096742103954,-0.5363011718749999,2.518700146484375,9.792284790039062,10.125231394100842
0.400397910967421,-0.5267243652343749,2.528276953125,9.710881933593749,10.048425291399248
0.4028848545138025,-0.5267243652343749,2.528276953125,9.610325463867188,9.9512802407574
0.40537179806018403,-0.5219359619140624,2.5234885498046875,9.495403784179686,9.838856876382968
0.4078587416065655,-0.5027823486328125,2.5234885498046875,9.394847314453125,9.740838804383285
0.410345685152947,-0.5027823486328125,2.518700146484375,9.313444458007812,9.661101810373056
0.4128326286993285,-0.507570751953125,2.518700146484375,9.241618408203124,9.592131634781579
0.41531957224571,-0.5027823486328125,2.5139117431640625,9.179369165039063,9.53065373469128
0.4178065157920915,-0.5027823486328125,2.50912333984375,9.13627353515625,9.487886178377238
0.420293459338473,-0.5123591552734374,2.50912333984375,9.131485131835937,9.48378787992867
0.42278040288485447,-0.5123591552734374,2.50912333984375,9.160215551757812,9.51145418919772
0.425267346431236,-0.51714755859375,2.5043349365234375,9.188945971679686,9.538126815161332
0.4277542899776175,-0.5267243652343749,2.4947581298828125,9.236830004882812,9.582290186727354
0.43024123352399896,-0.5315127685546874,2.4851813232421875,9.303867651367186,9.64471800037125
0.43272817707038047,-0.5315127685546874,2.4756045166015626,9.3852705078125,9.720824350360921
0.435215120616762,-0.5410895751953124,2.4660277099609376,9.485826977539062,9.816057459208768
0.43770206416314344,-0.5458779785156249,2.461239306640625,9.576806640625,9.903075639613192
0.44018900770952496,-0.5363011718749999,2.461239306640625,9.643844287109374,9.96739938527194
0.4426759512559065,-0.5410895751953124,2.4516625,9.682151513671874,10.00237396201471
0.445162894802288,-0.5506663818359374,2.446874096679687,9.706093530273437,10.024902888681874
0.44764983834866945,-0.5410895751953124,2.4516625,9.715670336914062,10.034823219064853
0.45013678189505096,-0.5363011718749999,2.4564509033203126,9.706093530273437,10.026466057679224
0.4526237254414325,-0.5315127685546874,2.4564509033203126,9.6917283203125,10.01230516406223
0.45511066898781394,-0.5363011718749999,2.4660277099609376,9.672574707031249,9.996379998597009
0.45759761253419545,-0.5363011718749999,2.4660277099609376,9.629479077148437,9.954686278858274
0.46008455608057697,-0.5363011718749999,2.47081611328125,9.581595043945311,9.909566832044785
0.4625714996269584,-0.5267243652343749,2.4851813232421875,9.524134204101562,9.857114035257005
0.46505844317333994,-0.5123591552734374,2.4947581298828125,9.457096557617186,9.794029065236826
0.46754538671972146,-0.5219359619140624,2.50912333984375,9.404424121093749,9.747374525086114
0.4700323302661029,-0.5219359619140624,2.5139117431640625,9.351751684570312,9.697805368773958
0.47251927381248443,-0.5123591552734374,2.5139117431640625,9.294290844726563,9.64189330281033
0.47500621735886595,-0.51714755859375,2.50912333984375,9.265560424804686,9.613207140055545
0.4774931609052474,-0.5219359619140624,2.5139117431640625,9.255983618164063,9.605488126091188
0.4799801044516289,-0.5267243652343749,2.5139117431640625,9.260772021484375,9.610363637410268
0.48246704799801043,-0.5315127685546874,2.5043349365234375,9.299079248046874,9.645054388591314
0.4849539915443919,-0.5315127685546874,2.50912333984375,9.337386474609374,9.683232514708267
0.4874409350907734,-0.5267243652343749,2.499546533203125,9.370905297851563,9.712828503061392
0.4899278786371549,-0.5219359619140624,2.5043349365234375,9.414000927734374,9.75538436403275
0.4924148221835364,-0.5315127685546874,2.518700146484375,9.466673364257812,9.81041593596242
0.4949017657299179,-0.5267243652343749,2.5139117431640625,9.490615380859374,9.832037994065841
0.4973887092762994,-0.51714755859375,2.5139117431640625,9.519345800781249,9.859266622047972
0.49987565282268087,-0.5219359619140624,2.5139117431640625,9.557653027343749,9.896509525678761
0.5023625963690624,-0.5219359619140624,2.5234885498046875,9.576806640625,9.917441053076828
0.5048495399154439,-0.5123591552734374,2.528276953125,9.595960253906249,9.936656854810073
0.5073364834618254,-0.5123591552734374,2.5234885498046875,9.591171850585937,9.930814862460178
0.5098234270082069,-0.5267243652343749,2.528276953125,9.567229833984374,9.909667482055857
0.5123103705545884,-0.5315127685546874,2.5474305664062498,9.552864624023437,9.90096615683116
0.5147973141009698,-0.5363011718749999,2.5426421630859375,9.552864624023437,9.899993466733969
0.5172842576473514,-0.5363011718749999,2.5474305664062498,9.533711010742186,9.882745927826038
0.5197712011937329,-0.5363011718749999,2.5426421630859375,9.509768994140625,9.858415412142827
0.5222581447401143,-0.5363011718749999,2.5378537597656248,9.490615380859374,9.838704231773386
0.5247450882864959,-0.5410895751953124,2.5330653564453125,9.466673364257812,9.814637161604946
0.5272320318328774,-0.5410895751953124,2.5330653564453125,9.452308154296874,9.80078198268871
0.5297189753792588,-0.5506663818359374,2.5330653564453125,9.428366137695312,9.778227937133973
0.5322059189256404,-0.55545478515625,2.5234885498046875,9.409212524414063,9.757551168655935
0.5346928624720219,-0.55545478515625,2.50912333984375,9.394847314453125,9.739989015126698
0.5371798060184033,-0.5458779785156249,2.50912333984375,9.394847314453125,9.73944755948016
0.5396667495647849,-0.5506663818359374,2.5043349365234375,9.394847314453125,9.738484635725582
0.5421536931111663,-0.55545478515625,2.499546533203125,9.399635717773437,9.742146299293749
0.5446406366575478,-0.55545478515625,2.5139117431640625,9.414000927734374,9.759697522882295
0.5471275802039294,-0.5602431884765625,2.5043349365234375,9.442731347656249,9.785230769304126
0.5496145237503108,-0.5506663818359374,2.4947581298828125,9.466673364257812,9.805353444738694
0.5521014672966923,-0.5458779785156249,2.5043349365234375,9.476250170898437,9.816771034468147
0.5545884108430739,-0.5506663818359374,2.5043349365234375,9.490615380859374,9.830905718487013
0.5570753543894553,-0.5410895751953124,2.5043349365234375,9.509768994140625,9.848866824391285
0.5595622979358368,-0.5363011718749999,2.5043349365234375,9.543287817382812,9.880974384475124
0.5620492414822184,-0.5363011718749999,2.499546533203125,9.576806640625,9.912142919193677
0.5645361850285998,-0.5363011718749999,2.4947581298828125,9.581595043945311,9.915563557343992
0.5670231285749813,-0.5315127685546874,2.4899697265625,9.567229833984374,9.900219278309702
0.5695100721213628,-0.5315127685546874,2.4899697265625,9.548076220703125,9.881711115929814
0.5719970156677443,-0.5315127685546874,2.4899697265625,9.528922607421874,9.863205418147292
0.5744839592141258,-0.51714755859375,2.480392919921875,9.514557397460937,9.84614610414332
0.5769709027605073,-0.5123591552734374,2.4756045166015626,9.504980590820312,9.835435204325297
0.5794578463068888,-0.5027823486328125,2.480392919921875,9.490615380859374,9.822266512098917
0.5819447898532703,-0.507570751953125,2.480392919921875,9.4618849609375,9.794755949968945
0.5844317333996518,-0.5123591552734374,2.480392919921875,9.428366137695312,9.762630227947318
0.5869186769460333,-0.5123591552734374,2.4756045166015626,9.394847314453125,9.729043410762317
0.5894056204924147,-0.507570751953125,2.480392919921875,9.380482104492186,9.716142321834061
0.5918925640387963,-0.49799394531249996,2.4756045166015626,9.375693701171874,9.709801649383984
0.5943795075851778,-0.488417138671875,2.47081611328125,9.3852705078125,9.71734459982838
0.5968664511315592,-0.49320554199218747,2.4660277099609376,9.394847314453125,9.725620825162478
0.5993533946779408,-0.49320554199218747,2.4660277099609376,9.394847314453125,9.725620825162478
0.6018403382243223,-0.49320554199218747,2.47081611328125,9.399635717773437,9.73146112354893
0.6043272817707037,-0.49799394531249996,2.461239306640625,9.414000927734374,9.743157104424848
0.6068142253170853,-0.5027823486328125,2.4660277099609376,9.428366137695312,9.758492239215622
0.6093011688634667,-0.507570751953125,2.480392919921875,9.447519750976562,9.780879640938696
0.6117881124098483,-0.51714755859375,2.4756045166015626,9.447519750976562,9.780168135828228
0.6142750559562298,-0.51714755859375,2.480392919921875,9.447519750976562,9.78138129712007
0.6167619995026112,-0.51714755859375,2.480392919921875,9.447519750976562,9.78138129712007
0.6192489430489928,-0.5123591552734374,2.47081611328125,9.4618849609375,9.792584499694552
0.6217358865953743,-0.51714755859375,2.47081611328125,9.481038574218749,9.811343756531702
0.6242228301417557,-0.51714755859375,2.480392919921875,9.495403784179686,9.827638763160353
0.6267097736881373,-0.5219359619140624,2.4756045166015626,9.5001921875,9.831311533584582
0.6291967172345188,-0.5267243652343749,2.480392919921875,9.504980590820312,9.837400247321492
0.6316836607809002,-0.5267243652343749,2.4851813232421875,9.5001921875,9.833982731617915
0.6341706043272818,-0.5363011718749999,2.480392919921875,9.504980590820312,9.837917666662184
0.6366575478736632,-0.5363011718749999,2.480392919921875,9.495403784179686,9.828665270969754
0.6391444914200447,-0.5315127685546874,2.4947581298828125,9.5001921875,9.83666485904593
0.6416314349664263,-0.5410895751953124,2.499546533203125,9.5001921875,9.838402431262345
0.6441183785128077,-0.5410895751953124,2.4899697265625,9.490615380859374,9.826724147699847
0.6466053220591892,-0.5315127685546874,2.499546533203125,9.471461767578125,9.810138975033869
0.6490922656055708,-0.5363011718749999,2.50912333984375,9.447519750976562,9.789736887505986
0.6515792091519522,-0.5506663818359374,2.50912333984375,9.437942944335937,9.781293391938176
0.6540661526983337,-0.5506663818359374,2.499546533203125,9.437942944335937,9.778841104971107
0.6565530962447153,-0.5458779785156249,2.50912333984375,9.452308154296874,9.794887040990526
0.6590400397910967,-0.5458779785156249,2.5426421630859375,9.466673364257812,9.817378291706953
0.6615269833374782,-0.5410895751953124,2.5522189697265625,9.481038574218749,9.833447617374134
0.6640139268838597,-0.5410895751953124,2.5522189697265625,9.476250170898437,9.828830901957252
0.6665008704302412,-0.5506663818359374,2.5474305664062498,9.452308154296874,9.805037756099276
0.6689878139766227,-0.5410895751953124,2.5474305664062498,9.447519750976562,9.799888257737338
0.6714747575230042,-0.5315127685546874,2.5474305664062498,9.452308154296874,9.803980709772164
0.6739617010693857,-0.5410895751953124,2.5522189697265625,9.457096557617186,9.810365686247989
0.6764486446157671,-0.5458779785156249,2.5474305664062498,9.447519750976562,9.800153810179788
0.6789355881621487,-0.5410895751953124,2.5426421630859375,9.447519750976562,9.798644627854387
0.6814225317085302,-0.5363011718749999,2.5378537597656248,9.457096557617186,9.806375270863636
0.6839094752549116,-0.5410895751953124,2.528276953125,9.4618849609375,9.80878327286842
0.6863964188012932,-0.5315127685546874,2.528276953125,9.4618849609375,9.80825964118278
0.6888833623476747,-0.51714755859375,2.518700146484375,9.466673364257812,9.80964813899093
0.6913703058940561,-0.51714755859375,2.5043349365234375,9.471461767578125,9.810592392223086
0.6938572494404377,-0.5315127685546874,2.50912333984375,9.457096557617186,9.798718337506195
0.6963441929868192,-0.5219359619140624,2.50912333984375,9.457096557617186,9.798203528350625
0.6988311365332006,-0.5315127685546874,2.5043349365234375,9.471461767578125,9.811360115301174
0.7013180800795822,-0.5267243652343749,2.499546533203125,9.476250170898437,9.814503998166794
0.7038050236259636,-0.5123591552734374,2.499546533203125,9.481038574218749,9.818367339912689
0.7062919671723451,-0.51714755859375,2.499546533203125,9.481038574218749,9.818618381158885
0.7087789107187267,-0.5315127685546874,2.50912333984375,9.481038574218749,9.821827640694435
0.7112658542651081,-0.5315127685546874,2.50912333984375,9.481038574218749,9.821827640694435
0.7137527978114896,-0.5219359619140624,2.4947581298828125,9.490615380859374,9.826902644392081
0.7162397413578712,-0.51714755859375,2.4899697265625,9.485826977539062,9.820809757060008
0.7187266849042526,-0.5267243652343749,2.4947581298828125,9.471461767578125,9.80866171800425
0.7212136284506341,-0.5219359619140624,2.4899697265625,9.481038574218749,9.81643819485259
0.7237005719970157,-0.5219359619140624,2.4851813232421875,9.481038574218749,9.81522469450164
0.7261875155433971,-0.5267243652343749,2.4756045166015626,9.476250170898437,9.808433798573668
0.7286744590897786,-0.5267243652343749,2.461239306640625,9.481038574218749,9.809445954145843
0.7311614026361601,-0.5315127685546874,2.461239306640625,9.481038574218749,9.809704235781698
0.7336483461825416,-0.5315127685546874,2.4564509033203126,9.476250170898437,9.803875466620967
0.7361352897289231,-0.5267243652343749,2.4516625,9.471461767578125,9.797789321348564
0.7386222332753046,-0.5363011718749999,2.461239306640625,9.471461767578125,9.800709458309713
0.7411091768216861,-0.5410895751953124,2.461239306640625,9.471461767578125,9.800972649060501
0.7435961203680675,-0.5363011718749999,2.4660277099609376,9.481038574218749,9.81116731378451
0.7460830639144491,-0.5410895751953124,2.461239306640625,9.485826977539062,9.814855592455029
0.7485700074608306,-0.5410895751953124,2.4564509033203126,9.485826977539062,9.813655914928752
0.7510569510072121,-0.5315127685546874,2.446874096679687,9.4618849609375,9.787592435433442
0.7535438945535936,-0.5315127685546874,2.446874096679687,9.447519750976562,9.77370595594276
0.7560308380999751,-0.5315127685546874,2.461239306640625,9.442731347656249,9.772685406360909
0.7585177816463566,-0.51714755859375,2.47081611328125,9.447519750976562,9.778957168742584
0.7610047251927381,-0.5267243652343749,2.461239306640625,9.452308154296874,9.781680168829462
0.7634916687391196,-0.5363011718749999,2.4516625,9.471461767578125,9.798308832423832
0.7659786122855011,-0.5267243652343749,2.446874096679687,9.476250170898437,9.801221796459167
0.7684655558318826,-0.5267243652343749,2.446874096679687,9.4618849609375,9.78733357028097
0.770952499378264,-0.51714755859375,2.446874096679687,9.4618849609375,9.78682284791018
0.7734394429246456,-0.51714755859375,2.4516625,9.4618849609375,9.788021129180349
0.7759263864710271,-0.51714755859375,2.47081611328125,9.452308154296874,9.783583357175269
0.7784133300174085,-0.51714755859375,2.47081611328125,9.452308154296874,9.783583357175269
0.7809002735637901,-0.51714755859375,2.4756045166015626,9.4618849609375,9.794045452926628
0.7833872171101716,-0.51714755859375,2.4899697265625,9.485826977539062,9.820809757060008
0.785874160656553,-0.5123591552734374,2.4947581298828125,9.514557397460937,9.849524480917216
0.7883611042029346,-0.507570751953125,2.4947581298828125,9.519345800781249,9.853902306685725
0.790848047749316,-0.5123591552734374,2.5043349365234375,9.509768994140625,9.847330181333556
0.7933349912956975,-0.51714755859375,2.5139117431640625,9.495403784179686,9.836152035953468
0.7958219348420791,-0.5219359619140624,2.528276953125,9.476250170898437,9.821604695847562
0.7983088783884605,-0.5267243652343749,2.5234885498046875,9.457096557617186,9.802148148136803
0.800795821934842,-0.5363011718749999,2.528276953125,9.457096557617186,9.803901192828922
0.8032827654812236,-0.5363011718749999,2.528276953125,9.471461767578125,9.817758976128497
0.805769709027605,-0.5315127685546874,2.528276953125,9.485826977539062,9.831358177924734
0.8082566525739865,-0.5363011718749999,2.5330653564453125,9.481038574218749,9.828231351204641
0.8107435961203681,-0.5410895751953124,2.528276953125,9.471461767578125,9.818021709834534
0.8132305396667495,-0.5458779785156249,2.5330653564453125,9.4618849609375,9.810283883836744
0.815717483213131,-0.5458779785156249,2.5426421630859375,9.452308154296874,9.803526986789898
0.8182044267595125,-0.5410895751953124,2.5378537597656248,9.452308154296874,9.80202066301274
0.820691370305894,-0.5410895751953124,2.5330653564453125,9.457096557617186,9.805400212561612
0.8231783138522755,-0.5506663818359374,2.5330653564453125,9.457096557617186,9.80593334997758
0.825665257398657,-0.55545478515625,2.5378537597656248,9.457096557617186,9.807441410704646
0.8281522009450385,-0.5410895751953124,2.528276953125,9.466673364257812,9.813402410256924
0.83063914449142,-0.5506663818359374,2.5330653564453125,9.485826977539062,9.833644645395498
0.8331260880378015,-0.55545478515625,2.5330653564453125,9.5001921875,9.84777140869001
0.835613031584183,-0.5506663818359374,2.5378537597656248,9.485826977539062,9.834879186743915
0.8380999751305644,-0.5506663818359374,2.5378537597656248,9.4618849609375,9.811788939029215
0.840586918676946,-0.5315127685546874,2.5378537597656248,9.457096557617186,9.8061145633318
0.8430738622233275,-0.51714755859375,2.5378537597656248,9.447519750976562,9.796110082497453
0.8455608057697089,-0.5219359619140624,2.5234885498046875,9.447519750976562,9.792652401388848
0.8480477493160905,-0.5219359619140624,2.518700146484375,9.442731347656249,9.786799419639168
0.850534692862472,-0.5315127685546874,2.5139117431640625,9.457096557617186,9.799945580239193
0.8530216364088534,-0.5410895751953124,2.5043349365234375,9.471461767578125,9.811883581523531
0.855508579955235,-0.5363011718749999,2.499546533203125,9.476250170898437,9.815022624530975
0.8579955235016165,-0.5219359619140624,2.480392919921875,9.471461767578125,9.80476181251905
0.8604824670479979,-0.51714755859375,2.4660277099609376,9.452308154296874,9.78237515675216
0.8629694105943795,-0.51714755859375,2.461239306640625,9.437942944335937,9.767287624640364
0.8654563541407609,-0.5219359619140624,2.4516625,9.442731347656249,9.769761586971066
0.8679432976871424,-0.51714755859375,2.446874096679687,9.447519750976562,9.772935274903531
0.870430241233524,-0.51714755859375,2.43250888671875,9.442731347656249,9.764717936803661
0.8729171847799054,-0.51714755859375,2.442085693359375,9.447519750976562,9.771737490137681
0.8754041283262869,-0.507570751953125,2.446874096679687,9.452308154296874,9.777062460526038
0.8778910718726685,-0.507570751953125,2.4516625,9.471461767578125,9.79677830191327
0.8803780154190499,-0.49799394531249996,2.4516625,9.481038574218749,9.805546360570535
0.8828649589654315,-0.49320554199218747,2.4564509033203126,9.485826977539062,9.811132258556238
0.885351902511813,-0.49320554199218747,2.4660277099609376,9.481038574218749,9.80890599500122
0.8878388460581944,-0.5027823486328125,2.480392919921875,9.481038574218749,9.813013378831151
0.890325789604576,-0.49320554199218747,2.4947581298828125,9.476250170898437,9.811543565347955
0.8928127331509574,-0.49320554199218747,2.50912333984375,9.471461767578125,9.810583043626643
0.8952996766973389,-0.5027823486328125,2.518700146484375,9.471461767578125,9.813522738175688
0.8977866202437205,-0.5027823486328125,2.5330653564453125,9.481038574218749,9.82645931330019
0.9002735637901019,-0.507570751953125,2.5378537597656248,9.481038574218749,9.827940894206613
0.9027605073364834,-0.8810662109374999,2.4947581298828125,9.552864624023437,9.91248295431526
0.905247450882865,-0.2154781494140625,1.9488801513671874,3.859453076171875,4.328965549001337
0.9077343944292464,0.37828386230468747,1.4891934326171874,-1.01514150390625,1.8415504427474574
0.9102213379756279,0.852335791015625,1.1540052001953125,-4.6639048339843745,4.879570944579745
0.9127082815220094,1.1540052001953125,0.967257470703125,-6.789955908203124,6.954913101689434
0.9151952250683909,1.2785036865234374,0.948103857421875,-7.302315063476562,7.473772667614996
0.9176821686147724,1.2401964599609374,1.0821791503906248,-6.2392895263671875,6.452746141502477
0.9201691121611539,1.0390835205078124,1.3455413330078123,-3.768473413085937,4.134194952655102
0.9226560557075354,0.689530078125,1.7286135986328124,-0.2059013427734375,1.8724187739320644
0.9251429992539169,0.26815058593749996,2.1499930908203124,4.07971962890625,4.6193600506776535
0.9276299428002984,-0.19632453613281248,2.5713725830078125,8.628702783203124,9.005832110637494
0.9301168863466799,-0.6607996582031249,2.9735984619140625,13.014880224609374,13.366602083622718
0.9326038298930613,-1.0821791503906248,3.31357509765625,16.83602607421875,17.19309936029922
0.9350907734394429,-1.426944189453125,3.5482068603515624,19.76652890625,20.13309729389089
0.9375777169858244,-1.6711527587890624,3.67749375,21.57175695800781,21.946694741574543
0.9400646605322058,-1.7908628417968748,3.6918589599609373,22.189460986328125,22.565663986733263
0.9425516040785874,-1.7812860351562498,3.5865140869140624,21.59091057128906,21.959132098789276
0.9450385476249689,-1.6615759521484375,3.385401147460937,19.886238989257812,20.240658998952217
0.9475254911713503,-1.4508862060546874,3.1172505615234374,17.300501196289062,17.638867976404757
0.9500124347177319,-1.16837041015625,2.81558115234375,14.11621298828125,14.441608489752182
0.9524993782641133,-0.8475473876953125,2.4899697265625,10.66856259765625,10.988016823508087
0.9549863218104948,-0.5363011718749999,2.1978771240234374,7.297526660156249,7.640168725555166
0.9574732653568764,-0.2442085693359375,1.9536685546875,4.309562988281249,4.738015596943034
0.9599602089032578,-0.0,1.7812860351562498,1.9871873779296874,2.6686876201694605
0.9624471524496393,0.17238251953125,1.6807295654296874,0.4740519287109375,1.7547913939451514
0.9649340959960209,0.27293898925781246,1.6615759521484375,-0.1388636962890625,1.6895601388415045
0.9674210395424023,0.2825157958984375,1.7238251953125,0.1867477294921875,1.756776364081892
0.9699079830887838,0.22505495605468748,1.8626888916015625,1.3551181396484375,2.314434015595363
0.9723949266351654,0.09576806640624999,2.0542250244140625,3.208230224609375,3.8107418106674804
0.9748818701815468,-0.0909796630859375,2.269703173828125,5.540182641601562,5.9877753380269665
0.9773688137279283,-0.296881005859375,2.4756045166015626,8.130708837890625,8.504421336035206
0.9798557572743098,-0.5027823486328125,2.6719290527343746,10.711658227539061,11.051317429906174
0.9823427008206913,-0.70868369140625,2.85388837890625,13.038822241210937,13.366293311596088
0.9848296443670728,-0.8810662109374999,2.9735984619140625,14.915876342773437,15.234891944272587
0.9873165879134543,-1.005564697265625,3.0358477050781247,16.180014819335938,16.493041296339058
0.9898035314598358,-1.0773907470703123,3.0454245117187497,16.7402580078125,17.049094387872355
0.9922904750062173,-1.0917559570312498,2.9975404785156248,16.591817504882812,16.89572691852554
0.9947774185525988,-1.0630255371093749,2.906560815429687,15.80173095703125,16.101950822951164
0.9972643620989803,-0.97683427734375,2.7820623291015623,14.465766430664061,14.763213553794003
0.9997513056453617,-0.8571241943359375,2.6336218261718747,12.727576025390624,13.02542963935943
1.0022382491917432,-0.70868369140625,2.47081611328125,10.788272680664061,11.090265653828045
1.0047251927381249,-0.565031591796875,2.31758720703125,8.825027319335938,9.1417491952552
1.0072121362845063,-0.411802685546875,2.1930887207031247,7.029376074218749,7.375048988413425
1.0096990798308878,-0.2920926025390625,2.1021090576171875,5.5641246582031245,5.955137596277545
1.0121860233772693,-0.201112939453125,2.0542250244140625,4.520252734375,4.969202315057125
1.0146729669236507,-0.1388636962890625,2.0542250244140625,3.9839515624999997,4.484528250487693
1.0171599104700322,-0.1197100830078125,2.0925322509765625,4.007893579101562,4.522856693148071
1.0196468540164139,-0.143652099609375,2.1547814941406247,4.525041137695312,5.013952184758843
1.0221337975627953,-0.19153613281249998,2.250549560546875,5.473144995117187,5.920893138051625
1.0246207411091768,-0.26336218261718747,2.365471240234375,6.76122548828125,7.167913499128799
1.0271076846555582,-0.3591302490234375,2.4899697265625,8.231265307617187,8.60712799598935
1.0295946282019397,-0.4644751220703125,2.6096798095703124,9.701305126953125,10.05691239962585
1.0320815717483212,-0.565031591796875,2.70065947265625,11.075576879882812,11.414080142927467
1.0345685152947028,-0.6512228515624999,2.767697119140625,12.243947290039062,12.569744778115084
1.0370554588410843,-0.718260498046875,2.8107927490234372,13.077129467773437,13.395065103907694
1.0395424023874658,-0.7565677246093749,2.81558115234375,13.546392993164062,13.856574434996492
1.0420293459338472,-0.7805097412109374,2.786850732421875,13.608642236328125,13.91297509439657
1.0445162894802287,-0.7805097412109374,2.7341782958984373,13.278242407226562,13.579272728499017
1.0470032330266101,-0.74699091796875,2.6719290527343746,12.627019555664061,12.928218096609308
1.0494901765729918,-0.70868369140625,2.5953145996093747,11.712434521484374,12.017446187334048
1.0519771201193733,-0.6512228515624999,2.5043349365234375,10.620678564453124,10.931358462978109
1.0544640636657547,-0.5793968017578125,2.43250888671875,9.481038574218749,9.80524821632154
1.0569510072121362,-0.5123591552734374,2.370259643554687,8.422801440429687,8.764943056675321
1.0594379507585177,-0.45968671875,2.31758720703125,7.50821640625,7.871202954102487
1.0619248943048991,-0.40222587890625,2.29843359375,6.823474731445312,7.211406939926017
1.0644118378512808,-0.373495458984375,2.2936451904296873,6.426037255859375,6.833319978689412
1.0668987813976623,-0.3495534423828125,2.3127988037109373,6.339845996093749,6.757578942913975
1.0693857249440437,-0.3495534423828125,2.346317626953125,6.53138212890625,6.948837782638803
1.0718726684904252,-0.38786066894531246,2.398990063476562,7.000645654296875,7.4104405267298175
1.0743596120368066,-0.411802685546875,2.47081611328125,7.675810522460937,8.074192275032587
1.076846555583188,-0.45010991210937495,2.5378537597656248,8.470685473632813,8.854141010405785
1.0793334991295698,-0.49320554199218747,2.5905261962890624,9.323021264648437,9.6887978192033
1.0818204426759512,-0.5315127685546874,2.6288334228515624,10.146626635742187,10.495108530805718
1.0843073862223327,-0.5746083984375,2.6719290527343746,10.86009873046875,11.198710823569375
1.0867943297687142,-0.603338818359375,2.6862942626953124,11.386823095703125,11.714944934073191
1.0892812733150956,-0.6416460449218749,2.70065947265625,11.717222924804688,12.041535795062867
1.0917682168614773,-0.6607996582031249,2.6862942626953124,11.822567797851562,12.141908515092174
1.0942551604078588,-0.6607996582031249,2.6479870361328124,11.712434521484374,12.026205301418553
1.0967421039542402,-0.6512228515624999,2.6048914062499997,11.410765112304686,11.722419156852483
1.0992290475006217,-0.6368576416015624,2.5617957763671875,10.946289990234375,11.260091021203351
1.1017159910470031,-0.6081272216796875,2.518700146484375,10.36210478515625,10.681146227077237
1.1042029345933846,-0.5793968017578125,2.47081611328125,9.715670336914062,10.041657383874897
1.1066898781397663,-0.5458779785156249,2.442085693359375,9.088389501953124,9.426589470235276
1.1091768216861477,-0.5123591552734374,2.4133552734375,8.528146313476562,8.87784180552261
1.1116637652325292,-0.488417138671875,2.389413256835937,8.073247998046874,8.433574583251136
1.1141507087789106,-0.4740519287109375,2.389413256835937,7.781155395507812,8.153551387714327
1.116637652325292,-0.469263525390625,2.39420166015625,7.666233715820312,8.04509473103562
1.1191245958716736,-0.45968671875,2.39420166015625,7.728482958984374,8.103885630745411
1.1216115394180552,-0.45968671875,2.422932080078125,7.943961108398437,8.31795827326717
1.1240984829644367,-0.4740519287109375,2.4516625,8.283937744140625,8.652109499643338
1.1265854265108182,-0.5027823486328125,2.4660277099609376,8.724470849609375,9.080224356373341
1.1290723700571996,-0.51714755859375,2.499546533203125,9.212887988281249,9.559941399068519
1.131559313603581,-0.5315127685546874,2.528276953125,9.696516723632811,10.034795799941845
1.1340462571499625,-0.5506663818359374,2.5330653564453125,10.141838232421874,10.467881175133856
1.1365332006963442,-0.5698199951171875,2.5378537597656248,10.496180078124999,10.81365769595191
1.1390201442427257,-0.5746083984375,2.5474305664062498,10.730811840820312,11.043998373112213
1.1415070877891071,-0.584185205078125,2.5474305664062498,10.836156713867187,11.146881499862728
1.1439940313354886,-0.5985504150390625,2.5330653564453125,10.82179150390625,11.130402241311153
1.14648097488187,-0.603338818359375,2.518700146484375,10.678139404296875,10.98774450445756
1.1489679184282515,-0.5746083984375,2.499546533203125,10.419565624999999,10.73057572998226
1.1514548619746332,-0.5506663818359374,2.4899697265625,10.09395419921875,10.411104364053212
1.1539418055210147,-0.5410895751953124,2.47081611328125,9.720458740234374,10.044153937223092
1.1564287490673961,-0.5267243652343749,2.446874096679687,9.361328491210937,9.690154927672273
1.1589156926137776,-0.5123591552734374,2.427720483398437,9.016563452148437,9.351724714517841
1.161402636160159,-0.49799394531249996,2.422932080078125,8.743624462890624,9.08677976965982
1.1638895797065405,-0.4836287353515625,2.418143676757812,8.571241943359375,8.91894074689952
1.1663765232529222,-0.47884033203125,2.4133552734375,8.489839086914062,8.839170745103987
1.1688634667993036,-0.4836287353515625,2.418143676757812,8.504204296874999,8.854535917714081
1.171350410345685,-0.4836287353515625,2.43250888671875,8.585607153320312,8.936646262931546
1.1738373538920666,-0.488417138671875,2.437297290039062,8.75320126953125,9.099313262345882
1.176324297438448,-0.5027823486328125,2.4516625,8.963891015625,9.306706251086126
1.1788112409848295,-0.5123591552734374,2.47081611328125,9.217676391601563,9.556830135035966
1.1812981845312112,-0.507570751953125,2.499546533203125,9.481038574218749,9.818118627604267
1.1837851280775926,-0.5123591552734374,2.518700146484375,9.739612353515625,10.07305371417462
1.186272071623974,-0.5267243652343749,2.5378537597656248,9.935936889648437,10.268445945612449
1.1887590151703555,-0.5219359619140624,2.5474305664062498,10.065223779296874,10.39569859924398
1.191245958716737,-0.51714755859375,2.5474305664062498,10.151415039062499,10.478934649253455
1.1937329022631185,-0.5219359619140624,2.5522189697265625,10.175357055664062,10.503529408157226
1.1962198458095001,-0.51714755859375,2.5474305664062498,10.127473022460936,10.455742628273441
1.1987067893558816,-0.507570751953125,2.5426421630859375,10.012551342773437,10.342815942934243
1.201193732902263,-0.5027823486328125,2.5330653564453125,9.859322436523437,10.191930587354614
1.2036806764486445,-0.49799394531249996,2.5330653564453125,9.662997900390625,10.001897144669353
1.206167619995026,-0.49799394531249996,2.5234885498046875,9.452308154296874,9.796025820420772
1.2086545635414074,-0.488417138671875,2.50912333984375,9.270348828125,9.616320430966079
1.2111415070877891,-0.49320554199218747,2.50912333984375,9.121908325195312,9.473550714197291
1.2136284506341706,-0.5027823486328125,2.50912333984375,8.997409838867187,9.354243626995686
1.216115394180552,-0.5027823486328125,2.5043349365234375,8.935160595703124,9.29309304996966
1.2186023377269335,-0.507570751953125,2.5043349365234375,8.920795385742187,9.279542653429058
1.221089281273315,-0.5027823486328125,2.518700146484375,8.94473740234375,9.306179007244829
1.2235762248196966,-0.5027823486328125,2.528276953125,9.026140258789061,9.38702202048831
1.226063168366078,-0.51714755859375,2.5378537597656248,9.13627353515625,9.496295983830352
1.2285501119124596,-0.5219359619140624,2.5522189697265625,9.275137231445312,9.634023535362278
1.231037055458841,-0.5219359619140624,2.5617957763671875,9.437942944335937,9.793364170125217
1.2335239990052225,-0.5267243652343749,2.5713725830078125,9.591171850585937,9.943840957348819
1.236010942551604,-0.5410895751953124,2.5761609863281247,9.734823950195311,10.084452424259851
1.2384978860979856,-0.5458779785156249,2.5809493896484375,9.835380419921874,10.183024625519547
1.240984829644367,-0.5506663818359374,2.5809493896484375,9.897629663085937,10.243417699362334
1.2434717731907485,-0.5506663818359374,2.5761609863281247,9.911994873046874,10.2560948345299
1.24595871673713,-0.55545478515625,2.5713725830078125,9.868899243164062,10.213503769555354
1.2484456602835114,-0.565031591796875,2.5617957763671875,9.816226806640625,10.16072669738495
1.250932603829893,-0.55545478515625,2.5474305664062498,9.725247143554688,10.068682362267293
1.2534195473762746,-0.5506663818359374,2.528276953125,9.624690673828125,9.966448132743249
1.255906490922656,-0.565031591796875,2.5139117431640625,9.524134204101562,9.86651637052734
1.2583934344690375,-0.565031591796875,2.518700146484375,9.409212524414063,9.756863812579295
1.260880378015419,-0.5458779785156249,2.50912333984375,9.289502441406249,9.637870009025315
1.2633673215618004,-0.5363011718749999,2.4851813232421875,9.203311181640624,9.548019787498223
1.2658542651081819,-0.5315127685546874,2.480392919921875,9.141061938476563,9.486509801997789
1.2683412086545636,-0.5219359619140624,2.4851813232421875,9.107543115234375,9.454939711790024
1.270828152200945,-0.5267243652343749,2.47081611328125,9.112331518554686,9.456053961702365
1.2733150957473265,-0.5315127685546874,2.461239306640625,9.1554271484375,9.495369977943772
1.275802039293708,-0.5267243652343749,2.47081611328125,9.236830004882812,9.576084761617622
1.2782889828400894,-0.5363011718749999,2.4660277099609376,9.327809667968749,9.663174675804061
1.2807759263864709,-0.5363011718749999,2.4756045166015626,9.404424121093749,9.739580572025805
1.2832628699328525,-0.5267243652343749,2.4851813232421875,9.485826977539062,9.820105814813362
1.285749813479234,-0.51714755859375,2.4899697265625,9.562441430664062,9.894830819748146
1.2882367570256155,-0.5267243652343749,2.4947581298828125,9.634267480468749,9.96596039369842
1.290723700571997,-0.5315127685546874,2.4947581298828125,9.686939916992188,10.017141753273219
1.2932106441183784,-0.5219359619140624,2.499546533203125,9.715670336914062,10.045615964965947
1.2956975876647598,-0.51714755859375,2.4899697265625,9.730035546875,10.056887320637946
1.2981845312111415,-0.5219359619140624,2.4851813232421875,9.706093530273437,10.03278600270866
1.300671474757523,-0.51714755859375,2.4899697265625,9.672574707031249,10.00130452989298
1.3031584183039044,-0.5219359619140624,2.480392919921875,9.634267480468749,9.96212206664601
1.305645361850286,-0.51714755859375,2.4851813232421875,9.586383447265625,9.91676940362937
1.3081323053966674,-0.5123591552734374,2.4756045166015626,9.519345800781249,9.849318458729119
1.3106192489430488,-0.5267243652343749,2.4756045166015626,9.4618849609375,9.794555798685556
1.3131061924894305,-0.5315127685546874,2.4899697265625,9.418789331054686,9.756846187427778
1.315593136035812,-0.5267243652343749,2.499546533203125,9.3852705078125,9.726688744551993
1.3180800795821934,-0.5410895751953124,2.499546533203125,9.342174877929686,9.685904307283515
1.3205670231285749,-0.5506663818359374,2.4947581298828125,9.332598071289063,9.675972217349996
1.3230539666749563,-0.5506663818359374,2.5043349365234375,9.323021264648437,9.669211572794499
1.3255409102213378,-0.5458779785156249,2.50912333984375,9.323021264648437,9.6701813945274
1.3280278537677195,-0.5506663818359374,2.499546533203125,9.34696328125,9.69106232137467
1.330514797314101,-0.5602431884765625,2.4947581298828125,9.375693701171874,9.718092556414799
1.3330017408604824,-0.5698199951171875,2.499546533203125,9.423577734375,9.766076234306764
1.3354886844068639,-0.5746083984375,2.5043349365234375,9.471461767578125,9.813789089874557
1.3379756279532453,-0.5793968017578125,2.4947581298828125,9.524134204101562,9.86248706555506
1.3404625714996268,-0.5746083984375,2.47081611328125,9.576806640625,9.907084965272292
1.3429495150460085,-0.5793968017578125,2.4660277099609376,9.605537060546874,9.933948637964757
1.34543645859239,-0.584185205078125,2.4756045166015626,9.600748657226562,9.931981919822844
1.3479234021387714,-0.5889736083984375,2.480392919921875,9.591171850585937,9.924203565831391
1.3504103456851528,-0.59376201171875,2.4756045166015626,9.572018237304688,9.904781884750006
1.3528972892315343,-0.584185205078125,2.47081611328125,9.552864624023437,9.884504395486951
1.3553842327779158,-0.5889736083984375,2.4660277099609376,9.514557397460937,9.846572248618486
1.3578711763242974,-0.5889736083984375,2.4660277099609376,9.466673364257812,9.800310564631785
1.360358119870679,-0.584185205078125,2.4756045166015626,9.414000927734374,9.751579540968422
1.3628450634170604,-0.584185205078125,2.4756045166015626,9.361328491210937,9.700740239631607
1.3653320069634418,-0.565031591796875,2.4756045166015626,9.34696328125,9.685742150366297
1.3678189505098233,-0.55545478515625,2.4851813232421875,9.351751684570312,9.69226061337645
1.370305894056205,-0.55545478515625,2.4851813232421875,9.332598071289063,9.673781214601306
1.3727928376025864,-0.5506663818359374,2.4660277099609376,9.327809667968749,9.663982581329021
1.3752797811489679,-0.5315127685546874,2.461239306640625,9.356540087890625,9.689429661440027
1.3777667246953493,-0.5219359619140624,2.47081611328125,9.390058911132812,9.723711008073725
1.3802536682417308,-0.51714755859375,2.47081611328125,9.433154541015625,9.765079541800644
1.3827406117881123,-0.507570751953125,2.461239306640625,9.476250170898437,9.80380764265822
1.385227555334494,-0.507570751953125,2.4660277099609376,9.524134204101562,9.851297024872956
1.3877144988808754,-0.49320554199218747,2.47081611328125,9.567229833984374,9.893435736314395
1.3902014424272569,-0.4836287353515625,2.4756045166015626,9.572018237304688,9.898790209493752
1.3926883859736383,-0.47884033203125,2.4851813232421875,9.572018237304688,9.900956893566658
1.3951753295200198,-0.4644751220703125,2.499546533203125,9.586383447265625,9.917772814935738
1.3976622730664012,-0.45010991210937495,2.4947581298828125,9.572018237304688,9.902017481043398
1.400149216612783,-0.44532150878906246,2.4947581298828125,9.552864624023437,9.88328649274749
1.4026361601591644,-0.44532150878906246,2.5043349365234375,9.533711010742186,9.86720073561032
1.4051231037055458,-0.45010991210937495,2.5043349365234375,9.528922607421874,9.862791616246724
1.4076100472519273,-0.4644751220703125,2.5139117431640625,9.528922607421874,9.865893545425884
1.4100969907983087,-0.45968671875,2.5234885498046875,9.495403784179686,9.83575108291199
1.4125839343446902,-0.45010991210937495,2.5234885498046875,9.4618849609375,9.802951617140101
1.4150708778910719,-0.45489831542968745,2.5234885498046875,9.437942944335937,9.780066153095113
1.4175578214374533,-0.4740519287109375,2.5330653564453125,9.423577734375,9.769593781061024
1.4200447649838348,-0.4836287353515625,2.5426421630859375,9.399635717773437,9.749465500733988
1.4225317085302163,-0.47884033203125,2.528276953125,9.394847314453125,9.740874112581988
1.4250186520765977,-0.488417138671875,2.5234885498046875,9.399635717773437,9.74472664517512
1.4275055956229792,-0.49320554199218747,2.528276953125,9.399635717773437,9.746208887829
1.4299925391693609,-0.5027823486328125,2.5234885498046875,9.414000927734374,9.759313398926983
1.4324794827157423,-0.51714755859375,2.518700146484375,9.433154541015625,9.777305181896676
1.4349664262621238,-0.5267243652343749,2.5234885498046875,9.447519750976562,9.792908784575662
1.4374533698085052,-0.5363011718749999,2.50912333984375,9.471461767578125,9.81284397594282
1.4399403133548867,-0.5410895751953124,2.4899697265625,9.495403784179686,9.831348849074407
1.4424272569012682,-0.5458779785156249,2.4947581298828125,9.514557397460937,9.851324954726817
1.4449142004476498,-0.5506663818359374,2.499546533203125,9.519345800781249,9.857429219151596
1.4474011439940313,-0.55545478515625,2.499546533203125,9.457096557617186,9.797598593027557
1.4498880875404128,-0.55545478515625,2.499546533203125,9.452308154296874,9.792976684021458
1.4523750310867942,-0.5506663818359374,2.499546533203125,9.4618849609375,9.801950487007536
1.4548619746331757,-0.55545478515625,2.5043349365234375,9.466673364257812,9.808064440968623
1.4573489181795571,-0.565031591796875,2.5043349365234375,9.471461767578125,9.813233014084323
1.4598358617259388,-0.5698199951171875,2.4947581298828125,9.471461767578125,9.811070327346853
1.4623228052723203,-0.5602431884765625,2.4899697265625,9.471461767578125,9.809302201692343
1.4648097488187017,-0.5746083984375,2.4947581298828125,9.4618849609375,9.802104873555809
1.4672966923650832,-0.5698199951171875,2.4851813232421875,9.447519750976562,9.785522494037782
1.4697836359114647,-0.55545478515625,2.4851813232421875,9.447519750976562,9.78469650386955
1.4722705794578461,-0.5602431884765625,2.4947581298828125,9.452308154296874,9.792028390514293
1.4747575230042278,-0.55545478515625,2.4947581298828125,9.471461767578125,9.810246488221562
1.4772444665506093,-0.5458779785156249,2.4851813232421875,9.481038574218749,9.816526953186854
1.4797314100969907,-0.5410895751953124,2.4899697265625,9.471461767578125,9.808226913274229
1.4822183536433722,-0.5315127685546874,2.4899697265625,9.471461767578125,9.80770325188464
1.4847052971897536,-0.51714755859375,2.4947581298828125,9.481038574218749,9.817400479240915
1.487192240736135,-0.51714755859375,2.5043349365234375,9.481038574218749,9.819838466974659
1.4896791842825168,-0.5123591552734374,2.4947581298828125,9.481038574218749,9.81714940685089
1.4921661278288982,-0.5027823486328125,2.4947581298828125,9.481038574218749,9.81665424992329
1.4946530713752797,-0.5123591552734374,2.5043349365234375,9.481038574218749,9.81958745692039
1.4971400149216612,-0.51714755859375,2.5043349365234375,9.476250170898437,9.815215350317281
1.4996269584680426,-0.488417138671875,2.5043349365234375,9.4618849609375,9.799873049670364
1.5021139020144243,-0.4836287353515625,2.5043349365234375,9.4618849609375,9.799635566793535
1.5046008455608058,-0.49799394531249996,2.5139117431640625,9.466673364257812,9.807428552252338
1.5070877891071872,-0.507570751953125,2.528276953125,9.4618849609375,9.806991354842552
1.5095747326535687,-0.507570751953125,2.518700146484375,9.457096557617186,9.799905805477596
1.5120616761999501,-0.507570751953125,2.518700146484375,9.4618849609375,9.804526786650843
1.5145486197463316,-0.5027823486328125,2.528276953125,9.471461767578125,9.815985047691031
1.5170355632927133,-0.507570751953125,2.5139117431640625,9.476250170898437,9.817163420362784
1.5195225068390947,-0.507570751953125,2.5043349365234375,9.490615380859374,9.828585953733866
1.5220094503854762,-0.507570751953125,2.5139117431640625,9.495403784179686,9.835653173291051
1.5244963939318577,-0.51714755859375,2.5043349365234375,9.5001921875,9.838332514765261
1.5269833374782391,-0.5123591552734374,2.4899697265625,9.509768994140625,9.843686680563774
1.5294702810246206,-0.51714755859375,2.4899697265625,9.504980590820312,9.839311300514282
1.5319572245710023,-0.51714755859375,2.4851813232421875,9.495403784179686,9.828848398025333
1.5344441681173837,-0.51714755859375,2.4756045166015626,9.504980590820312,9.83568580993966
1.5369311116637652,-0.5315127685546874,2.4851813232421875,9.514557397460937,9.848118322913626
1.5394180552101466,-0.5315127685546874,2.4947581298828125,9.485826977539062,9.822791731354224
1.541904998756528,-0.5267243652343749,2.4947581298828125,9.471461767578125,9.80866171800425
1.5443919423029095,-0.5410895751953124,2.4947581298828125,9.476250170898437,9.814067115954225
1.5468788858492912,-0.5506663818359374,2.480392919921875,9.485826977539062,9.820208549164866
1.5493658293956727,-0.5410895751953124,2.4756045166015626,9.476250170898437,9.809215715461443
1.5518527729420541,-0.5410895751953124,2.47081611328125,9.481038574218749,9.812634846964356
1.5543397164884356,-0.5506663818359374,2.47081611328125,9.485826977539062,9.817794007695538
1.556826660034817,-0.55545478515625,2.4756045166015626,9.471461767578125,9.805393197402395
1.5593136035811985,-0.55545478515625,2.4756045166015626,9.452308154296874,9.786893132386712
1.5618005471275802,-0.5410895751953124,2.47081611328125,9.437942944335937,9.771001853166123
1.5642874906739617,-0.5410895751953124,2.480392919921875,9.428366137695312,9.764180200714407
1.5667744342203431,-0.5506663818359374,2.480392919921875,9.428366137695312,9.764715588675507
1.5692613777667246,-0.5363011718749999,2.47081611328125,9.414000927734374,9.747613281208299
1.571748321313106,-0.5315127685546874,2.480392919921875,9.423577734375,9.759030288719442
1.5742352648594875,-0.5363011718749999,2.480392919921875,9.442731347656249,9.777788261573425
1.5767222084058692,-0.5315127685546874,2.4851813232421875,9.442731347656249,9.778742625539259
1.5792091519522506,-0.5315127685546874,2.4899697265625,9.437942944335937,9.775337440870002
1.581696095498632,-0.5267243652343749,2.4947581298828125,9.437942944335937,9.776299080126817
1.5841830390450136,-0.5267243652343749,2.4947581298828125,9.447519750976562,9.785544753800894
1.586669982591395,-0.51714755859375,2.4851813232421875,9.457096557617186,9.791845745662362
1.5891569261377765,-0.5123591552734374,2.4851813232421875,9.471461767578125,9.805469194693258
1.5916438696841582,-0.51714755859375,2.499546533203125,9.471461767578125,9.809371156384152
1.5941308132305396,-0.51714755859375,2.518700146484375,9.452308154296874,9.795785903593803
1.596617756776921,-0.5267243652343749,2.5139117431640625,9.457096557617186,9.799687041403137
1.5991047003233025,-0.5315127685546874,2.5139117431640625,9.471461767578125,9.813808949141459
1.601591643869684,-0.5315127685546874,2.518700146484375,9.471461767578125,9.815036641079402
1.6040785874160655,-0.5219359619140624,2.518700146484375,9.471461767578125,9.814522687881144
1.6065655309624471,-0.5315127685546874,2.5330653564453125,9.476250170898437,9.823351934274408
1.6090524745088286,-0.5315127685546874,2.528276953125,9.490615380859374,9.835978369346092
1.61153941805521,-0.51714755859375,2.528276953125,9.485826977539062,9.830592016601562
1.6140263616015915,-0.5219359619140624,2.5378537597656248,9.485826977539062,9.833312376920787
1.616513305147973,-0.5267243652343749,2.5378537597656248,9.495403784179686,9.842806169355464
1.6190002486943544,-0.5315127685546874,2.5426421630859375,9.490615380859374,9.83968065030789
1.6214871922407361,-0.5410895751953124,2.5330653564453125,9.495403784179686,9.842351906583222
1.6239741357871176,-0.5410895751953124,2.528276953125,9.495403784179686,9.841120632565275
1.626461079333499,-0.5363011718749999,2.528276953125,9.490615380859374,9.836238285343745
1.6289480228798805,-0.5315127685546874,2.5330653564453125,9.481038574218749,9.827971223451154
1.631434966426262,-0.5363011718749999,2.5330653564453125,9.471461767578125,9.818993179632628
1.6339219099726436,-0.5410895751953124,2.5330653564453125,9.471461767578125,9.819255880315097
1.636408853519025,-0.5506663818359374,2.5330653564453125,9.4618849609375,9.810551492047884
1.6388957970654066,-0.5506663818359374,2.528276953125,9.4618849609375,9.80931622641469
1.641382740611788,-0.5363011718749999,2.5234885498046875,9.471461767578125,9.816526953186855
1.6438696841581695,-0.5315127685546874,2.5139117431640625,9.471461767578125,9.813808949141459
1.646356627704551,-0.5410895751953124,2.499546533203125,9.452308154296874,9.792172396553278
1.6488435712509326,-0.5410895751953124,2.499546533203125,9.437942944335937,9.778306490419151
1.651330514797314,-0.5410895751953124,2.4947581298828125,9.423577734375,9.763217367794782
1.6538174583436955,-0.5410895751953124,2.480392919921875,9.414000927734374,9.750309760872588
1.656304401890077,-0.5315127685546874,2.4660277099609376,9.418789331054686,9.750763608672987
1.6587913454364585,-0.5315127685546874,2.461239306640625,9.423577734375,9.754179722739261
1.66127828898284,-0.5410895751953124,2.4660277099609376,9.433154541015625,9.765166418928247
1.6637652325292216,-0.5410895751953124,2.461239306640625,9.447519750976562,9.777837506219365
1.666252176075603,-0.5363011718749999,2.4516625,9.471461767578125,9.798308832423832
1.6687391196219845,-0.5363011718749999,2.4516625,9.495403784179686,9.821454117668862
1.671226063168366,-0.5315127685546874,2.4564509033203126,9.495403784179686,9.822390232940949
1.6737130067147474,-0.5363011718749999,2.4564509033203126,9.481038574218749,9.808764572218132
1.676199950261129,-0.5267243652343749,2.4564509033203126,9.476250170898437,9.803617031423014
1.6786868938075106,-0.5219359619140624,2.4516625,9.471461767578125,9.797533065876305
1.681173837353892,-0.5267243652343749,2.4564509033203126,9.471461767578125,9.798988601485812
1.6836607809002735,-0.5315127685546874,2.47081611328125,9.485826977539062,9.816738334935632
1.686147724446655,-0.5363011718749999,2.480392919921875,9.5001921875,9.833291391166494
1.6886346679930364,-0.5315127685546874,2.480392919921875,9.5001921875,9.833031397273745
1.6911216115394179,-0.51714755859375,2.4851813232421875,9.495403784179686,9.828848398025333
1.6936085550857995,-0.51714755859375,2.4899697265625,9.485826977539062,9.820809757060008
1.696095498632181,-0.51714755859375,2.499546533203125,9.471461767578125,9.809371156384152
1.6985824421785625,-0.5123591552734374,2.5043349365234375,9.4618849609375,9.801095468992209
1.701069385724944,-0.51714755859375,2.5139117431640625,9.4618849609375,9.803798287592054
1.7035563292713254,-0.51714755859375,2.518700146484375,9.476250170898437,9.8188904325648
1.7060432728177068,-0.5219359619140624,2.50912333984375,9.481038574218749,9.821314042871844
1.7085302163640885,-0.51714755859375,2.5139117431640625,9.481038574218749,9.822285187042857
1.71101715991047,-0.5267243652343749,2.518700146484375,9.476250170898437,9.819399487050347
1.7135041034568514,-0.5219359619140624,2.518700146484375,9.471461767578125,9.814522687881144
1.715991047003233,-0.51714755859375,2.518700146484375,9.476250170898437,9.8188904325648
1.7184779905496144,-0.5315127685546874,2.518700146484375,9.476250170898437,9.81965750688331
1.7209649340959958,-0.5267243652343749,2.5234885498046875,9.481038574218749,9.82524938430322
1.7234518776423775,-0.51714755859375,2.5234885498046875,9.481038574218749,9.824740632921499
1.725938821188759,-0.5267243652343749,2.528276953125,9.476250170898437,9.821860323283326
1.7284257647351404,-0.5315127685546874,2.5378537597656248,9.485826977539062,9.83382534809832
1.7309127082815219,-0.5219359619140624,2.5378537597656248,9.490615380859374,9.837931650591003
1.7333996518279033,-0.51714755859375,2.5426421630859375,9.490615380859374,9.838915137059894
1.7358865953742848,-0.5219359619140624,2.5426421630859375,9.481038574218749,9.8299307608785
1.7383735389206665,-0.8810662109374999,2.5713725830078125,11.037269653320312,11.367038137914621
1.740860482467048,-0.32561142578124996,2.1212626708984375,3.6583401367187496,4.24137132015977
1.7433474260134294,0.181959326171875,1.7190367919921874,-2.844311572265625,3.3284087802924485
1.7458343695598109,0.5985504150390625,1.388636962890625,-8.125920434570313,8.265419416037938
1.7483213131061923,0.8714894042968749,1.1731588134765625,-11.9518546875,12.040873135057739
1.7508082566525738,1.01514150390625,1.0678139404296874,-14.202404248046873,14.278621267799943
1.7532952001989555,1.0199299072265624,1.0678139404296874,-14.844050292968749,14.917315868721717
1.755782143745337,0.8571241943359375,1.1827356201171875,-13.94861887207031,14.02488837281374
1.7582690872917184,0.565031591796875,1.3934253662109375,-11.678915698242188,11.775311751184187
1.7607560308380998,0.201112939453125,1.68551796875,-8.2743609375,8.446683737504351
1.7632429743844813,-0.2154781494140625,2.0302830078125,-4.027047192382812,4.515040311488412
1.765729917930863,-0.6368576416015624,2.384624853515625,0.7613561279296874,2.5829608013299015
1.7682168614772444,-1.024718310546875,2.748543505859375,5.7508723876953125,6.455778205540225
1.770703805023626,-1.3359645263671873,3.0693665283203124,10.587159741210938,11.103772488969785
1.7731907485700074,-1.5514426757812498,3.327940307617187,15.002067602539062,15.444875959956772
1.7756776921163888,-1.6711527587890624,3.5003228271484375,18.784906225585935,19.1811812290464
1.7781646356627703,-1.68551796875,3.5913024902343746,21.73935107421875,22.09836667103428
1.780651579209152,-1.5801730957031248,3.6008792968749996,23.721750048828124,24.045471592425134
1.7831385227555334,-1.3742717529296875,3.5146880371093747,24.679430712890625,24.966296384555505
1.7856254663019149,-1.1013327636718748,3.356670727539062,24.641123486328123,24.893074115061125
1.7881124098482963,-0.7805097412109374,3.1268273681640624,23.688231225585938,23.906454012321642
1.7905993533946778,-0.469263525390625,2.863465185546875,21.921310400390624,22.112518870435704
1.7930862969410593,-0.16759411621093748,2.5809493896484375,19.512743530273436,19.68340792693031
1.795573240487441,0.08140285644531249,2.29843359375,16.6636435546875,16.82160634207073
1.7980601840338224,0.26336218261718747,2.0446482177734375,13.584700219726562,13.74023384202452
1.8005471275802039,0.3591302490234375,1.8195932617187498,10.453084448242187,10.61634912085782
1.8030340711265853,0.36391865234375,1.6615759521484375,7.4794859863281244,7.67046165820288
1.8055210146729668,0.28730419921875,1.5705962890624998,4.84586416015625,5.102128562158391
1.8080079582193482,0.1388636962890625,1.5514426757812498,2.6910826660156246,3.109370260633511
1.81049490176573,-0.05746083984375,1.608903515625,1.1013327636718748,1.9505912249990163
1.8129818453121114,-0.2825157958984375,1.7286135986328124,0.1292868896484375,1.7563129698733586
1.8154687888584928,-0.5267243652343749,1.905784521484375,-0.19632453613281248,1.9869565981039312
1.8179557324048743,-0.7565677246093749,2.1260510742187497,0.076614453125,2.2579543101079236
1.8204426759512558,-0.9576806640625,2.360682836914062,0.928950244140625,2.7116276047622656
1.8229296194976372,-1.0965443603515623,2.5905261962890624,2.2553379638671873,3.605521437897615
1.825416563044019,-1.177947216796875,2.81558115234375,3.902548706054687,4.95428534443889
1.8279035065904004,-1.2114660400390624,3.0023288818359375,5.7891796142578125,6.632965346435363
1.8303904501367818,-1.16837041015625,3.1411925781249996,7.766790185546874,8.45903126927094
1.8328773936831633,-1.0582371337890624,3.227383837890625,9.6917283203125,10.26963826544806
1.8353643372295447,-0.9002198242187499,3.2513258544921873,11.463437548828125,11.949557145764372
1.8378512807759262,-0.7326257080078125,3.2225954345703123,13.014880224609374,13.42791752372182
1.8403382243223079,-0.55545478515625,3.1411925781249996,14.240711474609375,14.593611072462211
1.8428251678686893,-0.37828386230468747,3.0214824951171875,15.069105249023437,15.373691429026584
1.8453121114150708,-0.22505495605468748,2.868253588867187,15.509638354492187,15.774232478013928
1.8477990549614522,-0.1149216796875,2.6815058593749996,15.547945581054687,15.777905198655576
1.8502859985078337,-0.047884033203124995,2.50912333984375,15.203180541992186,15.40891597120298
1.8527729420542152,-0.028730419921875,2.3511060302734372,14.528015673828124,14.717056921192247
1.8552598856005968,-0.062249243164062495,2.2026655273437497,13.589488623046874,13.766982655235076
1.8577468291469783,-0.13407529296874998,2.0781670410156248,12.478579052734375,12.651153686912883
1.8602337726933598,-0.2537853759765625,2.001552587890625,11.257536206054686,11.436902605591401
1.8627207162397412,-0.373495458984375,1.9728221679687499,10.01733974609375,10.216585621085963
1.8652076597861227,-0.507570751953125,1.9776105712890624,8.82981572265625,9.062793020696216
1.8676946033325041,-0.6512228515624999,2.0350714111328125,7.766790185546874,8.055348325002125
1.8701815468788858,-0.7613561279296874,2.1164742675781247,6.885723974609375,7.243778098020865
1.8726684904252673,-0.8475473876953125,2.221819140625,6.2201359130859375,6.659197222285746
1.8751554339716487,-0.9050082275390624,2.35589443359375,5.80354482421875,6.328539405018164
1.8776423775180302,-0.9193734375,2.4947581298828125,5.655104321289063,6.248941552683877
1.8801293210644117,-0.8954314208984374,2.6192566162109374,5.736507177734374,6.369444029999397
1.8826162646107931,-0.833182177734375,2.729389892578125,6.047753393554687,6.687232823541741
1.8851032081571748,-0.7613561279296874,2.8107927490234372,6.545747338867187,7.164288328632906
1.8875901517035563,-0.6703764648437499,2.868253588867187,7.192181787109375,7.7719857252502536
1.8900770952499377,-0.5602431884765625,2.906560815429687,7.9295958984374995,8.464068721161382
1.8925640387963192,-0.44532150878906246,2.887407202148437,8.690952026367187,9.168864636465342
1.8950509823427006,-0.354341845703125,2.839523168945312,9.442731347656249,9.86679407277782
1.897537925889082,-0.28730419921875,2.7724855224609373,10.156203442382813,10.53174667556207
1.9000248694354638,-0.2442085693359375,2.6815058593749996,10.788272680664061,11.119214852297894
1.9025118129818452,-0.2346317626953125,2.5713725830078125,11.286266625976562,11.577859188008038
1.9049987565282267,-0.2537853759765625,2.461239306640625,11.645396875,11.905350659173049
1.9074857000746082,-0.28730419921875,2.346317626953125,11.8369330078125,12.070655870369295
1.9099726436209896,-0.3447650390625,2.250549560546875,11.85608662109375,12.072722403149827
1.9124595871673713,-0.4165910888671875,2.1787235107421874,11.731588134765625,11.939453272045496
1.9149465307137528,-0.49799394531249996,2.1164742675781247,11.49216796875,11.696041463540206
1.9174334742601342,-0.584185205078125,2.1021090576171875,11.1474029296875,11.358905181431608
1.9199204178065157,-0.6464344482421874,2.1260510742187497,10.711658227539061,10.939725437581426
1.9224073613528971,-0.699106884765625,2.1595698974609374,10.218452685546874,10.467533991590678
1.9248943048992786,-0.737414111328125,2.212242333984375,9.710881933593749,9.986942657493131
1.9273812484456603,-0.7517793212890624,2.29843359375,9.236830004882812,9.54814105844168
1.9298681919920417,-0.737414111328125,2.389413256835937,8.796296899414061,9.144829928772355
1.9323551355384232,-0.70868369140625,2.4851813232421875,8.44674345703125,8.833223296892093
1.9348420790848047,-0.6751648681640625,2.5809493896484375,8.197746484375,8.620916121457876
1.9373290226311861,-0.6177040283203125,2.6671406494140624,8.039729174804688,8.493082050384634
1.9398159661775676,-0.55545478515625,2.729389892578125,7.972691528320312,8.445229979687413
1.9423029097239493,-0.507570751953125,2.7820623291015623,7.987056738281249,8.472931854545283
1.9447898532703307,-0.44532150878906246,2.8107927490234372,8.092401611328125,8.578218402627607
1.9472767968167122,-0.40222587890625,2.81558115234375,8.283937744140625,8.758590493446587
1.9497637403630936,-0.38307226562499996,2.7916391357421872,8.518569506835936,8.972514690302463
1.952250683909475,-0.36391865234375,2.7581203125,8.796296899414061,9.225752196237996
1.9547376274558566,-0.3687070556640625,2.7246014892578123,9.107543115234375,9.513503022757464
1.9572245710022382,-0.39264907226562495,2.6575638427734374,9.428366137695312,9.803617031423014
1.9597115145486197,-0.4165910888671875,2.5857377929687497,9.744400756835937,10.090239550136321
1.9621984580950012,-0.45010991210937495,2.5139117431640625,9.993397729492187,10.314569761517777
1.9646854016413826,-0.5027823486328125,2.4516625,10.194510668945313,10.497213291309402
1.967172345187764,-0.5458779785156249,2.39420166015625,10.342951171874999,10.630466748958565
1.9696592887341455,-0.584185205078125,2.35589443359375,10.424354028320312,10.703208296759813
1.9721462322805272,-0.622492431640625,2.327164013671875,10.43871923828125,10.713078386236251
1.9746331758269087,-0.6416460449218749,2.3127988037109373,10.386046801757812,10.659770922572132
1.9771201193732901,-0.6560112548828124,2.327164013671875,10.299855541992187,10.579842498778962
1.9796070629196716,-0.6560112548828124,2.346317626953125,10.175357055664062,10.462956005992584
1.982094006466053,-0.6368576416015624,2.375048046875,10.012551342773437,10.310073970263511
1.9845809500124345,-0.622492431640625,2.422932080078125,9.816226806640625,10.12997558790403
1.9870678935588162,-0.5889736083984375,2.4756045166015626,9.605537060546874,9.936893370442666
1.9895548371051976,-0.5506663818359374,2.528276953125,9.418789331054686,9.767753594280359
1.992041780651579,-0.5219359619140624,2.5713725830078125,9.2320416015625,9.597654205167224
1.9945287241979606,-0.49320554199218747,2.5953145996093747,9.069235888671875,9.446160552413415
1.997015667744342,-0.4740519287109375,2.6096798095703124,8.949525805664061,9.334300514009632
1.9995026112907235,-0.4644751220703125,2.6240450195312497,8.872911352539061,9.264443063323641
2.001989554837105,-0.44532150878906246,2.6192566162109374,8.839392529296875,9.230042077625884
2.0044764983834864,-0.44053310546874996,2.6096798095703124,8.844180932617187,9.231686438260471
2.006963441929868,-0.45968671875,2.6001030029296874,8.882488159179687,9.266630639191705
2.0094503854762498,-0.4740519287109375,2.5617957763671875,8.949525805664061,9.321026498040561
2.011937329022631,-0.4836287353515625,2.50912333984375,9.054870678710937,9.408521653075232
2.0144242725690127,-0.507570751953125,2.480392919921875,9.165003955078124,9.508274007517583
2.016911216115394,-0.5363011718749999,2.4564509033203126,9.303867651367186,9.637620207371446
2.0193981596617756,-0.5698199951171875,2.418143676757812,9.428366137695312,9.750189828650452
2.021885103208157,-0.584185205078125,2.379836450195312,9.5384994140625,9.84824171898624
2.0243720467545385,-0.5793968017578125,2.35589443359375,9.65342109375,9.953616330228057
2.02685899030092,-0.5889736083984375,2.3511060302734372,9.739612353515625,10.036664698680143
2.0293459338473014,-0.584185205078125,2.3511060302734372,9.816226806640625,10.110750745559416
2.031832877393683,-0.5746083984375,2.35589443359375,9.8449572265625,10.1392108266195
2.0343198209400644,-0.5698199951171875,2.370259643554687,9.840168823242188,10.137640163006719
2.036806764486446,-0.55545478515625,2.408566870117187,9.835380419921874,10.141224402938812
2.0392937080328277,-0.5363011718749999,2.437297290039062,9.801861596679688,10.11457007427653
2.041780651579209,-0.5123591552734374,2.47081611328125,9.753977563476562,10.075094167224789
2.0442675951255906,-0.488417138671875,2.50912333984375,9.682151513671874,10.013905789930103
2.046754538671972,-0.4836287353515625,2.5522189697265625,9.605537060546874,9.950580919957858
2.0492414822183536,-0.47884033203125,2.5857377929687497,9.524134204101562,9.88050911316335
2.0517284257647352,-0.45968671875,2.6048914062499997,9.452308154296874,9.81544194428032
2.0542153693111165,-0.45968671875,2.6240450195312497,9.390058911132812,9.760641910164853
2.056702312857498,-0.4740519287109375,2.6384102294921874,9.327809667968749,9.705357642665975
2.0591892564038794,-0.4836287353515625,2.6384102294921874,9.279925634765624,9.659820137017403
2.061676199950261,-0.49799394531249996,2.6240450195312497,9.260772021484375,9.638231615187635
2.0641631434966423,-0.5219359619140624,2.6192566162109374,9.255983618164063,9.633595129006897
2.066650087043024,-0.5315127685546874,2.5953145996093747,9.260772021484375,9.632240763601688
2.0691370305894057,-0.5506663818359374,2.5665841796874997,9.275137231445312,9.639437663974462
2.071623974135787,-0.5793968017578125,2.5426421630859375,9.279925634765624,9.639385333628368
2.0741109176821686,-0.5889736083984375,2.5139117431640625,9.3086560546875,9.66010971512634
2.07659786122855,-0.59376201171875,2.4756045166015626,9.361328491210937,9.70132167127428
2.0790848047749315,-0.59376201171875,2.4660277099609376,9.404424121093749,9.740484538372073
2.081571748321313,-0.584185205078125,2.47081611328125,9.466673364257812,9.801229984294356
2.0840586918676944,-0.5793968017578125,2.446874096679687,9.524134204101562,9.850483533138183
2.086545635414076,-0.5793968017578125,2.446874096679687,9.562441430664062,9.887526465894783
2.0890325789604574,-0.55545478515625,2.446874096679687,9.576806640625,9.900047893584864
2.091519522506839,-0.5410895751953124,2.446874096679687,9.600748657226562,9.922416316231883
2.0940064660532203,-0.5410895751953124,2.461239306640625,9.619902270507811,9.944495791494871
2.096493409599602,-0.5315127685546874,2.47081611328125,9.610325463867188,9.93709180848406
2.0989803531459836,-0.5219359619140624,2.4756045166015626,9.605537060546874,9.93314537759801
2.101467296692365,-0.51714755859375,2.480392919921875,9.595960253906249,9.924829662473131
2.1039542402387466,-0.5027823486328125,2.4947581298828125,9.572018237304688,9.904551547243654
2.106441183785128,-0.5027823486328125,2.5043349365234375,9.548076220703125,9.883837467337525
2.1089281273315095,-0.507570751953125,2.499546533203125,9.514557397460937,9.850490516185712
2.111415070877891,-0.5123591552734374,2.499546533203125,9.490615380859374,9.82761543219131
2.1139020144242724,-0.51714755859375,2.5043349365234375,9.457096557617186,9.796724471564266
2.116388957970654,-0.5267243652343749,2.499546533203125,9.428366137695312,9.768278223669661
2.1188759015170353,-0.5315127685546874,2.4947581298828125,9.404424121093749,9.74420427737242
2.121362845063417,-0.5363011718749999,2.480392919921875,9.380482104492186,9.717685552478596
2.1238497886097982,-0.5315127685546874,2.461239306640625,9.380482104492186,9.712551120091346
2.12633673215618,-0.5219359619140624,2.4516625,9.375693701171874,9.704983180842683
2.1288236757025616,-0.51714755859375,2.446874096679687,9.366116894531249,9.694265321538564
2.131310619248943,-0.51714755859375,2.43250888671875,9.366116894531249,9.690649450029078
2.1337975627953245,-0.51714755859375,2.422932080078125,9.366116894531249,9.68824995260005
2.1362845063417057,-0.5123591552734374,2.422932080078125,9.380482104492186,9.701884161407122
2.1387714498880874,-0.5027823486328125,2.422932080078125,9.404424121093749,9.724535104784103
2.141258393434469,-0.5027823486328125,2.43250888671875,9.433154541015625,9.75470625743011
2.1437453369808503,-0.49799394531249996,2.446874096679687,9.457096557617186,9.781199625540049
2.146232280527232,-0.49799394531249996,2.4564509033203126,9.452308154296874,9.778971236984914
2.1487192240736133,-0.5027823486328125,2.4756045166015626,9.457096557617186,9.788671161746604
2.151206167619995,-0.488417138671875,2.4947581298828125,9.457096557617186,9.792805763827834
2.153693111166376,-0.47884033203125,2.499546533203125,9.466673364257812,9.80280192193925
2.156180054712758,-0.488417138671875,2.5043349365234375,9.485826977539062,9.82299130730798
2.1586669982591395,-0.49320554199218747,2.528276953125,9.495403784179686,9.838604021047333
2.161153941805521,-0.49320554199218747,2.5426421630859375,9.495403784179686,9.842305314344198
2.1636408853519025,-0.5027823486328125,2.5426421630859375,9.495403784179686,9.842789862849505
2.1661278288982837,-0.5027823486328125,2.5522189697265625,9.495403784179686,9.845268141810193
2.1686147724446654,-0.5219359619140624,2.5570073730468748,9.485826977539062,9.838273085352078
2.171101715991047,-0.5363011718749999,2.5570073730468748,9.476250170898437,9.829812966390726
2.1735886595374283,-0.5458779785156249,2.5522189697265625,9.481038574218749,9.833712263569863
2.17607560308381,-0.5506663818359374,2.5522189697265625,9.481038574218749,9.833979234233734
2.178562546630191,-0.5602431884765625,2.5426421630859375,9.490615380859374,9.841274404625716
2.181049490176573,-0.55545478515625,2.5378537597656248,9.490615380859374,9.839766868768487
2.1835364337229546,-0.5458779785156249,2.528276953125,9.495403784179686,9.841385072424776
2.186023377269336,-0.5506663818359374,2.518700146484375,9.495403784179686,9.839195948683948
2.1885103208157175,-0.5506663818359374,2.499546533203125,9.490615380859374,9.829687006366813
2.1909972643620987,-0.5506663818359374,2.4851813232421875,9.476250170898437,9.812169840301824
2.1934842079084804,-0.5410895751953124,2.4851813232421875,9.452308154296874,9.78851539210947
2.1959711514548617,-0.5363011718749999,2.47081611328125,9.437942944335937,9.770737855103127
2.1984580950012433,-0.5363011718749999,2.4660277099609376,9.447519750976562,9.77878014163024
2.200945038547625,-0.5315127685546874,2.4660277099609376,9.4618849609375,9.792398352980086
2.2034319820940063,-0.5267243652343749,2.461239306640625,9.485826977539062,9.814074124913274
2.205918925640388,-0.51714755859375,2.461239306640625,9.471461767578125,9.799680022154114
2.208405869186769,-0.5123591552734374,2.4660277099609376,9.466673364257812,9.796004754788353
2.210892812733151,-0.5219359619140624,2.4756045166015626,9.4618849609375,9.794299458612262
2.2133797562795325,-0.5267243652343749,2.480392919921875,9.442731347656249,9.777267660146167
2.2158666998259138,-0.5123591552734374,2.4756045166015626,9.428366137695312,9.761414736248542
2.2183536433722955,-0.5027823486328125,2.480392919921875,9.423577734375,9.75750769628718
2.2208405869186767,-0.5027823486328125,2.4947581298828125,9.433154541015625,9.770415181116759
2.2233275304650584,-0.49799394531249996,2.4947581298828125,9.437942944335937,9.774793251865985
2.2258144740114396,-0.49320554199218747,2.4947581298828125,9.4618849609375,9.797669970318628
2.2283014175578213,-0.507570751953125,2.4947581298828125,9.495403784179686,9.830775107765845
2.230788361104203,-0.51714755859375,2.499546533203125,9.495403784179686,9.832490401399898
2.233275304650584,-0.507570751953125,2.4899697265625,9.490615380859374,9.824935501815801
2.235762248196966,-0.5027823486328125,2.499546533203125,9.5001921875,9.8363699890346
2.238249191743347,-0.507570751953125,2.50912333984375,9.495403784179686,9.834430386524723
2.240736135289729,-0.507570751953125,2.499546533203125,9.481038574218749,9.818118627604267
2.2432230788361105,-0.5027823486328125,2.4947581298828125,9.481038574218749,9.81665424992329
2.2457100223824917,-0.5123591552734374,2.499546533203125,9.481038574218749,9.818367339912689
2.2481969659288734,-0.51714755859375,2.499546533203125,9.481038574218749,9.818618381158885
2.2506839094752547,-0.5123591552734374,2.4899697265625,9.481038574218749,9.815933658547928
2.2531708530216363,-0.5027823486328125,2.4899697265625,9.476250170898437,9.810813250222793
2.2556577965680176,-0.5123591552734374,2.4899697265625,9.471461767578125,9.806683902211
2.2581447401143993,-0.51714755859375,2.4851813232421875,9.471461767578125,9.805720566151445
2.260631683660781,-0.51714755859375,2.480392919921875,9.471461767578125,9.80450807788194
2.263118627207162,-0.5219359619140624,2.4851813232421875,9.452308154296874,9.787475302728387
2.265605570753544,-0.5219359619140624,2.4851813232421875,9.437942944335937,9.773602732783415
2.268092514299925,-0.5363011718749999,2.4899697265625,9.447519750976562,9.784845304410513
2.2705794578463068,-0.5458779785156249,2.4947581298828125,9.4618849609375,9.800462637450332
2.2730664013926885,-0.5458779785156249,2.5043349365234375,9.4618849609375,9.802904837635394
2.2755533449390697,-0.5458779785156249,2.50912333984375,9.447519750976562,9.790266193882024
2.2780402884854514,-0.5506663818359374,2.50912333984375,9.447519750976562,9.790534349243925
2.2805272320318326,-0.55545478515625,2.5139117431640625,9.452308154296874,9.796653087384401
2.2830141755782143,-0.5506663818359374,2.5139117431640625,9.442731347656249,9.787142638202043
2.2855011191245955,-0.5458779785156249,2.50912333984375,9.442731347656249,9.785645507884851
2.287988062670977,-0.5506663818359374,2.5139117431640625,9.457096557617186,9.801003061758388
2.290475006217359,-0.5506663818359374,2.50912333984375,9.4618849609375,9.804396993831297
2.29296194976374,-0.5458779785156249,2.499546533203125,9.471461767578125,9.810927767228245
2.295448893310122,-0.5410895751953124,2.5139117431640625,9.476250170898437,9.818953482029329
2.297935836856503,-0.5410895751953124,2.50912333984375,9.485826977539062,9.826972642209887
2.3004227804028847,-0.5410895751953124,2.50912333984375,9.5001921875,9.840839875862716
2.3029097239492664,-0.5458779785156249,2.50912333984375,9.495403784179686,9.836481877510417
2.3053966674956476,-0.5410895751953124,2.5043349365234375,9.490615380859374,9.830373935414736
2.3078836110420293,-0.5410895751953124,2.50912333984375,9.5001921875,9.840839875862716
2.3103705545884106,-0.5410895751953124,2.5043349365234375,9.490615380859374,9.830373935414736
2.3128574981347922,-0.5315127685546874,2.5043349365234375,9.485826977539062,9.825228381327143
2.315344441681174,-0.5363011718749999,2.50912333984375,9.490615380859374,9.831332523565036
2.317831385227555,-0.5458779785156249,2.5139117431640625,9.481038574218749,9.823839751628197
2.320318328773937,-0.5410895751953124,2.518700146484375,9.471461767578125,9.815559911231738
2.322805272320318,-0.5410895751953124,2.5139117431640625,9.457096557617186,9.800469656138835
2.3252922158666998,-0.5363011718749999,2.5139117431640625,9.4618849609375,9.804827291359492
2.327779159413081,-0.5363011718749999,2.5234885498046875,9.476250170898437,9.821147117796501
2.3302661029594627,-0.5363011718749999,2.5234885498046875,9.485826977539062,9.830387930074668
2.3327530465058444,-0.5267243652343749,2.528276953125,9.476250170898437,9.821860323283326
2.3352399900522256,-0.5267243652343749,2.5378537597656248,9.471461767578125,9.819711211516468
2.3377269335986073,-0.51714755859375,2.5330653564453125,9.476250170898437,9.82258514846451
2.3402138771449885,-0.507570751953125,2.5330653564453125,9.481038574218749,9.82670548119183
2.34270082069137,-0.5123591552734374,2.5330653564453125,9.485826977539062,9.831573905119352
2.345187764237752,-0.51714755859375,2.518700146484375,9.495403784179686,9.837376939503425
2.347674707784133,-0.5123591552734374,2.5234885498046875,9.495403784179686,9.838353489766556
2.350161651330515,-0.5123591552734374,2.518700146484375,9.5001921875,9.841748520020666
2.352648594876896,-0.51714755859375,2.50912333984375,9.481038574218749,9.821060735874308
2.3551355384232777,-0.5219359619140624,2.5043349365234375,9.476250170898437,9.815468808166203
2.357622481969659,-0.5219359619140624,2.4947581298828125,9.4618849609375,9.79915824389885
2.3601094255160406,-0.5267243652343749,2.4851813232421875,9.437942944335937,9.77385961567199
2.3625963690624223,-0.5219359619140624,2.4756045166015626,9.447519750976562,9.780422501919304
2.3650833126088036,-0.5363011718749999,2.4660277099609376,9.447519750976562,9.77878014163024
2.3675702561551852,-0.5410895751953124,2.4564509033203126,9.433154541015625,9.762752355944093
2.3700571997015665,-1.0678139404296874,2.6336218261718747,12.411541406249999,12.732735394004033
2.372544143247948,-0.5602431884765625,2.1499930908203124,6.153098266601562,6.541938626987005
2.37503108679433,-0.0718260498046875,1.7334020019531249,0.488417138671875,1.8023298208580105
2.377518030340711,0.3687070556640625,1.39821376953125,-4.256890551757812,4.4957828915382665
2.3800049738870928,0.718260498046875,1.158793603515625,-7.8529814453124995,7.970446558319406
2.382491917433474,0.9624690673828125,1.0199299072265624,-10.13226142578125,10.228847702537106
2.3849788609798557,1.0917559570312498,0.9864110839843749,-11.018116040039061,11.115926365718986
2.387465804526237,1.1061211669921875,1.0678139404296874,-10.544064111328124,10.655562802181866
2.3899527480726186,0.9864110839843749,1.2401964599609374,-8.825027319335938,8.966169821776326
2.3924396916190003,0.7517793212890624,1.47482822265625,-6.028599780273437,6.251744216214717
2.3949266351653815,0.43574470214843747,1.7621324218749999,-2.39420166015625,3.0045275347662277
2.397413578711763,0.0718260498046875,2.0829554443359375,1.7717092285156248,2.735473625339257
2.3999005222581444,-0.32082302246093747,2.408566870117187,6.167463476562499,6.62885567155444
2.402387465804526,-0.7230489013671875,2.6958710693359373,10.510545288085936,10.874837138511834
2.404874409350908,-1.0917559570312498,2.9640216552734375,14.528015673828124,14.867434037574835
2.407361352897289,-1.388636962890625,3.189076611328125,17.980454467773438,18.31379985462602
2.4098482964436707,-1.618480322265625,3.3327287109375,20.685902343749998,21.01506876004525
2.412335239990052,-1.7621324218749999,3.418919970703125,22.50549560546875,22.83180800738454
2.4148221835364336,-1.8004396484374998,3.4428619873046875,23.376985009765622,23.69764354821171
2.417309127082815,-1.7525556152343749,3.404554760742187,23.319524169921873,23.631814399553672
2.4197960706291965,-1.6232687255859375,3.299209887695312,22.37620871582031,22.676298281079404
2.4222830141755782,-1.407790576171875,3.1411925781249996,20.661960327148435,20.94673171833453
2.4247699577219595,-1.13006318359375,2.96881005859375,18.334796313476563,18.607945394900405
2.427256901268341,-0.8283937744140625,2.77727392578125,15.581464404296874,15.848707192912705
2.4297438448147224,-0.5267243652343749,2.5905261962890624,12.598289135742187,12.872651384945957
2.432230788361104,-0.22505495605468748,2.418143676757812,9.595960253906249,9.898511088504021
2.4347177319074857,0.0430956298828125,2.2457611572265623,6.785167504882812,7.147293087452076
2.437204675453867,0.24899697265624998,2.1068974609374997,4.304774584960938,4.7991770784815255
2.4396916190002487,0.39264907226562495,2.0063409912109376,2.3032219970703123,3.079676774395797
2.44217856254663,0.469263525390625,1.9488801513671874,0.9002198242187499,2.197438925788716
2.4446655060930116,0.45968671875,1.9393033447265624,0.1149216796875,1.9963507544329402
2.4471524496393933,0.37828386230468747,1.9632453613281249,-0.01915361328125,1.9994493967485847
2.4496393931857745,0.2346317626953125,2.01112939453125,0.45489831542968745,2.075241186704309
2.452126336732156,0.0430956298828125,2.0973206542968748,1.465251416015625,2.5588225558625712
2.4546132802785374,-0.181959326171875,2.2170307373046874,2.920926025390625,3.671531469610326
2.457100223824919,-0.4213794921875,2.3223756103515623,4.721365673828124,5.278473546205805
2.4595871673713003,-0.6703764648437499,2.437297290039062,6.7277066650390625,7.186922822422624
2.462074110917682,-0.8858546142578124,2.5522189697265625,8.786720092773438,9.192660662494967
2.4645610544640637,-1.0678139404296874,2.6527754394531247,10.769119067382812,11.142323349778076
2.467047998010445,-1.20667763671875,2.7341782958984373,12.536039892578124,12.887361951191927
2.4695349415568266,-1.2880804931640624,2.7916391357421872,13.991714501953124,14.325518319601652
2.472021885103208,-1.3072341064453123,2.825157958984375,15.064316845703123,15.382588225978148
2.4745088286495895,-1.2689268798828124,2.825157958984375,15.720328100585936,16.02249694990683
2.4769957721959712,-1.177947216796875,2.81558115234375,15.931017846679687,16.220739394436357
2.4794827157423525,-1.0390835205078124,2.7724855224609373,15.729904907226562,16.006132541161737
2.481969659288734,-0.8714894042968749,2.70065947265625,15.140931298828123,15.404572566769994
2.4844566028351154,-0.689530078125,2.6288334228515624,14.216769458007812,14.474209847721715
2.486943546381497,-0.49320554199218747,2.5570073730468748,13.0627642578125,13.319810376565112
2.4894304899278783,-0.3064578125,2.4899697265625,11.755530151367187,12.02024770001613
2.49191743347426,-0.1484405029296875,2.418143676757812,10.371681591796875,10.650879422187257
2.4944043770206417,-0.023942016601562498,2.346317626953125,8.987833032226561,9.289075424491546
2.496891320567023,0.062249243164062495,2.29843359375,7.733271362304687,8.067847167379586
2.4993782641134046,0.09576806640624999,2.2649147705078123,6.6702458251953125,7.044940724288824
2.501865207659786,0.086191259765625,2.250549560546875,5.827486840820312,6.247559934700236
2.5043521512061675,0.033518823242187495,2.2601263671875,5.286397265624999,5.7493730751426435
2.506839094752549,-0.0526724365234375,2.27927998046875,5.066130712890625,5.555499258845114
2.5093260382989304,-0.17238251953125,2.29843359375,5.1331683593749995,5.62689347007806
2.511812981845312,-0.3064578125,2.3367408203125,5.45877978515625,5.945801106241912
2.5142999253916933,-0.45489831542968745,2.379836450195312,6.023811376953125,6.492831240080778
2.516786868938075,-0.6081272216796875,2.437297290039062,6.775590698242187,7.2262622501460365
2.5192738124844563,-0.737414111328125,2.4947581298828125,7.656656909179687,8.086531563228531
2.521760756030838,-0.852335791015625,2.528276953125,8.590395556640624,8.995196299798035
2.5242476995772196,-0.93852705078125,2.5713725830078125,9.524134204101562,9.909688306068446
2.526734643123601,-0.9816226806640624,2.6096798095703124,10.395623608398436,10.763038697466621
2.5292215866699825,-0.9911994873046874,2.6336218261718747,11.166556542968749,11.515660006019635
2.5317085302163638,-0.967257470703125,2.6384102294921874,11.789048974609374,12.119342856750045
2.5341954737627455,-0.9097966308593749,2.6384102294921874,12.220005273437499,12.53465066651051
2.536682417309127,-0.82360537109375,2.6384102294921874,12.459425439453124,12.762320189827363
2.5391693608555084,-0.7278373046875,2.6240450195312497,12.502521069335936,12.79563958916515
2.54165630440189,-0.6177040283203125,2.6048914062499997,12.339715356445312,12.626780768788635
2.5441432479482713,-0.49320554199218747,2.5809493896484375,11.999738720703125,12.284066135596971
2.546630191494653,-0.38307226562499996,2.5474305664062498,11.516109985351562,11.800717607250242
2.549117135041034,-0.28730419921875,2.5139117431640625,10.912771166992187,11.202270774197654
2.551604078587416,-0.2154781494140625,2.4947581298828125,10.266336718749999,10.567304224931059
2.5540910221337976,-0.1771709228515625,2.4756045166015626,9.610325463867188,9.925641681018725
2.556577965680179,-0.15322890625,2.4564509033203126,8.98304462890625,9.314114071829653
2.5590649092265605,-0.16280571289062498,2.437297290039062,8.422801440429687,8.769863618385749
2.5615518527729417,-0.21068974609375,2.422932080078125,7.963114721679687,8.326234809589057
2.5640387963193234,-0.258573779296875,2.427720483398437,7.632714892578124,8.013677294241146
2.566525739865705,-0.33039982910156246,2.43250888671875,7.445967163085937,7.840197097317776
2.5690126834120863,-0.4165910888671875,2.437297290039062,7.407659936523437,7.8094424865370335
2.571499626958468,-0.51714755859375,2.4516625,7.48906279296875,7.89709770284594
2.5739865705048492,-0.6081272216796875,2.4660277099609376,7.671022119140624,8.080574963230509
2.576473514051231,-0.689530078125,2.4660277099609376,7.967903124999999,8.36924277365157
2.5789604575976126,-0.7565677246093749,2.4899697265625,8.360552197265624,8.75620791235118
2.581447401143994,-0.8044517578125,2.5139117431640625,8.805873706054687,9.192948744013048
2.5839343446903755,-0.82360537109375,2.5234885498046875,9.260772021484375,9.633702232381776
2.5864212882367568,-0.8379705810546875,2.5378537597656248,9.701305126953125,10.062714224647177
2.5889082317831384,-0.8283937744140625,2.5474305664062498,10.084377392578125,10.43409345041962
2.5913951753295197,-0.7852981445312499,2.5522189697265625,10.40041201171875,10.737741143217226
2.5938821188759014,-0.7230489013671875,2.5474305664062498,10.635043774414061,10.959760868200203
2.596369062422283,-0.6655880615234374,2.5474305664062498,10.802637890625,11.118875633546331
2.5988560059686643,-0.59376201171875,2.5522189697265625,10.869675537109375,11.181065301572405
2.601342949515046,-0.5267243652343749,2.5378537597656248,10.831368310546875,11.1371755729003
2.603829893061427,-0.45489831542968745,2.528276953125,10.711658227539061,11.015386457709464
2.606316836607809,-0.39743747558593745,2.5043349365234375,10.520122094726561,10.821396347479652
2.6088037801541906,-0.3591302490234375,2.4851813232421875,10.271125122070313,10.573604495080158
2.611290723700572,-0.32561142578124996,2.4851813232421875,9.97903251953125,10.288986297777507
2.6137776672469535,-0.32082302246093747,2.480392919921875,9.677363110351562,9.995330570748163
2.6162646107933347,-0.32082302246093747,2.4756045166015626,9.375693701171874,9.702328458290463
2.6187515543397164,-0.3495534423828125,2.4660277099609376,9.102754711914063,9.437352574777025
2.6212384978860976,-0.373495458984375,2.461239306640625,8.86812294921875,9.210906710248183
2.6237254414324793,-0.4070142822265625,2.47081611328125,8.695740429687499,9.049115675693862
2.626212384978861,-0.45968671875,2.4756045166015626,8.585607153320312,8.947210726989619
2.6286993285252422,-0.5219359619140624,2.4756045166015626,8.532934716796875,8.900112906703745
2.631186272071624,-0.584185205078125,2.4851813232421875,8.542511523437499,8.91582310789567
2.633673215618005,-0.622492431640625,2.4947581298828125,8.604760766601562,8.980713936236459
2.636160159164387,-0.6560112548828124,2.5043349365234375,8.71489404296875,9.091282770929357
2.6386471027107685,-0.679953271484375,2.518700146484375,8.853757739257812,9.230125296266044
2.6411340462571498,-0.7038952880859375,2.528276953125,9.050082275390624,9.422931715747076
2.6436209898035314,-0.7038952880859375,2.5330653564453125,9.255983618164063,9.622116264956192
2.6461079333499127,-0.689530078125,2.5426421630859375,9.466673364257812,9.826412645705945
2.6485948768962944,-0.6703764648437499,2.5522189697265625,9.662997900390625,10.01682358320252
2.6510818204426756,-0.6464344482421874,2.5570073730468748,9.840168823242188,10.187496585108521
2.6535687639890573,-0.6081272216796875,2.5570073730468748,9.97903251953125,10.319360224811717
2.656055707535439,-0.5602431884765625,2.5665841796874997,10.060435375976562,10.397768353635179
2.65854265108182,-0.5219359619140624,2.5617957763671875,10.103531005859374,10.436309382847638
2.661029594628202,-0.47884033203125,2.5570073730468748,10.117896215820313,10.446980358146888
2.663516538174583,-0.45489831542968745,2.5378537597656248,10.09395419921875,10.418039429723
2.666003481720965,-0.4261678955078125,2.518700146484375,10.026916552734374,10.347198899149497
2.6684904252673465,-0.39743747558593745,2.5043349365234375,9.916783276367187,10.235831210591932
2.6709773688137277,-0.39743747558593745,2.4947581298828125,9.797073193359374,10.117530223807455
2.6734643123601094,-0.4070142822265625,2.4851813232421875,9.667786303710937,9.990389324223004
2.6759512559064906,-0.411802685546875,2.47081611328125,9.528922607421874,9.852658513097344
2.6784381994528723,-0.43574470214843747,2.461239306640625,9.390058911132812,9.717035490546897
2.6809251429992536,-0.4740519287109375,2.4516625,9.260772021484375,9.591520874132975
2.6834120865456352,-0.5123591552734374,2.446874096679687,9.1554271484375,9.490603301125853
2.685899030092017,-0.5363011718749999,2.461239306640625,9.088389501953124,9.431020178682637
2.688385973638398,-0.565031591796875,2.4564509033203126,9.045293872070312,9.389928273009566
2.69087291718478,-0.59376201171875,2.461239306640625,9.030928662109375,9.379121747329103
2.693359860731161,-0.612915625,2.4756045166015626,9.045293872070312,9.397958529281768
2.6958468042775428,-0.6272808349609375,2.4756045166015626,9.074024291992187,9.426559065756265
2.6983337478239244,-0.6368576416015624,2.4660277099609376,9.126696728515624,9.475414159616417
2.7008206913703057,-0.6368576416015624,2.47081611328125,9.203311181640624,9.550468921860743
2.7033076349166874,-0.622492431640625,2.4851813232421875,9.294290844726563,9.640926581154408
2.7057945784630686,-0.6081272216796875,2.4756045166015626,9.399635717773437,9.739177997511293
2.7082815220094503,-0.59376201171875,2.461239306640625,9.495403784179686,9.827153467598185
2.7107684655558315,-0.5698199951171875,2.47081611328125,9.591171850585937,9.920695769952715
2.713255409102213,-0.5458779785156249,2.47081611328125,9.658209497070311,9.984183778475721
2.715742352648595,-0.5123591552734374,2.4756045166015626,9.701305126953125,10.02529055902409
2.718229296194976,-0.4740519287109375,2.4756045166015626,9.749189160156249,10.069758300686305
2.720716239741358,-0.45968671875,2.47081611328125,9.773131176757811,10.091101879535303
2.723203183287739,-0.44532150878906246,2.47081611328125,9.7683427734375,10.085819949374917
2.7256901268341207,-0.4261678955078125,2.47081611328125,9.753977563476562,10.0710788721773
2.7281770703805024,-0.4261678955078125,2.480392919921875,9.730035546875,10.050251730967299
2.7306640139268836,-0.43574470214843747,2.4851813232421875,9.677363110351562,10.000867783569358
2.7331509574732653,-0.44053310546874996,2.4851813232421875,9.600748657226562,9.926961791285558
2.7356379010196465,-0.45968671875,2.4947581298828125,9.533711010742186,9.865433373266393
2.7381248445660282,-0.47884033203125,2.5043349365234375,9.466673364257812,9.804023976073292
2.74061178811241,-0.49320554199218747,2.50912333984375,9.394847314453125,9.736637391989472
2.743098731658791,-0.51714755859375,2.5043349365234375,9.351751684570312,9.695070636231332
2.745585675205173,-0.5410895751953124,2.5043349365234375,9.323021264648437,9.668670896445066
2.748072618751554,-0.5602431884765625,2.518700146484375,9.299079248046874,9.650419561842417
2.7505595622979357,-0.5793968017578125,2.528276953125,9.270348828125,9.626383142214358
2.753046505844317,-0.5889736083984375,2.5330653564453125,9.260772021484375,9.619002466229079
2.7555334493906987,-0.584185205078125,2.528276953125,9.270348828125,9.626672535235306
2.7580203929370803,-0.5793968017578125,2.5330653564453125,9.284714038085937,9.641474758715114
2.7605073364834616,-0.5793968017578125,2.5378537597656248,9.313444458007812,9.670400717252628
2.7629942800298433,-0.5793968017578125,2.5378537597656248,9.361328491210937,9.716525792699844
2.7654812235762245,-0.5698199951171875,2.5330653564453125,9.399635717773437,9.751628917965498
2.767968167122606,-0.5506663818359374,2.518700146484375,9.437942944335937,9.783754438482458
2.770455110668988,-0.5315127685546874,2.518700146484375,9.476250170898437,9.81965750688331
2.772942054215369,-0.5219359619140624,2.5139117431640625,9.509768994140625,9.850272875543892
2.775428997761751,-0.507570751953125,2.5043349365234375,9.543287817382812,9.879456660562731
2.777915941308132,-0.49799394531249996,2.4947581298828125,9.567229833984374,9.899681954106656
2.7804028848545137,-0.49799394531249996,2.499546533203125,9.581595043945311,9.914771526735905
2.782889828400895,-0.49320554199218747,2.5043349365234375,9.576806640625,9.911113490060679
2.7853767719472766,-0.49320554199218747,2.5043349365234375,9.567229833984374,9.901860021088176
2.7878637154936583,-0.5027823486328125,2.4947581298828125,9.562441430664062,9.89529657623225
2.7903506590400395,-0.49799394531249996,2.4947581298828125,9.5384994140625,9.871919122858278
2.792837602586421,-0.507570751953125,2.4899697265625,9.519345800781249,9.852691093416437
2.7953245461328025,-0.5219359619140624,2.4899697265625,9.490615380859374,9.825688102873071
2.797811489679184,-0.5315127685546874,2.4899697265625,9.452308154296874,9.78920755251014
2.800298433225566,-0.5363011718749999,2.4899697265625,9.433154541015625,9.770976040336807
2.802785376771947,-0.5458779785156249,2.4947581298828125,9.428366137695312,9.768105697651121
2.8052723203183287,-0.565031591796875,2.4947581298828125,9.399635717773437,9.741469624917334
2.80775926386471,-0.5698199951171875,2.4947581298828125,9.394847314453125,9.737128376237978
2.8102462074110917,-0.5602431884765625,2.4899697265625,9.404424121093749,9.744588996917317
2.812733150957473,-0.5698199951171875,2.499546533203125,9.404424121093749,9.7475956393304
2.8152200945038546,-0.5746083984375,2.50912333984375,9.404424121093749,9.750336804209047
2.8177070380502363,-0.5793968017578125,2.499546533203125,9.404424121093749,9.748160163587018
2.8201939815966175,-0.5602431884765625,2.5043349365234375,9.423577734375,9.766748856212823
2.822680925142999,-0.5506663818359374,2.518700146484375,9.452308154296874,9.797612634502952
2.8251678686893804,-0.5506663818359374,2.528276953125,9.476250170898437,9.82317337306229
2.827654812235762,-0.5410895751953124,2.518700146484375,9.495403784179686,9.838664613701361
2.8301417557821438,-0.5219359619140624,2.50912333984375,9.509768994140625,9.849051903853802
2.832628699328525,-0.5027823486328125,2.518700146484375,9.524134204101562,9.864368852376437
2.8351156428749067,-0.49799394531249996,2.518700146484375,9.533711010742186,9.87337298160133
2.837602586421288,-0.49799394531249996,2.5139117431640625,9.533711010742186,9.872152544320457
2.8400895299676696,-0.49799394531249996,2.5234885498046875,9.543287817382812,9.883842106993134
2.842576473514051,-0.49799394531249996,2.518700146484375,9.548076220703125,9.887244707896372
2.8450634170604325,-0.488417138671875,2.5139117431640625,9.533711010742186,9.871674082449916
2.847550360606814,-0.49320554199218747,2.518700146484375,9.524134204101562,9.863885363906533
2.8500373041531954,-0.49320554199218747,2.50912333984375,9.457096557617186,9.796715109734247
2.852524247699577,-0.507570751953125,2.499546533203125,9.457096557617186,9.79500057376113
2.8550111912459584,-0.51714755859375,2.4899697265625,9.452308154296874,9.78843809197077
2.85749813479234,-0.5123591552734374,2.4756045166015626,9.437942944335937,9.77066510771662
2.8599850783387217,-0.5219359619140624,2.4756045166015626,9.428366137695312,9.761922090315863
2.862472021885103,-0.5267243652343749,2.47081611328125,9.433154541015625,9.765591401306196
2.8649589654314846,-0.5363011718749999,2.461239306640625,9.437942944335937,9.768320474475017
2.867445908977866,-0.5458779785156249,2.4564509033203126,9.442731347656249,9.772272464061851
2.8699328525242476,-0.5458779785156249,2.461239306640625,9.447519750976562,9.778103657513219
2.8724197960706292,-0.5410895751953124,2.4564509033203126,9.447519750976562,9.776633286254551
2.8749067396170105,-0.5363011718749999,2.446874096679687,9.466673364257812,9.792482646270294
2.877393683163392,-0.5219359619140624,2.442085693359375,9.471461767578125,9.795141024852263
2.8798806267097734,-0.5219359619140624,2.43250888671875,9.457096557617186,9.778864552308702
2.882367570256155,-0.5315127685546874,2.43250888671875,9.457096557617186,9.779380379512661
2.8848545138025363,-0.5315127685546874,2.43250888671875,9.452308154296874,9.774749856179929
2.887341457348918,-0.51714755859375,2.427720483398437,9.447519750976562,9.768157338411584
2.8898284008952997,-0.507570751953125,2.43250888671875,9.457096557617186,9.778108347338906
2.892315344441681,-0.5123591552734374,2.442085693359375,9.466673364257812,9.790005057365974
2.8948022879880626,-0.507570751953125,2.4516625,9.4618849609375,9.78751981332144
2.897289231534444,-0.507570751953125,2.4564509033203126,9.4618849609375,9.788720351643349
2.8997761750808255,-0.507570751953125,2.461239306640625,9.452308154296874,9.780667484204658
2.902263118627207,-0.51714755859375,2.461239306640625,9.452308154296874,9.781169151267116
2.9047500621735884,-0.51714755859375,2.47081611328125,9.457096557617186,9.788209701631068
2.90723700571997,-0.5219359619140624,2.4756045166015626,9.452308154296874,9.785047997569782
2.9097239492663514,-0.5219359619140624,2.4851813232421875,9.4618849609375,9.796724471564268
2.912210892812733,-0.51714755859375,2.4947581298828125,9.471461767578125,9.808152106216033
2.9146978363591143,-0.5267243652343749,2.499546533203125,9.471461767578125,9.809880704844145
2.917184779905496,-0.5363011718749999,2.5043349365234375,9.471461767578125,9.811620683451867
2.9196717234518776,-0.5410895751953124,2.5043349365234375,9.471461767578125,9.811883581523531
2.922158666998259,-0.5315127685546874,2.5043349365234375,9.481038574218749,9.820605467243475
2.9246456105446406,-0.5410895751953124,2.5139117431640625,9.495403784179686,9.837439870485467
2.927132554091022,-0.5458779785156249,2.5234885498046875,9.514557397460937,9.858639850304012
2.9296194976374035,-0.5458779785156249,2.518700146484375,9.528922607421874,9.871281540588559
2.932106441183785,-0.55545478515625,2.5234885498046875,9.533711010742186,9.877660153887414
2.9345933847301664,-0.5458779785156249,2.5330653564453125,9.528922607421874,9.874956654370054
2.937080328276548,-0.5363011718749999,2.5426421630859375,9.519345800781249,9.86765385445337
2.9395672718229293,-0.5315127685546874,2.5474305664062498,9.485826977539062,9.836301223610702
2.942054215369311,-0.5267243652343749,2.5570073730468748,9.4618849609375,9.815446616265756
2.9445411589156922,-0.51714755859375,2.5665841796874997,9.452308154296874,9.808207042705043
2.947028102462074,-0.51714755859375,2.5713725830078125,9.437942944335937,9.79561971385906
2.9495150460084556,-0.51714755859375,2.5665841796874997,9.423577734375,9.78052213660344
2.952001989554837,-0.5123591552734374,2.5617957763671875,9.423577734375,9.77901461393803
2.9544889331012185,-0.5123591552734374,2.5617957763671875,9.428366137695312,9.783629057269335
2.9569758766475998,-0.5219359619140624,2.5426421630859375,9.433154541015625,9.783754438482458
2.9594628201939814,-0.5219359619140624,2.5234885498046875,9.447519750976562,9.792652401388848
2.961949763740363,-0.5219359619140624,2.5139117431640625,9.442731347656249,9.785568185075782
2.9644367072867444,-0.5219359619140624,2.499546533203125,9.437942944335937,9.77726531503198
2.966923650833126,-0.5267243652343749,2.4851813232421875,9.452308154296874,9.78773182152589
2.9694105943795073,-0.5363011718749999,2.4851813232421875,9.4618849609375,9.797500302136333
2.971897537925889,-0.5363011718749999,2.480392919921875,9.476250170898437,9.810162347566207
2.97438448147227,-0.5363011718749999,2.47081611328125,9.490615380859374,9.821625706572679
2.976871425018652,-0.5315127685546874,2.47081611328125,9.490615380859374,9.821365403862716
2.9793583685650336,-0.5363011718749999,2.4660277099609376,9.495403784179686,9.825049854217717
2.981845312111415,-0.5315127685546874,2.47081611328125,9.495403784179686,9.825992627383803
2.9843322556577965,-0.5315127685546874,2.47081611328125,9.485826977539062,9.816738334935632
2.9868191992041777,-0.5363011718749999,2.4756045166015626,9.481038574218749,9.81357881281831
2.9893061427505594,-0.5267243652343749,2.4756045166015626,9.481038574218749,9.813060110147777
2.991793086296941,-0.5219359619140624,2.4756045166015626,9.471461767578125,9.803551544499134
2.9942800298433223,-0.5219359619140624,2.480392919921875,9.4618849609375,9.795510869758298
2.996766973389704,-0.5315127685546874,2.4851813232421875,9.476250170898437,9.811113562383278
2.9992539169360852,-0.5123591552734374,2.4899697265625,9.476250170898437,9.81130870193385
3.001740860482467,-0.5027823486328125,2.4851813232421875,9.471461767578125,9.80497344790809
3.0042278040288486,-0.51714755859375,2.480392919921875,9.471461767578125,9.80450807788194
3.00671474757523,-0.5267243652343749,2.4899697265625,9.466673364257812,9.80282063396437
3.0092016911216115,-0.5315127685546874,2.4851813232421875,9.466673364257812,9.801863935909168
3.0116886346679927,-0.51714755859375,2.4899697265625,9.4618849609375,9.797686351918623
3.0141755782143744,-0.51714755859375,2.4899697265625,9.452308154296874,9.78843809197077
3.0166625217607557,-0.5219359619140624,2.4851813232421875,9.452308154296874,9.787475302728387
3.0191494653071373,-0.5219359619140624,2.4899697265625,9.452308154296874,9.788692243161192
3.021636408853519,-0.5267243652343749,2.4947581298828125,9.452308154296874,9.790167829375301
3.0241233523999003,-0.5219359619140624,2.4851813232421875,9.457096557617186,9.792099808408091
3.026610295946282,-0.51714755859375,2.4851813232421875,9.466673364257812,9.801095468992207
3.029097239492663,-0.5219359619140624,2.499546533203125,9.457096557617186,9.795755474698302
3.031584183039045,-0.5315127685546874,2.5043349365234375,9.471461767578125,9.811360115301174
3.0340711265854265,-0.5315127685546874,2.5234885498046875,9.476250170898437,9.820886802401537
3.036558070131808,-0.5219359619140624,2.5378537597656248,9.476250170898437,9.824074315463434
3.0390450136781895,-0.5267243652343749,2.5330653564453125,9.485826977539062,9.832332993992974
3.0415319572245707,-0.5315127685546874,2.5378537597656248,9.490615380859374,9.838444380922104
3.0440189007709524,-0.5267243652343749,2.5474305664062498,9.485826977539062,9.836043640376973
3.0465058443173336,-0.5219359619140624,2.5426421630859375,9.476250170898437,9.825312392962076
3.0489927878637153,-0.5123591552734374,2.5474305664062498,9.471461767578125,9.821430772008094
3.051479731410097,-0.5123591552734374,2.5474305664062498,9.4618849609375,9.812195544763089
3.0539666749564782,-0.51714755859375,2.5426421630859375,9.471461767578125,9.820440864928415
3.05645361850286,-0.5267243652343749,2.5426421630859375,9.466673364257812,9.816331917370267
3.058940562049241,-0.51714755859375,2.5330653564453125,9.4618849609375,9.8087271708106
3.061427505595623,-0.51714755859375,2.518700146484375,9.471461767578125,9.814269205598245
3.0639144491420045,-0.5267243652343749,2.50912333984375,9.481038574218749,9.821569677872478
3.0664013926883857,-0.51714755859375,2.5043349365234375,9.471461767578125,9.810592392223086
3.0688883362347674,-0.5267243652343749,2.499546533203125,9.457096557617186,9.79601177667086
3.0713752797811487,-0.5410895751953124,2.4947581298828125,9.471461767578125,9.809443616724426
3.0738622233275303,-0.5410895751953124,2.4899697265625,9.466673364257812,9.803602998547579
3.0763491668739116,-0.5315127685546874,2.4851813232421875,9.457096557617186,9.792614938443322
3.0788361104202933,-0.5315127685546874,2.4899697265625,9.4618849609375,9.798455086203623
3.081323053966675,-0.5458779785156249,2.4851813232421875,9.471461767578125,9.80727775641713
3.083809997513056,-0.5458779785156249,2.480392919921875,9.471461767578125,9.806065460689165
3.086296941059438,-0.5410895751953124,2.4756045166015626,9.485826977539062,9.818467757181411
3.088783884605819,-0.5410895751953124,2.4660277099609376,9.495403784179686,9.825312392962076
3.091270828152201,-0.5410895751953124,2.47081611328125,9.485826977539062,9.817261514385933
3.0937577716985825,-0.5267243652343749,2.480392919921875,9.485826977539062,9.818895102909389
3.0962447152449637,-0.5267243652343749,2.4756045166015626,9.485826977539062,9.8176865771605
3.0987316587913454,-0.5410895751953124,2.47081611328125,9.4618849609375,9.794129732041052
3.1012186023377266,-0.5410895751953124,2.47081611328125,9.452308154296874,9.784878110524549
3.1037055458841083,-0.5363011718749999,2.47081611328125,9.447519750976562,9.7799887861744
3.1061924894304895,-0.5363011718749999,2.4756045166015626,9.442731347656249,9.776574654426904
3.108679432976871,-0.5410895751953124,2.4756045166015626,9.437942944335937,9.772213806069923
3.111166376523253,-0.5363011718749999,2.461239306640625,9.457096557617186,9.786827533557652
3.113653320069634,-0.5363011718749999,2.446874096679687,9.481038574218749,9.806370594556398
3.116140263616016,-0.5506663818359374,2.446874096679687,9.495403784179686,9.82105489923054
3.118627207162397,-0.5458779785156249,2.4564509033203126,9.495403784179686,9.823178041370593
3.1211141507087787,-0.5410895751953124,2.461239306640625,9.495403784179686,9.824111658442801
3.1236010942551604,-0.5458779785156249,2.4660277099609376,9.485826977539062,9.816322574239875
3.1260880378015417,-0.5410895751953124,2.47081611328125,9.471461767578125,9.803381978109872
3.1285749813479233,-0.5410895751953124,2.480392919921875,9.466673364257812,9.80117500869829
3.1310619248943046,-0.5458779785156249,2.4899697265625,9.457096557617186,9.79462134575507
3.1335488684406863,-0.5363011718749999,2.5043349365234375,9.452308154296874,9.79313238269725
3.136035811987068,-0.51714755859375,2.518700146484375,9.447519750976562,9.791165480694938
3.138522755533449,-0.5267243652343749,2.528276953125,9.447519750976562,9.794143778489616
3.141009699079831,-0.5315127685546874,2.5378537597656248,9.447519750976562,9.796878940468002
3.143496642626212,-0.5219359619140624,2.5330653564453125,9.452308154296874,9.79974319521434
3.1459835861725938,-0.5219359619140624,2.5426421630859375,9.4618849609375,9.811458267345213
3.148470529718975,-0.51714755859375,2.5330653564453125,9.4618849609375,9.8087271708106
3.1509574732653567,-0.51714755859375,2.518700146484375,9.481038574218749,9.823511819664278
3.1534444168117384,-0.5219359619140624,2.518700146484375,9.504980590820312,9.846873798729748
3.1559313603581196,-0.51714755859375,2.5139117431640625,9.509768994140625,9.850020313263117
3.1584183039045013,-0.5123591552734374,2.5139117431640625,9.504980590820312,9.845147037412978
3.1609052474508825,-0.5123591552734374,2.5139117431640625,9.514557397460937,9.85439326523908
3.163392190997264,-0.5267243652343749,2.518700146484375,9.509768994140625,9.851750875187129
3.165879134543646,-0.51714755859375,2.518700146484375,9.485826977539062,9.82813336667079
3.168366078090027,-0.51714755859375,2.518700146484375,9.485826977539062,9.82813336667079
3.170853021636409,-0.5363011718749999,2.518700146484375,9.485826977539062,9.829159822826302
3.17333996518279,-0.5315127685546874,2.5234885498046875,9.485826977539062,9.83012785938921
3.1758269087291717,-0.5267243652343749,2.5234885498046875,9.495403784179686,9.839112055594287
3.178313852275553,-0.5267243652343749,2.518700146484375,9.485826977539062,9.828641942437411
3.1808007958219346,-0.5219359619140624,2.528276953125,9.476250170898437,9.821604695847562
3.1832877393683163,-0.51714755859375,2.528276953125,9.471461767578125,9.81673132787878
3.1857746829146976,-0.51714755859375,2.50912333984375,9.447519750976562,9.788706297412359
3.1882616264610792,-0.5219359619140624,2.518700146484375,9.433154541015625,9.777559622468342
3.1907485700074605,-0.5267243652343749,2.528276953125,9.428366137695312,9.775669334376762
3.193235513553842,-0.5363011718749999,2.5139117431640625,9.437942944335937,9.781724705792591
3.195722457100224,-0.5363011718749999,2.4899697265625,9.457096557617186,9.794092274746397
3.198209400646605,-0.5363011718749999,2.480392919921875,9.476250170898437,9.810162347566207
3.2006963441929868,-0.5363011718749999,2.4756045166015626,9.481038574218749,9.81357881281831
3.203183287739368,-0.5315127685546874,2.461239306640625,9.476250170898437,9.805076340811537
3.2056702312857497,-0.5267243652343749,2.461239306640625,9.490615380859374,9.818702449350877
3.208157174832131,-0.5363011718749999,2.47081611328125,9.495403784179686,9.826252807516132
3.2106441183785126,-0.5410895751953124,2.4660277099609376,9.476250170898437,9.80680314353933
3.2131310619248943,-0.5267243652343749,2.4660277099609376,9.471461767578125,9.801393739561782
3.2156180054712755,-0.5315127685546874,2.47081611328125,9.476250170898437,9.807484661738686
3.218104949017657,-0.5315127685546874,2.4756045166015626,9.485826977539062,9.817944642009476
3.2205918925640384,-1.24498486328125,2.748543505859375,11.674127294921874,12.057766244684007
3.22307883611042,-0.5889736083984375,2.1164742675781247,7.182604980468749,7.5110696669758505
