Time (s),Acceleration x (m/s^2),Acceleration y (m/s^2),Acceleration z (m/s^2),Absolute acceleration (m/s^2)
0.0,-1.5179238525390624,1.4987702392578124,24.63633508300781,24.728514136001653
0.002486943546381497,-1.0438719238281249,1.9823989746093749,20.81997763671875,20.940177723251487
0.004973887092762994,-0.5698199951171875,2.4133552734375,16.309301708984375,16.49673606315336
0.007460830639144491,-0.13407529296874998,2.85388837890625,11.49216796875,11.841983773228382
0.009947774185525988,0.27293898925781246,3.303998291015625,6.737283471679687,7.5087874504915595
0.012434717731907486,0.5267243652343749,3.5865140869140624,2.437297290039062,4.368173523636203
0.014921661278288981,0.7709329345703124,3.845087866210937,-1.1875240234375,4.097468925413463
0.01740860482467048,0.8571241943359375,3.9791631591796874,-3.7014357666015623,5.501729552255926
0.019895548371051976,0.8810662109374999,3.9360675292968748,-5.104437939453125,6.505704569143101
0.022382491917433474,0.7326257080078125,3.84987626953125,-5.276820458984375,6.572908174856079
0.02486943546381497,0.469263525390625,3.6008792968749996,-4.328716601562499,5.650161713045727
0.027356379010196465,0.16759411621093748,3.356670727539062,-2.3127988037109373,4.079750539843445
0.029843322556577963,-0.1005564697265625,2.9831752685546875,0.5267243652343749,3.0309874370329806
0.032330266102959464,-0.507570751953125,2.70065947265625,3.921702319335937,4.788625975890272
0.03481720964934096,-0.8092401611328125,2.3415292236328122,7.675810522460937,8.065711123034271
0.03730415319572245,-1.13006318359375,2.0063409912109376,11.358092675781249,11.589163740475971
0.03979109674210395,-1.3407529296874998,1.7717092285156248,14.709975,14.87682548494463
0.04227804028848545,-1.465251416015625,1.6472107421875,17.51119094238281,17.649421326545056
0.04476498383486695,-1.5753846923828123,1.4891934326171874,19.546262353515623,19.666110596689073
0.04725192738124844,-1.5562310791015623,1.4796166259765624,20.772093603515625,20.882791796228844
0.04973887092762994,-1.4413093994140624,1.6041151123046875,20.987571752929686,21.098073991782652
0.05222581447401144,-1.2306196533203124,1.7621324218749999,20.278888061523435,20.392470091069374
0.05471275802039293,-1.0438719238281249,1.9871873779296874,18.804059838867186,18.937561846553994
0.05719970156677443,-0.7613561279296874,2.2649147705078123,16.606182714843747,16.777210925239505
0.059686645113155926,-0.49320554199218747,2.50912333984375,13.934253662109374,14.166946628021472
0.062173588659537427,-0.2920926025390625,2.7533319091796873,11.094730493164063,11.434998880914225
0.06466053220591893,-0.028730419921875,2.9735984619140625,8.259995727539062,8.77898870421247
0.06714747575230041,0.1388636962890625,3.1699229980468746,5.516240625,6.363694333686521
0.06963441929868192,0.2059013427734375,3.2609026611328122,3.308786694335937,4.650156009958536
0.07212136284506342,0.27293898925781246,3.2704794677734372,1.6711527587890624,3.6828362961436385
0.0746083063914449,0.22505495605468748,3.337517114257812,0.718260498046875,3.421340141561946
0.0770952499378264,0.12449848632812499,3.2417490478515623,0.469263525390625,3.2779025334208067
0.0795821934842079,0.0430956298828125,3.1459809814453124,0.948103857421875,3.286024116373592
0.0820691370305894,-0.1484405029296875,2.959233251953125,2.1116858642578125,3.6384492866716376
0.0845560805769709,-0.373495458984375,2.7964275390625,3.797203833007812,4.730566856996983
0.0870430241233524,-0.55545478515625,2.5378537597656248,5.827486840820312,6.380347530052215
0.0895299676697339,-0.7565677246093749,2.35589443359375,8.154650854492187,8.521793465159126
0.09201691121611538,-0.8810662109374999,2.1883003173828124,10.429142431640624,10.692611832782502
0.09450385476249688,-1.0199299072265624,2.04943662109375,12.540828295898438,12.748051687483162
0.09699079830887838,-1.1061211669921875,1.9823989746093749,14.360421557617187,14.538745373761689
0.09947774185525989,-1.13006318359375,1.924938134765625,15.744270117187499,15.901712836815797
0.10196468540164137,-1.1013327636718748,1.9823989746093749,16.529568261718747,16.684407884899276
0.10445162894802287,-1.0103531005859374,2.0446482177734375,16.72110439453125,16.875921660612196
0.10693857249440437,-0.8762778076171874,2.1260510742187497,16.390704565429687,16.55122811508278
0.10942551604078586,-0.7757213378906249,2.2601263671875,15.456965917968748,15.640578959199766
0.11191245958716736,-0.5985504150390625,2.442085693359375,14.087482568359373,14.310108673482643
0.11439940313354886,-0.469263525390625,2.5617957763671875,12.449848632812499,12.719344984550817
0.11688634667993036,-0.32561142578124996,2.7246014892578123,10.620678564453124,10.969425201226327
0.11937329022631185,-0.16759411621093748,2.93050283203125,8.786720092773438,9.264037166650409
0.12186023377269335,-0.0430956298828125,2.9735984619140625,7.038952880859375,7.6414005722099905
0.12434717731907485,-0.076614453125,3.0071172851562498,5.5641246582031245,6.325196230405597
0.12683412086545634,-0.05746083984375,3.0023288818359375,4.414907861328125,5.339353133745571
0.12932106441183785,-0.105344873046875,3.0023288818359375,3.749319799804687,4.804422464583121
0.13180800795821934,-0.1867477294921875,2.9448680419921875,3.5482068603515624,4.614855839900449
0.13429495150460083,-0.229843359375,2.916137622070312,3.835511059570312,4.823674086087166
0.13678189505098234,-0.36391865234375,2.7533319091796873,4.6064439941406246,5.378903202213717
0.13926883859736383,-0.51714755859375,2.6096798095703124,5.7125651611328125,6.30168795054363
0.14175578214374532,-0.5985504150390625,2.4947581298828125,7.062894897460937,7.514423800833938
0.14424272569012683,-0.737414111328125,2.31758720703125,8.56166513671875,8.900398864493997
0.14672966923650832,-0.852335791015625,2.2601263671875,10.122684619140625,10.406891533733239
0.1492166127828898,-0.9145850341796874,2.1930887207031247,11.554417211914062,11.796213842949637
0.15170355632927132,-0.9145850341796874,2.1643583007812497,12.789825268554686,13.003866464981334
0.1541904998756528,-0.8954314208984374,2.1452046874999997,13.73314072265625,13.92849075417303
0.15667744342203432,-0.8667010009765624,2.1787235107421874,14.312537524414061,14.503335380150151
0.1591643869684158,-0.7948749511718749,2.231395947265625,14.475343237304687,14.667873598421023
0.1616513305147973,-0.718260498046875,2.346317626953125,14.283807104492187,14.493041431940604
0.1641382740611788,-0.612915625,2.418143676757812,13.670891479492187,13.896631183451083
0.1666252176075603,-0.47884033203125,2.5330653564453125,12.689268798828124,12.948484498678452
0.1691121611539418,-0.40222587890625,2.6240450195312497,11.583147631835937,11.8834635937127
0.1715991047003233,-0.26336218261718747,2.73896669921875,10.309432348632813,10.670318344346565
0.1740860482467048,-0.24899697265624998,2.8012159423828122,9.02135185546875,9.44952906490165
0.17657299179308628,-0.21068974609375,2.844311572265625,7.675810522460937,8.188563101421106
0.1790599353394678,-0.2059013427734375,2.91134921875,6.64630380859375,7.2589051483402045
0.18154687888584928,-0.16759411621093748,2.89219560546875,5.870582470703124,6.546496907003628
0.18403382243223076,-0.2346317626953125,2.839523168945312,5.315127685546875,6.0306323221292155
0.18652076597861228,-0.3064578125,2.7964275390625,5.209782812499999,5.920790515251308
0.18900770952499377,-0.430956298828125,2.6958710693359373,5.377376928710937,6.030723570801003
0.19149465307137528,-0.4836287353515625,2.5905261962890624,5.88015927734375,6.4436787516332155
0.19398159661775677,-0.5458779785156249,2.5570073730468748,6.6893994384765625,7.182223494206716
0.19646854016413826,-0.6081272216796875,2.461239306640625,7.685387329101562,8.092755775421345
0.19895548371051977,-0.737414111328125,2.360682836914062,8.820238916015624,9.160415796440844
0.20144242725690126,-0.7709329345703124,2.3415292236328122,9.9981861328125,10.297612472854853
0.20392937080328274,-0.842758984375,2.2601263671875,11.056423266601563,11.316488384284646
0.20641631434966426,-0.814028564453125,2.269703173828125,11.990161914062499,12.230215767780466
0.20890325789604575,-0.8044517578125,2.2649147705078123,12.66053837890625,12.886668056253725
0.21139020144242723,-0.74699091796875,2.360682836914062,13.153743920898437,13.38475991658427
0.21387714498880875,-0.6703764648437499,2.418143676757812,13.302184423828125,13.536799248404172
0.21636408853519024,-0.5889736083984375,2.4133552734375,13.115436694335937,13.348627392745371
0.21885103208157172,-0.5506663818359374,2.5139117431640625,12.670115185546875,12.928836163070827
0.22133797562795324,-0.430956298828125,2.6144682128906247,11.966219897460936,12.256083632307066
0.22382491917433472,-0.38786066894531246,2.6527754394531247,11.109095703125,11.428020859793298
0.22631186272071624,-0.28730419921875,2.7581203125,10.146626635742187,10.518735829284175
0.22879880626709773,-0.24899697265624998,2.7629087158203123,9.083601098632812,9.497761472232867
0.2312857498134792,-0.258573779296875,2.8203695556640622,8.106766821289062,8.587258766603563
0.23377269335986073,-0.26336218261718747,2.81558115234375,7.316680273437499,7.844148589131627
0.23625963690624222,-0.296881005859375,2.767697119140625,6.641515405273437,7.201250763126068
0.2387465804526237,-0.3112462158203125,2.767697119140625,6.234501123046875,6.828325256124998
0.24123352399900522,-0.37828386230468747,2.6910826660156246,6.038176586914062,6.62152558634089
0.2437204675453867,-0.45489831542968745,2.6815058593749996,6.215347509765625,6.784390231877363
0.2462074110917682,-0.507570751953125,2.5857377929687497,6.6510922119140625,7.154068465817828
0.2486943546381497,-0.59376201171875,2.5043349365234375,7.244854223632812,7.688443244411858
0.2511812981845312,-0.7038952880859375,2.4133552734375,8.034940771484374,8.419027583615586
0.2536682417309127,-0.737414111328125,2.3415292236328122,8.930372192382812,9.261645975267925
0.2561551852772942,-0.7709329345703124,2.3032219970703123,9.873687646484374,10.168032105463274
0.2586421288236757,-0.7948749511718749,2.288856787109375,10.730811840820312,11.000955155939259
0.26112907237005717,-0.7996633544921875,2.27927998046875,11.487379565429686,11.73858884151476
0.2636160159164387,-0.7661445312499999,2.360682836914062,12.129025610351562,12.380349880186301
0.2661029594628202,-0.718260498046875,2.3127988037109373,12.516886279296875,12.749014808147008
0.26858990300920166,-0.6416460449218749,2.365471240234375,12.627019555664061,12.862689714614998
0.2710768465555832,-0.584185205078125,2.50912333984375,12.531251489257812,12.793327799107118
0.2735637901019647,-0.45489831542968745,2.5665841796874997,12.215216870117187,12.49022858128699
0.27605073364834615,-0.4165910888671875,2.6288334228515624,11.640608471679688,11.941025035203884
0.27853767719472766,-0.354341845703125,2.729389892578125,10.884040747070312,11.226641096659803
0.2810246207411092,-0.32082302246093747,2.767697119140625,10.05564697265625,10.434515359791805
0.28351156428749064,-0.28730419921875,2.7916391357421872,9.17458076171875,9.594202672468198
0.28599850783387215,-0.277727392578125,2.829946362304687,8.379705810546875,8.8490224538885
0.28848545138025367,-0.2920926025390625,2.81558115234375,7.651868505859374,8.15867066039891
0.2909723949266351,-0.316034619140625,2.710236279296875,7.053318090820312,7.562708156500912
0.29345933847301664,-0.3495534423828125,2.7150246826171873,6.68461103515625,7.223404413961255
0.29594628201939815,-0.411802685546875,2.6240450195312497,6.526593725585937,7.046390521054599
0.2984332255657796,-0.49799394531249996,2.5953145996093747,6.655880615234374,7.161312910686573
0.30092016911216113,-0.5506663818359374,2.5234885498046875,6.919242797851562,7.385604160845635
0.30340711265854264,-0.6177040283203125,2.43250888671875,7.426813549804687,7.839401587757279
0.30589405620492416,-0.689530078125,2.384624853515625,8.078036401367187,8.450831883457203
0.3083809997513056,-0.74699091796875,2.29843359375,8.939948999023438,9.260857439867353
0.31086794329768713,-0.7900865478515624,2.3127988037109373,9.710881933593749,10.013715743306289
0.31335488684406865,-0.7805097412109374,2.2744915771484373,10.563217724609375,10.83347017756296
0.3158418303904501,-0.7852981445312499,2.269703173828125,11.238382592773437,11.492149014637892
0.3183287739368316,-0.718260498046875,2.3032219970703123,11.741164941406248,11.986479211684735
0.32081571748321314,-0.6703764648437499,2.4133552734375,12.172121240234373,12.427156704870578
0.3233026610295946,-0.6416460449218749,2.398990063476562,12.31577333984375,12.563643417815918
0.3257896045759761,-0.5458779785156249,2.4947581298828125,12.263100903320312,12.526190348987203
0.3282765481223576,-0.4836287353515625,2.518700146484375,11.9518546875,12.223934622398545
0.3307634916687391,-0.43574470214843747,2.6288334228515624,11.458649145507811,11.764407288529194
0.3332504352151206,-0.37828386230468747,2.729389892578125,10.9175595703125,11.259918953416577
0.3357373787615021,-0.3016694091796875,2.7820623291015623,10.122684619140625,10.502362550113522
0.3382243223078836,-0.258573779296875,2.7820623291015623,9.351751684570312,9.760224934508914
0.3407112658542651,-0.27293898925781246,2.7916391357421872,8.576030346679687,9.023083800078297
0.3431982094006466,-0.258573779296875,2.786850732421875,7.915230688476562,8.39549130521504
0.34568515294702806,-0.316034619140625,2.7437551025390623,7.331045483398437,7.834047346222841
0.3481720964934096,-0.3687070556640625,2.6862942626953124,6.967126831054687,7.476160648266484
0.3506590400397911,-0.40222587890625,2.6815058593749996,6.785167504882812,7.306897932833194
0.35314598358617255,-0.469263525390625,2.6048914062499997,6.804321118164062,7.300989889988245
0.35563292713255407,-0.5315127685546874,2.50912333984375,7.101202124023437,7.550183929145057
0.3581198706789356,-0.63206923828125,2.4564509033203126,7.503428002929687,7.920548867190582
0.36060681422531704,-0.6655880615234374,2.3415292236328122,8.106766821289062,8.464362637997155
0.36309375777169856,-0.74699091796875,2.29843359375,8.801085302734375,9.12687761079403
0.36558070131808007,-0.7326257080078125,2.31758720703125,9.562441430664062,9.866521018328063
0.36806764486446153,-0.7948749511718749,2.31758720703125,10.304643945312499,10.591917838137764
0.37055458841084304,-0.7613561279296874,2.29843359375,10.97502041015625,11.238929359229948
0.37304153195722456,-0.7230489013671875,2.288856787109375,11.511321582031249,11.758919579221697
0.3755284755036061,-0.6943184814453125,2.35589443359375,11.9135474609375,12.164083600498842
0.37801541904998753,-0.6368576416015624,2.446874096679687,12.119448803710936,12.380380438679532
0.38050236259636905,-0.5363011718749999,2.50912333984375,12.114660400390624,12.383388692046127
0.38298930614275056,-0.5027823486328125,2.5665841796874997,11.851298217773437,12.136449805775934
0.385476249689132,-0.4070142822265625,2.6862942626953124,11.482591162109374,11.799649879885354
0.38796319323551354,-0.3399766357421875,2.6575638427734374,10.927136376953124,11.25080170884722
0.39045013678189505,-0.3016694091796875,2.7437551025390623,10.24718310546875,10.612443549538822
0.3929370803282765,-0.2920926025390625,2.8107927490234372,9.552864624023437,9.962082939392706
0.395424023874658,-0.26336218261718747,2.7964275390625,8.801085302734375,9.23842351954418
0.39791096742103954,-0.296881005859375,2.7629087158203123,8.116343627929687,8.578859877060049
0.400397910967421,-0.28730419921875,2.825157958984375,7.541735229492187,8.058649481635559
0.4028848545138025,-0.3495534423828125,2.7533319091796873,7.134720947265625,7.65553833551499
0.40537179806018403,-0.4261678955078125,2.6575638427734374,6.9336080078124995,7.437686781491937
0.4078587416065655,-0.45489831542968745,2.5953145996093747,6.9144543945312495,7.3994776790243
0.410345685152947,-0.5123591552734374,2.5522189697265625,7.110778930664062,7.572285690212736
0.4128326286993285,-0.5889736083984375,2.4516625,7.498639599609374,7.91120311773917
0.41531957224571,-0.6751648681640625,2.384624853515625,8.039729174804688,8.413057024376636
0.4178065157920915,-0.6943184814453125,2.365471240234375,8.700528833007812,9.043048950218768
0.420293459338473,-0.7422025146484375,2.269703173828125,9.418789331054686,9.716790083809855
0.42278040288485447,-0.7565677246093749,2.31758720703125,10.050858569335936,10.342309372906476
0.425267346431236,-0.737414111328125,2.29843359375,10.788272680664061,11.055017141046273
0.4277542899776175,-0.6943184814453125,2.3511060302734372,11.329362255859374,11.59155843033005
0.43024123352399896,-0.6655880615234374,2.35589443359375,11.784260571289062,12.035864873864218
0.43272817707038047,-0.6512228515624999,2.43250888671875,12.00931552734375,12.270486955360107
0.435215120616762,-0.5698199951171875,2.4756045166015626,12.042834350585936,12.307850004980805
0.43770206416314344,-0.507570751953125,2.5522189697265625,11.880028637695311,12.161682867520065
0.44018900770952496,-0.4213794921875,2.5857377929687497,11.511321582031249,11.805681902175813
0.4426759512559065,-0.33518823242187495,2.6815058593749996,11.027692846679686,11.353978789205433
0.445162894802288,-0.2825157958984375,2.7581203125,10.40041201171875,10.763624521817029
0.44764983834866945,-0.28730419921875,2.81558115234375,9.720458740234374,10.12409793754095
0.45013678189505096,-0.22026655273437498,2.7820623291015623,9.016563452148437,9.438580647739279
0.4526237254414325,-0.22505495605468748,2.825157958984375,8.322244970703125,8.791582825569636
0.45511066898781394,-0.26815058593749996,2.806004345703125,7.714117749023437,8.212988358121656
0.45759761253419545,-0.3495534423828125,2.7341782958984373,7.307103466796875,7.809717001103091
0.46008455608057697,-0.39743747558593745,2.6575638427734374,7.062894897460937,7.556790751238027
0.4625714996269584,-0.44053310546874996,2.6479870361328124,6.962338427734375,7.461907339470796
0.46505844317333994,-0.5458779785156249,2.5617957763671875,7.082048510742187,7.550906665808199
0.46754538671972146,-0.6177040283203125,2.4899697265625,7.407659936523437,7.839319692484501
0.4700323302661029,-0.679953271484375,2.384624853515625,7.905653881835937,8.285417034935197
0.47251927381248443,-0.689530078125,2.39420166015625,8.528146313476562,8.884645905279392
0.47500621735886595,-0.7422025146484375,2.360682836914062,9.217676391601563,9.544068633949564
0.4774931609052474,-0.7422025146484375,2.3223756103515623,9.897629663085937,10.193496259669931
0.4799801044516289,-0.7948749511718749,2.27927998046875,10.548852514648438,10.821517120680019
0.48246704799801043,-0.7565677246093749,2.31758720703125,11.171344946289063,11.434270990889349
0.4849539915443919,-0.6943184814453125,2.2744915771484373,11.583147631835937,11.824749432825296
0.4874409350907734,-0.6655880615234374,2.4133552734375,11.884817041015625,12.1456233780686
0.4899278786371549,-0.584185205078125,2.5043349365234375,11.990161914062499,12.262827918288625
0.4924148221835364,-0.5219359619140624,2.499546533203125,11.923124267578125,12.193483600681853
0.4949017657299179,-0.43574470214843747,2.5713725830078125,11.6070896484375,11.896485216775568
0.4973887092762994,-0.33518823242187495,2.6240450195312497,11.1474029296875,11.45698719090173
0.49987565282268087,-0.296881005859375,2.7629087158203123,10.601524951171875,10.95965940136443
0.5023625963690624,-0.258573779296875,2.7916391357421872,9.888052856445311,10.277825584986521
0.5048495399154439,-0.2825157958984375,2.7533319091796873,9.188945971679686,9.59673797951614
0.5073364834618254,-0.28730419921875,2.7916391357421872,8.518569506835936,8.968936347744428
0.5098234270082069,-0.258573779296875,2.829946362304687,7.896077075195312,8.391870470299596
0.5123103705545884,-0.2920926025390625,2.729389892578125,7.455543969726562,7.944811083889394
0.5147973141009698,-0.373495458984375,2.6479870361328124,7.1203557373046875,7.605971340149604
0.5172842576473514,-0.44053310546874996,2.6048914062499997,7.005434057617187,7.487031119942794
0.5197712011937329,-0.5123591552734374,2.5570073730468748,7.082048510742187,7.546933795808349
0.5222581447401143,-0.584185205078125,2.480392919921875,7.331045483398437,7.761304611383795
0.5247450882864959,-0.622492431640625,2.422932080078125,7.762001782226562,8.155168199332856
0.5272320318328774,-0.689530078125,2.389413256835937,8.350975390624999,8.71341135350597
0.5297189753792588,-0.7517793212890624,2.2649147705078123,8.987833032226561,9.299255544438232
0.5322059189256404,-0.7422025146484375,2.3127988037109373,9.677363110351562,9.97753775481659
0.5346928624720219,-0.7805097412109374,2.269703173828125,10.347739575195313,10.622450859828625
0.5371798060184033,-0.7326257080078125,2.2649147705078123,10.946289990234375,11.202135684591742
0.5396667495647849,-0.7134720947265625,2.3032219970703123,11.449072338867186,11.700219289327691
0.5421536931111663,-0.63206923828125,2.375048046875,11.774683764648437,12.028447219172625
0.5446406366575478,-0.63206923828125,2.422932080078125,11.9135474609375,12.173854134605996
0.5471275802039294,-0.5410895751953124,2.4756045166015626,11.908759057617187,12.175382455733475
0.5496145237503108,-0.44532150878906246,2.6048914062499997,11.6837041015625,11.978844352332725
0.5521014672966923,-0.38786066894531246,2.6096798095703124,11.281478222656249,11.585880005215868
0.5545884108430739,-0.316034619140625,2.70065947265625,10.721235034179687,11.060665446792305
0.5570753543894553,-0.258573779296875,2.748543505859375,10.079588989257813,10.450811738583226
0.5595622979358368,-0.27293898925781246,2.8203695556640622,9.433154541015625,9.849537284413795
0.5620492414822184,-0.239420166015625,2.767697119140625,8.705317236328124,9.137834401230183
0.5645361850285998,-0.2537853759765625,2.8107927490234372,8.068459594726562,8.547806919131796
0.5670231285749813,-0.3399766357421875,2.7820623291015623,7.632714892578124,8.131038774181345
0.5695100721213628,-0.36391865234375,2.6958710693359373,7.249642626953125,7.743221282292144
0.5719970156677443,-0.39743747558593745,2.6336218261718747,7.105990527343749,7.58874310047376
0.5744839592141258,-0.469263525390625,2.5713725830078125,7.072471704101562,7.5400279324564545
0.5769709027605073,-0.5698199951171875,2.5139117431640625,7.264007836914062,7.7078049361671335
0.5794578463068888,-0.6655880615234374,2.422932080078125,7.651868505859374,8.053862363070083
0.5819447898532703,-0.699106884765625,2.3415292236328122,8.097190014648437,8.457895463694
0.5844317333996518,-0.7278373046875,2.3511060302734372,8.781931689453124,9.120294452807096
0.5869186769460333,-0.7565677246093749,2.2601263671875,9.476250170898437,9.771380824583055
0.5894056204924147,-0.7996633544921875,2.2840683837890623,10.127473022460936,10.412595242446358
0.5918925640387963,-0.7852981445312499,2.2601263671875,10.764330664062498,11.027043076760721
0.5943795075851778,-0.7230489013671875,2.327164013671875,11.310208642578125,11.569758493544564
0.5968664511315592,-0.6847416748046875,2.31758720703125,11.678915698242188,11.926321876842712
0.5993533946779408,-0.603338818359375,2.442085693359375,11.947066284179687,12.209020970660706
0.6018403382243223,-0.5363011718749999,2.4899697265625,11.908759057617187,12.178099625086487
0.6043272817707037,-0.44532150878906246,2.5570073730468748,11.769895361328125,12.052677493761273
0.6068142253170853,-0.4070142822265625,2.6048914062499997,11.434707128906249,11.734719723459563
0.6093011688634667,-0.3495534423828125,2.7054478759765623,10.9175595703125,11.253210332613081
0.6117881124098483,-0.258573779296875,2.748543505859375,10.342951171874999,10.705045107178766
0.6142750559562298,-0.239420166015625,2.7724855224609373,9.634267480468749,10.028115868565147
0.6167619995026112,-0.26815058593749996,2.7916391357421872,8.954314208984375,9.383224219540184
0.6192489430489928,-0.239420166015625,2.7246014892578123,8.29351455078125,8.732878041927597
0.6217358865953743,-0.296881005859375,2.829946362304687,7.771578588867187,8.276120377815955
0.6242228301417557,-0.32082302246093747,2.7150246826171873,7.321468676757812,7.8152536762223725
0.6267097736881373,-0.411802685546875,2.6719290527343746,7.110778930664062,7.607362441440895
0.6291967172345188,-0.45968671875,2.6001030029296874,7.110778930664062,7.58518454001055
0.6316836607809002,-0.5123591552734374,2.5522189697265625,7.196970190429687,7.653281224112842
0.6341706043272818,-0.603338818359375,2.427720483398437,7.4411787597656245,7.850413098050236
0.6366575478736632,-0.6512228515624999,2.375048046875,7.991845141601562,8.362686960224114
0.6391444914200447,-0.6943184814453125,2.3511060302734372,8.604760766601562,8.947160754658997
0.6416314349664263,-0.737414111328125,2.3223756103515623,9.217676391601563,9.534294211289604
0.6441183785128077,-0.7900865478515624,2.2361843505859373,9.955090502929687,10.233698457763074
0.6466053220591892,-0.7661445312499999,2.2601263671875,10.587159741210938,10.852792268551816
0.6490922656055708,-0.7565677246093749,2.288856787109375,11.123460913085937,11.381680139538622
0.6515792091519522,-0.689530078125,2.327164013671875,11.554417211914062,11.806595664379483
0.6540661526983337,-0.6560112548828124,2.408566870117187,11.8369330078125,12.097294249781646
0.6565530962447153,-0.5889736083984375,2.442085693359375,11.923124267578125,12.184890838461
0.6590400397910967,-0.5027823486328125,2.5617957763671875,11.865663427734374,12.149467324544831
0.6615269833374782,-0.469263525390625,2.6144682128906247,11.5304751953125,11.832476939432182
0.6640139268838597,-0.36391865234375,2.6862942626953124,11.133037719726563,11.458321976632
0.6665008704302412,-0.3495534423828125,2.70065947265625,10.47702646484375,10.825148162559529
0.6689878139766227,-0.26336218261718747,2.767697119140625,9.86411083984375,10.24842376384072
0.6714747575230042,-0.26336218261718747,2.7916391357421872,9.203311181640624,9.620995032196598
0.6739617010693857,-0.2825157958984375,2.767697119140625,8.528146313476562,8.970464985846347
0.6764486446157671,-0.27293898925781246,2.7916391357421872,8.001421948242188,8.478826448859316
0.6789355881621487,-0.3016694091796875,2.7724855224609373,7.50821640625,8.00943156583362
0.6814225317085302,-0.3687070556640625,2.6575638427734374,7.182604980468749,7.667359700494536
0.6839094752549116,-0.488417138671875,2.528276953125,6.957550024414062,7.418776044286252
0.6863964188012932,-0.5027823486328125,2.5522189697265625,7.134720947265625,7.594132916592897
0.6888833623476747,-0.6272808349609375,2.4660277099609376,7.388506323242187,7.814396944153417
0.6913703058940561,-0.6847416748046875,2.39420166015625,7.781155395507812,8.169911385061015
0.6938572494404377,-0.70868369140625,2.35589443359375,8.37012900390625,8.724192266263728
0.6963441929868192,-0.7278373046875,2.346317626953125,8.992621435546875,9.322134617763403
0.6988311365332006,-0.7757213378906249,2.29843359375,9.725247143554688,10.02322166681731
0.7013180800795822,-0.8092401611328125,2.2601263671875,10.352527978515624,10.627223361725076
0.7038050236259636,-0.737414111328125,2.3127988037109373,10.97502041015625,11.240279839994146
0.7062919671723451,-0.7134720947265625,2.327164013671875,11.496956372070311,11.751797334781223
0.7087789107187267,-0.6751648681640625,2.365471240234375,11.8369330078125,12.089842216465026
0.7112658542651081,-0.5793968017578125,2.43250888671875,11.9518546875,12.210635962511068
0.7137527978114896,-0.5219359619140624,2.480392919921875,11.832144604492187,12.10059552778917
0.7162397413578712,-0.44053310546874996,2.5857377929687497,11.674127294921874,11.965172687806923
0.7187266849042526,-0.39264907226562495,2.6623522460937497,11.276689819335937,11.593361292470197
0.7212136284506341,-0.316034619140625,2.6815058593749996,10.793061083984375,11.125669378377903
0.7237005719970157,-0.316034619140625,2.77727392578125,10.065223779296874,10.4461408216931
0.7261875155433971,-0.2537853759765625,2.786850732421875,9.437942944335937,9.844069841402
0.7286744590897786,-0.27293898925781246,2.786850732421875,8.743624462890624,9.18106755474094
0.7311614026361601,-0.27293898925781246,2.8012159423828122,8.106766821289062,8.581431975053457
0.7336483461825416,-0.3064578125,2.7246014892578123,7.580042456054687,8.06067077244194
0.7361352897289231,-0.354341845703125,2.7198130859375,7.259219433593749,7.76010361729264
0.7386222332753046,-0.45010991210937495,2.6958710693359373,7.086836914062499,7.595628822025237
0.7411091768216861,-0.5267243652343749,2.5570073730468748,7.053318090820312,7.520972101599681
0.7435961203680675,-0.55545478515625,2.4756045166015626,7.297526660156249,7.725997870609483
0.7460830639144491,-0.5985504150390625,2.422932080078125,7.6470801025390625,8.044047274765607
0.7485700074608306,-0.6847416748046875,2.43250888671875,8.192958081054687,8.57382836095401
0.7510569510072121,-0.7278373046875,2.3367408203125,8.781931689453124,9.116601834106309
0.7535438945535936,-0.7709329345703124,2.250549560546875,9.481038574218749,9.77493751181596
0.7560308380999751,-0.7517793212890624,2.2840683837890623,10.146626635742187,10.427663813860487
0.7585177816463566,-0.7613561279296874,2.27927998046875,10.726023437499999,10.991922450813643
0.7610047251927381,-0.7230489013671875,2.3415292236328122,11.334150659179686,11.596056656634534
0.7634916687391196,-0.689530078125,2.327164013671875,11.693280908203125,11.94252747425419
0.7659786122855011,-0.59376201171875,2.437297290039062,11.93270107421875,12.193536252181044
0.7684655558318826,-0.5698199951171875,2.4660277099609376,11.956643090820311,12.221591610522404
0.770952499378264,-0.47884033203125,2.5043349365234375,11.726799731445311,12.000783869368595
0.7734394429246456,-0.43574470214843747,2.5713725830078125,11.410765112304686,11.705015628109365
0.7759263864710271,-0.3399766357421875,2.6862942626953124,10.946289990234375,11.27621503559353
0.7784133300174085,-0.296881005859375,2.7533319091796873,10.333374365234375,10.698018541105174
0.7809002735637901,-0.27293898925781246,2.7581203125,9.65342109375,10.04341884834739
0.7833872171101716,-0.24899697265624998,2.7964275390625,8.98304462890625,9.41154064319655
0.785874160656553,-0.2537853759765625,2.7820623291015623,8.350975390624999,8.805854177471367
0.7883611042029346,-0.32082302246093747,2.7341782958984373,7.766790185546874,8.24024806373026
0.790848047749316,-0.3399766357421875,2.7581203125,7.3932947265625,7.8983301200249
0.7933349912956975,-0.38307226562499996,2.6958710693359373,7.1203557373046875,7.6232493733933
0.7958219348420791,-0.469263525390625,2.5665841796874997,7.043741284179687,7.511448188341679
0.7983088783884605,-0.507570751953125,2.5378537597656248,7.182604980468749,7.6346672540228795
0.800795821934842,-0.5602431884765625,2.4947581298828125,7.503428002929687,7.92711311588274
0.8032827654812236,-0.7038952880859375,2.389413256835937,7.982268334960937,8.361900026898967
0.805769709027605,-0.718260498046875,2.35589443359375,8.609549169921875,8.954913379513785
0.8082566525739865,-0.7422025146484375,2.3223756103515623,9.260772021484375,9.576334971282805
0.8107435961203681,-0.737414111328125,2.2553379638671873,9.964667309570311,10.243286752466986
0.8132305396667495,-0.8044517578125,2.3032219970703123,10.577582934570312,10.855286036588316
0.815717483213131,-0.7278373046875,2.3223756103515623,11.1474029296875,11.409985437959858
0.8182044267595125,-0.70868369140625,2.360682836914062,11.587936035156249,11.847164959847504
0.820691370305894,-0.689530078125,2.379836450195312,11.880028637695311,12.135656294192664
0.8231783138522755,-0.5985504150390625,2.4516625,11.975796704101562,12.238816050223956
0.825665257398657,-0.5410895751953124,2.5522189697265625,11.875240234375,12.158450979542415
0.8281522009450385,-0.4213794921875,2.6048914062499997,11.592724438476562,11.889250599648534
0.83063914449142,-0.38786066894531246,2.6719290527343746,11.152191333007812,11.474363262916826
0.8331260880378015,-0.32561142578124996,2.6623522460937497,10.534487304687499,10.870582553639975
0.835613031584183,-0.2920926025390625,2.7724855224609373,9.868899243164062,10.255104403780477
0.8380999751305644,-0.229843359375,2.77727392578125,9.188945971679686,9.602229246332412
0.840586918676946,-0.258573779296875,2.806004345703125,8.595183959960938,9.045314151151109
0.8430738622233275,-0.277727392578125,2.767697119140625,7.972691528320312,8.443997279348094
0.8455608057697089,-0.33039982910156246,2.7437551025390623,7.4794859863281244,7.973710976042352
0.8480477493160905,-0.39743747558593745,2.6671406494140624,7.182604980468749,7.672119009518261
0.850534692862472,-0.45010991210937495,2.6240450195312497,7.053318090820312,7.539065412091803
0.8530216364088534,-0.5315127685546874,2.5522189697265625,7.101202124023437,7.564614933941036
0.855508579955235,-0.5889736083984375,2.4851813232421875,7.345410693359375,7.776765032769083
0.8579955235016165,-0.6560112548828124,2.398990063476562,7.79552060546875,8.18264294720722
0.8604824670479979,-0.679953271484375,2.3367408203125,8.360552197265624,8.707555750951014
0.8629694105943795,-0.7422025146484375,2.2936451904296873,8.978256225585938,9.296276549490358
0.8654563541407609,-0.7517793212890624,2.288856787109375,9.696516723632811,9.991319938401798
0.8679432976871424,-0.7517793212890624,2.31758720703125,10.376469995117187,10.658682478133967
0.870430241233524,-0.7613561279296874,2.2649147705078123,10.979808813476561,11.236801308722074
0.8729171847799054,-0.689530078125,2.3319524169921872,11.468225952148437,11.723210323682062
0.8754041283262869,-1.7669208251953124,1.1827356201171875,25.100810205078123,25.19070355708544
0.8778910718726685,-1.2401964599609374,1.70467158203125,21.87821477050781,21.979542170080585
0.8803780154190499,-0.70868369140625,2.231395947265625,17.8894748046875,18.04202508687668
0.8828649589654315,-0.229843359375,2.7533319091796873,13.450624926757811,13.731459335856274
0.885351902511813,0.26815058593749996,3.19865341796875,8.98304462890625,9.539307062357476
0.8878388460581944,0.6751648681640625,3.6487633300781246,4.7117888671875,5.997522469076532
0.890325789604576,0.9241618408203125,3.88818349609375,1.0295067138671874,4.126975900247277
0.8928127331509574,1.0630255371093749,4.0988732421875,-1.8722656982421875,4.629920516907569
0.8952996766973389,1.1109095703125,4.146757275390625,-3.725377783203125,5.684026354794672
0.8977866202437205,1.0007762939453124,4.074931225585937,-4.496310717773437,6.150075426736042
0.9002735637901019,0.7613561279296874,3.9169139160156248,-4.209006518554688,5.799794276717821
0.9027605073364834,0.5315127685546874,3.5673604736328124,-2.906560815429687,4.632133670973419
0.905247450882865,0.105344873046875,3.21780703125,-0.7278373046875,3.3007766926488626
0.9077343944292464,-0.26815058593749996,2.839523168945312,2.1595698974609374,3.57750453608871
0.9102213379756279,-0.6943184814453125,2.461239306640625,5.439626171875,6.010766171460741
0.9127082815220094,-1.0582371337890624,2.0877438476562498,8.872911352539061,9.176442451994845
0.9151952250683909,-1.407790576171875,1.7573440185546874,12.157756030273436,12.364512283044503
0.9176821686147724,-1.599326708984375,1.4891934326171874,15.1313544921875,15.288343002760756
0.9201691121611539,-1.7764976318359373,1.3455413330078123,17.515979345703123,17.65717864648397
0.9226560557075354,-1.7717092285156248,1.2928688964843749,19.23501613769531,19.359656747765523
0.9251429992539169,-1.7238251953125,1.3551181396484375,20.07298671875,20.192392485476113
0.9276299428002984,-1.5562310791015623,1.446097802734375,20.09692873535156,20.208898995750214
0.9301168863466799,-1.3407529296874998,1.675941162109375,19.335572607421874,19.45432510405337
0.9326038298930613,-1.0869675537109373,1.9009961181640624,17.951724047851563,18.084791428001246
0.9350907734394429,-0.7422025146484375,2.2457611572265623,15.91665263671875,16.091430604704605
0.9375777169858244,-0.45489831542968745,2.5617957763671875,13.512874169921874,13.761086381871719
0.9400646605322058,-0.1580173095703125,2.85388837890625,10.89840595703125,11.266982770628266
0.9425516040785874,0.1292868896484375,3.1316157714843746,8.355763793945313,8.924265853293031
0.9450385476249689,0.316034619140625,3.299209887695312,5.947196923828125,6.808363607677882
0.9475254911713503,0.4836287353515625,3.4955344238281247,3.9408559326171875,5.2898963263441425
0.9500124347177319,0.430956298828125,3.4907460205078125,2.403778466796875,4.260185680064556
0.9524993782641133,0.4740519287109375,3.5146880371093747,1.5083470458984374,3.85394188334293
0.9549863218104948,0.32082302246093747,3.3710359375,1.1923124267578125,3.590044515971714
0.9574732653568764,0.1388636962890625,3.23696064453125,1.5083470458984374,3.573836615076544
0.9599602089032578,-0.047884033203124995,3.0119056884765625,2.4564509033203126,3.886903625938834
0.9624471524496393,-0.3064578125,2.7724855224609373,3.835511059570312,4.742545461161543
0.9649340959960209,-0.5746083984375,2.5378537597656248,5.616797094726562,6.190257354976461
0.9674210395424023,-0.7900865478515624,2.3223756103515623,7.570465649414062,7.957990662071052
0.9699079830887838,-1.024718310546875,2.1068974609374997,9.595960253906249,9.877829605810348
0.9723949266351654,-1.197100830078125,1.93451494140625,11.597512841796874,11.81853216654002
0.9748818701815468,-1.2832920898437499,1.8100164550781248,13.263877197265625,13.448175952881199
0.9773688137279283,-1.3263877197265623,1.7621324218749999,14.657302563476561,14.8223120157606
0.9798557572743098,-1.2641384765625,1.7334020019531249,15.533580371093748,15.681034651244472
0.9823427008206913,-1.2114660400390624,1.8243816650390623,16.026785913085938,16.17571899885098
0.9848296443670728,-1.1348515869140625,1.89620771484375,15.911864233398436,16.064585746425543
0.9873165879134543,-0.9097966308593749,2.0781670410156248,15.389928271484374,15.55623348890472
0.9898035314598358,-0.718260498046875,2.2744915771484373,14.504073657226561,14.698889846917936
0.9922904750062173,-0.5123591552734374,2.4899697265625,13.187262744140623,13.430054349338633
0.9947774185525988,-0.32082302246093747,2.6431986328124997,11.674127294921874,11.973916423722137
0.9972643620989803,-0.143652099609375,2.858676782226562,10.065223779296874,10.46429159562589
0.9997513056453617,-0.0143652099609375,2.959233251953125,8.44674345703125,8.950125296755488
1.0022382491917432,0.086191259765625,3.1172505615234374,7.019799267578125,7.681292974081157
1.0047251927381249,0.12449848632812499,3.1938650146484373,5.7891796142578125,6.6129323458683205
1.0072121362845063,0.1292868896484375,3.208230224609375,4.879382983398437,5.841047386608871
1.0096990798308878,0.086191259765625,3.1603461914062496,4.314351391601562,5.348723671401459
1.0121860233772693,-0.0383072265625,3.0550013183593747,4.170699291992188,5.170032212956566
1.0146729669236507,-0.15322890625,2.9448680419921875,4.46279189453125,5.349040883780129
1.0171599104700322,-0.3112462158203125,2.786850732421875,5.042188696289062,5.7694954771321205
1.0196468540164139,-0.4740519287109375,2.5905261962890624,5.990292553710937,6.543634776163714
1.0221337975627953,-0.63206923828125,2.442085693359375,7.168239770507812,7.599141758329152
1.0246207411091768,-0.7948749511718749,2.288856787109375,8.384494213867187,8.727567519204277
1.0271076846555582,-0.9241618408203125,2.1308394775390624,9.749189160156249,10.022037780190985
1.0295946282019397,-0.9911994873046874,2.04943662109375,10.998962426757812,11.232089803449014
1.0320815717483212,-1.0582371337890624,1.9823989746093749,12.16254443359375,12.368397577091573
1.0345685152947028,-1.0438719238281249,1.9919757812499999,13.038822241210937,13.231346172795124
1.0370554588410843,-1.0199299072265624,2.0254946044921875,13.627795849609374,13.815198338319744
1.0395424023874658,-0.967257470703125,2.068590234375,13.943830468749999,14.12958105230383
1.0420293459338472,-0.86191259765625,2.1595698974609374,13.857639208984374,14.051362920172513
1.0445162894802287,-0.718260498046875,2.3032219970703123,13.493720556640625,13.707706743709863
1.0470032330266101,-0.5698199951171875,2.422932080078125,12.876016528320312,13.114385091535361
1.0494901765729918,-0.411802685546875,2.6192566162109374,11.990161914062499,12.279823671324571
1.0519771201193733,-0.27293898925781246,2.6767174560546874,10.922347973632812,11.248866489052386
1.0544640636657547,-0.1867477294921875,2.839523168945312,9.811438403320311,10.215776528663708
1.0569510072121362,-0.09576806640624999,2.959233251953125,8.710105639648438,9.199574621461787
1.0594379507585177,-0.076614453125,3.0166940917968748,7.675810522460937,8.247689385193398
1.0619248943048991,-0.08140285644531249,3.0023288818359375,6.76122548828125,7.398295428213698
1.0644118378512808,-0.086191259765625,2.9640216552734375,6.157886669921875,6.8346486044120365
1.0668987813976623,-0.1388636962890625,2.940079638671875,5.793968017578124,6.4987242437726325
1.0693857249440437,-0.239420166015625,2.91134921875,5.693411547851563,6.39907894486548
1.0718726684904252,-0.33039982910156246,2.7724855224609373,5.846640454101562,6.479123753939476
1.0743596120368066,-0.4644751220703125,2.6192566162109374,6.282385156249999,6.822360706680447
1.076846555583188,-0.5889736083984375,2.4899697265625,6.957550024414062,7.413119552038246
1.0793334991295698,-0.7134720947265625,2.384624853515625,7.800309008789062,8.187814040056951
1.0818204426759512,-0.842758984375,2.2601263671875,8.757989672851561,9.084095827938825
1.0843073862223327,-0.9097966308593749,2.1547814941406247,9.763554370117188,10.039811110536313
1.0867943297687142,-0.8858546142578124,2.1404162841796874,10.716446630859375,10.963956797581824
1.0892812733150956,-0.93852705078125,2.1164742675781247,11.511321582031249,11.74184061019851
1.0917682168614773,-0.9050082275390624,2.1499930908203124,12.220005273437499,12.440660716590932
1.0942551604078588,-0.842758984375,2.1595698974609374,12.655749975585938,12.866312303543221
1.0967421039542402,-0.7565677246093749,2.2553379638671873,12.89038173828125,13.108046590235935
1.0992290475006217,-0.699106884765625,2.327164013671875,12.81376728515625,13.042126928572525
1.1017159910470031,-0.5746083984375,2.4851813232421875,12.579135522460938,12.835145169158988
1.1042029345933846,-0.49799394531249996,2.5665841796874997,12.081141577148436,12.360798280373913
1.1066898781397663,-0.373495458984375,2.6192566162109374,11.348515869140625,11.652845854622093
1.1091768216861477,-0.26815058593749996,2.7916391357421872,10.544064111328124,10.910657257229913
1.1116637652325292,-0.2346317626953125,2.834734765625,9.65342109375,10.063762321754522
1.1141507087789106,-0.16759411621093748,2.882618798828125,8.777143286132812,9.239903851905177
1.116637652325292,-0.1197100830078125,2.91134921875,7.8912886718749995,8.412058112040874
1.1191245958716736,-0.1484405029296875,2.920926025390625,7.283161450195312,7.848457436867793
1.1216115394180552,-0.16280571289062498,2.89219560546875,6.785167504882812,7.377655399228146
1.1240984829644367,-0.2442085693359375,2.81558115234375,6.45476767578125,7.046357981190066
1.1265854265108182,-0.33518823242187495,2.710236279296875,6.37815322265625,6.938196478368956
1.1290723700571996,-0.4070142822265625,2.6384102294921874,6.5409589355468745,7.064772675857017
1.131559313603581,-0.5219359619140624,2.528276953125,6.947973217773437,7.412080229931348
1.1340462571499625,-0.6081272216796875,2.5043349365234375,7.50821640625,7.938187815561015
1.1365332006963442,-0.718260498046875,2.398990063476562,8.183381274414062,8.557965911952708
1.1390201442427257,-0.7948749511718749,2.29843359375,9.0021982421875,9.324923397246904
1.1415070877891071,-0.8092401611328125,2.269703173828125,9.830592016601562,10.121608643518385
1.1439940313354886,-0.8810662109374999,2.1547814941406247,10.563217724609375,10.816696799533965
1.14648097488187,-0.8667010009765624,2.1452046874999997,11.314997045898437,11.54912256082929
1.1489679184282515,-0.833182177734375,2.27927998046875,11.875240234375,12.120669964765916
1.1514548619746332,-0.7852981445312499,2.2457611572265623,12.224793676757812,12.454144562771448
1.1539418055210147,-0.6703764648437499,2.365471240234375,12.416329809570312,12.657413034779923
1.1564287490673961,-0.5793968017578125,2.422932080078125,12.349292163085936,12.598068004571756
1.1589156926137776,-0.507570751953125,2.4947581298828125,12.08592998046875,12.351159851918686
1.161402636160159,-0.4261678955078125,2.6096798095703124,11.616666455078125,11.91381497725132
1.1638895797065405,-0.3687070556640625,2.6862942626953124,10.970232006835937,11.300358934232746
1.1663765232529222,-0.316034619140625,2.7533319091796873,10.218452685546874,10.58761020104927
1.1688634667993036,-0.1771709228515625,2.834734765625,9.5001921875,9.91568264552588
1.171350410345685,-0.22505495605468748,2.868253588867187,8.67658681640625,9.141153492088897
1.1738373538920666,-0.19153613281249998,2.829946362304687,7.953537915039062,8.444172420649533
1.176324297438448,-0.2442085693359375,2.882618798828125,7.455543969726562,7.9971410422238085
1.1788112409848295,-0.2920926025390625,2.806004345703125,6.967126831054687,7.516637197348625
1.1812981845312112,-0.3447650390625,2.7198130859375,6.746860278320312,7.282607346944711
1.1837851280775926,-0.469263525390625,2.6910826660156246,6.770802294921874,7.301088815273453
1.186272071623974,-0.5267243652343749,2.5857377929687497,6.957550024414062,7.441167975065647
1.1887590151703555,-0.603338818359375,2.4899697265625,7.359775903320312,7.792962743144056
1.191245958716737,-0.6703764648437499,2.403778466796875,7.8721350585937495,8.25821202820523
1.1937329022631185,-0.74699091796875,2.3223756103515623,8.537723120117187,8.879422277539634
1.1962198458095001,-0.7709329345703124,2.27927998046875,9.299079248046874,9.605328192228876
1.1987067893558816,-0.842758984375,2.2601263671875,10.041281762695311,10.326943078144588
1.201193732902263,-0.7757213378906249,2.2553379638671873,10.773907470703124,11.034734936218088
1.2036806764486445,-0.7900865478515624,2.212242333984375,11.410765112304686,11.650056366625803
1.206167619995026,-0.7757213378906249,2.2553379638671873,11.81777939453125,12.05604424109031
1.2086545635414074,-0.7038952880859375,2.3367408203125,12.076353173828124,12.320476135967024
1.2111415070877891,-0.622492431640625,2.360682836914062,12.191274853515624,12.433322276765486
1.2136284506341706,-0.5793968017578125,2.4516625,12.057199560546874,12.31756513726009
1.216115394180552,-0.4165910888671875,2.6431986328124997,11.745953344726562,12.046886200355615
1.2186023377269335,-0.373495458984375,2.6431986328124997,11.252747802734374,11.565047815825368
1.221089281273315,-0.3399766357421875,2.7246014892578123,10.639832177734375,10.988405988061611
1.2235762248196966,-0.26336218261718747,2.829946362304687,9.888052856445311,10.288418019531026
1.226063168366078,-0.22026655273437498,2.829946362304687,9.222464794921875,9.649402606449188
1.2285501119124596,-0.22505495605468748,2.81558115234375,8.437166650390624,8.89741131145132
1.231037055458841,-0.2537853759765625,2.81558115234375,7.8338278320312495,8.328310917851251
1.2335239990052225,-0.2825157958984375,2.786850732421875,7.364564306640625,7.879286744774401
1.236010942551604,-0.3112462158203125,2.7581203125,7.043741284179687,7.570891172348528
1.2384978860979856,-0.4261678955078125,2.6384102294921874,6.828263134765624,7.332666980836498
1.240984829644367,-0.507570751953125,2.5953145996093747,6.957550024414062,7.443170579894562
1.2434717731907485,-0.5985504150390625,2.4756045166015626,7.225700610351562,7.661437830616158
1.24595871673713,-0.6751648681640625,2.422932080078125,7.637503295898437,8.04101387007473
1.2484456602835114,-0.6703764648437499,2.379836450195312,8.207323291015625,8.571649884213784
1.250932603829893,-0.7230489013671875,2.3127988037109373,8.882488159179687,9.207086070966339
1.2534195473762746,-0.82360537109375,2.288856787109375,9.619902270507811,9.922686677171281
1.255906490922656,-0.814028564453125,2.2457611572265623,10.314220751953124,10.587220381151687
1.2583934344690375,-0.8283937744140625,2.2840683837890623,10.965443603515624,11.231391634574697
1.260880378015419,-0.7230489013671875,2.327164013671875,11.525686791992188,11.780490146313984
1.2633673215618004,-0.70868369140625,2.327164013671875,11.841721411132811,12.089015299017362
1.2658542651081819,-0.6512228515624999,2.418143676757812,12.033257543945313,12.291086085564519
1.2683412086545636,-0.5506663818359374,2.47081611328125,12.076353173828124,12.338819704848724
1.270828152200945,-0.4644751220703125,2.6240450195312497,11.81777939453125,12.114506148471609
1.2733150957473265,-0.40222587890625,2.6815058593749996,11.420341918945311,11.737822152219884
1.275802039293708,-0.32082302246093747,2.73896669921875,10.874463940429687,11.218682274798399
1.2782889828400894,-0.2920926025390625,2.767697119140625,10.256759912109374,10.627633289044708
1.2807759263864709,-0.27293898925781246,2.7964275390625,9.552864624023437,9.95749593010224
1.2832628699328525,-0.2346317626953125,2.8012159423828122,8.858546142578124,9.293852945905208
1.285749813479234,-0.24899697265624998,2.81558115234375,8.149862451171874,8.626108896301192
1.2882367570256155,-0.15322890625,2.882618798828125,7.920019091796875,8.429689949902954
1.290723700571997,-0.3591302490234375,2.7533319091796873,7.254431030273437,7.767662499804225
1.2932106441183784,-0.37828386230468747,2.6862942626953124,7.015010864257812,7.521280008876484
1.2956975876647598,-0.45489831542968745,2.6575638427734374,6.967126831054687,7.4706381478291135
1.2981845312111415,-0.5793968017578125,2.5665841796874997,7.115567333984375,7.5864585604730514
1.300671474757523,-0.59376201171875,2.4899697265625,7.4699091796875,7.896331155577101
1.3031584183039044,-0.6943184814453125,2.398990063476562,7.963114721679687,8.345563345213286
1.305645361850286,-0.7422025146484375,2.3415292236328122,8.614337573242187,8.957702579548455
1.3081323053966674,-0.7661445312499999,2.288856787109375,9.289502441406249,9.597952825657854
1.3106192489430488,-0.7565677246093749,2.2744915771484373,9.94072529296875,10.22564061595695
1.3131061924894305,-0.7613561279296874,2.269703173828125,10.66856259765625,10.933866816041405
1.315593136035812,-0.8044517578125,2.2840683837890623,11.267113012695312,11.524406564041398
1.3180800795821934,-0.7278373046875,2.3367408203125,11.688492504882811,11.941983161942206
1.3205670231285749,-0.6703764648437499,2.370259643554687,11.942277880859374,12.193667879934383
1.3230539666749563,-0.6272808349609375,2.422932080078125,11.956643090820311,12.215784670328881
1.3255409102213378,-0.5219359619140624,2.4851813232421875,11.89439384765625,12.162448288107695
1.3280278537677195,-0.4261678955078125,2.6144682128906247,11.597512841796874,11.896191290788007
1.330514797314101,-0.3495534423828125,2.7054478759765623,11.118672509765624,11.448428459754883
1.3330017408604824,-0.277727392578125,2.7581203125,10.529698901367187,10.8884764368697
1.3354886844068639,-0.3064578125,2.7437551025390623,9.816226806640625,10.197078854895722
1.3379756279532453,-0.22026655273437498,2.825157958984375,9.131485131835937,9.561069791629336
1.3404625714996268,-0.26815058593749996,2.77727392578125,8.461108666992187,8.909293746993267
1.3429495150460085,-0.2825157958984375,2.8012159423828122,7.81467421875,8.306368585367956
1.34543645859239,-0.3112462158203125,2.7246014892578123,7.4028715332031245,7.89448126346738
1.3479234021387714,-0.3495534423828125,2.7246014892578123,7.101202124023437,7.61398138233753
1.3504103456851528,-0.430956298828125,2.6288334228515624,7.019799267578125,7.5082667942536165
1.3528972892315343,-0.49320554199218747,2.5857377929687497,7.072471704101562,7.54646590437908
1.3553842327779158,-0.584185205078125,2.518700146484375,7.345410693359375,7.787180557547823
1.3578711763242974,-0.6416460449218749,2.4660277099609376,7.785943798828124,8.192308780299312
1.360358119870679,-0.7326257080078125,2.3511060302734372,8.350975390624999,8.706505037524899
1.3628450634170604,-0.7900865478515624,2.327164013671875,8.992621435546875,9.322401481521943
1.3653320069634418,-0.7900865478515624,2.2744915771484373,9.696516723632811,9.990995208651938
1.3678189505098233,-0.7805097412109374,2.3127988037109373,10.386046801757812,10.669030037021903
1.370305894056205,-0.7852981445312499,2.250549560546875,10.946289990234375,11.202809069630135
1.3727928376025864,-0.7422025146484375,2.308010400390625,11.449072338867186,11.7029497991607
1.3752797811489679,-0.7038952880859375,2.384624853515625,11.79862578125,12.057755785989826
1.3777667246953493,-0.6177040283203125,2.442085693359375,11.937489477539062,12.200368675850314
1.3802536682417308,-0.5985504150390625,2.50912333984375,11.923124267578125,12.198969416881186
1.3827406117881123,-0.5123591552734374,2.6048914062499997,11.674127294921874,11.972185232462264
1.385227555334494,-0.411802685546875,2.6431986328124997,11.295843432617186,11.608279774304473
1.3877144988808754,-0.3687070556640625,2.6958710693359373,10.759542260742187,11.098261817783722
1.3902014424272569,-0.3016694091796875,2.7341782958984373,10.09395419921875,10.462057482260493
1.3926883859736383,-0.2537853759765625,2.8012159423828122,9.428366137695312,9.838968736577975
1.3951753295200198,-0.2346317626953125,2.829946362304687,8.762778076171875,9.211402069708253
1.3976622730664012,-0.24899697265624998,2.786850732421875,8.106766821289062,8.576024999493965
1.400149216612783,-0.3112462158203125,2.77727392578125,7.6231380859375,8.119258521746781
1.4026361601591644,-0.38307226562499996,2.6767174560546874,7.187393383789062,7.679204669337427
1.4051231037055458,-0.38786066894531246,2.70065947265625,7.101202124023437,7.607303667660283
1.4076100472519273,-0.5123591552734374,2.5857377929687497,7.043741284179687,7.520827289363631
1.4100969907983087,-0.5698199951171875,2.4851813232421875,7.225700610351562,7.662347574122573
1.4125839343446902,-0.6272808349609375,2.4516625,7.6470801025390625,8.054934162019228
1.4150708778910719,-0.679953271484375,2.39420166015625,8.10197841796875,8.47564701519174
1.4175578214374533,-0.70868369140625,2.346317626953125,8.724470849609375,9.06221995907735
1.4200447649838348,-0.7613561279296874,2.2553379638671873,9.418789331054686,9.714926914165966
1.4225317085302163,-0.7613561279296874,2.2744915771484373,10.079588989257813,10.361037075525914
1.4250186520765977,-0.7709329345703124,2.2936451904296873,10.749965454101561,11.018933846500913
1.4275055956229792,-0.737414111328125,2.3127988037109373,11.329362255859374,11.586512288109981
1.4299925391693609,-0.6703764648437499,2.403778466796875,11.674127294921874,11.937872658899183
1.4324794827157423,-0.612915625,2.418143676757812,11.889605444335936,12.148489701473006
1.4349664262621238,-0.5746083984375,2.4851813232421875,11.93270107421875,12.202280768266561
1.4374533698085052,-0.5027823486328125,2.5713725830078125,11.765106958007811,12.053318579715082
1.4399403133548867,-0.4165910888671875,2.6575638427734374,11.477802758789062,11.788814608916628
1.4424272569012682,-0.38786066894531246,2.6575638427734374,10.979808813476561,11.303507555508112
1.4449142004476498,-0.316034619140625,2.7581203125,10.366893188476562,10.732174985528431
1.4474011439940313,-0.229843359375,2.85388837890625,9.715670336914062,10.128758904460938
1.4498880875404128,-0.24899697265624998,2.8203695556640622,9.026140258789061,9.459793438243846
1.4523750310867942,-0.2346317626953125,2.7964275390625,8.346186987304687,8.805333399272667
1.4548619746331757,-0.3064578125,2.7964275390625,7.790732202148437,8.28308104618457
1.4573489181795571,-0.354341845703125,2.729389892578125,7.37414111328125,7.871028172221769
1.4598358617259388,-0.4070142822265625,2.6575638427734374,7.105990527343749,7.597592222477607
1.4623228052723203,-0.49320554199218747,2.6144682128906247,7.000645654296875,7.489174541956745
1.4648097488187017,-0.5506663818359374,2.5378537597656248,7.1586629638671875,7.615142191731192
1.4672966923650832,-0.6272808349609375,2.480392919921875,7.4411787597656245,7.868733800167275
1.4697836359114647,-0.6703764648437499,2.408566870117187,7.958326318359375,8.341795775606952
1.4722705794578461,-0.7134720947265625,2.3511060302734372,8.52335791015625,8.87042118843095
1.4747575230042278,-0.7565677246093749,2.288856787109375,9.1554271484375,9.467476241542077
1.4772444665506093,-0.7805097412109374,2.3127988037109373,9.878476049804688,10.175584643111998
1.4797314100969907,-0.7757213378906249,2.2457611572265623,10.534487304687499,10.799102256298367
1.4822183536433722,-0.7709329345703124,2.27927998046875,11.066000073242186,11.32456676610487
1.4847052971897536,-0.7278373046875,2.375048046875,11.540052001953125,11.80438056718106
1.487192240736135,-0.6368576416015624,2.39420166015625,11.851298217773437,12.107479452460826
1.4896791842825168,-0.59376201171875,2.4899697265625,11.961431494140625,12.232266591060597
1.4921661278288982,-0.5363011718749999,2.5330653564453125,11.851298217773437,12.130841211291893
1.4946530713752797,-0.45010991210937495,2.6144682128906247,11.597512841796874,11.897073046965712
1.4971400149216612,-0.3495534423828125,2.6910826660156246,11.123460913085937,11.449694153529258
1.4996269584680426,-0.3399766357421875,2.6862942626953124,10.582371337890624,10.923293647597749
1.5021139020144243,-0.3016694091796875,2.7629087158203123,9.892841259765625,10.2758443543736
1.5046008455608058,-0.296881005859375,2.81558115234375,9.227253198242186,9.65183076631289
1.5070877891071872,-0.27293898925781246,2.825157958984375,8.571241943359375,9.028964593832054
1.5095747326535687,-0.2825157958984375,2.7820623291015623,7.982268334960937,8.45791308475431
1.5120616761999501,-0.32082302246093747,2.7054478759765623,7.4699091796875,7.95122121275384
1.5145486197463316,-0.38786066894531246,2.6671406494140624,7.1778165771484375,7.667145880799353
1.5170355632927133,-0.44532150878906246,2.5905261962890624,7.005434057617187,7.482328752164853
1.5195225068390947,-0.5458779785156249,2.5234885498046875,7.072471704101562,7.528999484243635
1.5220094503854762,-0.5793968017578125,2.4756045166015626,7.331045483398437,7.759416618287863
1.5244963939318577,-0.6943184814453125,2.437297290039062,7.723694555664062,8.128834714945492
1.5269833374782391,-0.7038952880859375,2.384624853515625,8.303091357421874,8.66736582580243
1.5294702810246206,-0.7661445312499999,2.3319524169921872,8.978256225585938,9.307742173596807
1.5319572245710023,-0.7422025146484375,2.3319524169921872,9.643844287109374,9.949502464036998
1.5344441681173837,-0.7805097412109374,2.2553379638671873,10.280701928710936,10.554078687142072
1.5369311116637652,-0.7326257080078125,2.2840683837890623,10.9175595703125,11.177961163878715
1.5394180552101466,-0.7230489013671875,2.3319524169921872,11.3772462890625,11.63625948966722
1.541904998756528,-0.6655880615234374,2.370259643554687,11.736376538085937,11.991816896919357
1.5443919423029095,-0.6081272216796875,2.408566870117187,11.918335864257811,12.17447094780007
1.5468788858492912,-0.55545478515625,2.4851813232421875,11.884817041015625,12.154568372680297
1.5493658293956727,-0.4261678955078125,2.5905261962890624,11.731588134765625,12.021755496290673
1.5518527729420541,-0.40222587890625,2.6527754394531247,11.329362255859374,11.64274247393279
1.5543397164884356,-0.33518823242187495,2.70065947265625,10.764330664062498,11.103005331155984
1.556826660034817,-0.2825157958984375,2.748543505859375,10.199299072265624,10.566929929930089
1.5593136035811985,-0.27293898925781246,2.7724855224609373,9.457096557617186,9.858896843166958
1.5618005471275802,-0.2442085693359375,2.7964275390625,8.858546142578124,9.29265756211591
1.5642874906739617,-0.277727392578125,2.7533319091796873,8.154650854492187,8.611405208522328
1.5667744342203431,-0.2920926025390625,2.73896669921875,7.618349682617187,8.101018982481197
1.5692613777667246,-0.373495458984375,2.73896669921875,7.302315063476562,7.808024252241274
1.571748321313106,-0.411802685546875,2.6623522460937497,7.048529687499999,7.545824785248654
1.5742352648594875,-0.4644751220703125,2.5809493896484375,7.024587670898437,7.498124354602769
1.5767222084058692,-0.565031591796875,2.5474305664062498,7.268796240234375,7.722956815393619
1.5792091519522506,-0.6081272216796875,2.4851813232421875,7.594407666015624,8.01379889470509
1.581696095498632,-0.699106884765625,2.35589443359375,8.068459594726562,8.43439560669879
1.5841830390450136,-0.7613561279296874,2.3319524169921872,8.657433203124999,8.9982673273927
1.586669982591395,-0.7565677246093749,2.31758720703125,9.433154541015625,9.743100624482908
1.5891569261377765,-0.8044517578125,2.308010400390625,10.09395419921875,10.385661558845674
1.5916438696841582,-0.7661445312499999,2.2744915771484373,10.692504614257812,10.958555758091851
1.5941308132305396,-0.7565677246093749,2.31758720703125,11.257536206054686,11.51849498045416
1.596617756776921,-0.718260498046875,2.3415292236328122,11.654973681640625,11.909536883015923
1.5991047003233025,-0.584185205078125,2.39420166015625,11.899182250976562,12.151708200301831
1.601591643869684,-0.5506663818359374,2.4899697265625,11.942277880859374,12.211518484076626
1.6040785874160655,-0.507570751953125,2.5617957763671875,11.77947216796875,12.065504142968972
1.6065655309624471,-0.411802685546875,2.6336218261718747,11.511321582031249,11.815924421730655
1.6090524745088286,-0.3591302490234375,2.6815058593749996,10.941501586914061,11.271020592034645
1.61153941805521,-0.32082302246093747,2.7533319091796873,10.357316381835936,10.721835973717145
1.6140263616015915,-0.3064578125,2.7724855224609373,9.715670336914062,10.108157223682742
1.616513305147973,-0.2537853759765625,2.786850732421875,8.992621435546875,9.417971347637295
1.6190002486943544,-0.27293898925781246,2.825157958984375,8.346186987304687,8.815602668684877
1.6214871922407361,-0.32561142578124996,2.7581203125,7.766790185546874,8.248410770877722
1.6239741357871176,-0.3447650390625,2.6862942626953124,7.37414111328125,7.8557620226515485
1.626461079333499,-0.4213794921875,2.6719290527343746,7.1203557373046875,7.616838672641688
1.6289480228798805,-0.488417138671875,2.6431986328124997,7.038952880859375,7.534713529578201
1.631434966426262,-0.5267243652343749,2.5761609863281247,7.110778930664062,7.581373291507719
1.6339219099726436,-0.6081272216796875,2.446874096679687,7.431601953125,7.847656921173428
1.636408853519025,-0.70868369140625,2.384624853515625,7.886500268554687,8.269555898135204
1.6388957970654066,-0.7517793212890624,2.3367408203125,8.475473876953124,8.823785312899867
1.641382740611788,-0.7900865478515624,2.2601263671875,9.126696728515624,9.435518063310035
1.6438696841581695,-0.7852981445312499,2.288856787109375,9.873687646484374,10.165887384190276
1.646356627704551,-0.7661445312499999,2.2840683837890623,10.534487304687499,10.806450323635932
1.6488435712509326,-0.7757213378906249,2.3223756103515623,11.061211669921875,11.328970636224215
1.651330514797314,-0.6943184814453125,2.3415292236328122,11.544840405273437,11.80034648821962
1.6538174583436955,-0.6655880615234374,2.43250888671875,11.85608662109375,12.121340557813168
1.656304401890077,-0.59376201171875,2.422932080078125,11.918335864257811,12.176612130000938
1.6587913454364585,-0.5458779785156249,2.5043349365234375,11.846509814453125,12.120621726035935
1.66127828898284,-0.4261678955078125,2.5522189697265625,11.559205615234374,11.845280714270116
1.6637652325292216,-0.3687070556640625,2.6384102294921874,11.142614526367186,11.456657973213416
1.666252176075603,-0.3064578125,2.710236279296875,10.63025537109375,10.9745900303896
1.6687391196219845,-0.3112462158203125,2.7150246826171873,9.931148486328125,10.300288514967939
1.671226063168366,-0.26815058593749996,2.748543505859375,9.2320416015625,9.636233095630319
1.6737130067147474,-0.2825157958984375,2.806004345703125,8.556876733398436,9.009640114544666
1.676199950261129,-0.26815058593749996,2.825157958984375,7.991845141601562,8.48074354035611
1.6786868938075106,-0.3016694091796875,2.729389892578125,7.517793212890624,8.003610960680609
1.681173837353892,-0.38307226562499996,2.7198130859375,7.211335400390625,7.716701746216122
1.6836607809002735,-0.43574470214843747,2.6575638427734374,7.019799267578125,7.5186501967412696
1.686147724446655,-0.5219359619140624,2.528276953125,7.096413720703125,7.551403127593292
1.6886346679930364,-0.584185205078125,2.4899697265625,7.331045483398437,7.764370513614515
1.6911216115394179,-0.6655880615234374,2.408566870117187,7.752424975585937,8.14520072420301
1.6936085550857995,-0.689530078125,2.3223756103515623,8.303091357421874,8.649289351957691
1.696095498632181,-0.7565677246093749,2.31758720703125,8.949525805664061,9.275646464282826
1.6985824421785625,-1.675941162109375,1.3120225097656248,21.51429611816406,21.619322822536173
1.701069385724944,-1.2497732666015624,1.7525556152343749,18.52154404296875,18.6462054621854
1.7035563292713254,-0.7326257080078125,2.221819140625,15.040374829101562,15.22123831104268
1.7060432728177068,-0.277727392578125,2.6431986328124997,11.329362255859374,11.636927457090255
1.7085302163640885,0.11013327636718749,3.1411925781249996,7.690175732421874,8.307708646008312
1.71101715991047,0.488417138671875,3.4572271972656248,4.458003491210937,5.6625759440832635
1.7135041034568514,0.7134720947265625,3.706224169921875,1.7334020019531249,4.153290566290986
1.715991047003233,0.8906430175781249,3.902548706054687,-0.239420166015625,4.010044065067706
1.7184779905496144,0.9576806640625,4.031835595703125,-1.3455413330078123,4.356986573760631
1.7209649340959958,0.8762778076171874,3.9264907226562498,-1.5897499023437498,4.325794371353075
1.7234518776423775,0.689530078125,3.763685009765625,-1.0295067138671874,3.9624059175292925
1.725938821188759,0.4213794921875,3.5482068603515624,0.32082302246093747,3.5875144615768533
1.7284257647351404,0.1005564697265625,3.1938650146484373,2.2361843505859373,3.9001802247081585
1.7309127082815219,-0.26336218261718747,2.85388837890625,4.587290380859375,5.4089991270857105
1.7333996518279033,-0.5746083984375,2.518700146484375,7.153874560546875,7.606046704267274
1.7358865953742848,-0.9050082275390624,2.2361843505859373,9.792284790039062,10.085058341474738
1.7383735389206665,-1.13006318359375,1.9297265380859374,12.186486450195313,12.389969302282436
1.740860482467048,-1.446097802734375,1.6232687255859375,14.240711474609375,14.405695523424397
1.7433474260134294,-1.5466542724609373,1.5227122558593749,15.830461376953124,15.978557489957304
1.7458343695598109,-1.6232687255859375,1.43652099609375,16.850391284179686,16.989240134792443
1.7483213131061923,-1.5945383056640625,1.484405029296875,17.2765591796875,17.413371522725754
1.7508082566525738,-1.5035586425781249,1.5418658691406248,17.132907080078123,17.267731291767404
1.7532952001989555,-1.35990654296875,1.66636435546875,16.385916162109375,16.526474652582845
1.755782143745337,-1.0917559570312498,1.944091748046875,15.255852978515625,15.417927029812446
1.7582690872917184,-0.852335791015625,2.1452046874999997,13.670891479492187,13.864402377887417
1.7607560308380998,-0.584185205078125,2.422932080078125,11.927912670898436,12.185523086970184
1.7632429743844813,-0.3016694091796875,2.70065947265625,10.180145458984374,10.536599431778875
1.765729917930863,-0.076614453125,2.935291235351562,8.480262280273436,8.97422156807975
1.7682168614772444,0.105344873046875,3.0741549316406247,6.919242797851562,7.572149429430745
1.770703805023626,0.258573779296875,3.246537451171875,5.607220288085937,6.484426357074617
1.7731907485700074,0.33039982910156246,3.39018955078125,4.716577270507813,5.8179592973797645
1.7756776921163888,0.28730419921875,3.35188232421875,4.209006518554688,5.388264534294383
1.7781646356627703,0.277727392578125,3.3327287109375,4.065354418945312,5.264154226172857
1.780651579209152,0.1197100830078125,3.2321722412109373,4.367023828124999,5.434350468661346
1.7831385227555334,0.009576806640625,3.0885201416015624,4.965574243164062,5.847732547293721
1.7856254663019149,-0.143652099609375,2.9496564453125,5.923254907226562,6.618614489988015
1.7881124098482963,-0.3687070556640625,2.6815058593749996,6.9910688476562495,7.496763448277436
1.7905993533946778,-0.55545478515625,2.499546533203125,8.192958081054687,8.583753550045577
1.7930862969410593,-0.7757213378906249,2.308010400390625,9.409212524414063,9.719153046020038
1.795573240487441,-0.9720458740234375,2.1452046874999997,10.577582934570312,10.836606344709171
1.7980601840338224,-1.0965443603515623,2.0254946044921875,11.559205615234374,11.786444433429095
1.8005471275802039,-1.139639990234375,1.9488801513671874,12.382810986328124,12.586934538435594
1.8030340711265853,-1.16837041015625,1.85790048828125,12.928688964843749,13.113652503759466
1.8055210146729668,-1.158793603515625,1.9297265380859374,13.192051147460937,13.382707521446
1.8080079582193482,-1.0390835205078124,1.944091748046875,13.206416357421874,13.389123208522465
1.81049490176573,-1.024718310546875,2.059013427734375,13.014880224609374,13.216530981028594
1.8129818453121114,-0.8283937744140625,2.1739351074218747,12.564770312499999,12.778328650596315
1.8154687888584928,-0.70868369140625,2.308010400390625,11.870451831054687,12.113495418588561
1.8179557324048743,-0.5410895751953124,2.461239306640625,11.142614526367186,11.424024480722496
1.8204426759512558,-0.40222587890625,2.6048914062499997,10.280701928710936,10.61320295872164
1.8229296194976372,-0.26815058593749996,2.7964275390625,9.490615380859374,9.897660937078532
1.825416563044019,-0.12449848632812499,2.935291235351562,8.719682446289061,9.201320365770952
1.8279035065904004,-0.1005564697265625,2.978386865234375,8.001421948242188,8.538363608819685
1.8303904501367818,0.009576806640625,3.0550013183593747,7.493851196289062,8.092646694532386
1.8328773936831633,0.0,3.0980969482421874,7.1203557373046875,7.765157469522131
1.8353643372295447,-0.028730419921875,3.0119056884765625,6.871358764648437,7.502531078630549
1.8378512807759262,-0.08140285644531249,2.940079638671875,6.804321118164062,7.412791686393449
1.8403382243223079,-0.1867477294921875,2.877830395507812,6.962338427734375,7.535976305833631
1.8428251678686893,-0.2920926025390625,2.77727392578125,7.235277416992187,7.755501779260938
1.8453121114150708,-0.4070142822265625,2.7198130859375,7.671022119140624,8.149087323174172
1.8477990549614522,-0.5746083984375,2.499546533203125,8.135497241210937,8.530194783529472
1.8502859985078337,-0.6847416748046875,2.3415292236328122,8.743624462890624,9.077587731021946
1.8527729420542152,-0.7709329345703124,2.269703173828125,9.34696328125,9.649435873040787
1.8552598856005968,-0.8762778076171874,2.1643583007812497,9.868899243164062,10.141374755032341
1.8577468291469783,-0.9193734375,2.1212626708984375,10.43871923828125,10.691672561961052
1.8602337726933598,-0.9241618408203125,2.1404162841796874,10.893617553710937,11.140303424239802
1.8627207162397412,-0.9433154541015625,2.1116858642578125,11.243170996093749,11.478586815573458
1.8652076597861227,-0.928950244140625,2.0733786376953125,11.4538607421875,11.677019030247582
1.8676946033325041,-0.852335791015625,2.1978771240234374,11.5304751953125,11.768984594376382
1.8701815468788858,-0.7996633544921875,2.2744915771484373,11.563994018554688,11.812651314425795
1.8726684904252673,-0.6464344482421874,2.370259643554687,11.415553515625,11.676937541232137
1.8751554339716487,-0.5746083984375,2.5139117431640625,11.123460913085937,11.418463545894593
1.8776423775180302,-0.44053310546874996,2.5809493896484375,10.759542260742187,11.073532355560157
1.8801293210644117,-0.3591302490234375,2.70065947265625,10.290278735351562,10.644828442687093
1.8826162646107931,-0.26336218261718747,2.7820623291015623,9.821015209960937,10.210855507572466
1.8851032081571748,-0.2154781494140625,2.877830395507812,9.375693701171874,9.809789549036081
1.8875901517035563,-0.15322890625,2.8730419921875,8.877699755859375,9.332277446677681
1.8900770952499377,-0.143652099609375,2.877830395507812,8.432378247070313,8.91109121335291
1.8925640387963192,-0.16280571289062498,2.93050283203125,8.073247998046874,8.59020871612913
1.8950509823427006,-0.2154781494140625,2.868253588867187,7.771578588867187,8.286781235549983
1.897537925889082,-0.3016694091796875,2.77727392578125,7.599196069335937,8.096421171818445
1.9000248694354638,-0.3591302490234375,2.729389892578125,7.580042456054687,8.064464480488635
1.9025118129818452,-0.43574470214843747,2.6527754394531247,7.6614453125,8.119411016449677
1.9049987565282267,-0.5506663818359374,2.499546533203125,7.8529814453124995,8.259557125909017
1.9074857000746082,-0.59376201171875,2.4899697265625,8.245630517578125,8.63382448270601
1.9099726436209896,-0.689530078125,2.346317626953125,8.614337573242187,8.954745667017132
1.9124595871673713,-0.7613561279296874,2.327164013671875,9.05965908203125,9.384709808123892
1.9149465307137528,-0.7996633544921875,2.2936451904296873,9.557653027343749,9.861490816869022
1.9174334742601342,-0.8571241943359375,2.1883003173828124,10.012551342773437,10.284673283835899
1.9199204178065157,-0.82360537109375,2.1835119140624997,10.539275708007812,10.7945533736024
1.9224073613528971,-0.7757213378906249,2.2266075439453124,10.907982763671875,11.159910963864169
1.9248943048992786,-0.7805097412109374,2.288856787109375,11.176133349609374,11.434772297526202
1.9273812484456603,-0.7517793212890624,2.308010400390625,11.386823095703125,11.642672561275063
1.9298681919920417,-0.679953271484375,2.39420166015625,11.391611499023437,11.660332353135576
1.9323551355384232,-0.5410895751953124,2.5234885498046875,11.348515869140625,11.638281008014758
1.9348420790848047,-0.469263525390625,2.5809493896484375,11.200075366210937,11.503182003993231
1.9373290226311861,-0.38307226562499996,2.6767174560546874,10.8409451171875,11.173077093357517
1.9398159661775676,-0.3591302490234375,2.6767174560546874,10.433930834960936,10.777787506907906
1.9423029097239493,-0.2537853759765625,2.834734765625,9.916783276367187,10.317108061803875
1.9447898532703307,-0.21068974609375,2.829946362304687,9.366116894531249,9.786579191150208
1.9472767968167122,-0.16759411621093748,2.85388837890625,8.86812294921875,9.317530322435497
1.9497637403630936,-0.22505495605468748,2.849099975585937,8.418013037109375,8.889936101967887
1.952250683909475,-0.229843359375,2.806004345703125,8.015787158203125,8.495842049118364
1.9547376274558566,-0.3495534423828125,2.7533319091796873,7.68059892578125,8.166677664136182
1.9572245710022382,-0.4070142822265625,2.6767174560546874,7.48906279296875,7.9634501619909175
1.9597115145486197,-0.4836287353515625,2.5665841796874997,7.484274389648437,7.926891840098955
1.9621984580950012,-0.5219359619140624,2.5378537597656248,7.551312036132812,7.983447395789613
1.9646854016413826,-0.603338818359375,2.518700146484375,7.886500268554687,8.300888786362147
1.967172345187764,-0.7134720947265625,2.346317626953125,8.226476904296874,8.58423969221703
1.9696592887341455,-0.7709329345703124,2.3223756103515623,8.686163623046875,9.024256454218474
1.9721462322805272,-0.814028564453125,2.2649147705078123,9.203311181640624,9.51280285339297
1.9746331758269087,-0.8044517578125,2.269703173828125,9.797073193359374,10.08867376239186
1.9771201193732901,-0.82360537109375,2.2457611572265623,10.309432348632813,10.583296477640543
1.9796070629196716,-0.8283937744140625,2.3032219970703123,10.812214697265624,11.0858041870242
1.982094006466053,-0.7613561279296874,2.27927998046875,11.195286962890624,11.450293907335762
1.9845809500124345,-0.70868369140625,2.35589443359375,11.458649145507811,11.719774374814138
1.9870678935588162,-0.603338818359375,2.437297290039062,11.587936035156249,11.85684179554757
1.9895548371051976,-0.5602431884765625,2.528276953125,11.578359228515625,11.864419884953934
1.992041780651579,-0.45968671875,2.6288334228515624,11.382034692382812,11.690713869696003
1.9945287241979606,-0.373495458984375,2.6575638427734374,11.008539233398437,11.330934669724794
1.997015667744342,-0.33518823242187495,2.710236279296875,10.582371337890624,10.92905828394103
1.9995026112907235,-0.33039982910156246,2.7581203125,10.036493359375,10.413817295212832
2.001989554837105,-0.277727392578125,2.844311572265625,9.504980590820312,9.925315957519098
2.0044764983834864,-0.2442085693359375,2.858676782226562,8.90643017578125,9.35714535778114
2.006963441929868,-0.2346317626953125,2.844311572265625,8.346186987304687,8.820657436452441
2.0094503854762498,-0.296881005859375,2.7724855224609373,7.9104422851562495,8.387485406883496
2.011937329022631,-0.229843359375,2.8203695556640622,7.56567724609375,8.077548179517482
2.0144242725690127,-0.4165910888671875,2.6671406494140624,7.335833886718749,7.816754198042275
2.016911216115394,-0.4740519287109375,2.6048914062499997,7.311891870117187,7.776499674645109
2.0193981596617756,-0.5458779785156249,2.499546533203125,7.45075556640625,7.8777835810213634
2.021885103208157,-0.6560112548828124,2.442085693359375,7.75721337890625,8.158951691616123
2.0243720467545385,-0.6751648681640625,2.384624853515625,8.212111694335936,8.577940415475993
2.02685899030092,-0.7517793212890624,2.3223756103515623,8.700528833007812,9.036470693665416
2.0293459338473014,-0.7996633544921875,2.3032219970703123,9.275137231445312,9.590227510880503
2.031832877393683,-0.8092401611328125,2.2601263671875,9.878476049804688,10.165988879622644
2.0343198209400644,-0.7900865478515624,2.250549560546875,10.51533369140625,10.782460420479044
2.036806764486446,-0.7805097412109374,2.3127988037109373,10.979808813476561,11.24786359016989
2.0392937080328277,-0.737414111328125,2.3367408203125,11.367669482421874,11.628759464985341
2.041780651579209,-0.6751648681640625,2.422932080078125,11.635820068359374,11.904568708151903
2.0442675951255906,-0.603338818359375,2.403778466796875,11.7603185546875,12.018621433213657
2.046754538671972,-0.5123591552734374,2.4851813232421875,11.664550488281249,11.937352143882102
2.0492414822183536,-0.45489831542968745,2.5474305664062498,11.410765112304686,11.700508340077853
2.0517284257647352,-0.39743747558593745,2.6815058593749996,11.046846459960937,11.374587769709022
2.0542153693111165,-0.3495534423828125,2.7246014892578123,10.529698901367187,10.882104568409591
2.056702312857498,-0.277727392578125,2.786850732421875,9.9215716796875,10.309279999329032
2.0591892564038794,-0.26336218261718747,2.786850732421875,9.275137231445312,9.688346985227987
2.061676199950261,-0.26815058593749996,2.839523168945312,8.686163623046875,9.14244141627709
2.0641631434966423,-0.3016694091796875,2.825157958984375,8.111555224609374,8.594757127896937
2.066650087043024,-0.2920926025390625,2.7581203125,7.6470801025390625,8.134517800173036
2.0691370305894057,-0.36391865234375,2.710236279296875,7.335833886718749,7.8289383883558425
2.071623974135787,-0.45968671875,2.6767174560546874,7.211335400390625,7.70580861920863
2.0741109176821686,-0.5506663818359374,2.5570073730468748,7.225700610351562,7.684547447985164
2.07659786122855,-0.5698199951171875,2.5474305664062498,7.522581616210937,7.962620893276973
2.0790848047749315,-0.6703764648437499,2.39420166015625,7.829039428710937,8.214345048171632
2.081571748321313,-0.689530078125,2.3127988037109373,8.25520732421875,8.600752176462283
2.0840586918676944,-0.7661445312499999,2.3367408203125,8.805873706054687,9.142797538558114
2.086545635414076,-0.7900865478515624,2.2840683837890623,9.533711010742186,9.835286003531753
2.0890325789604574,-0.7805097412109374,2.327164013671875,10.165780249023436,10.457914508834424
2.091519522506839,-0.7757213378906249,2.2649147705078123,10.749965454101561,11.013325554804064
2.0940064660532203,-0.8044517578125,2.2744915771484373,11.214440576171874,11.471012684225267
2.096493409599602,-0.6847416748046875,2.3367408203125,11.640608471679688,11.892560464991128
2.0989803531459836,-0.6272808349609375,2.408566870117187,11.803414184570311,12.0629706965677
2.101467296692365,-0.584185205078125,2.4516625,11.841721411132811,12.106952025452966
2.1039542402387466,-0.507570751953125,2.5857377929687497,11.597512841796874,11.893106075280274
2.106441183785128,-0.45968671875,2.6479870361328124,11.281478222656249,11.59719354461198
2.1089281273315095,-0.33518823242187495,2.77727392578125,10.869675537109375,11.223878469228561
2.111415070877891,-0.316034619140625,2.7054478759765623,10.237606298828124,10.593767451663584
2.1139020144242724,-0.26815058593749996,2.7820623291015623,9.658209497070311,10.054490848821922
2.116388957970654,-0.2537853759765625,2.77727392578125,8.94473740234375,9.369417520463648
2.1188759015170353,-0.277727392578125,2.7916391357421872,8.350975390624999,8.809606775765873
2.121362845063417,-0.277727392578125,2.7629087158203123,7.829039428710937,8.306904083523209
2.1238497886097982,-0.38786066894531246,2.70065947265625,7.445967163085937,7.930096120446251
2.12633673215618,-0.4165910888671875,2.6815058593749996,7.163451367187499,7.660225668950391
2.1288236757025616,-0.44053310546874996,2.6240450195312497,7.153874560546875,7.6326668281525585
2.131310619248943,-0.5458779785156249,2.5761609863281247,7.283161450195312,7.744612895717802
2.1337975627953245,-0.6464344482421874,2.427720483398437,7.560888842773437,7.967354914534834
2.1362845063417057,-0.689530078125,2.403778466796875,8.010998754882811,8.392240683918054
2.1387714498880874,-0.737414111328125,2.3415292236328122,8.556876733398436,8.902060329344428
2.141258393434469,-0.7900865478515624,2.2936451904296873,9.212887988281249,9.526927631576413
2.1437453369808503,-0.8188169677734375,2.3127988037109373,9.90241806640625,10.20183234007741
2.146232280527232,-0.7948749511718749,2.3032219970703123,10.524910498046875,10.803258709652674
2.1487192240736133,-0.7900865478515624,2.360682836914062,11.0707884765625,11.347220703872189
2.151206167619995,-0.699106884765625,2.3319524169921872,11.511321582031249,11.765937152491544
2.153693111166376,-0.6751648681640625,2.403778466796875,11.803414184570311,12.064600487755694
2.156180054712758,-0.5698199951171875,2.4851813232421875,11.9135474609375,12.183326070504616
2.1586669982591395,-0.5267243652343749,2.50912333984375,11.769895361328125,12.045894541630917
2.161153941805521,-0.469263525390625,2.6288334228515624,11.511321582031249,11.817000380227713
2.1636408853519025,-0.3687070556640625,2.6958710693359373,11.104307299804686,11.43281707733814
2.1661278288982837,-0.32082302246093747,2.6910826660156246,10.568006127929687,10.909977399015553
2.1686147724446654,-0.316034619140625,2.786850732421875,9.916783276367187,10.305775343744479
2.171101715991047,-0.2920926025390625,2.786850732421875,9.227253198242186,9.643342609164575
2.1735886595374283,-0.27293898925781246,2.829946362304687,8.580818749999999,9.039554332251681
2.17607560308381,-0.2825157958984375,2.825157958984375,7.996633544921875,8.48572216843768
2.178562546630191,-0.354341845703125,2.7916391357421872,7.48906279296875,8.00030428951628
2.181049490176573,-0.411802685546875,2.6862942626953124,7.244854223632812,7.737807896252243
2.1835364337229546,-0.45010991210937495,2.6575638427734374,7.129932543945312,7.622413173831913
2.186023377269336,-0.49799394531249996,2.5809493896484375,7.163451367187499,7.630487088748333
2.1885103208157175,-0.5793968017578125,2.4851813232421875,7.3837179199218745,7.812241495515508
2.1909972643620987,-0.6607996582031249,2.418143676757812,7.805097412109374,8.197781446357398
2.1934842079084804,-0.70868369140625,2.370259643554687,8.360552197265624,8.71889880635922
2.1959711514548617,-0.7709329345703124,2.3223756103515623,8.959102612304687,9.287264704043146
2.1984580950012433,-0.7709329345703124,2.2649147705078123,9.648632690429688,9.940839466669708
2.200945038547625,-0.7852981445312499,2.308010400390625,10.271125122070313,10.556496410141929
2.2034319820940063,-0.7613561279296874,2.3032219970703123,10.89840595703125,11.165112947282658
2.205918925640388,-0.7230489013671875,2.3319524169921872,11.410765112304686,11.669034331814855
2.208405869186769,-0.718260498046875,2.3415292236328122,11.712434521484374,11.96577534755855
2.210892812733151,-0.584185205078125,2.446874096679687,11.880028637695311,12.143456906140646
2.2133797562795325,-0.5363011718749999,2.4899697265625,11.870451831054687,12.140642275412855
2.2158666998259138,-0.44532150878906246,2.5617957763671875,11.664550488281249,11.950851306064571
2.2183536433722955,-0.38786066894531246,2.6575638427734374,11.348515869140625,11.661984990089296
2.2208405869186767,-0.3591302490234375,2.7246014892578123,10.793061083984375,11.137441150176619
2.2233275304650584,-0.28730419921875,2.7341782958984373,10.122684619140625,10.489376461698615
2.2258144740114396,-0.2825157958984375,2.77727392578125,9.495403784179686,9.897260159173873
2.2283014175578213,-0.3016694091796875,2.7964275390625,8.796296899414061,9.235033868714472
2.230788361104203,-0.3064578125,2.81558115234375,8.169016064453125,8.646053265945616
2.233275304650584,-0.32082302246093747,2.8012159423828122,7.6997525390625,8.199751662727353
2.235762248196966,-0.3687070556640625,2.70065947265625,7.264007836914062,7.758564063980738
2.238249191743347,-0.38786066894531246,2.6862942626953124,7.115567333984375,7.615635971392669
2.240736135289729,-0.507570751953125,2.6192566162109374,7.029376074218749,7.518660870301442
2.2432230788361105,-0.5506663818359374,2.50912333984375,7.264007836914062,7.704851929361254
2.2457100223824917,-0.5793968017578125,2.4660277099609376,7.60398447265625,8.01483456975749
2.2481969659288734,-0.699106884765625,2.422932080078125,8.078036401367187,8.462506862792594
2.2506839094752547,-0.7278373046875,2.3511060302734372,8.695740429687499,9.037330818786298
2.2531708530216363,-0.74699091796875,2.308010400390625,9.361328491210937,9.670541792484883
2.2556577965680176,-0.7805097412109374,2.2649147705078123,10.070012182617187,10.351047277055988
2.2581447401143993,-0.7805097412109374,2.3127988037109373,10.682927807617187,10.958247136532943
2.260631683660781,-0.7709329345703124,2.3415292236328122,11.243170996093749,11.51025589385985
2.263118627207162,-0.70868369140625,2.3367408203125,11.640608471679688,11.893962999216065
2.265605570753544,-0.63206923828125,2.427720483398437,11.889605444335936,12.151380822337703
2.268092514299925,-0.622492431640625,2.427720483398437,11.942277880859374,12.202431092066256
2.2705794578463068,-0.5027823486328125,2.5474305664062498,11.808202587890625,12.090320133785724
2.2730664013926885,-0.45489831542968745,2.5522189697265625,11.463437548828125,11.752921108503003
2.2755533449390697,-0.38786066894531246,2.7150246826171873,11.042058056640624,11.377558659570047
2.2780402884854514,-0.32082302246093747,2.7820623291015623,10.433930834960936,10.803226873647317
2.2805272320318326,-0.2825157958984375,2.7964275390625,9.744400756835937,10.141655104862522
2.2830141755782143,-0.239420166015625,2.7916391357421872,9.083601098632812,9.505912896675708
2.2855011191245955,-0.277727392578125,2.77727392578125,8.394071020507813,8.845948861526486
2.287988062670977,-0.3064578125,2.7916391357421872,7.876923461914062,8.362600593111086
2.290475006217359,-0.32561142578124996,2.7533319091796873,7.417236743164062,7.918475882822993
2.29296194976374,-0.4165910888671875,2.6910826660156246,7.1395093505859375,7.641208531230995
2.295448893310122,-0.44053310546874996,2.6384102294921874,7.034164477539062,7.525606145233442
2.297935836856503,-0.5267243652343749,2.5617957763671875,7.1586629638671875,7.621462562198155
2.3004227804028847,-0.6272808349609375,2.446874096679687,7.407659936523437,7.826499845146983
2.3029097239492664,-0.70868369140625,2.4133552734375,7.862558251953125,8.255079558408262
2.3053966674956476,-0.699106884765625,2.389413256835937,8.48505068359375,8.842744554233418
2.3078836110420293,-0.74699091796875,2.288856787109375,9.107543115234375,9.420414132047355
2.3103705545884106,-0.7996633544921875,2.2601263671875,9.801861596679688,10.090793994361293
2.3128574981347922,-0.8188169677734375,2.24097275390625,10.448296044921875,10.717243598649512
2.315344441681174,-0.74699091796875,2.370259643554687,11.037269653320312,11.313595697632882
2.317831385227555,-0.7230489013671875,2.365471240234375,11.49216796875,11.75534680577769
2.320318328773937,-0.6560112548828124,2.422932080078125,11.85608662109375,12.118900139785081
2.322805272320318,-0.6081272216796875,2.442085693359375,11.927912670898436,12.190516885515473
2.3252922158666998,-0.5123591552734374,2.5522189697265625,11.889605444335936,12.171238687800326
2.327779159413081,-0.44053310546874996,2.5857377929687497,11.578359228515625,11.871752683388994
2.3302661029594627,-0.38307226562499996,2.6336218261718747,11.171344946289063,11.483973885069494
2.3327530465058444,-0.316034619140625,2.710236279296875,10.673351000976561,11.016609285989936
2.3352399900522256,-0.28730419921875,2.7533319091796873,9.97903251953125,10.355890610220735
2.3377269335986073,-0.27293898925781246,2.839523168945312,9.299079248046874,9.726780679150236
2.3402138771449885,-0.2537853759765625,2.7629087158203123,8.585607153320312,9.022789024473548
2.34270082069137,-0.27293898925781246,2.7964275390625,8.039729174804688,8.516557278459993
2.345187764237752,-0.354341845703125,2.77727392578125,7.570465649414062,8.07160199411486
2.347674707784133,-0.3591302490234375,2.7246014892578123,7.206546997070312,7.7127652260400525
2.350161651330515,-0.469263525390625,2.6144682128906247,7.0102224609374995,7.49659064137226
2.352648594876896,-0.51714755859375,2.5713725830078125,7.086836914062499,7.556629936983988
2.3551355384232777,-0.55545478515625,2.5378537597656248,7.331045483398437,7.777754149107962
2.357622481969659,-0.63206923828125,2.4133552734375,7.738059765625,8.130274542362912
2.3601094255160406,-0.7422025146484375,2.39420166015625,8.259995727539062,8.6319520145335
2.3625963690624223,-0.7422025146484375,2.3367408203125,8.901641772460938,9.233116942792758
2.3650833126088036,-0.7709329345703124,2.2744915771484373,9.543287817382812,9.840832885967101
2.3675702561551852,-0.7613561279296874,2.288856787109375,10.271125122070313,10.550570592089162
2.3700571997015665,-0.7900865478515624,2.2840683837890623,10.845733520507812,11.111756869765806
2.372544143247948,-0.70868369140625,2.308010400390625,11.382034692382812,11.635285055441589
2.37503108679433,-0.7038952880859375,2.365471240234375,11.7603185546875,12.016489307309877
2.377518030340711,-0.6272808349609375,2.437297290039062,11.947066284179687,12.20927074499227
2.3800049738870928,-0.5602431884765625,2.461239306640625,11.889605444335936,12.154599498822245
2.382491917433474,-0.49799394531249996,2.5570073730468748,11.698069311523437,11.984619739173638
2.3849788609798557,-0.430956298828125,2.6527754394531247,11.382034692382812,11.69502691755223
2.387465804526237,-0.354341845703125,2.7246014892578123,10.888829150390624,11.230120733334918
2.3899527480726186,-0.296881005859375,2.7533319091796873,10.204087475585936,10.573191388750933
2.3924396916190003,-0.2346317626953125,2.806004345703125,9.572018237304688,9.977587162609199
2.3949266351653815,-0.3064578125,2.7916391357421872,8.858546142578124,9.293062208725143
2.397413578711763,-0.2442085693359375,2.825157958984375,8.240842114257813,8.715080841316105
2.3999005222581444,-0.33518823242187495,2.7437551025390623,7.694964135742187,8.176369381591181
2.402387465804526,-0.33518823242187495,2.7629087158203123,7.287949853515625,7.801296609568717
2.404874409350908,-0.4213794921875,2.70065947265625,7.086836914062499,7.595681648818822
2.407361352897289,-0.4740519287109375,2.6671406494140624,7.062894897460937,7.564578561126268
2.4098482964436707,-0.5602431884765625,2.5043349365234375,7.211335400390625,7.654340217252774
2.412335239990052,-0.5889736083984375,2.446874096679687,7.575254052734374,7.982390413896107
2.4148221835364336,-0.6655880615234374,2.384624853515625,8.058882788085937,8.43060110263525
2.417309127082815,-0.737414111328125,2.3127988037109373,8.695740429687499,9.028217958076462
2.4197960706291965,-0.7709329345703124,2.27927998046875,9.34696328125,9.651692981027038
2.4222830141755782,-0.7517793212890624,2.29843359375,10.065223779296874,10.35165198700766
2.4247699577219595,-0.7661445312499999,2.27927998046875,10.658985791015624,10.92685099949674
2.427256901268341,-0.7422025146484375,2.3127988037109373,11.233594189453123,11.49319543436516
2.4297438448147224,-0.7230489013671875,2.3319524169921872,11.621454858398437,11.875142728181276
2.432230788361104,-0.6368576416015624,2.43250888671875,11.899182250976562,12.161958122834811
2.4347177319074857,-0.565031591796875,2.5139117431640625,11.961431494140625,12.235802235291558
2.437204675453867,-0.5315127685546874,2.5234885498046875,11.822567797851562,12.100562367878972
2.4396916190002487,-0.45489831542968745,2.6192566162109374,11.463437548828125,11.767660690843703
2.44217856254663,-0.373495458984375,2.710236279296875,11.022904443359375,11.357345724901165
2.4446655060930116,-0.33039982910156246,2.729389892578125,10.419565624999999,10.77618119031318
2.4471524496393933,-0.258573779296875,2.8012159423828122,9.821015209960937,10.215968427392655
2.4496393931857745,-0.27293898925781246,2.7964275390625,9.069235888671875,9.494500633390793
2.452126336732156,-0.3064578125,2.7581203125,8.40843623046875,8.854543686205794
2.4546132802785374,-0.2920926025390625,2.786850732421875,7.8338278320312495,8.319898652938376
2.457100223824919,-0.3447650390625,2.73896669921875,7.398083129882812,7.89635583723566
2.4595871673713003,-0.38786066894531246,2.6815058593749996,7.125144140624999,7.62289896280017
2.462074110917682,-0.44053310546874996,2.6288334228515624,7.043741284179687,7.53121011926853
2.4645610544640637,-0.5458779785156249,2.5330653564453125,7.1203557373046875,7.577193985455269
2.467047998010445,-0.5985504150390625,2.4851813232421875,7.4794859863281244,7.9042456584049825
2.4695349415568266,-0.6703764648437499,2.398990063476562,7.8721350585937495,8.256819503296441
2.472021885103208,-0.7422025146484375,2.370259643554687,8.456320263671875,8.813532081543814
2.4745088286495895,-0.7996633544921875,2.31758720703125,9.04050546875,9.367038543382389
2.4769957721959712,-0.7709329345703124,2.2553379638671873,9.749189160156249,10.03631287881032
2.4794827157423525,-0.7661445312499999,2.250549560546875,10.481814868164061,10.748041388909293
2.481969659288734,-0.7517793212890624,2.29843359375,11.037269653320312,11.299083614740704
2.4844566028351154,-0.70868369140625,2.3511060302734372,11.501744775390625,11.760955106549758
2.486943546381497,-0.6751648681640625,2.398990063476562,11.85608662109375,12.11518843810283
2.4894304899278783,-0.6081272216796875,2.427720483398437,11.93270107421875,12.192333672842189
2.49191743347426,-0.5458779785156249,2.5330653564453125,11.889605444335936,12.16869428038335
2.4944043770206417,-0.4644751220703125,2.6096798095703124,11.659762084960937,11.957266314897975
2.496891320567023,-0.38786066894531246,2.6240450195312497,11.228805786132812,11.537856280337833
2.4993782641134046,-0.3687070556640625,2.7150246826171873,10.625466967773438,10.97305118020332
2.501865207659786,-1.22583125,1.7525556152343749,22.117634936523437,22.220798559531747
2.5043521512061675,-0.7517793212890624,2.250549560546875,17.846379174804685,18.0034273160223
2.506839094752549,-0.316034619140625,2.6910826660156246,13.029245434570312,13.308006627218685
2.5093260382989304,0.11013327636718749,3.0550013183593747,8.25520732421875,8.803045516159495
2.511812981845312,0.49799394531249996,3.4715924072265625,3.778050219726562,5.154960259231583
2.5142999253916933,0.6943184814453125,3.7205893798828122,-0.09576806640624999,3.7860315648336167
2.516786868938075,0.8475473876953125,3.892971899414062,-2.9496564453125,4.9572209885570215
2.5192738124844563,0.86191259765625,3.9312791259765625,-4.764461303710937,6.236821338381957
2.521760756030838,0.7613561279296874,3.845087866210937,-5.315127685546875,6.604161276504803
2.5242476995772196,0.5793968017578125,3.6391865234374996,-4.7117888671875,5.981666451350189
2.526734643123601,0.26336218261718747,3.361459130859375,-3.0550013183593747,4.549923096366385
2.5292215866699825,-0.028730419921875,3.0741549316406247,-0.4070142822265625,3.101115058603222
2.5317085302163638,-0.4070142822265625,2.73896669921875,2.839523168945312,3.9661683061038757
2.5341954737627455,-0.7230489013671875,2.4516625,6.45476767578125,6.942440095239211
2.536682417309127,-1.0342951171875,2.1164742675781247,10.204087475585936,10.472470144343598
2.5391693608555084,-1.2593500732421874,1.848323681640625,13.6756798828125,13.857362061238465
2.54165630440189,-1.47482822265625,1.66636435546875,16.678008764648435,16.82580948439659
2.5441432479482713,-1.5514426757812498,1.5514426757812498,19.00517277832031,19.131401963428555
2.546630191494653,-1.5849614990234373,1.4939818359375,20.389021337890625,20.505030499769003
2.549117135041034,-1.5322890624999999,1.5562310791015623,20.963629736328123,21.077085582795345
2.551604078587416,-1.3072341064453123,1.7429788085937499,20.580557470703123,20.695559473983177
2.5540910221337976,-1.1540052001953125,1.8722656982421875,19.282900170898436,19.407919668210887
2.556577965680179,-0.8475473876953125,2.1212626708984375,17.37232724609375,17.521867646992074
2.5590649092265605,-0.6416460449218749,2.365471240234375,14.81053146972656,15.011962105304578
2.5615518527729417,-0.38307226562499996,2.6288334228515624,12.014103930664062,12.304316428903729
2.5640387963193234,-0.1580173095703125,2.877830395507812,9.102754711914063,9.548142259136391
2.566525739865705,0.0526724365234375,3.0933085449218747,6.354211206054687,7.06734265412446
2.5690126834120863,0.15322890625,3.2417490478515623,3.9456443359374997,5.108867312102826
2.571499626958468,0.2442085693359375,3.327940307617187,2.1260510742187497,3.9566295867299712
2.5739865705048492,0.22026655273437498,3.318363500976562,0.93852705078125,3.4555588121047895
2.576473514051231,0.16280571289062498,3.2417490478515623,0.45489831542968745,3.2775562644716114
2.5789604575976126,0.033518823242187495,3.1555577880859373,0.7278373046875,3.2385823453412637
2.581447401143994,-0.06703764648437499,3.0166940917968748,1.714248388671875,3.470386841202642
2.5839343446903755,-0.2920926025390625,2.806004345703125,3.2321722412109373,4.290211635038229
2.5864212882367568,-0.51714755859375,2.6096798095703124,5.176263989257812,5.819929483449574
2.5889082317831384,-0.7038952880859375,2.437297290039062,7.455543969726562,7.875342693568797
2.5913951753295197,-0.8379705810546875,2.288856787109375,9.753977563476562,10.053911596757452
2.5938821188759014,-1.01514150390625,2.0925322509765625,11.89439384765625,12.119645559895428
2.596369062422283,-1.0773907470703123,1.9967641845703124,13.819331982421874,14.004348412941015
2.5988560059686643,-1.2018892333984375,1.9584569580078124,15.313313818359374,15.484756100284061
2.601342949515046,-1.0965443603515623,1.9919757812499999,16.328455322265626,16.48601923626592
2.603829893061427,-1.0773907470703123,1.9919757812499999,16.692373974609374,16.84529866886235
2.606316836607809,-0.948103857421875,2.1260510742187497,16.543933471679686,16.706906620018213
2.6088037801541906,-0.842758984375,2.221819140625,15.768212133789062,15.946260906418313
2.611290723700572,-0.6655880615234374,2.375048046875,14.551957690429687,14.759516703356617
2.6137776672469535,-0.5219359619140624,2.518700146484375,12.957419384765624,13.210260583687951
2.6162646107933347,-0.39264907226562495,2.6767174560546874,11.18571015625,11.508218860150919
2.6187515543397164,-0.258573779296875,2.825157958984375,9.327809667968749,9.749687743430755
2.6212384978860976,-0.08140285644531249,2.91134921875,7.575254052734374,8.115852060136524
2.6237254414324793,-0.05746083984375,2.9927520751953125,5.966350537109375,6.675118385719217
2.626212384978861,-0.028730419921875,3.0119056884765625,4.740519287109374,5.616486840077375
2.6286993285252422,-0.1149216796875,2.9496564453125,3.883395092773437,4.87795424173009
2.631186272071624,-0.17238251953125,2.978386865234375,3.6391865234374996,4.705760576613487
2.633673215618005,-0.2154781494140625,2.834734765625,3.7397429931640622,4.697640863160745
2.636160159164387,-0.33039982910156246,2.7533319091796873,4.3239281982421875,5.136765101961674
2.6386471027107685,-0.45968671875,2.6431986328124997,5.334281298828125,5.970960380619224
2.6411340462571498,-0.612915625,2.4851813232421875,6.579266162109374,7.059641280167027
2.6436209898035314,-0.7038952880859375,2.384624853515625,8.044517578125,8.419986183679644
2.6461079333499127,-0.814028564453125,2.2840683837890623,9.639055883789062,9.939366640605373
2.6485948768962944,-0.8858546142578124,2.221819140625,11.080365283203124,11.335594977788439
2.6510818204426756,-0.928950244140625,2.1643583007812497,12.449848632812499,12.670679791952479
2.6535687639890573,-0.9050082275390624,2.1835119140624997,13.469778540039062,13.675587668852229
2.656055707535439,-0.9145850341796874,2.1308394775390624,14.159308618164061,14.347925397359699
2.65854265108182,-0.833182177734375,2.221819140625,14.427459204101561,14.62129446803383
2.661029594628202,-0.737414111328125,2.346317626953125,14.34605634765625,14.555353609866884
2.663516538174583,-0.6464344482421874,2.4660277099609376,13.84806240234375,14.080767111964317
2.666003481720965,-0.5746083984375,2.5139117431640625,12.952630981445312,13.206838244086661
2.6684904252673465,-0.5123591552734374,2.5905261962890624,11.884817041015625,12.174654573172406
2.6709773688137277,-0.3112462158203125,2.7150246826171873,10.721235034179687,11.064046000094402
2.6734643123601094,-0.28730419921875,2.7820623291015623,9.337386474609374,9.747266318415273
2.6759512559064906,-0.201112939453125,2.844311572265625,8.097190014648437,8.58458157791409
2.6784381994528723,-0.201112939453125,2.839523168945312,6.947973217773437,7.508506514366866
2.6809251429992536,-0.22026655273437498,2.858676782226562,6.0525417968749995,6.697298896003788
2.6834120865456352,-0.24899697265624998,2.829946362304687,5.468356591796875,6.162265794410514
2.685899030092017,-0.3016694091796875,2.806004345703125,5.204994409179688,5.920864094043322
2.688385973638398,-0.33518823242187495,2.7341782958984373,5.305550878906249,5.978039162934537
2.69087291718478,-0.47884033203125,2.6288334228515624,5.717353564453124,6.310957535084998
2.693359860731161,-0.565031591796875,2.5426421630859375,6.4834980957031245,6.987133706049777
2.6958468042775428,-0.6655880615234374,2.375048046875,7.3837179199218745,7.784802567411886
2.6983337478239244,-0.737414111328125,2.389413256835937,8.480262280273436,8.841262558354298
2.7008206913703057,-0.74699091796875,2.379836450195312,9.595960253906249,9.914840904207919
2.7033076349166874,-0.8283937744140625,2.2601263671875,10.730811840820312,10.99748744960564
2.7057945784630686,-0.7900865478515624,2.288856787109375,11.717222924804688,11.964799004352775
2.7082815220094503,-0.7996633544921875,2.2649147705078123,12.46900224609375,12.698240721110665
2.7107684655558315,-0.7661445312499999,2.288856787109375,12.9861498046875,13.208555166423242
2.713255409102213,-0.7517793212890624,2.2936451904296873,13.254300390625,13.472284856416195
2.715742352648595,-0.6847416748046875,2.365471240234375,13.1776859375,13.405809636757324
2.718229296194976,-0.5506663818359374,2.5139117431640625,12.818555688476561,13.074339587722099
2.720716239741358,-0.488417138671875,2.5761609863281247,12.186486450195313,12.465376397430664
2.723203183287739,-0.4165910888671875,2.6575638427734374,11.372457885742186,11.686273660868974
2.7256901268341207,-0.32561142578124996,2.7533319091796873,10.371681591796875,10.735857601716061
2.7281770703805024,-0.277727392578125,2.81558115234375,9.394847314453125,9.811614841192489
2.7306640139268836,-0.27293898925781246,2.8107927490234372,8.384494213867187,8.847304379990108
2.7331509574732653,-0.258573779296875,2.829946362304687,7.532158422851562,8.050395475987196
2.7356379010196465,-0.277727392578125,2.8012159423828122,6.813897924804687,7.372458761505926
2.7381248445660282,-0.33518823242187495,2.806004345703125,6.291961962890625,6.89744857767866
2.74061178811241,-0.373495458984375,2.7246014892578123,6.100425830078125,6.691647587958605
2.743098731658791,-0.44053310546874996,2.6527754394531247,6.177040283203125,6.736995889080964
2.745585675205173,-0.5315127685546874,2.5713725830078125,6.4739212890625,6.986137676911156
2.748072618751554,-0.6177040283203125,2.4851813232421875,7.034164477539062,7.485796842893034
2.7505595622979357,-0.6703764648437499,2.43250888671875,7.819462622070312,8.216477334389525
2.753046505844317,-0.7038952880859375,2.389413256835937,8.652644799804687,9.00405610378567
2.7555334493906987,-0.8092401611328125,2.327164013671875,9.629479077148437,9.939689596871682
2.7580203929370803,-0.7805097412109374,2.2936451904296873,10.500968481445312,10.776842894095388
2.7605073364834616,-0.74699091796875,2.29843359375,11.286266625976562,11.542123148235714
2.7629942800298433,-0.7613561279296874,2.3032219970703123,11.985373510742187,12.228396170934484
2.7654812235762245,-0.70868369140625,2.327164013671875,12.435483422851561,12.671194611440965
2.767968167122606,-0.6416460449218749,2.427720483398437,12.631807958984375,12.878979334758528
2.770455110668988,-0.63206923828125,2.427720483398437,12.598289135742187,12.84563067409512
2.772942054215369,-0.5458779785156249,2.5570073730468748,12.282254516601562,12.55746970865643
2.775428997761751,-0.488417138671875,2.6144682128906247,11.812990991210937,12.10870560778462
2.777915941308132,-0.38786066894531246,2.6575638427734374,11.085153686523437,11.405863129582768
2.7804028848545137,-0.32082302246093747,2.7533319091796873,10.290278735351562,10.657091557506511
2.782889828400895,-0.296881005859375,2.767697119140625,9.433154541015625,9.835277844048083
2.7853767719472766,-0.2346317626953125,2.844311572265625,8.619125976562499,9.07934430364022
2.7878637154936583,-0.316034619140625,2.7629087158203123,7.790732202148437,8.272185364100821
2.7903506590400395,-0.26815058593749996,2.8203695556640622,7.153874560546875,7.694433728046208
2.792837602586421,-0.3495534423828125,2.73896669921875,6.770802294921874,7.312174088835019
2.7953245461328025,-0.40222587890625,2.6431986328124997,6.5409589355468745,7.066288167537061
2.797811489679184,-0.45010991210937495,2.6575638427734374,6.5601125488281244,7.092271932511334
2.800298433225566,-0.5267243652343749,2.50912333984375,6.8569935546875,7.320621496874846
2.802785376771947,-0.6272808349609375,2.4756045166015626,7.287949853515625,7.722455052370701
2.8052723203183287,-0.6847416748046875,2.427720483398437,7.943961108398437,8.33481949405466
2.80775926386471,-0.7230489013671875,2.35589443359375,8.71489404296875,9.05662279639483
2.8102462074110917,-0.7517793212890624,2.2840683837890623,9.514557397460937,9.813711988810415
2.812733150957473,-0.7757213378906249,2.269703173828125,10.261548315429687,10.538153060249321
2.8152200945038546,-0.7613561279296874,2.288856787109375,10.9941740234375,11.25568260937828
2.8177070380502363,-0.7422025146484375,2.3367408203125,11.669338891601562,11.924122290596905
2.8201939815966175,-0.7134720947265625,2.3319524169921872,12.066776367187499,12.310732569623303
2.822680925142999,-0.6177040283203125,2.4851813232421875,12.325350146484375,12.588563885902051
2.8251678686893804,-0.584185205078125,2.4564509033203126,12.258312499999999,12.51565614508131
2.827654812235762,-0.4740519287109375,2.5809493896484375,12.052411157226562,12.334773596863483
2.8301417557821438,-0.4070142822265625,2.6479870361328124,11.631031665039062,11.93559355719711
2.832628699328525,-0.36391865234375,2.7341782958984373,11.066000073242186,11.404583524192448
2.8351156428749067,-0.3447650390625,2.6862942626953124,10.304643945312499,10.654610581227972
2.837602586421288,-0.26815058593749996,2.77727392578125,9.586383447265625,9.98418263021923
2.8400895299676696,-0.2825157958984375,2.7916391357421872,8.781931689453124,9.219294356801964
2.842576473514051,-0.2825157958984375,2.8012159423828122,8.06367119140625,8.541043204076821
2.8450634170604325,-0.3447650390625,2.767697119140625,7.436390356445312,7.942223354256156
2.847550360606814,-0.316034619140625,2.710236279296875,7.029376074218749,7.540383714567272
2.8500373041531954,-0.411802685546875,2.6623522460937497,6.751648681640624,7.269282004049893
2.852524247699577,-0.469263525390625,2.6288334228515624,6.76122548828125,7.269466522706293
2.8550111912459584,-0.565031591796875,2.528276953125,6.962338427734375,7.428701194269313
2.85749813479234,-0.584185205078125,2.461239306640625,7.378929516601562,7.800485375241642
2.8599850783387217,-0.6368576416015624,2.4133552734375,7.948749511718749,8.331415853955674
2.862472021885103,-0.7326257080078125,2.346317626953125,8.628702783203124,8.971981863303238
2.8649589654314846,-0.7709329345703124,2.3367408203125,9.399635717773437,9.716370046357955
2.867445908977866,-0.7757213378906249,2.29843359375,10.137049829101562,10.423258598760052
2.8699328525242476,-0.7805097412109374,2.2840683837890623,10.817003100585938,11.083037485997949
2.8724197960706292,-0.7613561279296874,2.3032219970703123,11.382034692382812,11.637663359108242
2.8749067396170105,-0.689530078125,2.365471240234375,11.851298217773437,12.10471707077926
2.877393683163392,-0.6368576416015624,2.418143676757812,12.090718383789062,12.346597812077823
2.8798806267097734,-0.5746083984375,2.4660277099609376,12.152967626953124,12.413947382666834
2.882367570256155,-0.51714755859375,2.528276953125,11.923124267578125,12.199201541460527
2.8848545138025363,-0.4213794921875,2.6431986328124997,11.650185278320311,11.953697198278421
2.887341457348918,-0.4165910888671875,2.710236279296875,11.051634863281249,11.386727448052582
2.8898284008952997,-0.3112462158203125,2.7150246826171873,10.433930834960936,10.785877150368052
2.892315344441681,-0.2825157958984375,2.806004345703125,9.672574707031249,10.075325157340462
2.8948022879880626,-0.2346317626953125,2.8012159423828122,8.968679418945312,9.398886813859308
2.897289231534444,-0.277727392578125,2.81558115234375,8.29351455078125,8.762819941893245
2.8997761750808255,-0.277727392578125,2.7820623291015623,7.71890615234375,8.209659889196656
2.902263118627207,-0.28730419921875,2.729389892578125,7.201758593749999,7.706973448199256
2.9047500621735884,-0.411802685546875,2.7054478759765623,6.967126831054687,7.485311345659032
2.90723700571997,-0.47884033203125,2.6384102294921874,6.928819604492187,7.4296054884673435
2.9097239492663514,-0.5267243652343749,2.5570073730468748,7.029376074218749,7.498523405014259
2.912210892812733,-0.622492431640625,2.4564509033203126,7.345410693359375,7.770244920334963
2.9146978363591143,-0.7134720947265625,2.389413256835937,7.829039428710937,8.21658058551167
2.917184779905496,-0.7757213378906249,2.3319524169921872,8.494627490234375,8.842988288300516
2.9196717234518776,-0.7709329345703124,2.3223756103515623,9.184157568359375,9.504552399014578
2.922158666998259,-0.7805097412109374,2.327164013671875,9.926360083007811,10.225336781748824
2.9246456105446406,-0.7565677246093749,2.288856787109375,10.601524951171875,10.872147506547963
2.927132554091022,-0.7422025146484375,2.31758720703125,11.166556542968749,11.428650841733837
2.9296194976374035,-0.6943184814453125,2.3511060302734372,11.717222924804688,11.970926897648033
2.932106441183785,-0.6607996582031249,2.365471240234375,11.999738720703125,12.248503571530653
2.9345933847301664,-0.5985504150390625,2.4660277099609376,12.095506787109374,12.358836502788098
2.937080328276548,-0.5315127685546874,2.5522189697265625,11.937489477539062,12.218837199951746
2.9395672718229293,-0.49320554199218747,2.5809493896484375,11.645396875,11.938166518977619
2.942054215369311,-0.4070142822265625,2.7341782958984373,11.204863769531249,11.540812955483357
2.9445411589156922,-0.316034619140625,2.7437551025390623,10.582371337890624,10.936848406932112
2.947028102462074,-0.2825157958984375,2.834734765625,9.883264453125,10.285643033703792
2.9495150460084556,-0.2442085693359375,2.7916391357421872,9.160215551757812,9.579271154122853
2.952001989554837,-0.277727392578125,2.7964275390625,8.465897070312499,8.92012066571642
2.9544889331012185,-0.277727392578125,2.7533319091796873,7.824251025390624,8.299209192147257
2.9569758766475998,-0.32561142578124996,2.77727392578125,7.369352709960937,7.882044951865747
2.9594628201939814,-0.40222587890625,2.6671406494140624,7.072471704101562,7.569364630319775
2.961949763740363,-0.47884033203125,2.6336218261718747,6.957550024414062,7.454713564523643
2.9644367072867444,-0.49799394531249996,2.5809493896484375,7.019799267578125,7.495790784072414
2.966923650833126,-0.5985504150390625,2.480392919921875,7.311891870117187,7.744312387606005
2.9694105943795073,-0.6560112548828124,2.39420166015625,7.762001782226562,8.149308192927556
2.971897537925889,-0.7230489013671875,2.31758720703125,8.298302954101562,8.646146083314456
2.97438448147227,-0.7661445312499999,2.3319524169921872,8.954314208984375,9.284649830289748
2.976871425018652,-0.74699091796875,2.308010400390625,9.720458740234374,10.018593991196465
2.9793583685650336,-0.82360537109375,2.27927998046875,10.405200415039062,10.683709033560824
2.981845312111415,-0.7805097412109374,2.3127988037109373,11.018116040039061,11.285260955526812
2.9843322556577965,-0.7038952880859375,2.3127988037109373,11.496956372070311,11.748383408125752
2.9868191992041777,-0.699106884765625,2.3415292236328122,11.77947216796875,12.030273234528117
2.9893061427505594,-0.5985504150390625,2.437297290039062,11.999738720703125,12.259380491873031
2.991793086296941,-0.5267243652343749,2.518700146484375,11.942277880859374,12.21635338259724
2.9942800298433223,-0.4213794921875,2.5617957763671875,11.664550488281249,11.949983111699835
2.996766973389704,-0.411802685546875,2.6671406494140624,11.281478222656249,11.599783255899554
2.9992539169360852,-0.3687070556640625,2.729389892578125,10.678139404296875,11.027609678266714
3.001740860482467,-0.32561142578124996,2.7724855224609373,10.0748005859375,10.454391690541414
3.0042278040288486,-0.277727392578125,2.839523168945312,9.380482104492186,9.804767658861868
3.00671474757523,-0.2825157958984375,2.7724855224609373,8.662221606445312,9.09948209000686
3.0092016911216115,-0.26815058593749996,2.829946362304687,8.087613208007811,8.572630200387893
3.0116886346679927,-0.32561142578124996,2.7533319091796873,7.522581616210937,8.017237278218795
3.0141755782143744,-0.354341845703125,2.70065947265625,7.125144140624999,7.628027186340319
3.0166625217607557,-0.430956298828125,2.6527754394531247,7.000645654296875,7.498798599821913
3.0191494653071373,-0.5123591552734374,2.5905261962890624,7.0102224609374995,7.491098506192866
3.021636408853519,-0.5267243652343749,2.5378537597656248,7.249642626953125,7.699055687642731
3.0241233523999003,-0.6177040283203125,2.437297290039062,7.599196069335937,8.004358640568627
3.026610295946282,-0.699106884765625,2.389413256835937,8.149862451171874,8.521637408461547
3.029097239492663,-0.7134720947265625,2.360682836914062,8.815450512695312,9.15390810682706
3.031584183039045,-0.7661445312499999,2.360682836914062,9.471461767578125,9.791240417534391
3.0340711265854265,-0.7996633544921875,2.2840683837890623,10.165780249023436,10.449857316431526
3.036558070131808,-0.7709329345703124,2.2840683837890623,10.855310327148437,11.119760261360202
3.0390450136781895,-0.7038952880859375,2.379836450195312,11.386823095703125,11.654133615121541
3.0415319572245707,-0.6751648681640625,2.3415292236328122,11.707646118164062,11.958577855769118
3.0440189007709524,-0.622492431640625,2.427720483398437,11.923124267578125,12.183686464821417
3.0465058443173336,-0.5698199951171875,2.4516625,11.9135474609375,12.176533042896567
3.0489927878637153,-0.488417138671875,2.5761609863281247,11.698069311523437,11.98832692021843
3.051479731410097,-0.4070142822265625,2.6192566162109374,11.334150659179686,11.639980112203133
3.0539666749564782,-0.3399766357421875,2.6815058593749996,10.831368310546875,11.16353874295387
3.05645361850286,-0.3064578125,2.7150246826171873,10.228029492187499,10.58668327244752
3.058940562049241,-0.296881005859375,2.7629087158203123,9.567229833984374,9.962614596574365
3.061427505595623,-0.2346317626953125,2.8012159423828122,8.834604125976561,9.271035157017108
3.0639144491420045,-0.277727392578125,2.8107927490234372,8.298302954101562,8.765815438429085
3.0664013926883857,-0.26815058593749996,2.77727392578125,7.6997525390625,8.18970966264143
3.0688883362347674,-0.3399766357421875,2.7341782958984373,7.326257080078125,7.827219038075241
3.0713752797811487,-0.4165910888671875,2.6767174560546874,7.077260107421875,7.577992814919827
3.0738622233275303,-0.4740519287109375,2.6623522460937497,7.125144140624999,7.621057914625617
3.0763491668739116,-0.5410895751953124,2.5761609863281247,7.235277416992187,7.699261176028599
3.0788361104202933,-0.6081272216796875,2.4516625,7.560888842773437,7.971669073941162
3.081323053966675,-0.6703764648437499,2.403778466796875,7.996633544921875,8.37697460744764
3.083809997513056,-0.7326257080078125,2.3319524169921872,8.614337573242187,8.954415353830855
3.086296941059438,-0.7422025146484375,2.3367408203125,9.299079248046874,9.61686524266204
3.088783884605819,-0.7805097412109374,2.2457611572265623,9.969455712890625,10.249033410167042
3.091270828152201,-0.8044517578125,2.3032219970703123,10.59194814453125,10.869284231028056
3.0937577716985825,-0.7613561279296874,2.327164013671875,11.156979736328124,11.422502017373507
3.0962447152449637,-0.7326257080078125,2.3367408203125,11.563994018554688,11.820450742273634
3.0987316587913454,-0.6512228515624999,2.370259643554687,11.846509814453125,12.098843612684453
3.1012186023377266,-0.55545478515625,2.4851813232421875,11.97100830078125,12.238860076212914
3.1037055458841083,-0.5267243652343749,2.5043349365234375,11.784260571289062,12.058935659636857
3.1061924894304895,-0.430956298828125,2.6288334228515624,11.544840405273437,11.848199377113605
3.108679432976871,-0.3591302490234375,2.6527754394531247,11.051634863281249,11.371227955644144
3.111166376523253,-0.316034619140625,2.748543505859375,10.457872851562499,10.817646410543517
3.113653320069634,-0.2920926025390625,2.7629087158203123,9.80665,10.192613349034382
3.116140263616016,-0.258573779296875,2.7533319091796873,9.145850341796875,9.554803790554411
3.118627207162397,-0.28730419921875,2.806004345703125,8.461108666992187,8.918888045358786
3.1211141507087787,-0.3064578125,2.806004345703125,7.896077075195312,8.385440355543176
3.1236010942551604,-0.3447650390625,2.7437551025390623,7.4699091796875,7.965337290262634
3.1260880378015417,-0.38786066894531246,2.7054478759765623,7.144297753906249,7.649240125960923
3.1285749813479233,-0.49320554199218747,2.6096798095703124,6.995857250976562,7.483027401471419
3.1310619248943046,-0.5219359619140624,2.5378537597656248,7.105990527343749,7.563611586338551
3.1335488684406863,-0.6081272216796875,2.47081611328125,7.4220251464843745,7.846095096189219
3.136035811987068,-0.689530078125,2.408566870117187,7.829039428710937,8.2201280082962
3.138522755533449,-0.737414111328125,2.346317626953125,8.389282617187499,8.742370891765066
3.141009699079831,-0.7517793212890624,2.3032219970703123,9.074024291992187,9.391907184771936
3.143496642626212,-0.7805097412109374,2.308010400390625,9.80665,10.104775687116287
3.1459835861725938,-0.7852981445312499,2.3032219970703123,10.429142431640624,10.70927339286096
3.148470529718975,-0.718260498046875,2.2936451904296873,11.066000073242186,11.324003886595582
3.1509574732653567,-0.7278373046875,2.3367408203125,11.468225952148437,11.726479066324233
3.1534444168117384,-0.6655880615234374,2.375048046875,11.827356201171874,12.081813415295159
3.1559313603581196,-0.565031591796875,2.437297290039062,11.903970654296874,12.16405344110759
3.1584183039045013,-0.5410895751953124,2.5522189697265625,11.85608662109375,12.13974421331419
3.1609052474508825,-0.4213794921875,2.6001030029296874,11.654973681640625,11.948912411680645
3.163392190997264,-0.373495458984375,2.6527754394531247,11.2240173828125,11.539292985262348
3.165879134543646,-0.316034619140625,2.729389892578125,10.673351000976561,11.021336972266583
3.168366078090027,-0.2920926025390625,2.7437551025390623,10.002974536132811,10.376560592107994
3.170853021636409,-0.26336218261718747,2.806004345703125,9.318232861328125,9.735116007797393
3.17333996518279,-0.2537853759765625,2.806004345703125,8.643067993164061,9.090692588555694
3.1758269087291717,-0.3064578125,2.806004345703125,8.044517578125,8.525364499170063
3.178313852275553,-0.2920926025390625,2.7533319091796873,7.5465236328125,8.0384186026334
3.1808007958219346,-0.39743747558593745,2.6815058593749996,7.201758593749999,7.695047567332807
3.1832877393683163,-0.4261678955078125,2.6719290527343746,7.077260107421875,7.576835392570744
3.1857746829146976,-0.469263525390625,2.5857377929687497,7.082048510742187,7.553916818363475
3.1882616264610792,-0.5698199951171875,2.4899697265625,7.302315063476562,7.736177955056992
3.1907485700074605,-0.63206923828125,2.398990063476562,7.651868505859374,8.043988841215736
3.193235513553842,-0.6943184814453125,2.360682836914062,8.212111694335936,8.572845507206239
3.195722457100224,-0.7517793212890624,2.3415292236328122,8.839392529296875,9.17511806681711
3.198209400646605,-0.8092401611328125,2.2744915771484373,9.490615380859374,9.792852591574835
3.2006963441929868,-0.7517793212890624,2.308010400390625,10.223241088867187,10.507461278412187
3.203183287739368,-0.7709329345703124,2.250549560546875,10.850521923828124,11.108246348256673
