Time (s),Acceleration x (m/s^2),Acceleration y (m/s^2),Acceleration z (m/s^2),Absolute acceleration (m/s^2)
0.0,-0.239420166015625,1.2018892333984375,28.9219560546875,28.947908417958782
0.002486943546381497,-0.833182177734375,1.6232687255859375,28.179753540039062,28.238762428160758
0.004973887092762994,-1.2880804931640624,2.04943662109375,25.972299609375,26.08485554531385
0.007460830639144491,-1.6615759521484375,2.5043349365234375,22.629994091796874,22.82869161195646
0.009947774185525988,-1.9871873779296874,2.959233251953125,18.36831513671875,18.71098543840701
0.012434717731907486,-2.1595698974609374,3.337517114257812,13.646949462890625,14.214147609782092
0.014921661278288981,-2.1547814941406247,3.6535517333984373,8.801085302734375,9.769883625822605
0.01740860482467048,-2.0159177978515626,3.859453076171875,4.304774584960938,6.122939395600192
0.019895548371051976,-1.8052280517578123,3.9600095458984375,0.2825157958984375,4.36123137398054
0.022382491917433474,-1.4508862060546874,3.907337109375,-2.7341782958984373,4.984785353752038
0.02486943546381497,-1.0821791503906248,3.768473413085937,-4.716577270507813,6.133400747329876
0.027356379010196465,-0.6607996582031249,3.5338416503906247,-5.449202978515625,6.528285081043907
0.029843322556577963,-0.2059013427734375,3.2417490478515623,-5.03740029296875,5.993891387388001
0.032330266102959464,0.143652099609375,2.89219560546875,-3.5146880371093747,4.553950301025987
0.03481720964934096,0.469263525390625,2.5330653564453125,-1.0007762939453124,2.763726026003368
0.03730415319572245,0.699106884765625,2.212242333984375,2.1787235107421874,3.1827036803416204
0.03979109674210395,0.8044517578125,1.89620771484375,5.80354482421875,6.158236667683114
0.04227804028848545,0.86191259765625,1.66636435546875,9.567229833984374,9.749438454980677
0.04476498383486695,0.718260498046875,1.5227122558593749,13.125013500976562,13.232555692609644
0.04725192738124844,0.5506663818359374,1.43652099609375,16.256629272460938,16.32926273101564
0.04973887092762994,0.28730419921875,1.4891934326171874,18.75138740234375,18.812622632036575
0.05222581447401144,0.06703764648437499,1.656787548828125,20.408174951171873,20.475425364705785
0.05471275802039293,-0.3016694091796875,1.8148048583984373,21.073763012695313,21.15391237151526
0.05719970156677443,-0.6368576416015624,2.039859814453125,20.843919653320313,20.953176423453314
0.059686645113155926,-0.93852705078125,2.3319524169921872,19.685126049804687,19.844974746692497
0.062173588659537427,-1.177947216796875,2.5617957763671875,17.87510959472656,18.09612942783229
0.06466053220591893,-1.3455413330078123,2.8203695556640622,15.418658691406248,15.732132778216265
0.06714747575230041,-1.484405029296875,3.0071172851562498,12.569558715820312,13.009228223385957
0.06963441929868192,-1.484405029296875,3.21780703125,9.662997900390625,10.292291717801115
0.07212136284506342,-1.3934253662109375,3.318363500976562,6.813897924804687,7.705996074841404
0.0746083063914449,-1.2593500732421874,3.337517114257812,4.290409374999999,5.579659102492444
0.0770952499378264,-1.0726023437499999,3.303998291015625,2.2840683837890623,4.157384860303042
0.0795821934842079,-0.852335791015625,3.1842882080078123,0.9145850341796874,3.420911205665721
0.0820691370305894,-0.5889736083984375,3.0550013183593747,0.277727392578125,3.1236285744556183
0.0845560805769709,-0.3064578125,2.89219560546875,0.43574470214843747,2.940847710539508
0.0870430241233524,-0.05746083984375,2.6671406494140624,1.2210428466796874,2.933920010037774
0.0895299676697339,0.12449848632812499,2.4516625,2.6623522460937497,3.621362777917269
0.09201691121611538,0.24899697265624998,2.288856787109375,4.520252734375,5.0728246241037445
0.09450385476249688,0.37828386230468747,2.1308394775390624,6.770802294921874,7.108258526280429
0.09699079830887838,0.354341845703125,1.9919757812499999,9.102754711914063,9.32489512015961
0.09947774185525989,0.32561142578124996,1.9393033447265624,11.429918725585937,11.597843003635072
0.10196468540164137,0.181959326171875,1.905784521484375,13.4458365234375,13.581444829388225
0.10445162894802287,0.0383072265625,1.9393033447265624,15.102624072265623,15.226674580309767
0.10693857249440437,-0.1149216796875,2.0159177978515626,16.294936499023436,16.419564155828347
0.10942551604078586,-0.354341845703125,2.1356278808593747,16.845602880859374,16.984133802132444
0.11191245958716736,-0.5746083984375,2.2601263671875,16.807295654296873,16.968309674748326
0.11439940313354886,-0.7805097412109374,2.422932080078125,16.175226416015622,16.3743013570096
0.11688634667993036,-0.9097966308593749,2.6192566162109374,15.088258862304686,15.340918832553797
0.11937329022631185,-0.9864110839843749,2.7724855224609373,13.565546606445311,13.881056787237153
0.12186023377269335,-1.1013327636718748,2.8730419921875,11.750741748046874,12.146902311886004
0.12434717731907485,-1.13006318359375,2.9544448486328125,9.82580361328125,10.322412693227193
0.12683412086545634,-1.1013327636718748,3.0023288818359375,7.920019091796875,8.541288836321504
0.12932106441183785,-0.9576806640625,3.0214824951171875,6.282385156249999,7.036680465538357
0.13180800795821934,-0.8667010009765624,2.987963671875,4.8698061767578125,5.778763685142961
0.13429495150460083,-0.689530078125,2.887407202148437,3.892971899414062,4.895692217581214
0.13678189505098234,-0.51714755859375,2.829946362304687,3.3710359375,4.4316950823355965
0.13926883859736383,-0.3495534423828125,2.6815058593749996,3.375824340820312,4.3253729623026755
0.14175578214374532,-0.16759411621093748,2.5809493896484375,3.873818286132812,4.657881026141836
0.14424272569012683,-0.09576806640624999,2.446874096679687,4.75009609375,5.344134847419574
0.14672966923650832,0.009576806640625,2.288856787109375,6.019022973632812,6.439533730344276
0.1492166127828898,0.11013327636718749,2.2601263671875,7.465120776367187,7.800533875317033
0.15170355632927132,0.086191259765625,2.1212626708984375,9.045293872070312,9.291099261353303
0.1541904998756528,0.01915361328125,2.1260510742187497,10.635043774414061,10.845488283834515
0.15667744342203432,-0.047884033203124995,2.1164742675781247,12.038045947265624,12.222778179875247
0.1591643869684158,-0.16280571289062498,2.1883003173828124,13.220781567382812,13.401650242849074
0.1616513305147973,-0.26815058593749996,2.2649147705078123,14.087482568359373,14.270911280231276
0.1641382740611788,-0.4213794921875,2.3367408203125,14.590264916992187,14.782210548012227
0.1666252176075603,-0.5746083984375,2.437297290039062,14.609418530273437,14.822472893693668
0.1691121611539418,-0.6655880615234374,2.5426421630859375,14.264653491210936,14.504770796584868
0.1715991047003233,-0.7422025146484375,2.6862942626953124,13.498508959960937,13.783206650873588
0.1740860482467048,-0.8667010009765624,2.7724855224609373,12.46900224609375,12.80288497216312
0.17657299179308628,-0.9241618408203125,2.81558115234375,11.233594189453123,11.617883230037076
0.1790599353394678,-0.86191259765625,2.887407202148437,9.883264453125,10.332421300325562
0.18154687888584928,-0.86191259765625,2.849099975585937,8.537723120117187,9.041735456905709
0.18403382243223076,-0.82360537109375,2.868253588867187,7.273584643554687,7.861948742156651
0.18652076597861228,-0.7038952880859375,2.85388837890625,6.268019946289062,6.92302112541362
0.18900770952499377,-0.6368576416015624,2.7820623291015623,5.492298608398437,6.189572074262301
0.19149465307137528,-0.469263525390625,2.6862942626953124,5.0757075195312495,5.761873996008405
0.19398159661775677,-0.354341845703125,2.5570073730468748,4.979939453125,5.609246099630796
0.19646854016413826,-0.26336218261718747,2.480392919921875,5.3199160888671875,5.875645995890103
0.19895548371051977,-0.143652099609375,2.427720483398437,5.932831713867187,6.411938460115068
0.20144242725690126,-0.076614453125,2.3415292236328122,6.789955908203124,7.18276618823811
0.20392937080328274,-0.033518823242187495,2.2601263671875,7.8721350585937495,8.190226192719498
0.20641631434966426,-0.0383072265625,2.2026655273437497,9.02135185546875,9.286441308118244
0.20890325789604575,-0.0430956298828125,2.1595698974609374,10.194510668945313,10.420827565725011
0.21139020144242723,-0.105344873046875,2.221819140625,11.343727465820312,11.559746132797683
0.21387714498880875,-0.2346317626953125,2.308010400390625,12.267889306640624,12.485314257653437
0.21636408853519024,-0.3112462158203125,2.35589443359375,12.943054174804686,13.159398320631134
0.21885103208157172,-0.45968671875,2.408566870117187,13.287819213867186,13.512166580812982
0.22133797562795324,-0.55545478515625,2.528276953125,13.436259716796874,13.683339853532631
0.22382491917433472,-0.679953271484375,2.5857377929687497,13.196839550781249,13.464952674051753
0.22631186272071624,-0.7565677246093749,2.6958710693359373,12.670115185546875,12.975821143936464
0.22879880626709773,-0.7661445312499999,2.748543505859375,11.889605444335936,12.22719045686084
0.2312857498134792,-0.8379705810546875,2.7820623291015623,10.984597216796875,11.362369537776035
0.23377269335986073,-0.7805097412109374,2.825157958984375,9.955090502929687,10.377597981751789
0.23625963690624222,-0.7613561279296874,2.825157958984375,8.872911352539061,9.342897650984163
0.2387465804526237,-0.74699091796875,2.7964275390625,7.900865478515625,8.41437328161491
0.24123352399900522,-0.6655880615234374,2.7198130859375,7.0102224609374995,7.54874887924562
0.2437204675453867,-0.5458779785156249,2.710236279296875,6.339845996093749,6.916430489149097
0.2462074110917682,-0.49320554199218747,2.5570073730468748,5.97592734375,6.518684378787396
0.2486943546381497,-0.354341845703125,2.4947581298828125,5.856217260742187,6.375316217666964
0.2511812981845312,-0.2920926025390625,2.47081611328125,6.0716954101562495,6.56168694070517
0.2536682417309127,-0.2154781494140625,2.375048046875,6.53138212890625,6.953145803996605
0.2561551852772942,-0.16280571289062498,2.269703173828125,7.1778165771484375,7.5298810755962275
0.2586421288236757,-0.143652099609375,2.2457611572265623,8.015787158203125,8.325678522897933
0.26112907237005717,-0.1197100830078125,2.2553379638671873,8.992621435546875,9.271899488146506
0.2636160159164387,-0.1197100830078125,2.250549560546875,9.94072529296875,10.193003638708275
0.2661029594628202,-0.19632453613281248,2.24097275390625,10.888829150390624,11.118772525491945
0.26858990300920166,-0.26336218261718747,2.3367408203125,11.635820068359374,11.871058333770515
0.2710768465555832,-0.37828386230468747,2.365471240234375,12.310984936523436,12.541885941761832
0.2735637901019647,-0.43574470214843747,2.4899697265625,12.650961572265624,12.90103295816229
0.27605073364834615,-0.5219359619140624,2.5522189697265625,12.785036865234375,13.047735683373313
0.27853767719472766,-0.612915625,2.6575638427734374,12.66053837890625,12.950966882265739
0.2810246207411092,-0.6560112548828124,2.7533319091796873,12.291831323242187,12.61349692383828
0.28351156428749064,-0.7422025146484375,2.7916391357421872,11.626243261718749,11.979718110941445
0.28599850783387215,-0.8092401611328125,2.786850732421875,10.884040747070312,11.264268712485398
0.28848545138025367,-0.7948749511718749,2.7724855224609373,9.993397729492187,10.40127397678167
0.2909723949266351,-0.7422025146484375,2.8012159423828122,9.09796630859375,9.548333167674715
0.29345933847301664,-0.6703764648437499,2.767697119140625,8.212111694335936,8.691854257186137
0.29594628201939815,-0.622492431640625,2.7054478759765623,7.426813549804687,7.92871392727966
0.2984332255657796,-0.5410895751953124,2.6096798095703124,6.852205151367187,7.352273258883065
0.30092016911216113,-0.469263525390625,2.5761609863281247,6.445190869140625,6.956816730617159
0.30340711265854264,-0.37828386230468747,2.499546533203125,6.344634399414062,6.829730391044448
0.30589405620492416,-0.2920926025390625,2.43250888671875,6.4356140625,6.88618515100135
0.3083809997513056,-0.2442085693359375,2.3319524169921872,6.789955908203124,7.183393427607548
0.31086794329768713,-0.15322890625,2.2649147705078123,7.37414111328125,7.715651312362415
0.31335488684406865,-0.1197100830078125,2.2361843505859373,8.087613208007811,8.391921017033084
0.3158418303904501,-0.143652099609375,2.2744915771484373,8.896853369140624,9.184113878444139
0.3183287739368316,-0.2059013427734375,2.2553379638671873,9.701305126953125,9.962141630215035
0.32081571748321314,-0.2154781494140625,2.231395947265625,10.568006127929687,10.803162140147105
0.3233026610295946,-0.27293898925781246,2.365471240234375,11.267113012695312,11.515979572797143
0.3257896045759761,-0.3591302490234375,2.39420166015625,11.880028637695311,12.124201275041555
0.3282765481223576,-0.4740519287109375,2.480392919921875,12.220005273437499,12.478205125383756
0.3307634916687391,-0.49799394531249996,2.5713725830078125,12.445060229492187,12.717683713864735
0.3332504352151206,-0.5889736083984375,2.6431986328124997,12.39238779296875,12.684820224788865
0.3357373787615021,-0.6655880615234374,2.7437551025390623,12.057199560546874,12.383346105685789
0.3382243223078836,-0.737414111328125,2.7533319091796873,11.563994018554688,11.910103854915015
0.3407112658542651,-0.7613561279296874,2.7533319091796873,10.826579907226561,11.197112674399818
0.3431982094006466,-0.7278373046875,2.8203695556640622,10.089165795898436,10.50121412169747
0.34568515294702806,-0.7422025146484375,2.786850732421875,9.289502441406249,9.726883220561634
0.3481720964934096,-0.6512228515624999,2.7820623291015623,8.499415893554687,8.966829569976962
0.3506590400397911,-0.6512228515624999,2.6862942626953124,7.785943798828124,8.262032976616414
0.35314598358617255,-0.5698199951171875,2.6575638427734374,7.1778165771484375,7.675180207684962
0.35563292713255407,-0.469263525390625,2.5474305664062498,6.775590698242187,7.253843123271205
0.3581198706789356,-0.38786066894531246,2.461239306640625,6.5409589355468745,6.999448451097988
0.36060681422531704,-0.316034619140625,2.403778466796875,6.636727001953124,7.0657040764799515
0.36309375777169856,-0.26336218261718747,2.35589443359375,6.885723974609375,7.282361764975785
0.36558070131808007,-0.2346317626953125,2.308010400390625,7.335833886718749,7.693921164523842
0.36806764486446153,-0.15322890625,2.2840683837890623,8.034940771484374,8.354682560145374
0.37055458841084304,-0.1292868896484375,2.221819140625,8.700528833007812,8.980667980027036
0.37304153195722456,-0.19153613281249998,2.27927998046875,9.557653027343749,9.827539606159393
0.3755284755036061,-0.19632453613281248,2.3032219970703123,10.304643945312499,10.56073206415833
0.37801541904998753,-0.2920926025390625,2.3223756103515623,10.97502041015625,11.221845639972067
0.38050236259636905,-0.36391865234375,2.4133552734375,11.631031665039062,11.88434340022593
0.38298930614275056,-0.44532150878906246,2.47081611328125,12.038045947265624,12.297064435885451
0.385476249689132,-0.5027823486328125,2.5617957763671875,12.20085166015625,12.477033658808772
0.38796319323551354,-0.5793968017578125,2.6431986328124997,12.215216870117187,12.5113437667736
0.39045013678189505,-0.6512228515624999,2.6575638427734374,11.961431494140625,12.270394458607806
0.3929370803282765,-0.6512228515624999,2.77727392578125,11.583147631835937,11.929235127288257
0.395424023874658,-0.70868369140625,2.786850732421875,10.989385620117186,11.359373481266646
0.39791096742103954,-0.718260498046875,2.85388837890625,10.266336718749999,10.679805552774132
0.400397910967421,-0.699106884765625,2.7964275390625,9.476250170898437,9.904952030121423
0.4028848545138025,-0.6751648681640625,2.8203695556640622,8.719682446289061,9.189297796558847
0.40537179806018403,-0.6272808349609375,2.7341782958984373,8.030152368164062,8.506030757974148
0.4078587416065655,-0.5315127685546874,2.6527754394531247,7.407659936523437,7.886263316075415
0.410345685152947,-0.45968671875,2.6001030029296874,6.986280444335937,7.468598392747454
0.4128326286993285,-0.3591302490234375,2.5330653564453125,6.789955908203124,7.255955889552359
0.41531957224571,-0.33039982910156246,2.43250888671875,6.713341455078124,7.148091844926624
0.4178065157920915,-0.24899697265624998,2.379836450195312,6.928819604492187,7.330358936209431
0.420293459338473,-0.21068974609375,2.327164013671875,7.326257080078125,7.689871606147484
0.42278040288485447,-0.181959326171875,2.2840683837890623,7.900865478515625,8.226405830483056
0.425267346431236,-0.16759411621093748,2.2266075439453124,8.552088330078124,8.83878293363974
0.4277542899776175,-0.1771709228515625,2.29843359375,9.318232861328125,9.599148409037019
0.43024123352399896,-0.1867477294921875,2.2744915771484373,10.05564697265625,10.31136376468605
0.43272817707038047,-0.258573779296875,2.3032219970703123,10.754753857421875,11.001655443652973
0.435215120616762,-0.3399766357421875,2.39420166015625,11.401188305664062,11.654822198710562
0.43770206416314344,-0.39743747558593745,2.4660277099609376,11.789048974609374,12.05076449604064
0.44018900770952496,-0.49799394531249996,2.5474305664062498,12.090718383789062,12.366198748860684
0.4426759512559065,-0.5602431884765625,2.6384102294921874,12.167332836914062,12.46270714305566
0.445162894802288,-0.6177040283203125,2.7341782958984373,11.961431494140625,12.285484630627497
0.44764983834866945,-0.6847416748046875,2.70065947265625,11.640608471679688,11.96938587979363
0.45013678189505096,-0.7134720947265625,2.7629087158203123,11.094730493164063,11.455817374498157
0.4526237254414325,-0.7517793212890624,2.829946362304687,10.472238061523436,10.873892521938016
0.45511066898781394,-0.7613561279296874,2.7916391357421872,9.706093530273437,10.128235968625502
0.45759761253419545,-0.679953271484375,2.7964275390625,8.959102612304687,9.409987409685206
0.46008455608057697,-0.6081272216796875,2.7198130859375,8.245630517578125,8.703885601994113
0.4625714996269584,-0.55545478515625,2.70065947265625,7.613561279296874,8.097432121309172
0.46505844317333994,-0.488417138671875,2.6288334228515624,7.182604980468749,7.664145795318899
0.46754538671972146,-0.44532150878906246,2.5378537597656248,6.83783994140625,7.307192895800501
0.4700323302661029,-0.3495534423828125,2.446874096679687,6.775590698242187,7.212351195289214
0.47251927381248443,-0.277727392578125,2.384624853515625,6.947973217773437,7.351047546539855
0.47500621735886595,-0.258573779296875,2.3319524169921872,7.235277416992187,7.606188386786953
0.4774931609052474,-0.15322890625,2.2553379638671873,7.728482958984374,8.052296397691967
0.4799801044516289,-0.181959326171875,2.2361843505859373,8.365340600585936,8.660978755891152
0.48246704799801043,-0.16280571289062498,2.27927998046875,9.112331518554686,9.394477560437334
0.4849539915443919,-0.2154781494140625,2.27927998046875,9.787496386718749,10.051698044722249
0.4874409350907734,-0.26815058593749996,2.3367408203125,10.544064111328124,10.80321944523257
0.4899278786371549,-0.277727392578125,2.398990063476562,11.2240173828125,11.480890733689815
0.4924148221835364,-0.39264907226562495,2.446874096679687,11.664550488281249,11.9248943069788
0.4949017657299179,-0.4644751220703125,2.5234885498046875,11.975796704101562,12.247589081039068
0.4973887092762994,-0.5363011718749999,2.6384102294921874,12.066776367187499,12.363491391259926
0.49987565282268087,-0.6368576416015624,2.6815058593749996,12.018892333984374,12.330848886651605
0.5023625963690624,-0.679953271484375,2.7150246826171873,11.693280908203125,12.023581574421598
0.5048495399154439,-0.7278373046875,2.767697119140625,11.238382592773437,11.597031421314124
0.5073364834618254,-0.70868369140625,2.8012159423828122,10.721235034179687,11.103779716314923
0.5098234270082069,-0.689530078125,2.829946362304687,9.993397729492187,10.409228901411488
0.5123103705545884,-0.6847416748046875,2.825157958984375,9.217676391601563,9.665192533763406
0.5147973141009698,-0.6416460449218749,2.77727392578125,8.480262280273436,8.946496993126232
0.5172842576473514,-0.5746083984375,2.6719290527343746,7.8912886718749995,8.351156601169901
0.5197712011937329,-0.488417138671875,2.6144682128906247,7.307103466796875,7.77610162048046
0.5222581447401143,-0.4070142822265625,2.499546533203125,7.034164477539062,7.476152980955951
0.5247450882864959,-0.36391865234375,2.4851813232421875,6.83783994140625,7.2845465239235105
0.5272320318328774,-0.296881005859375,2.437297290039062,6.890512377929687,7.314896939948919
0.5297189753792588,-0.2346317626953125,2.379836450195312,7.144297753906249,7.53390098091378
0.5322059189256404,-0.1867477294921875,2.29843359375,7.632714892578124,7.973456485786633
0.5346928624720219,-0.201112939453125,2.3032219970703123,8.173804467773436,8.494489829271505
0.5371798060184033,-0.16280571289062498,2.24097275390625,8.834604125976561,9.115848542325725
0.5396667495647849,-0.2154781494140625,2.24097275390625,9.5384994140625,9.80057961493583
0.5421536931111663,-0.22505495605468748,2.346317626953125,10.280701928710936,10.547449373511895
0.5446406366575478,-0.33039982910156246,2.4133552734375,10.941501586914061,11.20936682865459
0.5471275802039294,-0.36391865234375,2.43250888671875,11.4538607421875,11.714967442161901
0.5496145237503108,-0.45010991210937495,2.5330653564453125,11.8369330078125,12.113298562507389
0.5521014672966923,-0.5267243652343749,2.6240450195312497,12.014103930664062,12.308604473223436
0.5545884108430739,-0.584185205078125,2.6575638427734374,11.994950317382811,12.299705323654338
0.5570753543894553,-0.6560112548828124,2.77727392578125,11.793837377929687,12.134174933731947
0.5595622979358368,-0.6464344482421874,2.748543505859375,11.372457885742186,11.717728758699597
0.5620492414822184,-0.689530078125,2.7820623291015623,10.807426293945312,11.181045820078978
0.5645361850285998,-0.7038952880859375,2.829946362304687,10.156203442382813,10.566576236093676
0.5670231285749813,-0.6703764648437499,2.8203695556640622,9.3852705078125,9.822789397108552
0.5695100721213628,-0.6272808349609375,2.7533319091796873,8.719682446289061,9.165543072406454
0.5719970156677443,-0.6081272216796875,2.710236279296875,8.054094384765625,8.519603028667357
0.5744839592141258,-0.5410895751953124,2.6719290527343746,7.493851196289062,7.974320569387342
0.5769709027605073,-0.47884033203125,2.5809493896484375,7.086836914062499,7.557370261011784
0.5794578463068888,-0.3447650390625,2.5139117431640625,6.9527616210937495,7.401318081553591
0.5819447898532703,-0.32082302246093747,2.408566870117187,6.904877587890625,7.319935538194399
0.5844317333996518,-0.24899697265624998,2.365471240234375,7.038952880859375,7.429960386147858
0.5869186769460333,-0.22026655273437498,2.3127988037109373,7.445967163085937,7.799998888105963
0.5894056204924147,-0.1580173095703125,2.3032219970703123,8.039729174804688,8.364630669797565
0.5918925640387963,-0.16759411621093748,2.2553379638671873,8.623914379882812,8.915522214127373
0.5943795075851778,-0.21068974609375,2.288856787109375,9.380482104492186,9.657986336380056
0.5968664511315592,-0.19632453613281248,2.3319524169921872,10.103531005859374,10.371011724270934
0.5993533946779408,-0.3016694091796875,2.308010400390625,10.754753857421875,11.003756039392949
0.6018403382243223,-0.37828386230468747,2.427720483398437,11.343727465820312,11.606768639237993
0.6043272817707037,-0.4070142822265625,2.4851813232421875,11.731588134765625,11.99883106802916
0.6068142253170853,-0.49799394531249996,2.6048914062499997,12.004527124023436,12.293987501186807
0.6093011688634667,-0.5506663818359374,2.6384102294921874,12.057199560546874,12.354776535657171
0.6117881124098483,-0.6560112548828124,2.6671406494140624,11.85608662109375,12.170077237929428
0.6142750559562298,-0.6703764648437499,2.767697119140625,11.501744775390625,11.849037295330843
0.6167619995026112,-0.7326257080078125,2.7437551025390623,10.998962426757812,11.359670195739538
0.6192489430489928,-0.7326257080078125,2.7629087158203123,10.342951171874999,10.730659063812446
0.6217358865953743,-0.6847416748046875,2.786850732421875,9.720458740234374,10.13522206400104
0.6242228301417557,-0.63206923828125,2.7820623291015623,8.954314208984375,9.397825561171421
0.6267097736881373,-0.6081272216796875,2.7341782958984373,8.279149340820313,8.740129488692679
0.6291967172345188,-0.565031591796875,2.6384102294921874,7.690175732421874,8.149801962891358
0.6316836607809002,-0.4740519287109375,2.6288334228515624,7.259219433593749,7.735099041465544
0.6341706043272818,-0.430956298828125,2.5378537597656248,6.957550024414062,7.418485517926167
0.6366575478736632,-0.32561142578124996,2.446874096679687,6.924031201171875,7.350879112079246
0.6391444914200447,-0.239420166015625,2.389413256835937,7.019799267578125,7.419177817314305
0.6416314349664263,-0.22026655273437498,2.3367408203125,7.311891870117187,7.679364409627534
0.6441183785128077,-0.229843359375,2.2840683837890623,7.79552060546875,8.126496038389572
0.6466053220591892,-0.16759411621093748,2.2744915771484373,8.48505068359375,8.786209923821675
0.6490922656055708,-0.1867477294921875,2.308010400390625,9.112331518554686,9.401934504495708
0.6515792091519522,-0.19153613281249998,2.308010400390625,9.849745629882811,10.118353970477589
0.6540661526983337,-0.26815058593749996,2.3511060302734372,10.563217724609375,10.825025311740772
0.6565530962447153,-0.316034619140625,2.408566870117187,11.171344946289063,11.432410951207958
0.6590400397910967,-0.3399766357421875,2.528276953125,11.631031665039062,11.907504610861796
0.6615269833374782,-0.45489831542968745,2.5522189697265625,11.937489477539062,12.215744315152012
0.6640139268838597,-0.5315127685546874,2.5857377929687497,11.97100830078125,12.258612706766502
0.6665008704302412,-0.5889736083984375,2.7198130859375,11.927912670898436,12.248239621202968
0.6689878139766227,-0.6847416748046875,2.7437551025390623,11.645396875,11.983836263909117
0.6714747575230042,-0.7134720947265625,2.7724855224609373,11.209652172851563,11.569443384991551
0.6739617010693857,-0.6847416748046875,2.806004345703125,10.606313354492187,10.992561781632089
0.6764486446157671,-0.699106884765625,2.825157958984375,9.9215716796875,10.33962535707733
0.6789355881621487,-0.6607996582031249,2.7724855224609373,9.145850341796875,9.579661300645387
0.6814225317085302,-0.6368576416015624,2.73896669921875,8.48505068359375,8.938881995990902
0.6839094752549116,-0.5458779785156249,2.729389892578125,7.848193041992187,8.327165542818907
0.6863964188012932,-0.51714755859375,2.6336218261718747,7.359775903320312,7.833881979436674
0.6888833623476747,-0.4836287353515625,2.5330653564453125,7.058106494140625,7.514464993351904
0.6913703058940561,-0.3399766357421875,2.4756045166015626,6.9144543945312495,7.352134479831088
0.6938572494404377,-0.27293898925781246,2.442085693359375,6.986280444335937,7.405835042213562
0.6963441929868192,-0.258573779296875,2.3319524169921872,7.196970190429687,7.569758410701698
0.6988311365332006,-0.2154781494140625,2.2840683837890623,7.6470801025390625,7.983810700996645
0.7013180800795822,-0.1388636962890625,2.27927998046875,8.212111694335936,8.523683407762265
0.7038050236259636,-0.16759411621093748,2.2744915771484373,8.892064965820312,9.179881212667008
0.7062919671723451,-0.19632453613281248,2.288856787109375,9.572018237304688,9.843827601633318
0.7087789107187267,-0.229843359375,2.3367408203125,10.352527978515624,10.615461420829163
0.7112658542651081,-0.28730419921875,2.403778466796875,10.912771166992187,11.178070905279723
0.7137527978114896,-0.3591302490234375,2.39420166015625,11.477802758789062,11.730350902463421
0.7162397413578712,-0.44532150878906246,2.518700146484375,11.860875024414062,12.133528671365962
0.7187266849042526,-0.507570751953125,2.5665841796874997,12.014103930664062,12.295677113378428
0.7212136284506341,-0.5985504150390625,2.6671406494140624,12.014103930664062,12.321144228516197
0.7237005719970157,-0.6272808349609375,2.73896669921875,11.784260571289062,12.114628225305824
0.7261875155433971,-0.6943184814453125,2.7437551025390623,11.334150659179686,11.682176226258914
0.7286744590897786,-0.718260498046875,2.7820623291015623,10.797849487304687,11.17359935278452
0.7311614026361601,-0.6943184814453125,2.8203695556640622,10.165780249023436,10.572589590806418
0.7336483461825416,-0.6847416748046875,2.8107927490234372,9.471461767578125,9.903434507981117
0.7361352897289231,-0.6751648681640625,2.7054478759765623,8.729259252929687,9.163801771845987
0.7386222332753046,-0.612915625,2.7054478759765623,8.12113203125,8.581835423846695
0.7411091768216861,-0.47884033203125,2.6862942626953124,7.56567724609375,8.04269464305529
0.7435961203680675,-0.43574470214843747,2.5617957763671875,7.129932543945312,7.5887159076139925
0.7460830639144491,-0.3687070556640625,2.528276953125,6.928819604492187,7.384894742391036
0.7485700074608306,-0.2825157958984375,2.4660277099609376,6.861781958007812,7.296928085192347
0.7510569510072121,-0.2442085693359375,2.360682836914062,7.077260107421875,7.464587859349156
0.7535438945535936,-0.16759411621093748,2.3223756103515623,7.4699091796875,7.824388756709618
0.7560308380999751,-0.22026655273437498,2.2649147705078123,7.972691528320312,8.291089583261563
0.7585177816463566,-0.1292868896484375,2.3415292236328122,8.647856396484375,8.960183840701996
0.7610047251927381,-0.1580173095703125,2.29843359375,9.34696328125,9.626707071269912
0.7634916687391196,-0.229843359375,2.288856787109375,10.041281762695311,10.301409262794236
0.7659786122855011,-0.277727392578125,2.360682836914062,10.735600244140624,10.995593142849598
0.7684655558318826,-0.3112462158203125,2.4133552734375,11.319785449218749,11.578372100560406
0.770952499378264,-0.37828386230468747,2.5043349365234375,11.736376538085937,12.006553477101829
0.7734394429246456,-0.44053310546874996,2.6048914062499997,11.966219897460936,12.254384818902949
0.7759263864710271,-0.5698199951171875,2.6479870361328124,11.999738720703125,12.301636457622402
0.7784133300174085,-0.603338818359375,2.7198130859375,11.89439384765625,12.216300829438469
0.7809002735637901,-0.6751648681640625,2.73896669921875,11.511321582031249,11.851932785143976
0.7833872171101716,-0.70868369140625,2.8012159423828122,10.998962426757812,11.372168561692835
0.785874160656553,-0.7565677246093749,2.748543505859375,10.40041201171875,10.784037098370257
0.7883611042029346,-0.689530078125,2.7629087158203123,9.696516723632811,10.10601567742133
0.790848047749316,-0.6655880615234374,2.7724855224609373,9.011775048828124,9.45207770654575
0.7933349912956975,-0.6177040283203125,1.5131354492187499,25.11517541503906,25.168296988125125
0.7958219348420791,-1.01514150390625,1.838746875,23.056161987304687,23.151632943015247
0.7983088783884605,-1.35990654296875,2.1930887207031247,20.087351928710937,20.25242433513508
0.800795821934842,-1.6136919189453125,2.6144682128906247,16.448165405273436,16.732650442913066
0.8032827654812236,-1.7477672119140624,2.9640216552734375,12.459425439453124,12.925842211680576
0.805769709027605,-1.7764976318359373,3.19865341796875,8.456320263671875,9.213939435767388
0.8082566525739865,-1.675941162109375,3.5051112304687497,4.721365673828124,6.114399180852782
0.8107435961203681,-1.4987702392578124,3.6487633300781246,1.5753846923828123,4.247543171999763
0.8132305396667495,-1.2785036865234374,3.6631285400390623,-0.737414111328125,3.949286258159641
0.815717483213131,-0.9911994873046874,3.5960908935546874,-2.1068974609374997,4.284082521292618
0.8182044267595125,-0.6943184814453125,3.4668040039062498,-2.499546533203125,4.329958547933766
0.820691370305894,-0.3399766357421875,3.299209887695312,-1.89620771484375,3.8204677323267693
0.8231783138522755,-0.023942016601562498,3.1220389648437497,-0.36391865234375,3.1432685700851706
0.825665257398657,0.2346317626953125,2.806004345703125,1.7908628417968748,3.337049920258777
0.8281522009450385,0.3591302490234375,2.5665841796874997,4.4819455078125,5.177273840756971
0.83063914449142,0.47884033203125,2.3223756103515623,7.4411787597656245,7.809856456678488
0.8331260880378015,0.5027823486328125,2.0973206542968748,10.424354028320312,10.645125688539094
0.835613031584183,0.45010991210937495,1.9393033447265624,13.096283081054686,13.246740238072382
0.8380999751305644,0.2442085693359375,1.8195932617187498,15.289371801757811,15.39920282208843
0.840586918676946,0.105344873046875,1.8195932617187498,17.022773803710937,17.120071412020362
0.8430738622233275,-0.086191259765625,1.8148048583984373,17.946935644531248,18.03866526759319
0.8455608057697089,-0.3399766357421875,1.89620771484375,18.14326018066406,18.245248088035243
0.8480477493160905,-0.5458779785156249,2.020706201171875,17.650054638671875,17.773735259280347
0.850534692862472,-0.7661445312499999,2.1643583007812497,16.47689582519531,16.636090896940413
0.8530216364088534,-0.9145850341796874,2.3415292236328122,14.872780712890624,15.083727358435091
0.855508579955235,-1.0199299072265624,2.4899697265625,12.828132495117186,13.107295280382386
0.8579955235016165,-1.1109095703125,2.7150246826171873,10.620678564453124,11.018361596447383
0.8604824670479979,-1.0582371337890624,2.834734765625,8.456320263671875,8.98136623373976
0.8629694105943795,-1.0678139404296874,2.9448680419921875,6.5026517089843745,7.21782194602224
0.8654563541407609,-0.967257470703125,2.9975404785156248,4.912901806640625,5.835875263973983
0.8679432976871424,-0.7996633544921875,3.0741549316406247,3.7924154296875,4.946949041134333
0.870430241233524,-0.6464344482421874,3.0166940917968748,3.1316157714843746,4.396059380805272
0.8729171847799054,-0.5506663818359374,2.9927520751953125,3.0550013183593747,4.311940572740729
0.8754041283262869,-0.33039982910156246,2.91134921875,3.5817256835937497,4.627513067847749
0.8778910718726685,-0.19153613281249998,2.786850732421875,4.486733911132812,5.285262934261857
0.8803780154190499,-0.1005564697265625,2.6910826660156246,5.827486840820312,6.419629303851394
0.8828649589654315,-0.023942016601562498,2.5665841796874997,7.364564306640625,7.799021412858552
0.885351902511813,0.0143652099609375,2.5139117431640625,9.045293872070312,9.388146773660292
0.8878388460581944,-0.009576806640625,2.408566870117187,10.639832177734375,10.909047385239617
0.890325789604576,-0.05746083984375,2.29843359375,11.999738720703125,12.218012444671022
0.8928127331509574,-0.13407529296874998,2.3032219970703123,13.172897534179686,13.373407837868793
0.8952996766973389,-0.19153613281249998,2.288856787109375,13.934253662109374,14.122286521738536
0.8977866202437205,-0.33039982910156246,2.3223756103515623,14.279018701171875,14.470416980551814
0.9002735637901019,-0.43574470214843747,2.308010400390625,14.173673828124999,14.366969591386948
0.9027605073364834,-0.5410895751953124,2.3223756103515623,13.646949462890625,13.85371560436519
0.905247450882865,-0.6081272216796875,2.398990063476562,12.866439721679686,13.102299155263704
0.9077343944292464,-0.718260498046875,2.47081611328125,11.77947216796875,12.057229987217431
0.9102213379756279,-0.7757213378906249,2.50912333984375,10.544064111328124,10.866219743425273
0.9127082815220094,-0.7613561279296874,2.5617957763671875,9.332598071289063,9.707721025739108
0.9151952250683909,-0.7230489013671875,2.5713725830078125,8.130708837890625,8.558223114698826
0.9176821686147724,-0.7422025146484375,2.6623522460937497,7.110778930664062,7.629034084063777
0.9201691121611539,-0.59376201171875,2.7437551025390623,6.349422802734375,6.942327802484746
0.9226560557075354,-0.55545478515625,2.6767174560546874,5.923254907226562,6.523671899619447
0.9251429992539169,-0.45010991210937495,2.70065947265625,5.7317187744140625,6.352067429522272
0.9276299428002984,-0.4165910888671875,2.6575638427734374,5.95677373046875,6.5360039006829584
0.9301168863466799,-0.32561142578124996,2.6240450195312497,6.459556079101562,6.979792246491582
0.9326038298930613,-0.26815058593749996,2.6288334228515624,7.196970190429687,7.666749625739295
0.9350907734394429,-0.2154781494140625,2.5617957763671875,8.097190014648437,8.495511436400403
0.9375777169858244,-0.26815058593749996,2.5378537597656248,9.088389501953124,9.439885072494627
0.9400646605322058,-0.239420166015625,2.528276953125,10.0748005859375,10.389952512596222
0.9425516040785874,-0.26815058593749996,2.4899697265625,10.907982763671875,11.191780106332462
0.9450385476249689,-0.258573779296875,2.5234885498046875,11.722011328125,11.993348341352638
0.9475254911713503,-0.36391865234375,2.480392919921875,12.196063256835936,12.451053962916786
0.9500124347177319,-0.43574470214843747,2.5426421630859375,12.478579052734375,12.74244237932014
0.9524993782641133,-0.507570751953125,2.4947581298828125,12.449848632812499,12.707485084579005
0.9549863218104948,-0.5698199951171875,2.5378537597656248,12.138602416992187,12.414147782695371
0.9574732653568764,-0.59376201171875,2.499546533203125,11.631031665039062,11.911388827141417
0.9599602089032578,-0.603338818359375,2.4899697265625,10.955866796875,11.25144365136337
0.9624471524496393,-0.6368576416015624,2.5761609863281247,10.127473022460936,10.469379298880114
0.9649340959960209,-0.5985504150390625,2.6288334228515624,9.294290844726563,9.677441297719811
0.9674210395424023,-0.5698199951171875,2.5665841796874997,8.489839086914062,8.887599051484674
0.9699079830887838,-0.5985504150390625,2.5330653564453125,7.752424975585937,8.17769990287339
0.9723949266351654,-0.5219359619140624,2.528276953125,7.230489013671875,7.6775369016939194
0.9748818701815468,-0.469263525390625,2.528276953125,6.89530078125,7.3591823915345325
0.9773688137279283,-0.45010991210937495,2.461239306640625,6.7085530517578125,7.159956836865778
0.9798557572743098,-0.373495458984375,2.5139117431640625,6.976703637695312,7.425203347958298
0.9823427008206913,-0.3064578125,2.5234885498046875,7.311891870117187,7.741167455372831
0.9848296443670728,-0.2920926025390625,2.5139117431640625,7.867346655273437,8.26439433564967
0.9873165879134543,-0.24899697265624998,2.5139117431640625,8.556876733398436,8.921989193861739
0.9898035314598358,-0.277727392578125,2.499546533203125,9.294290844726563,9.628536113169229
0.9922904750062173,-0.3064578125,2.528276953125,10.070012182617187,10.38707110308791
0.9947774185525988,-0.3399766357421875,2.5474305664062498,10.735600244140624,11.038935601112259
0.9972643620989803,-0.36391865234375,2.5570073730468748,11.281478222656249,11.57335190770621
0.9997513056453617,-0.411802685546875,2.6144682128906247,11.712434521484374,12.007753657870317
1.0022382491917432,-0.469263525390625,2.6096798095703124,11.89439384765625,12.186354744873622
1.0047251927381249,-0.5123591552734374,2.6958710693359373,11.880028637695311,12.19283860136497
1.0072121362845063,-0.5793968017578125,2.6575638427734374,11.597512841796874,11.912205939621229
1.0096990798308878,-0.612915625,2.6144682128906247,11.1474029296875,11.466285434978063
1.0121860233772693,-0.603338818359375,2.6288334228515624,10.587159741210938,10.925325362695538
1.0146729669236507,-0.6272808349609375,2.6671406494140624,9.935936889648437,10.306792050135813
1.0171599104700322,-0.6416460449218749,2.6096798095703124,9.275137231445312,9.656619958224814
1.0196468540164139,-0.6177040283203125,2.5234885498046875,8.52335791015625,8.910509681955439
1.0221337975627953,-0.488417138671875,2.5426421630859375,7.924807495117187,8.337035102811807
1.0246207411091768,-0.469263525390625,2.5522189697265625,7.4794859863281244,7.916864312679166
1.0271076846555582,-0.373495458984375,2.5139117431640625,7.168239770507812,7.605452814776383
1.0295946282019397,-0.36391865234375,2.437297290039062,7.086836914062499,7.503073524368153
1.0320815717483212,-0.316034619140625,2.427720483398437,7.144297753906249,7.552131819723328
1.0345685152947028,-0.2537853759765625,2.43250888671875,7.455543969726562,7.846441383554162
1.0370554588410843,-0.22505495605468748,2.408566870117187,7.9104422851562495,8.272057860524122
1.0395424023874658,-0.2346317626953125,2.461239306640625,8.566453540039062,8.916102132785722
1.0420293459338472,-0.229843359375,2.43250888671875,9.203311181640624,9.52212498132249
1.0445162894802287,-0.2537853759765625,2.4564509033203126,9.907206469726562,10.210352495936396
1.0470032330266101,-0.3399766357421875,2.4947581298828125,10.572794531249999,10.868458328553173
1.0494901765729918,-0.373495458984375,2.5522189697265625,11.123460913085937,11.418612140372607
1.0519771201193733,-0.45489831542968745,2.5474305664062498,11.535263598632811,11.821955898157666
1.0544640636657547,-0.5027823486328125,2.5953145996093747,11.765106958007811,12.058448892556873
1.0569510072121362,-0.5219359619140624,2.6288334228515624,11.841721411132811,12.14123339254797
1.0594379507585177,-0.6272808349609375,2.6719290527343746,11.664550488281249,11.98308909265126
1.0619248943048991,-0.6272808349609375,2.70065947265625,11.310208642578125,11.64507889075064
1.0644118378512808,-0.6655880615234374,2.729389892578125,10.826579907226561,11.185142338875803
1.0668987813976623,-0.6560112548828124,2.710236279296875,10.160991845703125,10.536673419281595
1.0693857249440437,-0.6464344482421874,2.729389892578125,9.5384994140625,9.942354738876121
1.0718726684904252,-0.612915625,2.7054478759765623,8.8489693359375,9.273584640329616
1.0743596120368066,-0.603338818359375,2.6001030029296874,8.192958081054687,8.616792644221084
1.076846555583188,-0.49320554199218747,2.5665841796874997,7.666233715820312,8.099490443457174
1.0793334991295698,-0.45489831542968745,2.5330653564453125,7.287949853515625,7.729008063442721
1.0818204426759512,-0.40222587890625,2.480392919921875,7.1203557373046875,7.550735098030406
1.0843073862223327,-0.32082302246093747,2.442085693359375,7.105990527343749,7.520758693120702
1.0867943297687142,-0.2537853759765625,2.384624853515625,7.340622290039062,7.72240754648978
1.0892812733150956,-0.239420166015625,2.346317626953125,7.666233715820312,8.02082712742433
1.0917682168614773,-0.2154781494140625,2.346317626953125,8.188169677734374,8.52043190870008
1.0942551604078588,-0.2154781494140625,2.327164013671875,8.796296899414061,9.101481325698897
1.0967421039542402,-0.258573779296875,2.3415292236328122,9.428366137695312,9.718215244112777
1.0992290475006217,-0.2920926025390625,2.384624853515625,10.160991845703125,10.44114500756061
1.1017159910470031,-0.32561142578124996,2.43250888671875,10.812214697265624,11.087249836832026
1.1042029345933846,-0.411802685546875,2.4851813232421875,11.281478222656249,11.559301819291795
1.1066898781397663,-0.45489831542968745,2.5522189697265625,11.635820068359374,11.921118353998825
1.1091768216861477,-0.5315127685546874,2.5857377929687497,11.884817041015625,12.174457764333447
1.1116637652325292,-0.5889736083984375,2.6431986328124997,11.884817041015625,12.189432514366988
1.1141507087789106,-0.603338818359375,2.7150246826171873,11.626243261718749,11.954284133214353
1.116637652325292,-0.6416460449218749,2.7533319091796873,11.233594189453123,11.583876063839163
1.1191245958716736,-0.6607996582031249,2.7533319091796873,10.726023437499999,11.093469771545227
1.1216115394180552,-0.6655880615234374,2.7724855224609373,10.089165795898436,10.484319238607004
1.1240984829644367,-0.6560112548828124,2.7198130859375,9.399635717773437,9.807185407435302
1.1265854265108182,-0.6512228515624999,2.6527754394531247,8.681375219726561,9.100966126749693
1.1290723700571996,-0.584185205078125,2.6527754394531247,8.078036401367187,8.52250913685701
1.131559313603581,-0.55545478515625,2.6192566162109374,7.584830859375,8.043549863415098
1.1340462571499625,-0.4261678955078125,2.5761609863281247,7.220912207031249,7.678528348863053
1.1365332006963442,-0.39264907226562495,2.442085693359375,7.043741284179687,7.465403345172912
1.1390201442427257,-0.33039982910156246,2.43250888671875,7.029376074218749,7.445696174558497
1.1415070877891071,-0.277727392578125,2.35589443359375,7.254431030273437,7.632440020060452
1.1439940313354886,-0.2154781494140625,2.3367408203125,7.637503295898437,7.989883922126099
1.14648097488187,-0.19153613281249998,2.2744915771484373,8.14028564453125,8.454244401438459
1.1489679184282515,-0.2059013427734375,2.2936451904296873,8.810662109374999,9.10664430117447
1.1514548619746332,-0.239420166015625,2.3032219970703123,9.495403784179686,9.773681323242405
1.1539418055210147,-0.26336218261718747,2.379836450195312,10.20887587890625,10.485901386138675
1.1564287490673961,-0.32082302246093747,2.418143676757812,10.802637890625,11.074625576025209
1.1589156926137776,-0.39264907226562495,2.50912333984375,11.415553515625,11.694645582342288
1.161402636160159,-0.45968671875,2.5857377929687497,11.688492504882811,11.979908549320553
1.1638895797065405,-0.5363011718749999,2.6240450195312497,11.9135474609375,12.210890398144256
1.1663765232529222,-0.5602431884765625,2.6815058593749996,11.903970654296874,12.215107999623172
1.1688634667993036,-0.6416460449218749,2.729389892578125,11.688492504882811,12.020072207327756
1.171350410345685,-0.6655880615234374,2.7054478759765623,11.291055029296874,11.629719659212721
1.1738373538920666,-0.718260498046875,2.7437551025390623,10.764330664062498,11.131707184930795
1.176324297438448,-0.70868369140625,2.7820623291015623,10.17056865234375,10.567997449351914
1.1788112409848295,-0.6943184814453125,2.7629087158203123,9.409212524414063,9.831023499881526
1.1812981845312112,-0.6272808349609375,2.7246014892578123,8.743624462890624,9.179755076756381
1.1837851280775926,-0.622492431640625,2.6767174560546874,8.06367119140625,8.519102432188078
1.186272071623974,-0.5746083984375,2.6336218261718747,7.532158422851562,7.999971827561489
1.1887590151703555,-0.47884033203125,2.5570073730468748,7.168239770507812,7.625695783132564
1.191245958716737,-0.4213794921875,2.4899697265625,6.947973217773437,7.39268839804106
1.1937329022631185,-0.33518823242187495,2.418143676757812,6.967126831054687,7.382453946527538
1.1962198458095001,-0.26336218261718747,2.398990063476562,7.192181787109375,7.586302908711197
1.1987067893558816,-0.229843359375,2.3511060302734372,7.541735229492187,7.903056232066205
1.201193732902263,-0.2059013427734375,2.2840683837890623,8.06367119140625,8.383445403167828
1.2036806764486445,-0.201112939453125,2.269703173828125,8.623914379882812,8.919859760290544
1.206167619995026,-0.181959326171875,2.269703173828125,9.433154541015625,9.704074726028757
1.2086545635414074,-0.2346317626953125,2.3319524169921872,10.127473022460936,10.395131743265944
1.2111415070877891,-0.26815058593749996,2.427720483398437,10.749965454101561,11.023950686873919
1.2136284506341706,-0.3591302490234375,2.427720483398437,11.310208642578125,11.573401436912352
1.216115394180552,-0.43574470214843747,2.5043349365234375,11.669338891601562,11.94299112813817
1.2186023377269335,-0.488417138671875,2.6288334228515624,11.947066284179687,12.24261856242499
1.221089281273315,-0.565031591796875,2.6671406494140624,12.014103930664062,12.319561404542089
1.2235762248196966,-0.5793968017578125,2.7437551025390623,11.77947216796875,12.108668682912533
1.226063168366078,-0.689530078125,2.7581203125,11.449072338867186,11.79677654308489
1.2285501119124596,-0.689530078125,2.8107927490234372,10.931924780273437,11.30853602409075
1.231037055458841,-0.74699091796875,2.748543505859375,10.232817895507813,10.621819473035421
1.2335239990052225,-0.7134720947265625,2.806004345703125,9.572018237304688,10.000311792806857
1.236010942551604,-0.6703764648437499,2.748543505859375,8.872911352539061,9.313025924920144
1.2384978860979856,-0.622492431640625,2.6958710693359373,8.221688500976562,8.674755296665294
1.240984829644367,-0.5506663818359374,2.6479870361328124,7.64229169921875,8.106768235465939
1.2434717731907485,-0.4644751220703125,2.6240450195312497,7.225700610351562,7.701434847739993
1.24595871673713,-0.39743747558593745,2.5043349365234375,6.947973217773437,7.3962140217944565
1.2484456602835114,-0.3399766357421875,2.4516625,6.943184814453125,7.371163306725018
1.250932603829893,-0.24899697265624998,2.398990063476562,7.077260107421875,7.476948805840277
1.2534195473762746,-0.22505495605468748,2.327164013671875,7.398083129882812,7.75873546890412
1.255906490922656,-0.1867477294921875,2.327164013671875,7.915230688476562,8.252359899616657
1.2583934344690375,-0.16759411621093748,2.29843359375,8.528146313476562,8.834034430356887
1.260880378015419,-0.201112939453125,2.3367408203125,9.227253198242186,9.520662038965613
1.2633673215618004,-0.239420166015625,2.308010400390625,9.931148486328125,10.198624626963365
1.2658542651081819,-0.28730419921875,2.370259643554687,10.625466967773438,10.890418851632713
1.2683412086545636,-0.3399766357421875,2.4564509033203126,11.18571015625,11.457305392321013
1.270828152200945,-0.39743747558593745,2.5139117431640625,11.688492504882811,11.962381277827587
1.2733150957473265,-0.45489831542968745,2.5953145996093747,11.903970654296874,12.192092014362732
1.275802039293708,-0.5410895751953124,2.6096798095703124,11.961431494140625,12.25475622058159
1.2782889828400894,-0.6177040283203125,2.6575638427734374,11.827356201171874,12.137980003049051
1.2807759263864709,-0.6703764648437499,2.73896669921875,11.544840405273437,11.884219922539291
1.2832628699328525,-0.7326257080078125,2.7629087158203123,11.089942089843749,11.452389294644053
1.285749813479234,-0.718260498046875,2.825157958984375,10.51533369140625,10.91190442947017
1.2882367570256155,-0.6847416748046875,2.8203695556640622,9.787496386718749,10.20874336594684
1.290723700571997,-0.6847416748046875,2.7820623291015623,9.050082275390624,9.49277257473073
1.2932106441183784,-0.5985504150390625,2.7533319091796873,8.384494213867187,8.845272320501095
1.2956975876647598,-0.565031591796875,2.6767174560546874,7.738059765625,8.207414085792237
1.2981845312111415,-0.4740519287109375,2.5665841796874997,7.292738256835937,7.745715645778328
1.300671474757523,-0.430956298828125,2.5378537597656248,6.9527616210937495,7.413994820419713
1.3031584183039044,-0.33518823242187495,2.4851813232421875,6.9144543945312495,7.355144929544108
1.305645361850286,-0.3016694091796875,2.418143676757812,6.957550024414062,7.371968910413468
1.3081323053966674,-0.2154781494140625,2.398990063476562,7.335833886718749,7.721142594918533
1.3106192489430488,-0.21068974609375,2.3319524169921872,7.771578588867187,8.116638836806997
1.3131061924894305,-0.2537853759765625,2.250549560546875,8.355763793945313,8.657261051957754
1.315593136035812,-0.21068974609375,2.2649147705078123,9.02135185546875,9.303709925988823
1.3180800795821934,-0.19632453613281248,2.346317626953125,9.739612353515625,10.020169585730217
1.3205670231285749,-0.26336218261718747,2.346317626953125,10.424354028320312,10.688391972300687
1.3230539666749563,-0.3112462158203125,2.427720483398437,11.066000073242186,11.33344866196388
1.3255409102213378,-0.4165910888671875,2.43250888671875,11.544840405273437,11.80567607562241
1.3280278537677195,-0.45968671875,2.5234885498046875,11.851298217773437,12.125698981377953
1.330514797314101,-0.5315127685546874,2.5761609863281247,12.023680737304687,12.308046543755331
1.3330017408604824,-0.6081272216796875,2.6767174560546874,11.985373510742187,12.29568270773511
1.3354886844068639,-0.6560112548828124,2.77727392578125,11.674127294921874,12.017855437780787
1.3379756279532453,-0.7134720947265625,2.7437551025390623,11.243170996093749,11.595090708574313
1.3404625714996268,-0.7038952880859375,2.825157958984375,10.635043774414061,11.026383911033827
1.3429495150460085,-0.7565677246093749,2.8107927490234372,9.935936889648437,10.353540093850025
1.34543645859239,-0.699106884765625,2.73896669921875,9.227253198242186,9.65053835805167
1.3479234021387714,-0.7038952880859375,2.710236279296875,8.532934716796875,8.980636065854352
1.3504103456851528,-0.5985504150390625,2.6623522460937497,7.881711865234375,8.340729225205683
1.3528972892315343,-0.507570751953125,2.6288334228515624,7.407659936523437,7.876662933534361
1.3553842327779158,-0.469263525390625,2.5570073730468748,7.062894897460937,7.526153020943559
1.3578711763242974,-0.3687070556640625,2.499546533203125,6.880935571289062,7.330139978252486
1.360358119870679,-0.296881005859375,2.4564509033203126,6.943184814453125,7.370895789503182
1.3628450634170604,-0.258573779296875,2.389413256835937,7.211335400390625,7.60128373159496
1.3653320069634418,-0.2059013427734375,2.29843359375,7.589619262695312,7.932686360906384
1.3678189505098233,-0.1580173095703125,2.2744915771484373,8.21690009765625,8.52735179405109
1.370305894056205,-0.201112939453125,2.250549560546875,8.801085302734375,9.086502200786628
1.3727928376025864,-0.21068974609375,2.327164013671875,9.5384994140625,9.820542428384956
1.3752797811489679,-0.239420166015625,2.35589443359375,10.299855541992187,10.568565881142064
1.3777667246953493,-0.3112462158203125,2.3511060302734372,10.941501586914061,11.19558085803919
1.3802536682417308,-0.38307226562499996,2.4756045166015626,11.410765112304686,11.682504976737604
1.3827406117881123,-0.45010991210937495,2.4660277099609376,11.875240234375,12.136936278294991
1.385227555334494,-0.5123591552734374,2.5617957763671875,12.066776367187499,12.346351744524373
1.3877144988808754,-0.565031591796875,2.6623522460937497,12.033257543945313,12.337206624715568
1.3902014424272569,-0.622492431640625,2.7533319091796873,11.793837377929687,12.126950710158276
1.3926883859736383,-0.689530078125,2.7820623291015623,11.386823095703125,11.742021237609954
1.3951753295200198,-0.7038952880859375,2.81558115234375,10.884040747070312,11.264337920442099
1.3976622730664012,-0.6751648681640625,2.849099975585937,10.218452685546874,10.629675138819948
1.400149216612783,-0.699106884765625,2.767697119140625,9.490615380859374,9.910634595576134
1.4026361601591644,-0.6607996582031249,2.8012159423828122,8.781931689453124,9.241525368810173
1.4051231037055458,-0.603338818359375,2.6910826660156246,8.068459594726562,8.526780393372645
1.4076100472519273,-0.5602431884765625,2.6240450195312497,7.536946826171874,8.0003157534752
1.4100969907983087,-0.45010991210937495,2.6240450195312497,7.168239770507812,7.6466903039809155
1.4125839343446902,-0.38786066894531246,2.4660277099609376,6.900089184570312,7.337776183547307
1.4150708778910719,-0.3064578125,2.461239306640625,6.871358764648437,7.305284839614812
1.4175578214374533,-0.27293898925781246,2.365471240234375,7.029376074218749,7.421730113190052
1.4200447649838348,-0.229843359375,2.370259643554687,7.48906279296875,7.858563498804452
1.4225317085302163,-0.19632453613281248,2.3032219970703123,7.963114721679687,8.291837610681245
1.4250186520765977,-0.17238251953125,2.2649147705078123,8.585607153320312,8.881002468294293
1.4275055956229792,-0.21068974609375,2.27927998046875,9.313444458007812,9.590607648677485
1.4299925391693609,-0.21068974609375,2.365471240234375,10.089165795898436,10.364898012745321
1.4324794827157423,-0.26336218261718747,2.29843359375,10.639832177734375,10.888442744234055
1.4349664262621238,-0.33518823242187495,2.427720483398437,11.291055029296874,11.553964755497425
1.4374533698085052,-0.45010991210937495,2.4516625,11.693280908203125,11.956005451028911
1.4399403133548867,-0.4740519287109375,2.5570073730468748,11.990161914062499,12.268944317355325
1.4424272569012682,-0.5363011718749999,2.6048914062499997,11.994950317382811,12.286248870252939
1.4449142004476498,-0.6416460449218749,2.6623522460937497,11.884817041015625,12.196257837044103
1.4474011439940313,-0.6560112548828124,2.7820623291015623,11.554417211914062,11.902721481934915
1.4498880875404128,-0.7278373046875,2.7820623291015623,11.018116040039061,11.387207691829758
1.4523750310867942,-0.7134720947265625,2.825157958984375,10.419565624999999,10.819330281345879
1.4548619746331757,-0.737414111328125,2.825157958984375,9.744400756835937,10.17244528983191
1.4573489181795571,-0.6847416748046875,2.8107927490234372,8.978256225585938,9.432842195830995
1.4598358617259388,-0.5889736083984375,2.7437551025390623,8.312668164062499,8.773570195759376
1.4623228052723203,-0.5985504150390625,2.6527754394531247,7.733271362304687,8.19749755074992
1.4648097488187017,-0.488417138671875,2.6384102294921874,7.268796240234375,7.748235839369038
1.4672966923650832,-0.4070142822265625,2.5522189697265625,6.943184814453125,7.408596200564652
1.4697836359114647,-0.33518823242187495,2.4851813232421875,6.890512377929687,7.332641965277462
1.4722705794578461,-0.2825157958984375,2.360682836914062,6.981492041015625,7.375219979783469
1.4747575230042278,-0.26815058593749996,2.2840683837890623,7.268796240234375,7.623927590199738
1.4772444665506093,-0.2154781494140625,2.288856787109375,7.771578588867187,8.104488261926873
1.4797314100969907,-0.181959326171875,2.2553379638671873,8.37012900390625,8.670566190836338
1.4822183536433722,-0.181959326171875,2.250549560546875,9.02135185546875,9.299616756674874
1.4847052971897536,-0.22505495605468748,2.29843359375,9.787496386718749,10.056268305795935
1.487192240736135,-0.24899697265624998,2.3367408203125,10.47702646484375,10.737338622710146
1.4896791842825168,-0.3447650390625,2.384624853515625,11.099518896484375,11.358020001636635
1.4921661278288982,-0.430956298828125,2.427720483398437,11.568782421875,11.828621086233847
1.4946530713752797,-0.4644751220703125,2.499546533203125,11.846509814453125,12.11623971348389
1.4971400149216612,-0.507570751953125,2.6048914062499997,12.023680737304687,12.313081896065873
1.4996269584680426,-0.612915625,2.6910826660156246,12.014103930664062,12.327054990365564
1.5021139020144243,-0.63206923828125,2.6958710693359373,11.678915698242188,12.002679043909811
1.5046008455608058,-0.6943184814453125,2.7341782958984373,11.233594189453123,11.582376592079605
1.5070877891071872,-0.6751648681640625,2.825157958984375,10.66856259765625,11.056925114719988
1.5095747326535687,-0.718260498046875,2.77727392578125,9.95987890625,10.364764176238774
1.5120616761999501,-0.6655880615234374,2.786850732421875,9.251195214843749,9.684738374142626
1.5145486197463316,-0.6416460449218749,2.767697119140625,8.528146313476562,8.988945240367586
1.5170355632927133,-0.5889736083984375,2.6862942626953124,7.896077075195312,8.361285783574473
1.5195225068390947,-0.5267243652343749,2.6144682128906247,7.407659936523437,7.873138403986143
1.5220094503854762,-0.45968671875,2.5426421630859375,6.995857250976562,7.457771766750362
1.5244963939318577,-0.38786066894531246,2.50912333984375,6.87614716796875,7.329906937241974
1.5269833374782391,-0.229843359375,2.418143676757812,6.9719152343749995,7.382943101948083
1.5294702810246206,-0.239420166015625,2.346317626953125,7.168239770507812,7.546269928245065
1.5319572245710023,-0.1771709228515625,2.3367408203125,7.60398447265625,7.956904363985792
1.5344441681173837,-0.21068974609375,2.2266075439453124,8.154650854492187,8.455796939528136
1.5369311116637652,-0.22026655273437498,2.2601263671875,8.796296899414061,9.08468643886794
1.5394180552101466,-0.19632453613281248,2.3032219970703123,9.524134204101562,9.800638103155
1.541904998756528,-0.2537853759765625,2.3127988037109373,10.251971508789062,10.512676402350117
1.5443919423029095,-0.277727392578125,2.370259643554687,10.884040747070312,11.142603208691366
1.5468788858492912,-0.3495534423828125,2.43250888671875,11.425130322265625,11.686440432133336
1.5493658293956727,-0.469263525390625,2.5043349365234375,11.784260571289062,12.056562484497473
1.5518527729420541,-0.4836287353515625,2.6144682128906247,12.038045947265624,12.32817468315369
1.5543397164884356,-0.55545478515625,2.6288334228515624,12.004527124023436,12.301543263138525
1.556826660034817,-0.6512228515624999,2.7054478759765623,11.793837377929687,12.117678800375701
1.5593136035811985,-0.6607996582031249,2.7629087158203123,11.444283935546874,11.791605300282633
1.5618005471275802,-0.74699091796875,2.729389892578125,10.831368310546875,11.194914206725949
1.5642874906739617,-0.7278373046875,2.834734765625,10.204087475585936,10.615501379725197
1.5667744342203431,-0.679953271484375,2.7916391357421872,9.485826977539062,9.911432740195414
1.5692613777667246,-0.6655880615234374,2.7437551025390623,8.777143286132812,9.220056604796847
1.571748321313106,-0.612915625,2.6767174560546874,8.078036401367187,8.532007618651683
1.5742352648594875,-0.55545478515625,2.6767174560546874,7.556100439453124,8.03542159497587
1.5767222084058692,-0.45010991210937495,2.5857377929687497,7.149086157226562,7.61564650902433
1.5792091519522506,-0.373495458984375,2.480392919921875,6.900089184570312,7.341871604032906
1.581696095498632,-0.373495458984375,2.398990063476562,6.885723974609375,7.301222283772187
1.5841830390450136,-0.2537853759765625,2.4133552734375,7.067683300781249,7.472672743605885
1.586669982591395,-0.181959326171875,2.3415292236328122,7.417236743164062,7.780184394064862
1.5891569261377765,-0.2059013427734375,2.3223756103515623,7.948749511718749,8.283624969695378
1.5916438696841582,-0.1867477294921875,2.250549560546875,8.614337573242187,8.905428673832626
1.5941308132305396,-0.181959326171875,2.2553379638671873,9.270348828125,9.542485311634495
1.596617756776921,-0.239420166015625,2.29843359375,10.041281762695311,10.303759432295134
1.5991047003233025,-0.3016694091796875,2.3367408203125,10.70686982421875,10.963048094691349
1.601591643869684,-0.33518823242187495,2.418143676757812,11.271901416015623,11.53323595202027
1.6040785874160655,-0.44532150878906246,2.4564509033203126,11.674127294921874,11.938078169649136
1.6065655309624471,-0.45968671875,2.5953145996093747,11.985373510742187,12.27176221829372
1.6090524745088286,-0.5363011718749999,2.6192566162109374,12.061987963867187,12.354743130028895
1.61153941805521,-0.603338818359375,2.6767174560546874,11.846509814453125,12.160124541024297
1.6140263616015915,-0.6368576416015624,2.7246014892578123,11.573570825195311,11.906997210747312
1.616513305147973,-0.6751648681640625,2.767697119140625,11.109095703125,11.468565833777676
1.6190002486943544,-0.718260498046875,2.77727392578125,10.433930834960936,10.821093349131942
1.6214871922407361,-0.699106884765625,2.7820623291015623,9.734823950195311,10.148665852250184
1.6239741357871176,-0.6512228515624999,2.767697119140625,9.011775048828124,9.449673437552097
1.626461079333499,-0.6607996582031249,2.6910826660156246,8.283937744140625,8.735113430998409
1.6289480228798805,-0.5363011718749999,2.6910826660156246,7.747636572265624,8.219210261222917
1.631434966426262,-0.49320554199218747,2.6144682128906247,7.297526660156249,7.767405686492661
1.6339219099726436,-0.44532150878906246,1.3263877197265623,23.60203996582031,23.64347491756258
1.636408853519025,-0.8762778076171874,1.6472107421875,21.997924853515624,22.076907933092006
1.6388957970654066,-1.1731588134765625,2.1308394775390624,19.440917480468748,19.59249986507776
1.641382740611788,-1.446097802734375,2.4851813232421875,16.314090112304687,16.565532326395747
1.6438696841581695,-1.6424223388671875,2.85388837890625,12.789825268554686,13.206886855675945
1.646356627704551,-1.66636435546875,3.208230224609375,9.2320416015625,9.914640864512169
1.6488435712509326,-1.637633935546875,3.404554760742187,5.95677373046875,7.0537926891672695
1.651330514797314,-1.5227122558593749,3.5960908935546874,3.0885201416015624,4.978903392709064
1.6538174583436955,-1.2880804931640624,3.7301661865234372,1.0342951171875,4.079590362449456
1.656304401890077,-1.0199299072265624,3.744531396484375,-0.354341845703125,3.8970925750524206
1.6587913454364585,-0.7757213378906249,3.6200329101562496,-0.7900865478515624,3.7855803541556408
1.66127828898284,-0.4261678955078125,3.4811692138671875,-0.45968671875,3.5371556440356695
1.6637652325292216,-0.1867477294921875,3.2561142578125,0.6751648681640625,3.3306159150528494
1.666252176075603,0.047884033203124995,2.9544448486328125,2.403778466796875,3.809092826603875
1.6687391196219845,0.2537853759765625,2.710236279296875,4.659116430664063,5.396031284301488
1.671226063168366,0.33518823242187495,2.422932080078125,7.067683300781249,7.478977086204233
1.6737130067147474,0.36391865234375,2.1787235107421874,9.490615380859374,9.744283104938452
1.676199950261129,0.3591302490234375,1.9536685546875,11.789048974609374,11.955227772111943
1.6786868938075106,0.32561142578124996,1.8770541015625,13.747505932617187,13.878878710765386
1.681173837353892,0.19153613281249998,1.8004396484374998,15.236699365234374,15.343900304823807
1.6836607809002735,0.033518823242187495,1.7286135986328124,16.18480322265625,16.276888026923142
1.686147724446655,-0.17238251953125,1.7286135986328124,16.472107421875,16.563458081699235
1.6886346679930364,-0.3495534423828125,1.9009961181640624,16.175226416015622,16.290301515310453
1.6911216115394179,-0.5602431884765625,1.9536685546875,15.346832641601562,15.480825733181558
1.6936085550857995,-0.7278373046875,2.1595698974609374,14.188039038085936,14.36989704313725
1.696095498632181,-0.842758984375,2.365471240234375,12.7563064453125,13.001117298941733
1.6985824421785625,-0.93852705078125,2.480392919921875,10.998962426757812,11.314166187902527
1.701069385724944,-0.9816226806640624,2.7054478759765623,9.370905297851563,9.802902498654298
1.7035563292713254,-0.928950244140625,2.868253588867187,7.848193041992187,8.407375406779039
1.7060432728177068,-0.9145850341796874,2.9640216552734375,6.5409589355468745,7.2392011958631075
1.7085302163640885,-0.8283937744140625,3.0789433349609374,5.61200869140625,6.454515462667019
1.71101715991047,-0.7757213378906249,3.1364041748046874,5.085284326171875,6.0248561327056125
1.7135041034568514,-0.679953271484375,3.0645781249999997,4.8314989501953125,5.761714817775106
1.715991047003233,-0.5123591552734374,3.0406361083984375,5.051765502929687,5.918472315072475
1.7184779905496144,-0.39264907226562495,2.9448680419921875,5.626373901367187,6.362586294635522
1.7209649340959958,-0.27293898925781246,2.85388837890625,6.488286499023437,7.093450236980804
1.7234518776423775,-0.1771709228515625,2.767697119140625,7.517793212890624,8.013036357772734
1.725938821188759,-0.1292868896484375,2.6384102294921874,8.595183959960938,8.99194700520937
1.7284257647351404,-0.105344873046875,2.4947581298828125,9.658209497070311,9.975766955888295
1.7309127082815219,-0.1005564697265625,2.398990063476562,10.654197387695312,10.921409565813232
1.7333996518279033,-0.105344873046875,2.31758720703125,11.487379565429686,11.719308737494874
1.7358865953742848,-0.1771709228515625,2.2553379638671873,12.00931552734375,12.2205400168104
1.7383735389206665,-0.27293898925781246,2.1547814941406247,12.320561743164061,12.510548375129918
1.740860482467048,-0.3399766357421875,2.1547814941406247,12.334926953124999,12.526335870447951
1.7433474260134294,-0.354341845703125,2.2074539306640624,12.095506787109374,12.300394117126062
1.7458343695598109,-0.469263525390625,2.2601263671875,11.722011328125,11.947130577197566
1.7483213131061923,-0.5315127685546874,2.231395947265625,11.080365283203124,11.315305055800447
1.7508082566525738,-0.5889736083984375,2.308010400390625,10.371681591796875,10.64169070032198
1.7532952001989555,-0.5793968017578125,2.43250888671875,9.720458740234374,10.036937693263404
1.755782143745337,-0.6177040283203125,2.47081611328125,9.026140258789061,9.378576571291939
1.7582690872917184,-0.5793968017578125,2.5809493896484375,8.48505068359375,8.88780543829401
1.7607560308380998,-0.5889736083984375,2.6527754394531247,8.020575561523437,8.468396529548116
1.7632429743844813,-0.5985504150390625,2.6719290527343746,7.752424975585937,8.221773559535562
1.765729917930863,-0.5363011718749999,2.7724855224609373,7.714117749023437,8.214737218256492
1.7682168614772444,-0.5315127685546874,2.7820623291015623,7.785943798828124,8.285125072360271
1.770703805023626,-0.49320554199218747,2.7916391357421872,8.058882788085937,8.542955727555126
1.7731907485700074,-0.47884033203125,2.7916391357421872,8.422801440429687,8.886288383385473
1.7756776921163888,-0.40222587890625,2.7724855224609373,8.892064965820312,9.322943794010902
1.7781646356627703,-0.373495458984375,2.7533319091796873,9.34696328125,9.75120802983019
1.780651579209152,-0.354341845703125,2.6767174560546874,9.749189160156249,10.116178318103744
1.7831385227555334,-0.3399766357421875,2.6910826660156246,10.156203442382813,10.512182380041208
1.7856254663019149,-0.4165910888671875,2.6001030029296874,10.395623608398436,10.72394861833357
1.7881124098482963,-0.40222587890625,2.5522189697265625,10.491391674804687,10.804855695531298
1.7905993533946778,-0.3687070556640625,2.5474305664062498,10.539275708007812,10.849040502872173
1.7930862969410593,-0.40222587890625,2.427720483398437,10.453084448242187,10.738835452937014
1.795573240487441,-0.4165910888671875,2.398990063476562,10.24718310546875,10.532495575930094
1.7980601840338224,-0.39743747558593745,2.346317626953125,9.969455712890625,10.24954682729137
1.8005471275802039,-0.411802685546875,2.327164013671875,9.600748657226562,9.887347904144502
1.8030340711265853,-0.430956298828125,2.346317626953125,9.255983618164063,9.558460256640297
1.8055210146729668,-0.43574470214843747,2.31758720703125,8.9255837890625,9.23185408697628
1.8080079582193482,-0.44053310546874996,2.384624853515625,8.695740429687499,9.027536027594689
1.81049490176573,-0.4165910888671875,2.403778466796875,8.585607153320312,8.925488739778052
1.8129818453121114,-0.411802685546875,2.437297290039062,8.504204296874999,8.856155500827803
1.8154687888584928,-0.40222587890625,2.4564509033203126,8.556876733398436,8.911569790371423
1.8179557324048743,-0.39264907226562495,2.5139117431640625,8.710105639648438,9.074131682987897
1.8204426759512558,-0.4165910888671875,2.5378537597656248,8.98304462890625,9.343946738193743
1.8229296194976372,-0.45968671875,2.6001030029296874,9.294290844726563,9.66207481918905
1.825416563044019,-0.430956298828125,2.6240450195312497,9.619902270507811,9.980674089967456
1.8279035065904004,-0.45010991210937495,2.6575638427734374,9.926360083007811,10.28580910813178
1.8303904501367818,-0.47884033203125,2.7054478759765623,10.256759912109374,10.618373706357287
1.8328773936831633,-0.49320554199218747,2.6719290527343746,10.43871923828125,10.786534007973131
1.8353643372295447,-0.5027823486328125,2.710236279296875,10.587159741210938,10.94011527204496
1.8378512807759262,-0.5458779785156249,2.710236279296875,10.587159741210938,10.942180534197146
1.8403382243223079,-0.49799394531249996,2.710236279296875,10.496180078124999,10.85187425708633
1.8428251678686893,-0.5410895751953124,2.6479870361328124,10.256759912109374,10.606872166975823
1.8453121114150708,-0.5363011718749999,2.6288334228515624,9.969455712890625,10.324167342858381
1.8477990549614522,-0.51714755859375,2.5617957763671875,9.595960253906249,9.94548603094493
1.8502859985078337,-0.4740519287109375,2.5809493896484375,9.241618408203124,9.606952471303272
1.8527729420542152,-0.45010991210937495,2.499546533203125,8.786720092773438,9.146408136168827
1.8552598856005968,-0.45010991210937495,2.461239306640625,8.528146313476562,8.887608081007837
1.8577468291469783,-0.411802685546875,2.427720483398437,8.212111694335936,8.573341628419167
1.8602337726933598,-0.37828386230468747,2.384624853515625,8.054094384765625,8.408208532808743
1.8627207162397412,-0.36391865234375,2.3367408203125,8.010998754882811,8.352777711490495
1.8652076597861227,-0.3447650390625,2.370259643554687,8.125920434570313,8.471574624530621
1.8676946033325041,-0.316034619140625,2.3223756103515623,8.322244970703125,8.645985641235162
1.8701815468788858,-0.32082302246093747,2.360682836914062,8.595183959960938,8.919245381410436
1.8726684904252673,-0.316034619140625,2.4516625,9.05965908203125,9.390843922514787
1.8751554339716487,-0.3687070556640625,2.461239306640625,9.509768994140625,9.830022896177185
1.8776423775180302,-0.3687070556640625,2.5043349365234375,9.9215716796875,10.239395634624406
1.8801293210644117,-0.411802685546875,2.5474305664062498,10.419565624999999,10.734352880177086
1.8826162646107931,-0.469263525390625,2.50912333984375,10.735600244140624,11.034900126090989
1.8851032081571748,-0.47884033203125,2.6192566162109374,11.008539233398437,11.325975866936025
1.8875901517035563,-0.5219359619140624,2.710236279296875,11.161768139648437,11.497950506121823
1.8900770952499377,-0.5793968017578125,2.7198130859375,11.109095703125,11.451859727464111
1.8925640387963192,-0.584185205078125,2.7341782958984373,11.01332763671875,11.362675254591554
1.8950509823427006,-0.612915625,2.729389892578125,10.66856259765625,11.029209520595147
1.897537925889082,-0.6272808349609375,2.7437551025390623,10.32379755859375,10.700582663548968
1.9000248694354638,-0.5985504150390625,2.7246014892578123,9.811438403320311,10.200296045544851
1.9025118129818452,-0.603338818359375,2.6336218261718747,9.313444458007812,9.697434161953593
1.9049987565282267,-0.5602431884765625,2.6527754394531247,8.79150849609375,9.200093021230204
1.9074857000746082,-0.5363011718749999,2.5617957763671875,8.350975390624999,8.751525953888935
1.9099726436209896,-0.43574470214843747,2.499546533203125,7.9104422851562495,8.30738848639488
1.9124595871673713,-0.38786066894531246,2.47081611328125,7.704540942382812,8.100328345012812
1.9149465307137528,-0.3447650390625,2.3511060302734372,7.503428002929687,7.870704815510316
1.9174334742601342,-0.33039982910156246,2.384624853515625,7.6279264892578125,7.998803802106648
1.9199204178065157,-0.26336218261718747,2.31758720703125,7.805097412109374,8.146171844120664
1.9224073613528971,-0.2537853759765625,2.3319524169921872,8.149862451171874,8.480723263094752
1.9248943048992786,-0.24899697265624998,2.29843359375,8.571241943359375,8.87755512113969
1.9273812484456603,-0.26815058593749996,2.29843359375,9.093177905273437,9.382994518732822
1.9298681919920417,-0.27293898925781246,2.379836450195312,9.658209497070311,9.950835538327144
1.9323551355384232,-0.258573779296875,2.4516625,10.237606298828124,10.530246537619687
1.9348420790848047,-0.40222587890625,2.4899697265625,10.740388647460938,11.032573733964682
1.9373290226311861,-0.44053310546874996,2.5139117431640625,11.123460913085937,11.412502107530266
1.9398159661775676,-0.44532150878906246,2.5522189697265625,11.396399902343749,11.687175178363798
1.9423029097239493,-0.5506663818359374,2.5761609863281247,11.525686791992188,11.822913977470467
1.9447898532703307,-0.5889736083984375,2.7150246826171873,11.477802758789062,11.809242359621393
1.9472767968167122,-0.6081272216796875,2.7198130859375,11.252747802734374,11.592736305641045
1.9497637403630936,-0.6464344482421874,2.7533319091796873,10.89840595703125,11.259394588619562
1.952250683909475,-0.6655880615234374,2.729389892578125,10.448296044921875,10.819402335419468
1.9547376274558566,-0.6655880615234374,2.748543505859375,9.878476049804688,10.275299895273573
1.9572245710022382,-0.63206923828125,2.7150246826171873,9.246406811523437,9.657479457570128
1.9597115145486197,-0.584185205078125,2.7054478759765623,8.67658681640625,9.107353037304144
1.9621984580950012,-0.55545478515625,2.6336218261718747,8.116343627929687,8.550995721451198
1.9646854016413826,-0.47884033203125,2.5330653564453125,7.675810522460937,8.097146123192124
1.967172345187764,-0.4165910888671875,2.5378537597656248,7.3837179199218745,7.818794035032224
1.9696592887341455,-0.32082302246093747,2.4947581298828125,7.259219433593749,7.682643576492568
1.9721462322805272,-0.2920926025390625,2.398990063476562,7.244854223632812,7.637302150288904
1.9746331758269087,-0.2442085693359375,2.327164013671875,7.503428002929687,7.859819461477209
1.9771201193732901,-0.22026655273437498,2.29843359375,7.857769848632812,8.189985429365242
1.9796070629196716,-0.21068974609375,2.27927998046875,8.317456567382813,8.626679033601178
1.982094006466053,-0.277727392578125,2.269703173828125,8.939948999023438,9.227750164965125
1.9845809500124345,-0.2537853759765625,2.327164013671875,9.610325463867188,9.89133231091965
1.9870678935588162,-0.27293898925781246,2.375048046875,10.184933862304687,10.461750651604277
1.9895548371051976,-0.32082302246093747,2.43250888671875,10.793061083984375,11.068432339691318
1.992041780651579,-0.38786066894531246,2.50912333984375,11.209652172851563,11.493582455848095
1.9945287241979606,-0.45968671875,2.5522189697265625,11.544840405273437,11.83251763286501
1.997015667744342,-0.49320554199218747,2.6144682128906247,11.755530151367187,12.052849658175047
1.9995026112907235,-0.5793968017578125,2.6623522460937497,11.707646118164062,12.020515702927627
2.001989554837105,-0.622492431640625,2.70065947265625,11.511321582031249,11.840252656917258
2.0044764983834864,-0.6560112548828124,2.767697119140625,11.123460913085937,11.481371032885527
2.006963441929868,-0.6703764648437499,2.77727392578125,10.66856259765625,11.04449559570516
2.0094503854762498,-0.6464344482421874,2.77727392578125,10.026916552734374,10.424499197093217
2.011937329022631,-0.6655880615234374,2.7724855224609373,9.375693701171874,9.79965896437687
2.0144242725690127,-0.6416460449218749,2.7341782958984373,8.719682446289061,9.160802506595564
2.016911216115394,-0.5363011718749999,2.6719290527343746,8.130708837890625,8.575269676013297
2.0193981596617756,-0.5363011718749999,2.6192566162109374,7.613561279296874,8.069351865058799
2.021885103208157,-0.44053310546874996,2.5905261962890624,7.264007836914062,7.724681562719768
2.0243720467545385,-0.3447650390625,2.5378537597656248,7.153874560546875,7.5985186626181305
2.02685899030092,-0.27293898925781246,2.4516625,7.082048510742187,7.499370361188261
2.0293459338473014,-0.277727392578125,2.31758720703125,7.273584643554687,7.63893818103915
2.031832877393683,-0.258573779296875,2.3223756103515623,7.656656909179687,8.005290994072901
2.0343198209400644,-0.22026655273437498,2.269703173828125,8.068459594726562,8.384516091181057
2.036806764486446,-0.19632453613281248,2.308010400390625,8.772354882812499,9.07301854521434
2.0392937080328277,-0.24899697265624998,2.29843359375,9.409212524414063,9.689069966042199
2.041780651579209,-0.27293898925781246,2.308010400390625,10.098742602539062,10.362722125605115
2.0442675951255906,-0.32082302246093747,2.384624853515625,10.716446630859375,10.983241392949653
2.046754538671972,-0.38786066894531246,2.4899697265625,11.228805786132812,11.508104297424582
2.0492414822183536,-0.45010991210937495,2.480392919921875,11.616666455078125,11.887047047047263
2.0517284257647352,-0.51714755859375,2.5905261962890624,11.85608662109375,12.146812649328941
2.0542153693111165,-0.55545478515625,2.6479870361328124,11.81777939453125,12.123542187813255
2.056702312857498,-0.6655880615234374,2.748543505859375,11.722011328125,12.058318641001948
2.0591892564038794,-0.699106884765625,2.73896669921875,11.343727465820312,11.690630514842304
2.061676199950261,-0.6464344482421874,2.8012159423828122,10.8409451171875,11.215648857092724
2.0641631434966423,-0.7134720947265625,2.8012159423828122,10.271125122070313,10.670138914701957
2.066650087043024,-0.6607996582031249,2.7629087158203123,9.552864624023437,9.966320448648823
2.0691370305894057,-0.6416460449218749,2.77727392578125,8.877699755859375,9.32408242461283
2.071623974135787,-0.584185205078125,2.7341782958984373,8.250418920898436,8.71128094357616
2.0741109176821686,-0.55545478515625,2.6144682128906247,7.6997525390625,8.150470122475628
2.07659786122855,-0.4836287353515625,2.5809493896484375,7.278373046874999,7.737564908616977
2.0790848047749315,-0.44053310546874996,2.4947581298828125,7.024587670898437,7.467443972991605
2.081571748321313,-0.3495534423828125,2.403778466796875,7.015010864257812,7.423659202318837
2.0840586918676944,-0.277727392578125,2.360682836914062,7.134720947265625,7.520252585946816
2.086545635414076,-0.22026655273437498,2.31758720703125,7.4699091796875,7.824274469190608
2.0890325789604574,-0.181959326171875,2.3032219970703123,7.9295958984374995,8.25932393581256
2.091519522506839,-0.1771709228515625,2.29843359375,8.532934716796875,8.838843895097366
2.0940064660532203,-0.201112939453125,2.3032219970703123,9.198522778320312,9.484624361854383
2.096493409599602,-0.2537853759765625,2.27927998046875,9.888052856445311,10.150522820932991
2.0989803531459836,-0.27293898925781246,2.3367408203125,10.577582934570312,10.836056205598275
2.101467296692365,-0.3687070556640625,2.3511060302734372,11.128249316406249,11.379875979402444
2.1039542402387466,-0.36391865234375,2.4947581298828125,11.583147631835937,11.85434789320132
2.106441183785128,-0.49320554199218747,2.5234885498046875,11.85608662109375,12.131695517714142
2.1089281273315095,-0.5267243652343749,2.6001030029296874,11.97100830078125,12.261444202056671
2.111415070877891,-0.5889736083984375,2.6862942626953124,11.841721411132811,12.156867719773086
2.1139020144242724,-0.689530078125,2.77727392578125,11.506533178710937,11.85702357171643
2.116388957970654,-0.6847416748046875,2.7581203125,11.075576879882812,11.434356214568187
2.1188759015170353,-0.7278373046875,2.7724855224609373,10.443507641601562,10.829740300419973
2.121362845063417,-0.689530078125,2.8107927490234372,9.787496386718749,10.206424110658658
2.1238497886097982,-0.679953271484375,2.7820623291015623,9.083601098632812,9.524390593286876
2.12633673215618,-0.6416460449218749,2.7150246826171873,8.403647827148436,8.85462396022107
2.1288236757025616,-0.59376201171875,2.6384102294921874,7.79552060546875,8.25129707233579
2.131310619248943,-0.507570751953125,2.5761609863281247,7.37414111328125,7.827655501764381
2.1337975627953245,-0.4165910888671875,2.528276953125,7.067683300781249,7.517837436867647
2.1362845063417057,-0.3399766357421875,2.461239306640625,6.967126831054687,7.3969006561806365
2.1387714498880874,-0.277727392578125,2.35589443359375,7.015010864257812,7.405251414535592
2.141258393434469,-0.2442085693359375,2.3127988037109373,7.249642626953125,7.613540198246782
2.1437453369808503,-0.2154781494140625,2.29843359375,7.728482958984374,8.065895899716615
2.146232280527232,-0.17238251953125,2.31758720703125,8.317456567382813,8.636029755943083
2.1487192240736133,-0.19153613281249998,2.2936451904296873,9.011775048828124,9.301052837202633
2.151206167619995,-0.21068974609375,2.2936451904296873,9.662997900390625,9.933716668580995
2.153693111166376,-0.24899697265624998,2.370259643554687,10.414777221679687,10.683993394207713
2.156180054712758,-0.277727392578125,2.4133552734375,11.042058056640624,11.306124990757839
2.1586669982591395,-0.373495458984375,2.4564509033203126,11.463437548828125,11.729622770327598
2.161153941805521,-0.4261678955078125,2.5713725830078125,11.822567797851562,12.106472870766389
2.1636408853519025,-0.5267243652343749,2.5617957763671875,11.947066284179687,12.229988918855462
2.1661278288982837,-0.612915625,2.6575638427734374,11.9518546875,12.259084044613674
2.1686147724446654,-0.6560112548828124,2.7581203125,11.6837041015625,12.022750099608091
2.171101715991047,-0.70868369140625,2.7437551025390623,11.214440576171874,11.566940047984362
2.1735886595374283,-0.7038952880859375,2.73896669921875,10.70686982421875,11.07404481609068
2.17607560308381,-0.70868369140625,2.8107927490234372,10.036493359375,10.446721371090854
2.178562546630191,-0.6607996582031249,2.8107927490234372,9.327809667968749,9.764488991652117
2.181049490176573,-0.6607996582031249,2.7724855224609373,8.56166513671875,9.023604716178681
2.1835364337229546,-0.5698199951171875,2.729389892578125,7.982268334960937,8.455227482679755
2.186023377269336,-0.5602431884765625,2.6527754394531247,7.431601953125,7.910739380872777
2.1885103208157175,-0.44532150878906246,2.5617957763671875,7.058106494140625,7.52183329572206
2.1909972643620987,-0.32082302246093747,2.50912333984375,6.909665991210937,7.358132334797101
2.1934842079084804,-0.2825157958984375,2.4133552734375,6.938396411132812,7.351560624029527
2.1959711514548617,-0.258573779296875,2.384624853515625,7.125144140624999,7.518043303681288
2.1984580950012433,-0.21068974609375,2.3319524169921872,7.556100439453124,7.910565472539144
2.200945038547625,-0.16759411621093748,2.2649147705078123,8.14028564453125,8.451164244056232
2.2034319820940063,-0.21068974609375,2.288856787109375,8.777143286132812,9.073119630331787
2.205918925640388,-0.2059013427734375,2.288856787109375,9.495403784179686,9.769542147893445
2.208405869186769,-0.2346317626953125,2.3032219970703123,10.204087475585936,10.463426056567888
2.210892812733151,-0.24899697265624998,2.360682836914062,10.874463940429687,11.130534081552337
2.2133797562795325,-0.3399766357421875,2.480392919921875,11.434707128906249,11.70557389767407
2.2158666998259138,-0.40222587890625,2.5474305664062498,11.808202587890625,12.086556023325652
2.2183536433722955,-0.5027823486328125,2.5953145996093747,11.980585107421874,12.268776119777435
2.2208405869186767,-0.5410895751953124,2.6288334228515624,11.980585107421874,12.277538947593092
2.2233275304650584,-0.6464344482421874,2.6815058593749996,11.789048974609374,12.107436842514396
2.2258144740114396,-0.718260498046875,2.7246014892578123,11.410765112304686,11.753506364762398
2.2283014175578213,-0.699106884765625,2.7916391357421872,10.903194360351561,11.276597304157676
2.230788361104203,-0.7038952880859375,2.7724855224609373,10.266336718749999,10.657383082708417
2.233275304650584,-0.70868369140625,2.729389892578125,9.504980590820312,9.91445700944049
2.235762248196966,-0.6560112548828124,2.8107927490234372,8.858546142578124,9.316906482555323
2.238249191743347,-0.6464344482421874,2.6815058593749996,8.145074047851562,8.599452448541225
2.240736135289729,-0.4740519287109375,2.7150246826171873,7.4699091796875,7.962137113307877
2.2432230788361105,-0.507570751953125,2.5761609863281247,7.153874560546875,7.620508823153288
2.2457100223824917,-0.4165910888671875,2.50912333984375,6.919242797851562,7.371917590796367
2.2481969659288734,-0.32561142578124996,2.4947581298828125,6.900089184570312,7.344458569713623
2.2506839094752547,-0.26815058593749996,2.35589443359375,7.062894897460937,7.450277018444105
2.2531708530216363,-0.21068974609375,2.31758720703125,7.3549875,7.714365933533371
2.2556577965680176,-0.16759411621093748,2.3127988037109373,7.8912886718749995,8.224935440299696
2.2581447401143993,-0.1867477294921875,2.2744915771484373,8.556876733398436,8.855976856313772
2.260631683660781,-0.1771709228515625,2.2649147705078123,9.265560424804686,9.54001249680918
2.263118627207162,-0.2154781494140625,2.2936451904296873,9.945513696289062,10.208843312321404
2.265605570753544,-0.26336218261718747,2.379836450195312,10.639832177734375,10.905916281508075
2.268092514299925,-0.3591302490234375,2.384624853515625,11.262324609375,11.517611116663984
2.2705794578463068,-0.3591302490234375,2.50912333984375,11.635820068359374,11.90869359474611
2.2730664013926885,-0.430956298828125,2.5522189697265625,11.97100830078125,12.247635883643232
2.2755533449390697,-0.5458779785156249,2.6431986328124997,12.033257543945313,12.332224815451871
2.2780402884854514,-0.6081272216796875,2.6910826660156246,11.870451831054687,12.186852395367199
2.2805272320318326,-0.679953271484375,2.7437551025390623,11.559205615234374,11.899821972171573
2.2830141755782143,-0.6943184814453125,2.8107927490234372,11.109095703125,11.480184727295532
2.2855011191245955,-0.699106884765625,2.8203695556640622,10.486603271484375,10.881731619570031
2.287988062670977,-0.679953271484375,2.8203695556640622,9.7683427734375,10.190060913521942
2.290475006217359,-0.622492431640625,2.7916391357421872,9.030928662109375,9.4730363871235
2.29296194976374,-0.6272808349609375,2.7150246826171873,8.33182177734375,8.785447877174471
2.295448893310122,-0.5602431884765625,2.70065947265625,7.742848168945312,8.219436220618912
2.297935836856503,-0.49799394531249996,2.6479870361328124,7.254431030273437,7.738643478419811
2.3004227804028847,-0.4165910888671875,2.5330653564453125,6.986280444335937,7.442988827229133
2.3029097239492664,-0.354341845703125,2.442085693359375,6.880935571289062,7.310035226560675
2.3053966674956476,-0.239420166015625,2.437297290039062,6.976703637695312,7.3940607073622076
2.3078836110420293,-0.21068974609375,2.3511060302734372,7.292738256835937,7.665254139127785
2.3103705545884106,-0.1867477294921875,2.3511060302734372,7.738059765625,8.089508218454508
2.3128574981347922,-0.16280571289062498,2.2936451904296873,8.317456567382813,8.629449444201557
2.315344441681174,-0.2059013427734375,2.269703173828125,9.02135185546875,9.304769592010906
2.317831385227555,-0.2154781494140625,2.288856787109375,9.725247143554688,9.99328415627166
2.320318328773937,-0.277727392578125,2.29843359375,10.433930834960936,10.687695830169167
2.322805272320318,-0.3112462158203125,2.427720483398437,11.061211669921875,11.328773303371847
2.3252922158666998,-0.38307226562499996,2.480392919921875,11.5304751953125,11.800464042892825
2.327779159413081,-0.4740519287109375,2.5570073730468748,11.832144604492187,12.114563874879863
2.3302661029594627,-0.5315127685546874,2.5665841796874997,12.004527124023436,12.287332161456906
2.3327530465058444,-0.584185205078125,2.6910826660156246,12.00931552734375,12.32099256165921
2.3352399900522256,-0.6272808349609375,2.7341782958984373,11.698069311523437,12.029714785350391
2.3377269335986073,-0.7038952880859375,2.7724855224609373,11.257536206054686,11.615260047862778
2.3402138771449885,-0.6655880615234374,2.825157958984375,10.687716210937499,11.074827437318898
2.34270082069137,-0.70868369140625,2.834734765625,10.031704956054687,10.448591201269211
2.345187764237752,-0.689530078125,2.786850732421875,9.313444458007812,9.745883049053884
2.347674707784133,-0.6416460449218749,2.7437551025390623,8.595183959960938,9.045279930175893
2.350161651330515,-0.584185205078125,2.7150246826171873,7.977479931640625,8.447059692033768
2.352648594876896,-0.5458779785156249,2.6240450195312497,7.417236743164062,7.8866340054612705
2.3551355384232777,-0.45968671875,2.5474305664062498,7.062894897460937,7.5223133876910335
2.357622481969659,-0.36391865234375,2.4899697265625,6.919242797851562,7.362629076650687
2.3601094255160406,-0.3064578125,2.389413256835937,6.919242797851562,7.326604465808587
2.3625963690624223,-0.26336218261718747,2.403778466796875,7.1203557373046875,7.519772362408121
2.3650833126088036,-0.22026655273437498,2.3367408203125,7.52737001953125,7.8848065560612275
2.3675702561551852,-0.1771709228515625,2.2649147705078123,8.0828248046875,8.396027946406566
2.3700571997015665,-0.1771709228515625,2.2553379638671873,8.777143286132812,9.064004806511909
2.372544143247948,-0.21068974609375,2.269703173828125,9.442731347656249,9.713965100328728
2.37503108679433,-0.239420166015625,2.2840683837890623,10.180145458984374,10.435978725725723
2.377518030340711,-0.2537853759765625,2.39420166015625,10.869675537109375,11.133124219579537
2.3800049738870928,-0.3447650390625,2.408566870117187,11.353304272460937,11.611097071468555
2.382491917433474,-0.44053310546874996,2.50912333984375,11.803414184570311,12.075195889263172
2.3849788609798557,-0.5219359619140624,2.5713725830078125,12.00931552734375,12.292600764048391
2.387465804526237,-0.5410895751953124,2.6862942626953124,12.00931552734375,12.317979307884654
2.3899527480726186,-0.5793968017578125,2.77727392578125,11.827356201171874,12.162865855632477
2.3924396916190003,-0.6560112548828124,2.7724855224609373,11.444283935546874,11.793585609822173
2.3949266351653815,-0.737414111328125,2.85388837890625,10.893617553710937,11.285360510739613
2.397413578711763,-0.7230489013671875,2.7916391357421872,10.28549033203125,10.682104668476338
2.3999005222581444,-0.699106884765625,2.748543505859375,9.519345800781249,9.932833750485308
2.402387465804526,-0.6272808349609375,2.7820623291015623,8.825027319335938,9.274398052485182
2.404874409350908,-0.584185205078125,2.7581203125,8.17859287109375,8.650889050448097
2.407361352897289,-0.5315127685546874,2.7246014892578123,7.594407666015624,8.085851031031886
2.4098482964436707,-0.5027823486328125,2.5713725830078125,7.153874560546875,7.618573900591944
2.412335239990052,-0.37828386230468747,2.518700146484375,6.890512377929687,7.346162939847087
2.4148221835364336,-0.316034619140625,2.437297290039062,6.871358764648437,7.297661764773564
2.417309127082815,-0.2825157958984375,2.35589443359375,7.024587670898437,7.414505088224598
2.4197960706291965,-0.229843359375,2.35589443359375,7.359775903320312,7.731065120614437
2.4222830141755782,-0.1771709228515625,2.3032219970703123,7.900865478515625,8.23163995892025
2.4247699577219595,-0.1580173095703125,2.3032219970703123,8.518569506835936,8.825861288322372
2.427256901268341,-0.1771709228515625,2.250549560546875,9.260772021484375,9.531959992272817
2.4297438448147224,-0.22505495605468748,2.269703173828125,9.9215716796875,10.180362804227915
2.432230788361104,-0.258573779296875,2.379836450195312,10.635043774414061,10.901130125483384
2.4347177319074857,-0.32561142578124996,2.43250888671875,11.214440576171874,11.479843192354812
2.437204675453867,-0.40222587890625,2.4899697265625,11.688492504882811,11.9575328531249
2.4396916190002487,-0.4644751220703125,2.5234885498046875,11.97100830078125,12.242906980672164
2.44217856254663,-0.5410895751953124,2.5713725830078125,11.994950317382811,12.279396076579307
2.4446655060930116,-0.584185205078125,2.6719290527343746,11.899182250976562,12.209464175738173
2.4471524496393933,-0.6177040283203125,2.7820623291015623,11.568782421875,11.914619414580272
2.4496393931857745,-0.699106884765625,2.7629087158203123,11.109095703125,11.468845728732813
2.452126336732156,-0.6847416748046875,2.7964275390625,10.457872851562499,10.846934254520464
2.4546132802785374,-0.689530078125,2.825157958984375,9.816226806640625,10.237933284665505
2.457100223824919,-0.6560112548828124,2.7820623291015623,9.011775048828124,9.454221866458395
2.4595871673713003,-0.6368576416015624,2.7581203125,8.379705810546875,8.84490162665501
2.462074110917682,-0.55545478515625,2.6479870361328124,7.75721337890625,8.21551731589451
2.4645610544640637,-0.49799394531249996,2.6288334228515624,7.287949853515625,7.7635672343342135
2.467047998010445,-0.4261678955078125,2.50912333984375,6.981492041015625,7.4309185252211405
2.4695349415568266,-0.3447650390625,2.4564509033203126,6.842628344726562,7.278363596072837
2.472021885103208,-0.32082302246093747,1.235408056640625,23.573309545898436,23.607839448473463
2.4745088286495895,-0.7852981445312499,1.5562310791015623,22.19903779296875,22.267371359929772
2.4769957721959712,-1.1348515869140625,2.020706201171875,19.92454621582031,20.05888041696583
2.4794827157423525,-1.426944189453125,2.442085693359375,17.008408593749998,17.24198118388584
2.481969659288734,-1.637633935546875,2.8012159423828122,13.661314672851562,14.041373659773596
2.4844566028351154,-1.70467158203125,3.246537451171875,10.290278735351562,10.924090217298419
2.486943546381497,-1.6519991455078125,3.5338416503906247,6.967126831054687,7.984860316047877
2.4894304899278783,-1.618480322265625,3.7014357666015623,4.141968872070312,5.785845783032741
2.49191743347426,-1.4221557861328125,3.821145849609375,1.8722656982421875,4.486542268700061
2.4944043770206417,-1.1731588134765625,3.825934252929687,0.33518823242187495,4.01577211262448
2.496891320567023,-0.9337386474609375,3.744531396484375,-0.40222587890625,3.880099083616462
2.4993782641134046,-0.5746083984375,3.6104561035156246,-0.3112462158203125,3.6691200980385745
2.501865207659786,-0.27293898925781246,3.327940307617187,0.4740519287109375,3.372596568526217
2.5043521512061675,-0.047884033203124995,3.0741549316406247,1.905784521484375,3.6172829674626783
2.506839094752549,0.201112939453125,2.73896669921875,3.821145849609375,4.705692361154911
2.5093260382989304,0.3591302490234375,2.47081611328125,6.095637426757812,6.587161941223587
2.511812981845312,0.39264907226562495,2.1164742675781247,8.327033374023436,8.600762840084101
2.5142999253916933,0.43574470214843747,1.915361328125,10.611101757812499,10.79138373784283
2.516786868938075,0.39264907226562495,1.7286135986328124,12.579135522460938,12.703421931108482
2.5192738124844563,0.2442085693359375,1.5945383056640625,14.216769458007812,14.307995109578101
2.521760756030838,0.1292868896484375,1.62805712890625,15.337255834960937,15.423965173127847
2.5242476995772196,-0.0718260498046875,1.637633935546875,15.935806249999999,16.019891532898228
2.526734643123601,-0.26336218261718747,1.7334020019531249,16.041151123046873,16.136684030247228
2.5292215866699825,-0.44532150878906246,1.8722656982421875,15.576676000976562,15.695111510607488
2.5317085302163638,-0.6512228515624999,2.0925322509765625,14.676456176757812,14.839176133871677
2.5341954737627455,-0.833182177734375,2.2840683837890623,13.455413330078125,13.673306432840707
2.536682417309127,-0.97683427734375,2.4947581298828125,12.042834350585936,12.337255875098913
2.5391693608555084,-1.0007762939453124,2.7150246826171873,10.51533369140625,10.906198002024668
2.54165630440189,-1.0103531005859374,2.9544448486328125,9.05965908203125,9.582639533766669
2.5441432479482713,-1.024718310546875,3.0358477050781247,7.723694555664062,8.361930189471378
2.546630191494653,-0.9720458740234375,3.1459809814453124,6.574477758789062,7.3529468458321965
2.549117135041034,-0.9145850341796874,3.2321722412109373,5.8226984375,6.7221440237222625
2.551604078587416,-0.7517793212890624,3.2704794677734372,5.42047255859375,6.375165162998787
2.5540910221337976,-0.6847416748046875,3.1364041748046874,5.2624552490234375,6.164360271505951
2.556577965680179,-0.488417138671875,3.1124621582031247,5.5545478515625,6.385841669106153
2.5590649092265605,-0.3687070556640625,2.9640216552734375,5.9950809570312495,6.697937365128542
2.5615518527729417,-0.28730419921875,2.829946362304687,6.7085530517578125,7.286688147894029
2.5640387963193234,-0.2154781494140625,2.6671406494140624,7.570465649414062,8.029447068484233
2.566525739865705,-0.105344873046875,2.4756045166015626,8.528146313476562,8.880821741762368
2.5690126834120863,-0.0909796630859375,2.384624853515625,9.409212524414063,9.70711045165811
2.571499626958468,-0.0718260498046875,2.269703173828125,10.232817895507813,10.481759087163802
2.5739865705048492,-0.076614453125,2.1212626708984375,10.850521923828124,11.056195146290138
2.576473514051231,-0.105344873046875,2.059013427734375,11.405976708984374,11.590812677451126
2.5789604575976126,-0.2059013427734375,2.0159177978515626,11.6837041015625,11.858130605770834
2.581447401143994,-0.2346317626953125,2.0159177978515626,11.769895361328125,11.943592987387568
2.5839343446903755,-0.36391865234375,2.1068974609374997,11.712434521484374,11.905989086022524
2.5864212882367568,-0.39743747558593745,2.1068974609374997,11.468225952148437,11.666926756752865
2.5889082317831384,-0.49799394531249996,2.2266075439453124,11.113884106445312,11.345668735505184
2.5913951753295197,-0.5602431884765625,2.3367408203125,10.639832177734375,10.907807243525205
2.5938821188759014,-0.612915625,2.5234885498046875,10.218452685546874,10.543264926536022
2.596369062422283,-0.63206923828125,2.6288334228515624,9.739612353515625,10.10793378905091
2.5988560059686643,-0.6847416748046875,2.6910826660156246,9.294290844726563,9.700239140501232
2.601342949515046,-0.689530078125,2.7820623291015623,8.920795385742187,9.36994732354052
2.603829893061427,-0.6847416748046875,2.8730419921875,8.585607153320312,9.079421327443283
2.606316836607809,-0.6368576416015624,2.887407202148437,8.461108666992187,8.96287163142122
2.6088037801541906,-0.622492431640625,2.9927520751953125,8.389282617187499,8.928836690301823
2.611290723700572,-0.565031591796875,2.940079638671875,8.374917407226562,8.893962590393999
2.6137776672469535,-0.5123591552734374,2.901772412109375,8.489839086914062,8.98666583096119
2.6162646107933347,-0.43574470214843747,2.81558115234375,8.609549169921875,9.06872138618153
2.6187515543397164,-0.430956298828125,2.7246014892578123,8.719682446289061,9.145602143702028
2.6212384978860976,-0.37828386230468747,2.7150246826171873,8.963891015625,9.373675898371104
2.6237254414324793,-0.3399766357421875,2.5905261962890624,9.107543115234375,9.474901143672344
2.626212384978861,-0.32561142578124996,2.50912333984375,9.222464794921875,9.563241062982849
2.6286993285252422,-0.2825157958984375,2.43250888671875,9.361328491210937,9.676331214838374
2.631186272071624,-0.2346317626953125,2.3319524169921872,9.476250170898437,9.761781161275533
2.633673215618005,-0.296881005859375,2.2744915771484373,9.485826977539062,9.759219421345497
2.636160159164387,-0.2537853759765625,2.2553379638671873,9.514557397460937,9.781500846899661
2.6386471027107685,-0.2920926025390625,2.1978771240234374,9.557653027343749,9.811458267345213
2.6411340462571498,-0.3112462158203125,2.1883003173828124,9.610325463867188,9.861231566461374
2.6436209898035314,-0.3399766357421875,2.288856787109375,9.648632690429688,9.922225672679273
2.6461079333499127,-0.373495458984375,2.288856787109375,9.672574707031249,9.946711301373899
2.6485948768962944,-0.4213794921875,2.346317626953125,9.739612353515625,10.027104062476928
2.6510818204426756,-0.44532150878906246,2.43250888671875,9.801861596679688,10.10900101348397
2.6535687639890573,-0.47884033203125,2.4899697265625,9.854534033203125,10.175513663414549
2.656055707535439,-0.49799394531249996,2.5905261962890624,9.94072529296875,10.284786983379696
2.65854265108182,-0.5410895751953124,2.6431986328124997,9.955090502929687,10.314218528924417
2.661029594628202,-0.5458779785156249,2.7437551025390623,10.05564697265625,10.437538544543356
2.663516538174583,-0.5889736083984375,2.786850732421875,10.046070166015625,10.442076072156313
2.666003481720965,-0.5793968017578125,2.8107927490234372,10.007762939453125,10.41112748861243
2.6684904252673465,-0.55545478515625,2.858676782226562,9.988609326171874,10.404464389601317
2.6709773688137277,-0.5602431884765625,2.81558115234375,9.811438403320311,10.22280260974535
2.6734643123601094,-0.5506663818359374,2.7964275390625,9.6151138671875,10.028641738754695
2.6759512559064906,-0.5458779785156249,2.7916391357421872,9.423577734375,9.843528287532065
2.6784381994528723,-0.5458779785156249,2.6671406494140624,9.188945971679686,9.583754487758622
2.6809251429992536,-0.47884033203125,2.5905261962890624,8.920795385742187,9.301650625105136
2.6834120865456352,-0.44532150878906246,2.5809493896484375,8.695740429687499,9.081602976271235
2.685899030092017,-0.3591302490234375,2.4899697265625,8.532934716796875,8.896060850515735
2.688385973638398,-0.3591302490234375,2.4133552734375,8.360552197265624,8.709310607321068
2.69087291718478,-0.3447650390625,2.379836450195312,8.29351455078125,8.635095139363452
2.693359860731161,-0.26815058593749996,2.346317626953125,8.336610180664062,8.664651201730006
2.6958468042775428,-0.27293898925781246,2.308010400390625,8.465897070312499,8.779112762990012
2.6983337478239244,-0.2346317626953125,2.3367408203125,8.619125976562499,8.933350005750064
2.7008206913703057,-0.24899697265624998,2.308010400390625,8.901641772460938,9.199355289688771
2.7033076349166874,-0.3064578125,2.3319524169921872,9.255983618164063,9.550138805571335
2.7057945784630686,-0.32082302246093747,2.39420166015625,9.6151138671875,9.91390658016391
2.7082815220094503,-0.32561142578124996,2.3367408203125,10.01733974609375,10.291427308715912
2.7107684655558315,-0.373495458984375,2.4756045166015626,10.32379755859375,10.62303688270573
2.713255409102213,-0.45010991210937495,2.5713725830078125,10.639832177734375,10.955390666880628
2.715742352648595,-0.5123591552734374,2.6048914062499997,10.850521923828124,11.170577297607425
2.718229296194976,-0.51714755859375,2.7198130859375,10.951078393554686,11.295616087738491
2.720716239741358,-0.584185205078125,2.7581203125,10.946289990234375,11.30352885440483
2.723203183287739,-0.5889736083984375,2.7724855224609373,10.812214697265624,11.177546803454332
2.7256901268341207,-0.6368576416015624,2.7820623291015623,10.558429321289061,10.93736203073341
2.7281770703805024,-0.622492431640625,2.81558115234375,10.251971508789062,10.649784686551456
2.7306640139268836,-0.5889736083984375,2.8107927490234372,9.873687646484374,10.28285726487005
2.7331509574732653,-0.5889736083984375,2.748543505859375,9.380482104492186,9.792590353307432
2.7356379010196465,-0.603338818359375,2.7341782958984373,8.916006982421875,9.345315895896563
2.7381248445660282,-0.5267243652343749,2.6575638427734374,8.508992700195313,8.929895906858343
2.74061178811241,-0.45489831542968745,2.6001030029296874,8.130708837890625,8.548443970090549
2.743098731658791,-0.430956298828125,2.5378537597656248,7.829039428710937,8.241376305797875
2.745585675205173,-0.32561142578124996,2.4660277099609376,7.671022119140624,8.06423560042979
2.748072618751554,-0.33039982910156246,2.408566870117187,7.637503295898437,8.015099189015439
2.7505595622979357,-0.26815058593749996,2.3319524169921872,7.771578588867187,8.11833360824703
2.753046505844317,-0.2154781494140625,2.308010400390625,8.049305981445311,8.37643537694391
2.7555334493906987,-0.2346317626953125,2.2744915771484373,8.394071020507813,8.699930591442312
2.7580203929370803,-0.229843359375,2.327164013671875,8.834604125976561,9.138859358754804
2.7605073364834616,-0.27293898925781246,2.3319524169921872,9.327809667968749,9.618759325860276
2.7629942800298433,-0.258573779296875,2.3319524169921872,9.907206469726562,10.181237768967359
2.7654812235762245,-0.32082302246093747,2.370259643554687,10.342951171874999,10.615917159312962
2.767968167122606,-0.37828386230468747,2.4947581298828125,10.874463940429687,11.163372375711655
2.770455110668988,-0.4644751220703125,2.5474305664062498,11.180921752929686,11.476852829709866
2.772942054215369,-0.4644751220703125,2.6048914062499997,11.405976708984374,11.708864208934672
2.775428997761751,-0.5889736083984375,2.6767174560546874,11.425130322265625,11.749268450916047
2.777915941308132,-0.5889736083984375,2.7341782958984373,11.348515869140625,11.6880893775368
2.7804028848545137,-0.6512228515624999,2.7629087158203123,11.118672509765624,11.475305405686196
2.782889828400895,-0.6512228515624999,2.8203695556640622,10.730811840820312,11.114355509700205
2.7853767719472766,-0.6607996582031249,2.834734765625,10.266336718749999,10.670990910055115
2.7878637154936583,-0.679953271484375,2.7581203125,9.667786303710937,10.07649026813643
2.7903506590400395,-0.6368576416015624,2.7629087158203123,9.0788126953125,9.511261335080095
2.792837602586421,-0.6081272216796875,2.6910826660156246,8.508992700195313,8.94509370577272
2.7953245461328025,-0.5410895751953124,2.6527754394531247,8.02536396484375,8.469738025981876
2.797811489679184,-0.45968671875,2.5617957763671875,7.637503295898437,8.068802022237712
2.800298433225566,-0.38786066894531246,2.5139117431640625,7.4220251464843745,7.845804319888387
2.802785376771947,-0.354341845703125,2.43250888671875,7.264007836914062,7.668667907944045
2.8052723203183287,-0.2920926025390625,2.3415292236328122,7.37414111328125,7.742482441192188
2.80775926386471,-0.2537853759765625,2.3367408203125,7.6279264892578125,7.981856125231482
2.8102462074110917,-0.2154781494140625,2.3319524169921872,8.001421948242188,8.33709698287134
2.812733150957473,-0.2154781494140625,2.2649147705078123,8.470685473632813,8.770905434660284
2.8152200945038546,-0.229843359375,2.2553379638671873,9.069235888671875,9.348284169059225
2.8177070380502363,-0.229843359375,2.29843359375,9.725247143554688,9.995801966723127
2.8201939815966175,-0.2346317626953125,2.3511060302734372,10.347739575195313,10.614069245379781
2.822680925142999,-0.33039982910156246,2.43250888671875,10.788272680664061,11.06404496390893
2.8251678686893804,-0.4165910888671875,2.461239306640625,11.219228979492186,11.493578466002381
2.827654812235762,-0.4740519287109375,2.5617957763671875,11.563994018554688,11.853838217729137
2.8301417557821438,-0.51714755859375,2.6096798095703124,11.741164941406248,12.038804944310112
2.832628699328525,-0.603338818359375,2.7198130859375,11.674127294921874,12.00194355303407
2.8351156428749067,-0.63206923828125,2.729389892578125,11.458649145507811,11.796173996153836
2.837602586421288,-0.699106884765625,2.7581203125,11.056423266601563,11.416675240401654
2.8400895299676696,-0.689530078125,2.77727392578125,10.539275708007812,10.920853200957655
2.842576473514051,-0.689530078125,2.77727392578125,9.95987890625,10.362812842786806
2.8450634170604325,-0.6177040283203125,2.7820623291015623,9.34696328125,9.771752741992858
2.847550360606814,-0.6177040283203125,2.8107927490234372,8.719682446289061,9.182318667345816
2.8500373041531954,-0.5506663818359374,2.6815058593749996,8.12113203125,8.570092917054136
2.852524247699577,-0.5027823486328125,2.6288334228515624,7.671022119140624,8.12453910123786
2.8550111912459584,-0.44532150878906246,2.5665841796874997,7.254431030273437,7.707946235580945
2.85749813479234,-0.354341845703125,2.4899697265625,7.129932543945312,7.560518862090386
2.8599850783387217,-0.2920926025390625,2.4516625,7.1395093505859375,7.554373625223228
2.862472021885103,-0.258573779296875,2.360682836914062,7.311891870117187,7.687876597352894
2.8649589654314846,-0.2154781494140625,2.308010400390625,7.714117749023437,8.054871537584235
2.867445908977866,-0.19632453613281248,2.27927998046875,8.202534887695313,8.515588008864224
2.8699328525242476,-0.229843359375,2.250549560546875,8.820238916015624,9.10573532615148
2.8724197960706292,-0.2537853759765625,2.2936451904296873,9.476250170898437,9.753180639057879
2.8749067396170105,-0.26336218261718747,2.3319524169921872,10.098742602539062,10.367833132660172
2.877393683163392,-0.2920926025390625,2.365471240234375,10.730811840820312,10.992319820671312
2.8798806267097734,-0.3687070556640625,2.4660277099609376,11.243170996093749,11.51634193685631
2.882367570256155,-0.430956298828125,2.480392919921875,11.583147631835937,11.853580953855449
2.8848545138025363,-0.5219359619140624,2.5713725830078125,11.832144604492187,12.11957177670057
2.887341457348918,-0.603338818359375,2.6527754394531247,11.851298217773437,12.159543770573995
2.8898284008952997,-0.679953271484375,2.6767174560546874,11.631031665039062,11.95441551829664
2.892315344441681,-0.7038952880859375,2.7054478759765623,11.348515869140625,11.687759803245115
2.8948022879880626,-0.7134720947265625,2.7724855224609373,10.831368310546875,11.203314593499911
2.897289231534444,-0.7134720947265625,2.8012159423828122,10.24718310546875,10.647094194324445
2.8997761750808255,-0.7230489013671875,2.7341782958984373,9.543287817382812,9.953535705111905
2.902263118627207,-0.689530078125,2.729389892578125,8.839392529296875,9.276846511683596
2.9047500621735884,-0.612915625,2.6862942626953124,8.231265307617187,8.680182658996362
2.90723700571997,-0.5985504150390625,2.6144682128906247,7.6614453125,8.117354920907866
2.9097239492663514,-0.47884033203125,2.5378537597656248,7.264007836914062,7.709461694845187
2.912210892812733,-0.44532150878906246,2.528276953125,7.034164477539062,7.487988080583835
2.9146978363591143,-0.3447650390625,2.442085693359375,7.005434057617187,7.426893819188013
2.917184779905496,-0.26336218261718747,2.39420166015625,7.1586629638671875,7.553013746774964
2.9196717234518776,-0.239420166015625,2.2553379638671873,7.484274389648437,7.820373040124302
2.922158666998259,-0.1771709228515625,2.308010400390625,7.953537915039062,8.283541930248152
2.9246456105446406,-0.15322890625,2.2936451904296873,8.528146313476562,8.832528907473536
2.927132554091022,-0.19632453613281248,2.2649147705078123,9.222464794921875,9.49853878945207
2.9296194976374035,-0.2346317626953125,2.27927998046875,9.888052856445311,10.150061999085889
2.932106441183785,-0.3064578125,2.3319524169921872,10.539275708007812,10.798530034933531
2.9345933847301664,-0.3495534423828125,2.418143676757812,11.118672509765624,11.38395734487543
2.937080328276548,-0.411802685546875,2.4899697265625,11.587936035156249,11.859586512433477
2.9395672718229293,-0.5027823486328125,2.5234885498046875,11.865663427734374,12.14144773622014
2.942054215369311,-0.5698199951171875,2.5905261962890624,11.961431494140625,12.25199429437977
2.9445411589156922,-0.6368576416015624,2.6623522460937497,11.808202587890625,12.121359473863217
2.947028102462074,-0.6655880615234374,2.7054478759765623,11.496956372070311,11.829727870858095
2.9495150460084556,-0.689530078125,2.81558115234375,11.085153686523437,11.457904747724017
2.952001989554837,-0.7134720947265625,2.7964275390625,10.481814868164061,10.871867012691327
2.9544889331012185,-0.70868369140625,2.77727392578125,9.777919580078125,10.189366729476605
2.9569758766475998,-0.6560112548828124,2.7820623291015623,9.093177905273437,9.531846934696965
2.9594628201939814,-0.6272808349609375,2.6958710693359373,8.441955053710936,8.884132326640986
2.961949763740363,-0.55545478515625,2.6671406494140624,7.857769848632812,8.316652947922787
2.9644367072867444,-0.507570751953125,2.5857377929687497,7.37414111328125,7.830812547929493
2.966923650833126,-0.4213794921875,2.5426421630859375,7.038952880859375,7.49596208000661
2.9694105943795073,-0.38307226562499996,2.422932080078125,6.900089184570312,7.323153349506411
2.971897537925889,-0.296881005859375,2.408566870117187,6.986280444335937,7.395772248141293
2.97438448147227,-0.239420166015625,2.360682836914062,7.264007836914062,7.641724630418482
2.976871425018652,-0.21068974609375,2.27927998046875,7.6997525390625,8.032788840824468
2.9793583685650336,-0.1867477294921875,2.3223756103515623,8.341398583984375,8.66067165564674
2.981845312111415,-0.1867477294921875,2.2457611572265623,8.954314208984375,9.23352916511328
2.9843322556577965,-0.22026655273437498,2.2840683837890623,9.658209497070311,9.927058800338468
2.9868191992041777,-0.2346317626953125,2.3223756103515623,10.376469995117187,10.635770310569356
2.9893061427505594,-0.32082302246093747,2.389413256835937,10.970232006835937,11.23201733472184
2.991793086296941,-0.38307226562499996,2.437297290039062,11.458649145507811,11.721254313449979
2.9942800298433223,-0.44053310546874996,2.5043349365234375,11.8369330078125,12.1069709639838
2.996766973389704,-0.55545478515625,2.6240450195312497,11.923124267578125,12.221089746131076
2.9992539169360852,-0.584185205078125,2.70065947265625,11.937489477539062,12.253101197959475
3.001740860482467,-0.6703764648437499,2.7150246826171873,11.664550488281249,11.995103239468149
3.0042278040288486,-0.7278373046875,2.7341782958984373,11.271901416015623,11.621585073828435
3.00671474757523,-0.7134720947265625,2.7916391357421872,10.697293017578124,11.078554481433333
3.0092016911216115,-0.699106884765625,2.839523168945312,10.0748005859375,10.490626726259517
3.0116886346679927,-0.6943184814453125,2.77727392578125,9.361328491210937,9.789269622033023
3.0141755782143744,-0.6655880615234374,2.7629087158203123,8.681375219726561,9.134711147336887
3.0166625217607557,-0.622492431640625,2.6767174560546874,7.967903124999999,8.42851074486961
3.0191494653071373,-0.5506663818359374,2.6431986328124997,7.417236743164062,7.893360081785778
3.021636408853519,-0.4261678955078125,2.5713725830078125,7.067683300781249,7.532975725166514
3.0241233523999003,-0.3591302490234375,2.528276953125,6.890512377929687,7.348490982362903
3.026610295946282,-0.3064578125,2.422932080078125,6.885723974609375,7.306005126608133
3.029097239492663,-0.277727392578125,2.379836450195312,7.153874560546875,7.5444466505043435
3.031584183039045,-0.229843359375,2.3127988037109373,7.517793212890624,7.868867839027408
3.0340711265854265,-0.16759411621093748,2.2744915771484373,8.058882788085937,8.375380081788258
3.036558070131808,-0.201112939453125,2.24097275390625,8.657433203124999,8.945029623468935
3.0390450136781895,-0.181959326171875,2.2649147705078123,9.414000927734374,9.68433588747463
3.0415319572245707,-0.22505495605468748,2.3511060302734372,10.141838232421874,10.413223901916588
3.0440189007709524,-0.277727392578125,2.379836450195312,10.78348427734375,11.046460392088784
3.0465058443173336,-0.36391865234375,2.422932080078125,11.348515869140625,11.609989193893853
3.0489927878637153,-0.38786066894531246,2.5139117431640625,11.765106958007811,12.036940221015334
3.051479731410097,-0.507570751953125,2.5617957763671875,11.97100830078125,12.252569747013261
3.0539666749564782,-0.5602431884765625,2.6479870361328124,12.00931552734375,12.310538867533845
3.05645361850286,-0.622492431640625,2.6958710693359373,11.85608662109375,12.174646098216185
3.058940562049241,-0.718260498046875,2.7820623291015623,11.449072338867186,11.804110570757725
3.061427505595623,-0.7326257080078125,2.81558115234375,10.907982763671875,11.289301379006144
3.0639144491420045,-0.6847416748046875,2.7724855224609373,10.32379755859375,10.711505177345343
3.0664013926883857,-0.7134720947265625,2.77727392578125,9.619902270507811,10.038167790134773
3.0688883362347674,-0.689530078125,2.7629087158203123,8.839392529296875,9.286763515218007
3.0713752797811487,-0.612915625,2.748543505859375,8.245630517578125,8.713241624067736
3.0738622233275303,-0.5458779785156249,2.6527754394531247,7.613561279296874,8.080935320444205
3.0763491668739116,-0.49799394531249996,2.5905261962890624,7.196970190429687,7.66519431359449
3.0788361104202933,-0.4213794921875,2.4947581298828125,6.919242797851562,7.367312922543286
3.081323053966675,-0.3399766357421875,2.442085693359375,6.871358764648437,7.300338205800606
3.083809997513056,-0.28730419921875,2.379836450195312,6.981492041015625,7.3815578539581646
3.086296941059438,-0.2154781494140625,2.3127988037109373,7.350199096679687,7.708495047682948
3.088783884605819,-0.2154781494140625,2.2649147705078123,7.829039428710937,8.152921447361667
3.091270828152201,-0.1484405029296875,2.308010400390625,8.456320263671875,8.766886505083141
3.0937577716985825,-0.181959326171875,2.3127988037109373,9.150638745117186,9.440144964271868
3.0962447152449637,-0.22026655273437498,2.31758720703125,9.90241806640625,10.172394574451843
3.0987316587913454,-0.258573779296875,2.3127988037109373,10.577582934570312,10.830565979832251
3.1012186023377266,-0.3687070556640625,2.3319524169921872,11.104307299804686,11.352514592657778
3.1037055458841083,-0.36391865234375,2.446874096679687,11.640608471679688,11.900562811122281
3.1061924894304895,-0.44532150878906246,2.5570073730468748,11.923124267578125,12.202355930397893
3.108679432976871,-0.5506663818359374,2.6336218261718747,12.028469140624999,12.325715689335897
3.111166376523253,-0.59376201171875,2.6862942626953124,11.947066284179687,12.259735845071585
3.113653320069634,-0.6607996582031249,2.7533319091796873,11.611878051757811,11.952121346408896
3.116140263616016,-0.699106884765625,2.77727392578125,11.085153686523437,11.449132419052338
3.118627207162397,-0.7422025146484375,2.7724855224609373,10.51533369140625,10.899990054428
3.1211141507087787,-0.7230489013671875,2.834734765625,9.86411083984375,10.288790189615797
3.1236010942551604,-0.70868369140625,2.748543505859375,9.0788126953125,9.512179767783742
3.1260880378015417,-0.6607996582031249,2.7533319091796873,8.40843623046875,8.872389341786572
3.1285749813479233,-0.5793968017578125,2.7246014892578123,7.81467421875,8.296281520919417
3.1310619248943046,-0.55545478515625,2.6671406494140624,7.264007836914062,7.7580912031799905
3.1335488684406863,-0.4740519287109375,2.5474305664062498,6.986280444335937,7.451324859961896
3.136035811987068,-0.3399766357421875,2.4899697265625,6.900089184570312,7.343484466319276
3.138522755533449,-0.3064578125,2.39420166015625,6.919242797851562,7.328167497809937
3.141009699079831,-0.2442085693359375,2.3511060302734372,7.240065820312499,7.616159824569238
3.143496642626212,-0.16280571289062498,2.3319524169921872,7.675810522460937,8.023875307604646
3.1459835861725938,-0.1771709228515625,2.288856787109375,8.240842114257813,8.554632293671418
3.148470529718975,-0.2059013427734375,2.250549560546875,8.935160595703124,9.216532078739782
3.1509574732653567,-0.181959326171875,2.3223756103515623,9.662997900390625,9.93982223658403
3.1534444168117384,-0.21068974609375,2.35589443359375,10.386046801757812,10.651976197854122
3.1559313603581196,-0.3016694091796875,2.4133552734375,11.018116040039061,11.28335806309582
3.1584183039045013,-0.40222587890625,2.4660277099609376,11.496956372070311,11.765334000581761
3.1609052474508825,-0.4740519287109375,2.4851813232421875,11.875240234375,12.141753665127007
3.163392190997264,-0.5219359619140624,2.5809493896484375,11.985373510742187,12.271222233024154
3.165879134543646,-0.6081272216796875,2.6623522460937497,11.985373510742187,12.292563458938448
3.168366078090027,-0.63206923828125,2.8012159423828122,11.765106958007811,12.110493962312392
3.170853021636409,-0.689530078125,2.8107927490234372,11.291055029296874,11.656068431560104
3.17333996518279,-0.689530078125,2.849099975585937,10.773907470703124,11.165567813004202
3.1758269087291717,-0.6847416748046875,2.829946362304687,10.108319409179687,10.519296024579527
3.178313852275553,-0.7038952880859375,2.806004345703125,9.337386474609374,9.775270591697833
3.1808007958219346,-0.6272808349609375,2.8012159423828122,8.647856396484375,9.111844613248442
3.1832877393683163,-0.6368576416015624,2.6815058593749996,7.987056738281249,8.449209233416621
3.1857746829146976,-0.5315127685546874,2.6192566162109374,7.484274389648437,7.9471613916070005
3.1882616264610792,-0.44053310546874996,2.5857377929687497,7.101202124023437,7.570150656178238
3.1907485700074605,-0.38307226562499996,2.4516625,6.909665991210937,7.34172169757846
3.193235513553842,-0.26815058593749996,2.4660277099609376,6.900089184570312,7.33242307549544
3.195722457100224,-0.2920926025390625,2.3511060302734372,7.058106494140625,7.445124910750405
3.198209400646605,-0.22026655273437498,2.3032219970703123,7.484274389648437,7.833754659267134
3.2006963441929868,-0.19153613281249998,2.288856787109375,8.02536396484375,8.347575591169091
3.203183287739368,-0.17238251953125,2.269703173828125,8.63827958984375,8.933148521245826
