Time (s),Acceleration x (m/s^2),Acceleration y (m/s^2),Acceleration z (m/s^2),Absolute acceleration (m/s^2)
0.0,0.6368576416015624,0.852335791015625,26.063279272460935,26.084987835738094
0.002486943546381497,0.16280571289062498,1.0869675537109373,27.360936572265622,27.38300301783047
0.004973887092762994,-0.44053310546874996,1.455674609375,27.135881616210934,27.178468114932592
0.007460830639144491,-0.8858546142578124,1.9201497314453124,25.63232297363281,25.719403072649172
0.009947774185525988,-1.3646949462890625,2.31758720703125,22.89335627441406,23.05079964482524
0.012434717731907486,-1.7860744384765623,2.73896669921875,19.239804541015623,19.51568802926748
0.014921661278288981,-2.0063409912109376,3.1794998046874996,14.949395166015623,15.414896659099355
0.01740860482467048,-2.1308394775390624,3.5529952636718747,10.520122094726561,11.306512331867316
0.019895548371051976,-2.1068974609374997,3.7397429931640622,6.124367846679687,7.478808467080071
0.022382491917433474,-1.9919757812499999,3.902548706054687,2.2553379638671873,4.927920783401073
0.02486943546381497,-1.7477672119140624,3.9408559326171875,-0.93852705078125,4.412014135713313
0.027356379010196465,-1.39821376953125,3.878606689453125,-3.1076737548828124,5.162966953561175
0.029843322556577963,-1.024718310546875,3.6822821533203123,-4.276044165039062,5.735311950887757
0.032330266102959464,-0.6272808349609375,3.4332851806640625,-4.299986181640625,5.538123286816309
0.03481720964934096,-0.2154781494140625,3.0406361083984375,-3.246537451171875,4.4533026169835885
0.03730415319572245,0.1388636962890625,2.7150246826171873,-1.2497732666015624,2.992085455210055
0.03979109674210395,0.469263525390625,2.375048046875,1.5322890624999999,2.865130233040711
0.04227804028848545,0.612915625,2.0781670410156248,4.716577270507813,5.190428206073532
0.04476498383486695,0.7565677246093749,1.8291700683593748,8.173804467773436,8.41007356319167
0.04725192738124844,0.7613561279296874,1.637633935546875,11.568782421875,11.70889554078756
0.04973887092762994,0.6607996582031249,1.5514426757812498,14.753070629882812,14.8491320815335
0.05222581447401144,0.5027823486328125,1.5658078857421873,17.238251953124998,17.31652028626326
0.05471275802039293,0.229843359375,1.6232687255859375,19.033903198242186,19.104379086622217
0.05719970156677443,-0.0909796630859375,1.7094599853515624,20.0346794921875,20.107682937009223
0.059686645113155926,-0.40222587890625,1.9728221679687499,20.240580834960937,20.340475055924305
0.062173588659537427,-0.7422025146484375,2.1883003173828124,19.426552270507813,19.56349805046583
0.06466053220591893,-0.9911994873046874,2.442085693359375,18.052280517578122,18.243658921462938
0.06714747575230041,-1.2210428466796874,2.7581203125,15.940594653320312,16.223462367605656
0.06963441929868192,-1.39821376953125,2.978386865234375,13.469778540039062,13.865811335151083
0.07212136284506342,-1.4939818359375,3.189076611328125,10.697293017578124,11.262072156710635
0.0746083063914449,-1.4413093994140624,3.27526787109375,8.015787158203125,8.7782456207304
0.0770952499378264,-1.4125789794921875,3.375824340820312,5.568913061523437,6.6636598082573535
0.0795821934842079,-1.2928688964843749,3.323151904296875,3.4572271972656248,4.966615392401731
0.0820691370305894,-1.1013327636718748,3.27526787109375,1.924938134765625,3.955464613219423
0.0845560805769709,-0.7900865478515624,3.2225954345703123,1.0917559570312498,3.4930343768309293
0.0870430241233524,-0.5746083984375,3.0645781249999997,0.86191259765625,3.234919971464822
0.0895299676697339,-0.32561142578124996,2.7964275390625,1.3646949462890625,3.1286454062826223
0.09201691121611538,-0.11013327636718749,2.6336218261718747,2.5330653564453125,3.6557507247999923
0.09450385476249688,0.086191259765625,2.39420166015625,4.108450048828125,4.755942843061799
0.09699079830887838,0.181959326171875,2.212242333984375,6.038176586914062,6.4332497103260895
0.09947774185525989,0.277727392578125,2.0877438476562498,8.202534887695313,8.468611778908839
0.10196468540164137,0.2825157958984375,2.0159177978515626,10.342951171874999,10.541365124423745
0.10445162894802287,0.19153613281249998,1.9009961181640624,12.397176196289061,12.54354216213601
0.10693857249440437,0.1197100830078125,1.924938134765625,14.101847778320312,14.233124326358082
0.10942551604078586,-0.0526724365234375,2.0302830078125,15.433023901367186,15.566086541502726
0.11191245958716736,-0.2346317626953125,2.1212626708984375,16.136919189453124,16.27743739997034
0.11439940313354886,-0.430956298828125,2.1930887207031247,16.376339355468748,16.528153319528755
0.11688634667993036,-0.6512228515624999,2.39420166015625,16.060304736328124,16.250836317421196
0.11937329022631185,-0.8379705810546875,2.5617957763671875,15.184026928710937,15.421402856625749
0.12186023377269335,-0.9720458740234375,2.70065947265625,13.94861887207031,14.240870872482832
0.12434717731907485,-1.0726023437499999,2.858676782226562,12.358868969726561,12.7304418990045
0.12683412086545634,-1.120486376953125,2.959233251953125,10.587159741210938,11.049909617110913
0.12932106441183785,-1.1540052001953125,3.0310593017578125,8.839392529296875,9.415620467066404
0.13180800795821934,-1.1013327636718748,3.0789433349609374,7.149086157226562,7.861441267330435
0.13429495150460083,-0.9959878906249999,3.0502129150390624,5.702988354492187,6.543689087725381
0.13678189505098234,-0.8475473876953125,3.0166940917968748,4.6639048339843745,5.618788847993323
0.13926883859736383,-0.7422025146484375,2.91134921875,3.902548706054687,4.925109668768384
0.14175578214374532,-0.5698199951171875,2.7629087158203123,3.706224169921875,4.657730884937889
0.14424272569012683,-0.354341845703125,2.6767174560546874,3.9360675292968748,4.773154311181378
0.14672966923650832,-0.22505495605468748,2.5426421630859375,4.572925170898437,5.237110226201432
0.1492166127828898,-0.1149216796875,2.370259643554687,5.549759448242187,6.035823697199879
0.15170355632927132,0.0,2.308010400390625,6.885723974609375,7.262238405809989
0.1541904998756528,0.023942016601562498,2.24097275390625,8.312668164062499,8.609470605660217
0.15667744342203432,0.023942016601562498,2.1595698974609374,9.82580361328125,10.060354467360943
0.1591643869684158,-0.0047884033203125,2.1356278808593747,11.243170996093749,11.444204796389915
0.1616513305147973,-0.08140285644531249,2.1930887207031247,12.483367456054687,12.674806807395449
0.1641382740611788,-0.19153613281249998,2.1930887207031247,13.455413330078125,13.634312307934424
0.1666252176075603,-0.33518823242187495,2.3127988037109373,14.073117358398436,14.265834067479412
0.1691121611539418,-0.45489831542968745,2.408566870117187,14.341267944335936,14.549229982938765
0.1715991047003233,-0.612915625,2.518700146484375,14.140155004882812,14.375795614621891
0.1740860482467048,-0.7661445312499999,2.6001030029296874,13.589488623046874,13.857189978654716
0.17657299179308628,-0.8475473876953125,2.70065947265625,12.746729638671875,13.057220785566624
0.1790599353394678,-0.8954314208984374,2.829946362304687,11.707646118164062,12.078053298078121
0.18154687888584928,-0.928950244140625,2.901772412109375,10.47702646484375,10.911063890968851
0.18403382243223076,-0.9528922607421875,2.896984008789062,9.212887988281249,9.704526010701338
0.18652076597861228,-0.9145850341796874,2.935291235351562,8.0062103515625,8.576234874030893
0.18900770952499377,-0.86191259765625,2.901772412109375,6.9336080078124995,7.565586326497057
0.19149465307137528,-0.7661445312499999,2.8203695556640622,6.019022973632812,6.691046213440807
0.19398159661775677,-0.6512228515624999,2.7820623291015623,5.453991381835937,6.157108412115535
0.19646854016413826,-0.51714755859375,2.6862942626953124,5.252878442382812,5.92252905384172
0.19895548371051977,-0.38307226562499996,2.5761609863281247,5.3199160888671875,5.923247165259788
0.20144242725690126,-0.3016694091796875,2.4756045166015626,5.693411547851563,6.215670294365879
0.20392937080328274,-0.22505495605468748,2.360682836914062,6.406883642578125,6.831663867556757
0.20641631434966426,-0.1005564697265625,2.3127988037109373,7.359775903320312,7.715273893851399
0.20890325789604575,-0.05746083984375,2.2840683837890623,8.437166650390624,8.741055497844872
0.21139020144242723,-0.11013327636718749,2.2457611572265623,9.504980590820312,9.767304057197247
0.21387714498880875,-0.1484405029296875,2.221819140625,10.63025537109375,10.860978046715
0.21636408853519024,-0.21068974609375,2.2170307373046874,11.549628808593749,11.762378206619674
0.21885103208157172,-0.32082302246093747,2.269703173828125,12.349292163085936,12.56023474455323
0.22133797562795324,-0.36391865234375,2.346317626953125,12.904746948242186,13.121361857301272
0.22382491917433472,-0.488417138671875,2.4564509033203126,13.1393787109375,13.375947639371544
0.22631186272071624,-0.5889736083984375,2.5330653564453125,13.081917871093749,13.33791157555992
0.22879880626709773,-0.6943184814453125,2.6192566162109374,12.770671655273437,13.054985174332666
0.2312857498134792,-0.7709329345703124,2.7150246826171873,12.191274853515624,12.513707650843859
0.23377269335986073,-0.814028564453125,2.806004345703125,11.391611499023437,11.760319529525267
0.23625963690624222,-0.8906430175781249,2.834734765625,10.414777221679687,10.83035321461963
0.2387465804526237,-0.8714894042968749,2.906560815429687,9.437942944335937,9.913745839799077
0.24123352399900522,-0.7900865478515624,2.849099975585937,8.456320263671875,8.958290005674485
0.2437204675453867,-0.82360537109375,2.786850732421875,7.580042456054687,8.117998918926165
0.2462074110917682,-0.699106884765625,2.7820623291015623,6.809109521484374,7.388680106412909
0.2486943546381497,-0.6272808349609375,2.6575638427734374,6.339845996093749,6.902881577900055
0.2511812981845312,-0.5219359619140624,2.5761609863281247,6.042964990234375,6.589874691450255
0.2536682417309127,-0.44053310546874996,2.5330653564453125,6.0525417968749995,6.575998153889355
0.2561551852772942,-0.3447650390625,2.422932080078125,6.320692382812499,6.777950648608725
0.2586421288236757,-0.27293898925781246,2.370259643554687,6.852205151367187,7.255710985571578
0.26112907237005717,-0.21068974609375,2.3223756103515623,7.6231380859375,7.971828706259041
0.2636160159164387,-0.1388636962890625,2.27927998046875,8.427589843749999,8.731475873527387
0.2661029594628202,-0.181959326171875,2.2601263671875,9.303867651367186,9.576180536424419
0.26858990300920166,-0.21068974609375,2.269703173828125,10.228029492187499,10.478956530086943
0.2710768465555832,-0.2346317626953125,2.3223756103515623,11.123460913085937,11.365731970470355
0.2735637901019647,-0.33518823242187495,2.3223756103515623,11.769895361328125,12.001508923603032
0.27605073364834615,-0.4070142822265625,2.4660277099609376,12.23915888671875,12.491755823205084
0.27853767719472766,-0.4836287353515625,2.4516625,12.512097875976561,12.759198212488949
0.2810246207411092,-0.5746083984375,2.6288334228515624,12.550405102539061,12.835638208304832
0.28351156428749064,-0.6703764648437499,2.6192566162109374,12.31577333984375,12.609051621140555
0.28599850783387215,-0.7422025146484375,2.7629087158203123,11.884817041015625,12.22429569517695
0.28848545138025367,-0.7900865478515624,2.806004345703125,11.262324609375,11.633479821108324
0.2909723949266351,-0.82360537109375,2.8012159423828122,10.43871923828125,10.839372486395012
0.29345933847301664,-0.833182177734375,2.85388837890625,9.600748657226562,10.050534622585406
0.29594628201939815,-0.7757213378906249,2.839523168945312,8.772354882812499,9.253045207446052
0.2984332255657796,-0.7565677246093749,2.786850732421875,7.939172705078125,8.448040895247754
0.30092016911216113,-0.6464344482421874,2.73896669921875,7.331045483398437,7.852645665949793
0.30340711265854264,-0.603338818359375,2.6910826660156246,6.852205151367187,7.386383355979573
0.30589405620492416,-0.507570751953125,2.6527754394531247,6.555324145507812,7.089930906086582
0.3083809997513056,-0.4644751220703125,2.4851813232421875,6.469132885742187,6.945613266069819
0.31086794329768713,-0.36391865234375,2.442085693359375,6.6510922119140625,7.094592795264441
0.31335488684406865,-0.26815058593749996,2.408566870117187,7.101202124023437,7.503343968578257
0.3158418303904501,-0.22026655273437498,2.3319524169921872,7.651868505859374,8.002350346012836
0.3183287739368316,-0.21068974609375,2.3127988037109373,8.322244970703125,8.640207742175487
0.32081571748321314,-0.2442085693359375,2.29843359375,9.13627353515625,9.424114224658576
0.3233026610295946,-0.239420166015625,2.2266075439453124,9.931148486328125,10.180511452188762
0.3257896045759761,-0.2346317626953125,2.346317626953125,10.754753857421875,11.010222023390225
0.3282765481223576,-0.3016694091796875,2.35589443359375,11.405976708984374,11.65064580615885
0.3307634916687391,-0.38307226562499996,2.446874096679687,11.851298217773437,12.107320374562363
0.3332504352151206,-0.49320554199218747,2.5426421630859375,12.138602416992187,12.411847143514244
0.3357373787615021,-0.5027823486328125,2.6048914062499997,12.215216870117187,12.499990900494582
0.3382243223078836,-0.622492431640625,2.6575638427734374,12.105083593749999,12.408996382364771
0.3407112658542651,-0.7038952880859375,2.6862942626953124,11.731588134765625,12.055778929880596
0.3431982094006466,-0.7517793212890624,2.7724855224609373,11.243170996093749,11.604341522360372
0.34568515294702806,-0.7948749511718749,2.806004345703125,10.520122094726561,10.91688854317288
0.3481720964934096,-0.8092401611328125,2.829946362304687,9.787496386718749,10.22049664018067
0.3506590400397911,-0.7900865478515624,2.806004345703125,8.963891015625,9.425987443297569
0.35314598358617255,-0.718260498046875,2.7916391357421872,8.264784130859374,8.753045409282809
0.35563292713255407,-0.6751648681640625,2.7820623291015623,7.64229169921875,8.160903186422248
0.3581198706789356,-0.6272808349609375,2.6671406494140624,7.096413720703125,7.606984171473589
0.36060681422531704,-0.5410895751953124,2.6144682128906247,6.818686328125,7.322752570308472
0.36309375777169856,-0.45489831542968745,2.5474305664062498,6.698976245117187,7.1814077798636395
0.36558070131808007,-0.373495458984375,2.442085693359375,6.794744311523437,7.229926116536226
0.36806764486446153,-0.33518823242187495,2.39420166015625,7.153874560546875,7.551322663526489
0.37055458841084304,-0.2346317626953125,2.3223756103515623,7.6231380859375,7.972497401497987
0.37304153195722456,-0.2442085693359375,2.3032219970703123,8.307879760742187,8.62469335756787
0.3755284755036061,-0.2059013427734375,2.2744915771484373,9.011775048828124,9.296655141939828
0.37801541904998753,-0.229843359375,2.3223756103515623,9.720458740234374,9.996678176574626
0.38050236259636905,-0.26336218261718747,2.3032219970703123,10.486603271484375,10.739787678559024
0.38298930614275056,-0.296881005859375,2.437297290039062,11.123460913085937,11.391222019459654
0.385476249689132,-0.39264907226562495,2.461239306640625,11.621454858398437,11.88570928654645
0.38796319323551354,-0.4740519287109375,2.4660277099609376,11.9518546875,12.212814924026542
0.39045013678189505,-0.5123591552734374,2.6096798095703124,12.081141577148436,12.370405103292942
0.3929370803282765,-0.622492431640625,2.6527754394531247,11.994950317382811,12.300550698082487
0.395424023874658,-0.6560112548828124,2.70065947265625,11.789048974609374,12.112208224742472
0.39791096742103954,-0.7565677246093749,2.7724855224609373,11.262324609375,11.623210670942425
0.400397910967421,-0.8044517578125,2.7916391357421872,10.654197387695312,11.043202147512678
0.4028848545138025,-0.7517793212890624,2.844311572265625,9.983820922851562,10.408264057354167
0.40537179806018403,-0.7661445312499999,2.806004345703125,9.284714038085937,9.72967381775459
0.4078587416065655,-0.737414111328125,2.8203695556640622,8.537723120117187,9.021694967016236
0.410345685152947,-0.6847416748046875,2.7246014892578123,7.857769848632812,8.344870965483118
0.4128326286993285,-0.622492431640625,2.6671406494140624,7.350199096679687,7.843886972161036
0.41531957224571,-0.5363011718749999,2.5857377929687497,6.995857250976562,7.477678620867758
0.4178065157920915,-0.49320554199218747,2.480392919921875,6.83783994140625,7.290518212592366
0.420293459338473,-0.39743747558593745,2.5139117431640625,6.919242797851562,7.372491417088189
0.42278040288485447,-0.354341845703125,2.389413256835937,7.134720947265625,7.53253588447546
0.425267346431236,-0.3016694091796875,2.35589443359375,7.5465236328125,7.911463957781165
0.4277542899776175,-0.258573779296875,2.2457611572265623,8.078036401367187,8.38838337681706
0.43024123352399896,-0.26336218261718747,2.2601263671875,8.748412866210938,9.039483310044558
0.43272817707038047,-0.24899697265624998,2.308010400390625,9.543287817382812,9.821570845140327
0.435215120616762,-0.22505495605468748,2.2936451904296873,10.223241088867187,10.479795625580127
0.43770206416314344,-0.3064578125,2.384624853515625,10.845733520507812,11.109018304094809
0.44018900770952496,-0.36391865234375,2.422932080078125,11.367669482421874,11.628712143302069
0.4426759512559065,-0.4261678955078125,2.4851813232421875,11.769895361328125,12.036950697795794
0.445162894802288,-0.51714755859375,2.5761609863281247,11.994950317382811,12.27936806767028
0.44764983834866945,-0.622492431640625,2.6192566162109374,11.942277880859374,12.241977088390488
0.45013678189505096,-0.6943184814453125,2.7246014892578123,11.745953344726562,12.077787521124701
0.4526237254414325,-0.70868369140625,2.7629087158203123,11.3389390625,11.692195525627742
0.45511066898781394,-0.7517793212890624,2.858676782226562,10.831368310546875,11.227454946330361
0.45759761253419545,-0.7709329345703124,2.839523168945312,10.146626635742187,10.564623112148167
0.46008455608057697,-0.7517793212890624,2.8107927490234372,9.4618849609375,9.89914112637535
0.4625714996269584,-0.7517793212890624,2.7916391357421872,8.79150849609375,9.254676809538722
0.46505844317333994,-0.737414111328125,2.7629087158203123,8.097190014648437,8.587312168360018
0.46754538671972146,-0.6416460449218749,2.7341782958984373,7.5465236328125,8.05217110730538
0.4700323302661029,-0.5602431884765625,2.6527754394531247,7.1586629638671875,7.654903356192281
0.47251927381248443,-0.469263525390625,2.5713725830078125,6.919242797851562,7.3964914731598945
0.47500621735886595,-0.430956298828125,2.499546533203125,6.904877587890625,7.356003718521467
0.4774931609052474,-0.3064578125,2.398990063476562,7.082048510742187,7.4836141552065065
0.4799801044516289,-0.28730419921875,2.39420166015625,7.4794859863281244,7.858591216755231
0.48246704799801043,-0.26815058593749996,2.2936451904296873,7.958326318359375,8.286595850275996
0.4849539915443919,-0.22505495605468748,2.27927998046875,8.609549169921875,8.908990059030982
0.4874409350907734,-0.26336218261718747,2.2601263671875,9.255983618164063,9.53156669045601
0.4899278786371549,-0.229843359375,2.31758720703125,10.007762939453125,10.275181627802748
0.4924148221835364,-0.3016694091796875,2.379836450195312,10.658985791015624,10.925593990954727
0.4949017657299179,-0.38307226562499996,2.375048046875,11.152191333007812,11.40872337791001
0.4973887092762994,-0.44053310546874996,2.422932080078125,11.626243261718749,11.884199664358817
0.49987565282268087,-0.49320554199218747,2.5570073730468748,11.85608662109375,12.138711973654623
0.5023625963690624,-0.5985504150390625,2.6479870361328124,11.908759057617187,12.21428017671325
0.5048495399154439,-0.6751648681640625,2.6815058593749996,11.774683764648437,12.095019596120583
0.5073364834618254,-0.7038952880859375,2.7629087158203123,11.487379565429686,11.835920852590936
0.5098234270082069,-0.737414111328125,2.77727392578125,10.989385620117186,11.358856735519145
0.5123103705545884,-0.7613561279296874,2.829946362304687,10.342951171874999,10.750111558065248
0.5147973141009698,-0.8475473876953125,2.7916391357421872,9.686939916992188,10.11673814003373
0.5172842576473514,-0.7565677246093749,2.7820623291015623,8.935160595703124,9.388789080383711
0.5197712011937329,-0.7134720947265625,2.786850732421875,8.298302954101562,8.782790635828942
0.5222581447401143,-0.6607996582031249,2.7150246826171873,7.762001782226562,8.249647682343184
0.5247450882864959,-0.5602431884765625,2.6575638427734374,7.292738256835937,7.782065875548058
0.5272320318328774,-0.5315127685546874,2.5570073730468748,7.038952880859375,7.507839248939154
0.5297189753792588,-0.45968671875,2.5043349365234375,6.9144543945312495,7.368357003276884
0.5322059189256404,-0.3447650390625,2.4516625,7.048529687499999,7.470694927624528
0.5346928624720219,-0.296881005859375,2.384624853515625,7.378929516601562,7.7603591949482755
0.5371798060184033,-0.22505495605468748,2.346317626953125,7.819462622070312,8.166997724852777
0.5396667495647849,-0.229843359375,2.375048046875,8.389282617187499,8.72202637154107
0.5421536931111663,-0.21068974609375,2.3127988037109373,9.069235888671875,9.361862425817296
0.5446406366575478,-0.2920926025390625,2.2457611572265623,9.753977563476562,10.013432956412592
0.5471275802039294,-0.277727392578125,2.327164013671875,10.381258398437499,10.642525583067524
0.5496145237503108,-0.3495534423828125,2.4133552734375,11.042058056640624,11.308117323901993
0.5521014672966923,-0.39743747558593745,2.461239306640625,11.4538607421875,11.722055339102308
0.5545884108430739,-0.469263525390625,2.5426421630859375,11.722011328125,12.003782195727112
0.5570753543894553,-0.5267243652343749,2.6240450195312497,11.908759057617187,12.205801617011383
0.5595622979358368,-0.612915625,2.6958710693359373,11.81777939453125,12.13685693265184
0.5620492414822184,-0.70868369140625,2.7150246826171873,11.568782421875,11.904214309494337
0.5645361850285998,-0.737414111328125,2.7533319091796873,11.118672509765624,11.478218265615562
0.5670231285749813,-0.7996633544921875,2.806004345703125,10.582371337890624,10.977235763234363
0.5695100721213628,-0.7661445312499999,2.7964275390625,9.888052856445311,10.304395844291296
0.5719970156677443,-0.7230489013671875,2.858676782226562,9.2320416015625,9.691513029036807
0.5744839592141258,-0.7326257080078125,2.767697119140625,8.547299926757812,9.014057011650602
0.5769709027605073,-0.6464344482421874,2.7341782958984373,7.958326318359375,8.439701786149067
0.5794578463068888,-0.5793968017578125,2.6815058593749996,7.48906279296875,7.975727919430209
0.5819447898532703,-0.55545478515625,2.5617957763671875,7.1203557373046875,7.587541989599367
0.5844317333996518,-0.49799394531249996,2.4516625,6.962338427734375,7.398162161360139
0.5869186769460333,-0.39743747558593745,2.43250888671875,7.005434057617187,7.426382858874744
0.5894056204924147,-0.33518823242187495,2.389413256835937,7.292738256835937,7.681515354786182
0.5918925640387963,-0.2346317626953125,2.3367408203125,7.68059892578125,8.031625587892673
0.5943795075851778,-0.2537853759765625,2.3415292236328122,8.192958081054687,8.524771447968876
0.5968664511315592,-0.277727392578125,2.2553379638671873,8.863334545898438,9.149993503187066
0.5993533946779408,-0.239420166015625,2.3032219970703123,9.533711010742186,9.810902059445416
0.6018403382243223,-0.296881005859375,2.2936451904296873,10.184933862304687,10.44422445041957
0.6043272817707037,-0.32561142578124996,2.384624853515625,10.850521923828124,11.114237918637448
0.6068142253170853,-0.39264907226562495,2.4564509033203126,11.367669482421874,11.636676234903154
0.6093011688634667,-0.4165910888671875,2.518700146484375,11.650185278320311,11.926617944011424
0.6117881124098483,-0.5315127685546874,2.5570073730468748,11.860875024414062,12.14500509978164
0.6142750559562298,-0.5985504150390625,2.6767174560546874,11.846509814453125,12.159887899270515
0.6167619995026112,-0.6703764648437499,2.7054478759765623,11.674127294921874,12.002253992991584
0.6192489430489928,-0.7038952880859375,2.7724855224609373,11.262324609375,11.619901038983887
0.6217358865953743,-0.74699091796875,2.7916391357421872,10.721235034179687,11.103878833716491
0.6242228301417557,-0.7565677246093749,2.8203695556640622,10.09395419921875,10.50784423791879
0.6267097736881373,-0.7709329345703124,2.834734765625,9.423577734375,9.870859947180715
0.6291967172345188,-0.7757213378906249,2.7916391357421872,8.719682446289061,9.188463126246292
0.6316836607809002,-0.679953271484375,2.7724855224609373,8.130708837890625,8.617275592100471
0.6341706043272818,-0.6368576416015624,2.6431986328124997,7.556100439453124,8.0303636604622
0.6366575478736632,-0.5267243652343749,2.6240450195312497,7.225700610351562,7.705439645594095
0.6391444914200447,-0.49320554199218747,2.5378537597656248,7.029376074218749,7.489731731204217
0.6416314349664263,-0.4070142822265625,2.4516625,6.986280444335937,7.415148284879635
0.6441183785128077,-0.3447650390625,2.4133552734375,7.1778165771484375,7.58051432444892
0.6466053220591892,-0.316034619140625,2.370259643554687,7.532158422851562,7.90262103135998
0.6490922656055708,-0.2537853759765625,2.288856787109375,8.030152368164062,8.353838606586024
0.6515792091519522,-0.26336218261718747,2.29843359375,8.614337573242187,8.919583423562084
0.6540661526983337,-0.1867477294921875,2.2744915771484373,9.323021264648437,9.598276519775652
0.6565530962447153,-0.3016694091796875,2.2649147705078123,10.036493359375,10.293300845835496
0.6590400397910967,-0.33039982910156246,2.365471240234375,10.635043774414061,10.899943775962772
0.6615269833374782,-0.37828386230468747,2.418143676757812,11.161768139648437,11.426967468457887
0.6640139268838597,-0.39743747558593745,2.4660277099609376,11.611878051757811,11.87749809943955
0.6665008704302412,-0.507570751953125,2.5330653564453125,11.846509814453125,12.124926513269921
0.6689878139766227,-0.59376201171875,2.6288334228515624,11.880028637695311,12.181888151026607
0.6714747575230042,-0.6177040283203125,2.7054478759765623,11.769895361328125,12.092619372693516
0.6739617010693857,-0.679953271484375,2.77727392578125,11.468225952148437,11.819297500264456
0.6764486446157671,-0.699106884765625,2.77727392578125,10.912771166992187,11.2823125040165
0.6789355881621487,-0.7422025146484375,2.834734765625,10.328585961914062,10.736213193525998
0.6814225317085302,-0.7757213378906249,2.8203695556640622,9.6917283203125,10.123528330543795
0.6839094752549116,-0.7326257080078125,2.8203695556640622,9.011775048828124,9.471183367944672
0.6863964188012932,-0.7278373046875,2.7724855224609373,8.303091357421874,8.783948383502949
0.6888833623476747,-0.6368576416015624,2.7341782958984373,7.75721337890625,8.249586536021699
0.6913703058940561,-0.59376201171875,2.6527754394531247,7.321468676757812,7.809844713147106
0.6938572494404377,-0.5219359619140624,2.5474305664062498,7.058106494140625,7.521880544227626
0.6963441929868192,-0.4070142822265625,2.499546533203125,7.0102224609374995,7.453630823257668
0.6988311365332006,-0.39264907226562495,2.4133552734375,7.077260107421875,7.487727799398475
0.7013180800795822,-0.3447650390625,2.3223756103515623,7.345410693359375,7.711507612771565
0.7038050236259636,-0.2537853759765625,2.24097275390625,7.809885815429687,8.129002543415739
0.7062919671723451,-0.2442085693359375,2.2553379638671873,8.389282617187499,8.690583984269528
0.7087789107187267,-0.2537853759765625,2.288856787109375,9.05965908203125,9.347764176079085
0.7112658542651081,-0.258573779296875,2.2840683837890623,9.720458740234374,9.988550790868686
0.7137527978114896,-0.2825157958984375,2.365471240234375,10.395623608398436,10.665095384983625
0.7162397413578712,-0.316034619140625,2.4564509033203126,11.022904443359375,11.2977188533062
0.7187266849042526,-0.39743747558593745,2.518700146484375,11.410765112304686,11.692192584074654
0.7212136284506341,-0.4740519287109375,2.5234885498046875,11.793837377929687,12.070100239399892
0.7237005719970157,-0.5602431884765625,2.6384102294921874,11.81777939453125,12.121674421759183
0.7261875155433971,-0.6177040283203125,2.6384102294921874,11.789048974609374,12.096464050764194
0.7286744590897786,-0.6847416748046875,2.73896669921875,11.5304751953125,11.87108537457129
0.7311614026361601,-0.70868369140625,2.7724855224609373,11.109095703125,11.471744239125584
0.7336483461825416,-0.7422025146484375,2.8203695556640622,10.568006127929687,10.96303345444255
0.7361352897289231,-0.7613561279296874,2.829946362304687,9.883264453125,10.30859717990095
0.7386222332753046,-0.7805097412109374,2.825157958984375,9.203311181640624,9.65876025457974
0.7411091768216861,-0.7038952880859375,2.7629087158203123,8.542511523437499,9.005755730454156
0.7435961203680675,-0.6607996582031249,2.7246014892578123,7.963114721679687,8.442233444662556
0.7460830639144491,-0.612915625,2.6910826660156246,7.4603323730468745,7.954505050286291
0.7485700074608306,-0.5602431884765625,2.6384102294921874,7.149086157226562,7.640975975146882
0.7510569510072121,-0.45968671875,2.5043349365234375,6.962338427734375,7.413309769326637
0.7535438945535936,-0.39264907226562495,2.43250888671875,6.9910688476562495,7.412578256624777
0.7560308380999751,-0.296881005859375,2.389413256835937,7.268796240234375,7.657207900117952
0.7585177816463566,-0.2920926025390625,2.31758720703125,7.68059892578125,8.027959168391742
0.7610047251927381,-0.2537853759765625,2.288856787109375,8.212111694335936,8.528895056758833
0.7634916687391196,-0.258573779296875,2.27927998046875,8.820238916015624,9.113648674614463
0.7659786122855011,-0.239420166015625,2.2840683837890623,9.5001921875,9.773839675232848
0.7684655558318826,-0.28730419921875,2.327164013671875,10.189722265624999,10.456035381538836
0.770952499378264,-0.32082302246093747,2.375048046875,10.817003100585938,11.079320228009998
0.7734394429246456,-0.3399766357421875,2.446874096679687,11.281478222656249,11.54878902076403
0.7759263864710271,-0.43574470214843747,2.4947581298828125,11.664550488281249,11.936307203893888
0.7784133300174085,-0.5363011718749999,2.5617957763671875,11.851298217773437,12.136872990740533
0.7809002735637901,-0.584185205078125,2.6575638427734374,11.81777939453125,12.126987579364313
0.7833872171101716,-0.6703764648437499,2.7724855224609373,11.654973681640625,11.99893712362089
0.785874160656553,-0.7517793212890624,2.73896669921875,11.291055029296874,11.642810416817639
0.7883611042029346,-0.737414111328125,2.806004345703125,10.735600244140624,11.120726260531859
0.790848047749316,-0.7517793212890624,2.834734765625,10.156203442382813,10.571157065450752
0.7933349912956975,-0.737414111328125,2.8107927490234372,9.4618849609375,9.898060540508116
0.7958219348420791,-0.737414111328125,2.7581203125,8.79150849609375,9.243464116157943
0.7983088783884605,-0.6847416748046875,2.7198130859375,8.130708837890625,8.600853480335768
0.800795821934842,-0.6081272216796875,2.6815058593749996,7.6470801025390625,8.126384588872174
0.8032827654812236,-0.584185205078125,2.528276953125,7.196970190429687,7.650479503107549
0.805769709027605,-0.488417138671875,2.5378537597656248,7.038952880859375,7.4984072086186035
0.8082566525739865,-0.40222587890625,2.461239306640625,7.000645654296875,7.431589611869081
0.8107435961203681,-0.3016694091796875,2.418143676757812,7.168239770507812,7.571134966527047
0.8132305396667495,-0.2920926025390625,2.365471240234375,7.503428002929687,7.872877750351734
0.815717483213131,0.8283937744140625,0.6081272216796875,22.539014428710935,22.562429531876116
0.8182044267595125,0.3687070556640625,0.7709329345703124,24.17664836425781,24.19174670443355
0.820691370305894,-0.0909796630859375,1.1013327636718748,24.530990209960937,24.55586878602815
0.8231783138522755,-0.5698199951171875,1.465251416015625,23.83188332519531,23.883683119751307
0.825665257398657,-1.005564697265625,1.93451494140625,22.0266552734375,22.13429580885199
0.8281522009450385,-1.407790576171875,2.499546533203125,19.383456640625,19.59459105255824
0.83063914449142,-1.70467158203125,2.935291235351562,16.117765576171873,16.471314671493214
0.8331260880378015,-1.9009961181640624,3.323151904296875,12.574347119140624,13.144250845633877
0.835613031584183,-2.0159177978515626,3.7014357666015623,9.011775048828124,9.948700459489828
0.8380999751305644,-1.9297265380859374,3.9408559326171875,5.626373901367187,7.135143535446434
0.840586918676946,-1.8004396484374998,4.07971962890625,2.7341782958984373,5.230815054263607
0.8430738622233275,-1.5753846923828123,4.050989208984375,0.45968671875,4.370773659170317
0.8455608057697089,-1.2689268798828124,3.9504327392578125,-1.0438719238281249,4.278523442409279
0.8480477493160905,-0.9193734375,3.7205893798828122,-1.5897499023437498,4.149136970898803
0.850534692862472,-0.5698199951171875,3.4332851806640625,-1.426944189453125,3.761424155611389
0.8530216364088534,-0.201112939453125,3.0741549316406247,-0.37828386230468747,3.1038643073797543
0.855508579955235,0.08140285644531249,2.7150246826171873,1.3215993164062498,3.0206969734456126
0.8579955235016165,0.3112462158203125,2.370259643554687,3.4955344238281247,4.234827728833119
0.8604824670479979,0.469263525390625,2.020706201171875,6.004657763671875,6.352903010950303
0.8629694105943795,0.5889736083984375,1.7477672119140624,8.652644799804687,8.847024481147253
0.8654563541407609,0.5602431884765625,1.5322890624999999,11.2240173828125,11.341972862380189
0.8679432976871424,0.5027823486328125,1.446097802734375,13.508085766601562,13.594571343850221
0.870430241233524,0.373495458984375,1.4125789794921875,15.303737011718749,15.373329006920896
0.8729171847799054,0.17238251953125,1.446097802734375,16.70673918457031,16.770093880756008
0.8754041283262869,-0.0383072265625,1.599326708984375,17.41063447265625,17.483978554840537
0.8778910718726685,-0.316034619140625,1.7956512451171873,17.52555615234375,17.620140740741547
0.8803780154190499,-0.6512228515624999,2.0446482177734375,17.03235061035156,17.166992888994404
0.8828649589654315,-0.7852981445312499,2.3319524169921872,16.084246752929687,16.27137636649245
0.885351902511813,-1.0773907470703123,2.6336218261718747,14.585476513671875,14.860446153330507
0.8878388460581944,-1.1875240234375,2.91134921875,12.895170141601561,13.272964271804918
0.890325789604576,-1.2880804931640624,3.1028853515624997,10.979808813476561,11.482301617807664
0.8928127331509574,-1.3263877197265623,3.294421484375,9.0788126953125,9.748710543262654
0.8952996766973389,-1.3407529296874998,3.42849677734375,7.244854223632812,8.126507324331424
0.8977866202437205,-1.1923124267578125,3.438073583984375,5.741295581054687,6.7973843381796755
0.9002735637901019,-1.0773907470703123,3.4332851806640625,4.525041137695312,5.781367939465112
0.9027605073364834,-0.9241618408203125,3.342305517578125,3.725377783203125,5.089550167592908
0.905247450882865,-0.7038952880859375,3.1938650146484373,3.42849677734375,4.738230942096568
0.9077343944292464,-0.49320554199218747,3.0310593017578125,3.4859576171874997,4.645693996191733
0.9102213379756279,-0.33039982910156246,2.767697119140625,4.031835595703125,4.9015313587845615
0.9127082815220094,-0.105344873046875,2.5809493896484375,4.874594580078124,5.5167082226932145
0.9151952250683909,0.0143652099609375,2.29843359375,6.0716954101562495,6.492186726970215
0.9176821686147724,0.076614453125,2.1356278808593747,7.388506323242187,7.691345910081104
0.9201691121611539,0.1484405029296875,1.944091748046875,8.801085302734375,9.014467805352737
0.9226560557075354,0.143652099609375,1.867477294921875,10.165780249023436,10.336885190627102
0.9251429992539169,0.1149216796875,1.8339584716796873,11.525686791992188,11.671249577290817
0.9276299428002984,0.023942016601562498,1.8626888916015625,12.54561669921875,12.683165278855714
0.9301168863466799,-0.09576806640624999,1.8914193115234375,13.321338037109374,13.455284673074889
0.9326038298930613,-0.22026655273437498,2.020706201171875,13.852850805664062,14.001187319284583
0.9350907734394429,-0.38786066894531246,2.1212626708984375,14.010868115234373,14.175846237877762
0.9375777169858244,-0.5793968017578125,2.2649147705078123,13.84806240234375,14.04401551803323
0.9400646605322058,-0.70868369140625,2.499546533203125,13.426682910156249,13.675736887495125
0.9425516040785874,-0.7900865478515624,2.6623522460937497,12.617442749023438,12.919451140054694
0.9450385476249689,-0.9097966308593749,2.85388837890625,11.745953344726562,12.12187397910374
0.9475254911713503,-1.005564697265625,2.96881005859375,10.678139404296875,11.128686115709794
0.9500124347177319,-1.01514150390625,3.0597897216796874,9.552864624023437,10.08216484386008
0.9524993782641133,-1.0103531005859374,3.1364041748046874,8.504204296874999,9.120270569373645
0.9549863218104948,-0.967257470703125,3.1411925781249996,7.6231380859375,8.30150059355352
0.9574732653568764,-0.8475473876953125,3.1411925781249996,6.847416748046874,7.581064800454456
0.9599602089032578,-0.7709329345703124,3.0645781249999997,6.229712719726562,6.985363071749143
0.9624471524496393,-0.689530078125,2.9544448486328125,5.899312890625,6.633708515886594
0.9649340959960209,-0.5267243652343749,2.844311572265625,5.846640454101562,6.523093704416075
0.9674210395424023,-0.39743747558593745,2.6240450195312497,5.947196923828125,6.512504899216399
0.9699079830887838,-0.2346317626953125,2.5043349365234375,6.363788012695312,6.842846148269148
0.9723949266351654,-0.19632453613281248,2.365471240234375,7.005434057617187,7.396627870015263
0.9748818701815468,-0.1197100830078125,2.2457611572265623,7.742848168945312,8.062845121086049
0.9773688137279283,-0.0526724365234375,2.1404162841796874,8.580818749999999,8.84390223122703
0.9798557572743098,-0.0526724365234375,2.0781670410156248,9.437942944335937,9.664177132921015
0.9823427008206913,-0.0718260498046875,2.0254946044921875,10.261548315429687,10.45978781831426
0.9848296443670728,-0.13407529296874998,2.0446482177734375,11.061211669921875,11.249398478382949
0.9873165879134543,-0.1867477294921875,2.0638018310546875,11.688492504882811,11.870762812432773
0.9898035314598358,-0.28730419921875,2.2266075439453124,12.138602416992187,12.344472183752996
0.9922904750062173,-0.4070142822265625,2.327164013671875,12.397176196289061,12.620274585535052
0.9947774185525988,-0.5410895751953124,2.403778466796875,12.445060229492187,12.686624963382085
0.9972643620989803,-0.6751648681640625,2.499546533203125,12.282254516601562,12.552185326923365
0.9997513056453617,-0.7278373046875,2.6240450195312497,11.918335864257811,12.225468873620983
1.0022382491917432,-0.8044517578125,2.7820623291015623,11.405976708984374,11.767893529410761
1.0047251927381249,-0.842758984375,2.877830395507812,10.802637890625,11.211116620882168
1.0072121362845063,-0.8667010009765624,2.920926025390625,10.0748005859375,10.525425707177103
1.0096990798308878,-0.8714894042968749,2.9640216552734375,9.260772021484375,9.762521016040857
1.0121860233772693,-0.8379705810546875,2.9975404785156248,8.585607153320312,9.13236518138635
1.0146729669236507,-0.7757213378906249,2.96881005859375,7.920019091796875,8.493661117121004
1.0171599104700322,-0.7326257080078125,2.8730419921875,7.326257080078125,7.903489958259042
1.0196468540164139,-0.6464344482421874,2.829946362304687,6.9719152343749995,7.552090832657266
1.0221337975627953,-0.55545478515625,2.70065947265625,6.7803791015625,7.319537715355144
1.0246207411091768,-0.469263525390625,2.6048914062499997,6.737283471679687,7.2385534516494
1.0271076846555582,-0.38786066894531246,2.4516625,6.8569935546875,7.2924238440621965
1.0295946282019397,-0.22505495605468748,2.39420166015625,7.264007836914062,7.651709689833288
1.0320815717483212,-0.1867477294921875,2.250549560546875,7.704540942382812,8.02868601776164
1.0345685152947028,-0.2059013427734375,2.1978771240234374,8.29351455078125,8.582274920979971
1.0370554588410843,-0.143652099609375,2.1835119140624997,9.016563452148437,9.278296001486156
1.0395424023874658,-0.1580173095703125,2.1787235107421874,9.677363110351562,9.920844841845772
1.0420293459338472,-0.21068974609375,2.1643583007812497,10.338162768554687,10.564395224166883
1.0445162894802287,-0.28730419921875,2.212242333984375,10.951078393554686,11.175986660198806
1.0470032330266101,-0.32082302246093747,2.308010400390625,11.410765112304686,11.646261196978283
1.0494901765729918,-0.40222587890625,2.3319524169921872,11.750741748046874,11.986647544750339
1.0519771201193733,-0.49799394531249996,2.442085693359375,11.923124267578125,12.180832188458588
1.0544640636657547,-0.5698199951171875,2.5713725830078125,11.9518546875,12.23860622205794
1.0569510072121362,-0.689530078125,2.6240450195312497,11.6837041015625,11.994582340625046
1.0594379507585177,-0.7278373046875,2.7724855224609373,11.382034692382812,11.737424626081998
1.0619248943048991,-0.7757213378906249,2.8107927490234372,10.893617553710937,11.277109686375345
1.0644118378512808,-0.814028564453125,2.863465185546875,10.242394702148436,10.66624229085309
1.0668987813976623,-0.7948749511718749,2.868253588867187,9.639055883789062,10.088116928785993
1.0693857249440437,-0.7805097412109374,2.9496564453125,8.987833032226561,9.491617945149374
1.0718726684904252,-0.7565677246093749,2.916137622070312,8.350975390624999,8.877783694571459
1.0743596120368066,-0.6560112548828124,2.7964275390625,7.766790185546874,8.280904994870266
1.076846555583188,-0.622492431640625,2.7437551025390623,7.359775903320312,7.879212539159818
1.0793334991295698,-0.565031591796875,2.6048914062499997,7.062894897460937,7.549119436772964
1.0818204426759512,-0.43574470214843747,2.5905261962890624,6.957550024414062,7.436948417283424
1.0843073862223327,-0.38786066894531246,2.4660277099609376,7.062894897460937,7.491075550105581
1.0867943297687142,-0.32082302246093747,2.442085693359375,7.283161450195312,7.6883776347850254
1.0892812733150956,-0.258573779296875,2.3223756103515623,7.666233715820312,8.014451213930732
1.0917682168614773,-0.2154781494140625,2.2649147705078123,8.240842114257813,8.549137295813217
1.0942551604078588,-0.201112939453125,2.212242333984375,8.8872765625,9.1606848683409
1.0967421039542402,-0.1867477294921875,2.250549560546875,9.5384994140625,9.80218440507109
1.0992290475006217,-0.2346317626953125,2.2266075439453124,10.17056865234375,10.414091411681436
1.1017159910470031,-0.277727392578125,2.29843359375,10.788272680664061,11.033891286478642
1.1042029345933846,-0.36391865234375,2.403778466796875,11.267113012695312,11.526422833811367
1.1066898781397663,-0.4213794921875,2.4660277099609376,11.626243261718749,11.892366699837
1.1091768216861477,-0.4740519287109375,2.4947581298828125,11.755530151367187,12.026680028064021
1.1116637652325292,-0.5698199951171875,2.6192566162109374,11.832144604492187,12.131976178266001
1.1141507087789106,-0.6607996582031249,2.7054478759765623,11.669338891601562,11.997065248007624
1.116637652325292,-0.70868369140625,2.77727392578125,11.329362255859374,11.686313882391683
1.1191245958716736,-0.7326257080078125,2.81558115234375,10.836156713867187,11.219916665508537
1.1216115394180552,-0.7517793212890624,2.868253588867187,10.280701928710936,10.699760882607055
1.1240984829644367,-0.7422025146484375,2.887407202148437,9.591171850585937,10.043832057100577
1.1265854265108182,-0.7709329345703124,2.839523168945312,8.968679418945312,9.438985111567645
1.1290723700571996,-0.6943184814453125,2.806004345703125,8.303091357421874,8.791874921282442
1.131559313603581,-0.6703764648437499,2.786850732421875,7.771578588867187,8.283319103617561
1.1340462571499625,-0.6272808349609375,2.6815058593749996,7.316680273437499,7.817785181461638
1.1365332006963442,-0.51714755859375,2.6144682128906247,7.067683300781249,7.553478197076967
1.1390201442427257,-0.4213794921875,2.528276953125,7.048529687499999,7.5001010515664435
1.1415070877891071,-0.3591302490234375,2.4133552734375,7.029376074218749,7.440792041469189
1.1439940313354886,-0.33039982910156246,2.398990063476562,7.340622290039062,7.72975115878564
1.14648097488187,-0.2920926025390625,2.2266075439453124,7.747636572265624,8.06653405739541
1.1489679184282515,-0.24899697265624998,2.2744915771484373,8.355763793945313,8.663376940149755
1.1514548619746332,-0.201112939453125,2.231395947265625,8.98304462890625,9.258221486484883
1.1539418055210147,-0.201112939453125,2.2457611572265623,9.629479077148437,9.889932097186643
1.1564287490673961,-0.229843359375,2.3127988037109373,10.28549033203125,10.544817572940929
1.1589156926137776,-0.33039982910156246,2.3223756103515623,10.884040747070312,11.133954172104042
1.161402636160159,-0.37828386230468747,2.379836450195312,11.334150659179686,11.587479940657575
1.1638895797065405,-0.45489831542968745,2.4899697265625,11.645396875,11.91730464882216
1.1663765232529222,-0.5506663818359374,2.5474305664062498,11.827356201171874,12.111110216001832
1.1688634667993036,-0.59376201171875,2.6719290527343746,11.803414184570311,12.116614403451235
1.171350410345685,-0.6751648681640625,2.729389892578125,11.6070896484375,11.942778022377189
1.1738373538920666,-0.7278373046875,2.7581203125,11.214440576171874,11.57154493733702
1.176324297438448,-0.7757213378906249,2.829946362304687,10.682927807617187,11.078595874493342
1.1788112409848295,-0.74699091796875,2.839523168945312,10.084377392578125,10.503121186316275
1.1812981845312112,-0.7661445312499999,2.825157958984375,9.399635717773437,9.844879205090288
1.1837851280775926,-0.6847416748046875,2.81558115234375,8.781931689453124,9.247631728441
1.186272071623974,-0.7278373046875,2.7724855224609373,8.130708837890625,8.621186073905548
1.1887590151703555,-0.6464344482421874,2.6862942626953124,7.613561279296874,8.099405516164294
1.191245958716737,-0.5267243652343749,2.6384102294921874,7.220912207031249,7.705856227420382
1.1937329022631185,-0.4644751220703125,2.5474305664062498,7.0102224609374995,7.473175936743073
1.1962198458095001,-0.4261678955078125,2.4660277099609376,7.000645654296875,7.434510832494795
1.1987067893558816,-0.36391865234375,2.446874096679687,7.182604980468749,7.596673215031709
1.201193732902263,-0.2920926025390625,2.3319524169921872,7.484274389648437,7.844595802405706
1.2036806764486445,-0.2537853759765625,2.288856787109375,7.972691528320312,8.29861931978487
1.206167619995026,-0.22026655273437498,2.288856787109375,8.619125976562499,8.920578195722774
1.2086545635414074,-0.2537853759765625,2.2649147705078123,9.217676391601563,9.495251655170222
1.2111415070877891,-0.22026655273437498,2.27927998046875,9.926360083007811,10.187063319777193
1.2136284506341706,-0.277727392578125,2.3367408203125,10.539275708007812,10.798788016037104
1.216115394180552,-0.3064578125,2.39420166015625,11.089942089843749,11.349578562062344
1.2186023377269335,-0.40222587890625,2.480392919921875,11.5304751953125,11.801101343712682
1.221089281273315,-0.49799394531249996,2.4756045166015626,11.726799731445311,11.995601178499216
1.2235762248196966,-0.5746083984375,2.5953145996093747,11.846509814453125,12.14107192411093
1.226063168366078,-0.612915625,2.6815058593749996,11.726799731445311,12.045080787552129
1.2285501119124596,-0.689530078125,2.748543505859375,11.429918725585937,11.775949439673257
1.231037055458841,-0.7230489013671875,2.829946362304687,10.951078393554686,11.333909921517382
1.2335239990052225,-0.7709329345703124,2.8203695556640622,10.405200415039062,10.808192156750867
1.236010942551604,-0.7996633544921875,2.729389892578125,9.720458740234374,10.127998261592671
1.2384978860979856,-0.7517793212890624,2.849099975585937,9.117119921875,9.581462231238593
1.240984829644367,-0.6847416748046875,2.77727392578125,8.451531860351562,8.922472325907
1.2434717731907485,-0.63206923828125,2.7150246826171873,7.862558251953125,8.342103620463977
1.24595871673713,-0.59376201171875,2.6479870361328124,7.4220251464843745,7.902584763552627
1.2484456602835114,-0.5602431884765625,2.5522189697265625,7.082048510742187,7.548715467427033
1.250932603829893,-0.44053310546874996,2.50912333984375,6.986280444335937,7.436254688919236
1.2534195473762746,-0.37828386230468747,2.403778466796875,7.005434057617187,7.416020222028746
1.255906490922656,-0.3447650390625,2.360682836914062,7.302315063476562,7.682154103826419
1.2583934344690375,-0.258573779296875,2.3223756103515623,7.6997525390625,8.046519622650221
1.260880378015419,-0.258573779296875,2.3319524169921872,8.303091357421874,8.628220474938583
1.2633673215618004,-0.2154781494140625,2.2840683837890623,8.949525805664061,9.238907476587622
1.2658542651081819,-0.2537853759765625,2.250549560546875,9.562441430664062,9.826986641713617
1.2683412086545636,-0.2825157958984375,2.29843359375,10.256759912109374,10.514929198737601
1.270828152200945,-0.3112462158203125,2.370259643554687,10.855310327148437,11.115429244227233
1.2733150957473265,-0.354341845703125,2.4660277099609376,11.329362255859374,11.600056031519955
1.275802039293708,-0.411802685546875,2.4851813232421875,11.664550488281249,11.933459085901193
1.2782889828400894,-0.5458779785156249,2.6001030029296874,11.85608662109375,12.15011556982692
1.2807759263864709,-0.612915625,2.6527754394531247,11.784260571289062,12.094696371036887
1.2832628699328525,-0.679953271484375,2.710236279296875,11.568782421875,11.901447133256664
1.285749813479234,-0.679953271484375,2.7629087158203123,11.200075366210937,11.555850865780641
1.2882367570256155,-0.7230489013671875,2.8107927490234372,10.687716210937499,11.07477464318201
1.290723700571997,-0.74699091796875,2.825157958984375,10.05564697265625,10.471654547559872
1.2932106441183784,-0.74699091796875,2.834734765625,9.351751684570312,9.80045795832187
1.2956975876647598,-0.7278373046875,2.81558115234375,8.71489404296875,9.187307687658029
1.2981845312111415,-0.6560112548828124,2.7629087158203123,8.078036401367187,8.56263320715667
1.300671474757523,-0.6177040283203125,2.6671406494140624,7.6279264892578125,8.104348217832266
1.3031584183039044,-0.5363011718749999,2.5905261962890624,7.196970190429687,7.667778351161952
1.305645361850286,-0.45968671875,2.5234885498046875,7.015010864257812,7.46924921033203
1.3081323053966674,-0.39264907226562495,2.4564509033203126,7.024587670898437,7.452057184463398
1.3106192489430488,-0.354341845703125,2.346317626953125,7.168239770507812,7.5507897572146145
1.3131061924894305,-0.27293898925781246,2.346317626953125,7.575254052734374,7.934996916311725
1.315593136035812,-0.2442085693359375,2.3511060302734372,7.996633544921875,8.338674081812709
1.3180800795821934,-0.24899697265624998,2.2840683837890623,8.619125976562499,8.920106528179538
1.3205670231285749,-0.19153613281249998,2.29843359375,9.323021264648437,9.604072499525305
1.3230539666749563,-0.2920926025390625,2.29843359375,9.97903251953125,10.244471928762302
1.3255409102213378,-0.2825157958984375,2.389413256835937,10.606313354492187,10.87579853898346
1.3280278537677195,-0.37828386230468747,2.384624853515625,11.161768139648437,11.419921294639272
1.330514797314101,-0.4070142822265625,2.50912333984375,11.540052001953125,11.816689924351378
1.3330017408604824,-0.45968671875,2.6048914062499997,11.79862578125,12.091498726118587
1.3354886844068639,-0.55545478515625,2.6144682128906247,11.85608662109375,12.153631721483364
1.3379756279532453,-0.6512228515624999,2.6958710693359373,11.698069311523437,12.022339108596384
1.3404625714996268,-0.679953271484375,2.7437551025390623,11.358092675781249,11.704563116398113
1.3429495150460085,-0.7230489013671875,2.767697119140625,10.931924780273437,11.299996745956348
1.34543645859239,-0.70868369140625,2.81558115234375,10.342951171874999,10.742735626631095
1.3479234021387714,-0.7422025146484375,2.81558115234375,9.65342109375,10.083000575792965
1.3504103456851528,-0.7805097412109374,2.748543505859375,8.954314208984375,9.399118565745747
1.3528972892315343,-0.6464344482421874,2.8012159423828122,8.355763793945313,8.836485547543274
1.3553842327779158,-0.6512228515624999,2.6815058593749996,7.819462622070312,8.292078181868185
1.3578711763242974,-0.5985504150390625,2.5905261962890624,7.302315063476562,7.7712864996266875
1.360358119870679,-0.5123591552734374,2.4756045166015626,7.053318090820312,7.492691486835932
1.3628450634170604,-0.430956298828125,2.499546533203125,6.962338427734375,7.409967110956307
1.3653320069634418,-0.3447650390625,2.4133552734375,7.101202124023437,7.508010269986538
1.3678189505098233,-0.32561142578124996,2.375048046875,7.37414111328125,7.754020452910147
1.370305894056205,-0.258573779296875,2.308010400390625,7.785943798828124,8.12494266109991
1.3727928376025864,-0.229843359375,2.2457611572265623,8.360552197265624,8.659971373414548
1.3752797811489679,-0.2346317626953125,2.250549560546875,9.016563452148437,9.296151992903418
1.3777667246953493,-0.2537853759765625,2.3127988037109373,9.701305126953125,9.976410501265137
1.3802536682417308,-0.26815058593749996,2.408566870117187,10.405200415039062,10.68369293744882
1.3827406117881123,-0.3495534423828125,2.403778466796875,10.9175595703125,11.184518116478692
1.385227555334494,-0.37828386230468747,2.47081611328125,11.415553515625,11.686012708115145
1.3877144988808754,-0.44053310546874996,2.5522189697265625,11.750741748046874,12.032781171272823
1.3902014424272569,-0.49799394531249996,2.6096798095703124,11.846509814453125,12.140766922315125
1.3926883859736383,-0.6081272216796875,2.6575638427734374,11.803414184570311,12.114167355154054
1.3951753295200198,-0.6703764648437499,2.7150246826171873,11.5304751953125,11.864763877193418
1.3976622730664012,-0.7038952880859375,2.767697119140625,11.133037719726563,11.493482709289788
1.400149216612783,-0.7278373046875,2.8203695556640622,10.601524951171875,10.994387789364685
1.4026361601591644,-0.7613561279296874,2.806004345703125,9.95987890625,10.375572821237611
1.4051231037055458,-0.7326257080078125,2.7629087158203123,9.212887988281249,9.646124096475575
1.4076100472519273,-0.7278373046875,2.7533319091796873,8.566453540039062,9.02744205175805
1.4100969907983087,-0.6416460449218749,2.729389892578125,8.010998754882811,8.487483719183528
1.4125839343446902,-0.612915625,2.6527754394531247,7.484274389648437,7.964122439734483
1.4150708778910719,-0.5410895751953124,2.5857377929687497,7.1395093505859375,7.6125824546914425
1.4175578214374533,-0.4644751220703125,2.4851813232421875,7.000645654296875,7.443178281180677
1.4200447649838348,-0.373495458984375,2.442085693359375,7.0102224609374995,7.432798957554623
1.4225317085302163,-0.354341845703125,2.39420166015625,7.249642626953125,7.642975726223854
1.4250186520765977,-0.26815058593749996,2.370259643554687,7.60398447265625,7.969354765286834
1.4275055956229792,-0.229843359375,2.27927998046875,8.154650854492187,8.47031733513477
1.4299925391693609,-0.22505495605468748,2.2840683837890623,8.815450512695312,9.10932411635735
1.4324794827157423,-0.22505495605468748,2.3223756103515623,9.485826977539062,9.768571628268303
1.4349664262621238,-0.258573779296875,2.346317626953125,10.156203442382813,10.426913981085645
1.4374533698085052,-0.32561142578124996,2.3415292236328122,10.778695874023438,11.034902203935278
1.4399403133548867,-0.3591302490234375,2.437297290039062,11.271901416015623,11.537987439244784
1.4424272569012682,-0.4644751220703125,2.4851813232421875,11.635820068359374,11.907315902908127
1.4449142004476498,-0.51714755859375,2.5761609863281247,11.851298217773437,12.139082192300965
1.4474011439940313,-0.622492431640625,2.6527754394531247,11.841721411132811,12.151176088695976
1.4498880875404128,-0.6416460449218749,2.6431986328124997,11.664550488281249,11.977476643814759
1.4523750310867942,-0.7134720947265625,2.7341782958984373,11.291055029296874,11.639273905975656
1.4548619746331757,-0.7230489013671875,2.8012159423828122,10.769119067382812,11.150943276561673
1.4573489181795571,-0.7709329345703124,2.829946362304687,10.175357055664062,10.589656520085018
1.4598358617259388,-0.7422025146484375,2.81558115234375,9.524134204101562,9.959291849118648
1.4623228052723203,-0.7613561279296874,2.786850732421875,8.796296899414061,9.258565725909055
1.4648097488187017,-0.7134720947265625,2.7629087158203123,8.164227661132813,8.648544403812442
1.4672966923650832,-0.6416460449218749,2.7054478759765623,7.6614453125,8.15039275943302
1.4697836359114647,-0.5602431884765625,2.5761609863281247,7.244854223632812,7.709629730369914
1.4722705794578461,-0.49799394531249996,2.50912333984375,7.005434057617187,7.45786861239452
1.4747575230042278,-0.4261678955078125,2.4516625,6.938396411132812,7.371133755881011
1.4772444665506093,-0.32082302246093747,2.427720483398437,7.173028173828125,7.579517619201459
1.4797314100969907,-0.296881005859375,2.346317626953125,7.474697583007812,7.839926574631541
1.4822183536433722,-0.27293898925781246,2.2744915771484373,7.953537915039062,8.276869758087303
1.4847052971897536,-0.21068974609375,2.308010400390625,8.566453540039062,8.874425526819644
1.487192240736135,-0.22505495605468748,2.250549560546875,9.212887988281249,9.486460253558196
1.4896791842825168,-0.2825157958984375,2.308010400390625,9.90241806640625,10.171755538997795
1.4921661278288982,-0.3064578125,2.3367408203125,10.577582934570312,10.836952283269966
1.4946530713752797,-0.373495458984375,2.384624853515625,11.066000073242186,11.326177297344522
1.4971400149216612,-0.430956298828125,2.4851813232421875,11.583147631835937,11.854583864556272
1.4996269584680426,-0.5123591552734374,2.5378537597656248,11.793837377929687,12.074676546682333
1.5021139020144243,-0.565031591796875,2.6671406494140624,11.884817041015625,12.193513687280658
1.5046008455608058,-0.6177040283203125,2.6623522460937497,11.765106958007811,12.078386460212613
1.5070877891071872,-0.7134720947265625,2.729389892578125,11.477802758789062,11.819414866452863
1.5095747326535687,-0.7278373046875,2.7724855224609373,10.960655200195312,11.329271182733637
1.5120616761999501,-0.7565677246093749,2.806004345703125,10.390835205078124,10.789602002350058
1.5145486197463316,-0.7517793212890624,2.8203695556640622,9.744400756835937,10.172168042667174
1.5170355632927133,-0.7326257080078125,2.7964275390625,9.011775048828124,9.464081410255421
1.5195225068390947,-0.718260498046875,2.7437551025390623,8.360552197265624,8.828528940257643
1.5220094503854762,-0.6512228515624999,2.7581203125,7.790732202148437,8.290164480045913
1.5244963939318577,-0.5985504150390625,2.6288334228515624,7.331045483398437,7.811098235466093
1.5269833374782391,-0.51714755859375,2.6192566162109374,7.110778930664062,7.595467320692006
1.5294702810246206,-0.47884033203125,2.518700146484375,6.943184814453125,7.401415665879918
1.5319572245710023,-0.3687070556640625,2.422932080078125,7.053318090820312,7.466983383392605
1.5344441681173837,-0.3064578125,2.408566870117187,7.326257080078125,7.718105568211881
1.5369311116637652,-0.277727392578125,2.3223756103515623,7.75721337890625,8.102155292638258
1.5394180552101466,-0.2059013427734375,2.2936451904296873,8.346186987304687,8.658062187902743
1.541904998756528,-0.2442085693359375,2.308010400390625,8.992621435546875,9.287291861285803
1.5443919423029095,-0.2537853759765625,2.288856787109375,9.696516723632811,9.966228423061906
1.5468788858492912,-0.28730419921875,2.3223756103515623,10.376469995117187,10.637062646144932
1.5493658293956727,-0.2825157958984375,2.398990063476562,10.927136376953124,11.190946246860614
1.5518527729420541,-0.37828386230468747,2.4516625,11.429918725585937,11.696015978438403
1.5543397164884356,-0.45489831542968745,2.5474305664062498,11.7603185546875,12.041653851351512
1.556826660034817,-0.55545478515625,2.5857377929687497,11.846509814453125,12.138136790145102
1.5593136035811985,-0.5698199951171875,2.6767174560546874,11.832144604492187,12.144511398487666
1.5618005471275802,-0.689530078125,2.6671406494140624,11.540052001953125,11.86431166061387
1.5642874906739617,-0.7422025146484375,2.73896669921875,11.133037719726563,11.489009183608225
1.5667744342203431,-0.7230489013671875,2.806004345703125,10.620678564453124,11.008872479564253
1.5692613777667246,-0.7661445312499999,2.767697119140625,9.926360083007811,10.333428728335742
1.571748321313106,-0.7134720947265625,2.8203695556640622,9.241618408203124,9.68870670746664
1.5742352648594875,-0.7565677246093749,2.7581203125,8.566453540039062,9.031265062758012
1.5767222084058692,-0.6464344482421874,2.7150246826171873,8.02536396484375,8.496805475665978
1.5792091519522506,-0.6081272216796875,2.6623522460937497,7.4699091796875,7.953457195006953
1.581696095498632,-0.5315127685546874,2.6192566162109374,7.149086157226562,7.632328866614036
1.5841830390450136,-0.4740519287109375,2.5474305664062498,7.005434057617187,7.469286047367461
1.586669982591395,-0.33518823242187495,2.4756045166015626,7.029376074218749,7.46010032550308
1.5891569261377765,-0.354341845703125,2.360682836914062,7.244854223632812,7.6279941217732405
1.5916438696841582,-0.3016694091796875,2.3511060302734372,7.613561279296874,7.974021529418616
1.5941308132305396,-0.201112939453125,2.3415292236328122,8.135497241210937,8.468147429118881
1.596617756776921,-0.2537853759765625,2.2457611572265623,8.805873706054687,9.091273943697464
1.5991047003233025,-0.229843359375,2.3032219970703123,9.476250170898437,9.754843762925677
1.601591643869684,-0.2920926025390625,2.3127988037109373,10.13226142578125,10.396974463529256
1.6040785874160655,-0.26336218261718747,2.39420166015625,10.802637890625,11.067906153590876
1.6065655309624471,-0.3495534423828125,2.446874096679687,11.243170996093749,11.511658199472716
1.6090524745088286,-0.4261678955078125,2.480392919921875,11.626243261718749,11.89552438915665
1.61153941805521,-0.5315127685546874,2.5761609863281247,11.8369330078125,12.125679126632736
1.6140263616015915,-0.5746083984375,2.6240450195312497,11.8369330078125,12.137906331304535
1.616513305147973,-0.6416460449218749,2.6719290527343746,11.664550488281249,11.98384965707899
1.6190002486943544,-0.70868369140625,2.7724855224609373,11.295843432617186,11.652681554085373
1.6214871922407361,-0.7230489013671875,2.7964275390625,10.778695874023438,11.158991506390052
1.6239741357871176,-0.7517793212890624,2.8203695556640622,10.184933862304687,10.59492965328016
1.626461079333499,-0.7422025146484375,2.844311572265625,9.514557397460937,9.958301831258844
1.6289480228798805,-0.7134720947265625,2.81558115234375,8.805873706054687,9.272537483470863
1.631434966426262,0.2154781494140625,1.0534487304687499,23.19981408691406,23.224718700728694
1.6339219099726436,-0.1292868896484375,1.3311761230468748,23.242909716796873,23.281357285896707
1.636408853519025,-0.55545478515625,1.5131354492187499,22.160730566406247,22.21927289860961
1.6388957970654066,-0.9050082275390624,1.886630908203125,20.178331591796873,20.28653449715373
1.641382740611788,-1.235408056640625,2.2457611572265623,17.463306909179686,17.650404087326812
1.6438696841581695,-1.4891934326171874,2.6096798095703124,14.23113466796875,14.544872626671266
1.646356627704551,-1.6041151123046875,2.9544448486328125,10.888829150390624,11.395987448375584
1.6488435712509326,-1.66636435546875,3.227383837890625,7.556100439453124,8.383759923408954
1.651330514797314,-1.62805712890625,3.39018955078125,4.534617944335937,5.89124054052305
1.6538174583436955,-1.5179238525390624,3.5721488769531247,2.221819140625,4.4722277127704615
1.656304401890077,-1.2593500732421874,3.6056677001953124,0.5602431884765625,3.8601391945681494
1.6587913454364585,-1.005564697265625,3.6056677001953124,-0.3064578125,3.755784380853212
1.66127828898284,-0.7852981445312499,3.4524387939453125,-0.354341845703125,3.5583120921806572
1.6637652325292216,-0.4740519287109375,3.2609026611328122,0.40222587890625,3.3196380908405545
1.666252176075603,-0.1867477294921875,3.1124621582031247,1.867477294921875,3.634524294562586
1.6687391196219845,0.028730419921875,2.85388837890625,3.806780639648437,4.75784438109184
1.671226063168366,0.1867477294921875,2.6001030029296874,6.0908490234374995,6.625243555268289
1.6737130067147474,0.2825157958984375,2.398990063476562,8.456320263671875,8.794562007364494
1.676199950261129,0.2825157958984375,2.0973206542968748,10.797849487304687,11.003277814013353
1.6786868938075106,0.2920926025390625,2.01112939453125,12.9095353515625,13.068514166623824
1.681173837353892,0.2154781494140625,1.9297265380859374,14.551957690429687,14.680931440774586
1.6836607809002735,0.0526724365234375,1.8339584716796873,15.672444067382811,15.779470241635416
1.686147724446655,-0.11013327636718749,1.8339584716796873,16.218322045898436,16.322055722208656
1.6886346679930364,-0.277727392578125,1.85790048828125,16.175226416015622,16.283945355420272
1.6911216115394179,-0.5027823486328125,1.9728221679687499,15.562310791015625,15.694914289434237
1.6936085550857995,-0.6464344482421874,2.1116858642578125,14.590264916992187,14.75645367400967
1.696095498632181,-0.833182177734375,2.29843359375,13.192051147460937,13.416676302400612
1.6985824421785625,-0.928950244140625,2.461239306640625,11.5304751953125,11.82677072198318
1.701069385724944,-1.0438719238281249,2.5665841796874997,9.849745629882811,10.232033615961898
1.7035563292713254,-0.9911994873046874,2.786850732421875,8.2743609375,8.787153256456797
1.7060432728177068,-1.0007762939453124,2.877830395507812,6.871358764648437,7.516583815028105
1.7085302163640885,-0.9576806640625,2.9735984619140625,5.7317187744140625,6.5277898385278545
1.71101715991047,-0.833182177734375,2.9975404785156248,4.989516259765625,5.880026697907028
1.7135041034568514,-0.699106884765625,3.0597897216796874,4.740519287109374,5.685383600838146
1.715991047003233,-0.5889736083984375,2.987963671875,4.817133740234374,5.699087145073237
1.7184779905496144,-0.5219359619140624,2.920926025390625,5.310339282226562,6.0830855070845375
1.7209649340959958,-0.37828386230468747,2.896984008789062,6.157886669921875,6.815803934038978
1.7234518776423775,-0.2825157958984375,2.77727392578125,7.168239770507812,7.692641096609565
1.725938821188759,-0.229843359375,2.6767174560546874,8.2743609375,8.699580060751353
1.7284257647351404,-0.1388636962890625,2.5953145996093747,9.495403784179686,9.844675414746112
1.7309127082815219,-0.181959326171875,2.418143676757812,10.544064111328124,10.819326042856018
1.7333996518279033,-0.2059013427734375,2.384624853515625,11.501744775390625,11.748147255341408
1.7358865953742848,-0.181959326171875,2.35589443359375,12.138602416992187,12.366447202670114
1.7383735389206665,-0.28730419921875,2.288856787109375,12.555193505859375,12.765355187551922
1.740860482467048,-0.36391865234375,2.24097275390625,12.650961572265624,12.853062840125514
1.7433474260134294,-0.45010991210937495,2.250549560546875,12.435483422851561,12.645505929676077
1.7458343695598109,-0.5219359619140624,2.29843359375,12.023680737304687,12.252514542160295
1.7483213131061923,-0.5506663818359374,2.3319524169921872,11.362881079101562,11.61276461300255
1.7508082566525738,-0.6512228515624999,2.3511060302734372,10.563217724609375,10.84128034253736
1.7532952001989555,-0.6703764648437499,2.422932080078125,9.777919580078125,10.09592570217131
1.755782143745337,-0.6560112548828124,2.4756045166015626,8.987833032226561,9.345593138176618
1.7582690872917184,-0.6655880615234374,2.5617957763671875,8.250418920898436,8.664595630366959
1.7607560308380998,-0.6512228515624999,2.5809493896484375,7.675810522460937,8.124251235101354
1.7632429743844813,-0.6416460449218749,2.6479870361328124,7.311891870117187,7.80303195628322
1.765729917930863,-0.5458779785156249,2.710236279296875,7.220912207031249,7.732071944744059
1.7682168614772444,-0.5506663818359374,2.6575638427734374,7.225700610351562,7.71858979043037
1.770703805023626,-0.49320554199218747,2.6910826660156246,7.532158422851562,8.013650112708646
1.7731907485700074,-0.45968671875,2.7341782958984373,7.9295958984374995,8.400329395069816
1.7756776921163888,-0.38786066894531246,2.729389892578125,8.528146313476562,8.962660577545387
1.7781646356627703,-0.39264907226562495,2.6958710693359373,9.145850341796875,9.542980278245343
1.780651579209152,-0.38786066894531246,2.6671406494140624,9.696516723632811,10.064120016869948
1.7831385227555334,-0.4213794921875,2.6096798095703124,10.299855541992187,10.633673568942312
1.7856254663019149,-0.411802685546875,2.6384102294921874,10.716446630859375,11.044139549234693
1.7881124098482963,-0.4165910888671875,2.6096798095703124,11.022904443359375,11.335272348348509
1.7905993533946778,-0.4644751220703125,2.5474305664062498,11.118672509765624,11.416217324889224
1.7930862969410593,-0.47884033203125,2.5617957763671875,11.118672509765624,11.420024695367797
1.795573240487441,-0.5315127685546874,2.5043349365234375,10.9175595703125,11.213710637819695
1.7980601840338224,-0.5267243652343749,2.499546533203125,10.534487304687499,10.839769102762356
1.8005471275802039,-0.5363011718749999,2.4899697265625,10.137049829101562,10.452145589487367
1.8030340711265853,-0.5698199951171875,2.4899697265625,9.610325463867188,9.943993140961389
1.8055210146729668,-0.565031591796875,2.427720483398437,9.09796630859375,9.433243259746238
1.8080079582193482,-0.5267243652343749,2.427720483398437,8.643067993164061,8.992991139598711
1.81049490176573,-0.5363011718749999,2.427720483398437,8.279149340820313,8.644406254918394
1.8129818453121114,-0.488417138671875,2.384624853515625,7.996633544921875,8.358895563716693
1.8154687888584928,-0.44053310546874996,2.480392919921875,7.905653881835937,8.29733582263609
1.8179557324048743,-0.430956298828125,2.47081611328125,7.943961108398437,8.330496605178878
1.8204426759512558,-0.4213794921875,2.480392919921875,8.173804467773436,8.55225053369157
1.8229296194976372,-0.3591302490234375,2.518700146484375,8.480262280273436,8.85368134201206
1.825416563044019,-0.38786066894531246,2.5234885498046875,8.858546142578124,9.219125236143386
1.8279035065904004,-0.38786066894531246,2.5713725830078125,9.394847314453125,9.748104888697396
1.8303904501367818,-0.39743747558593745,2.6096798095703124,9.816226806640625,10.164973879695367
1.8328773936831633,-0.430956298828125,2.6336218261718747,10.20887587890625,10.55191138920823
1.8353643372295447,-0.49320554199218747,2.6336218261718747,10.596736547851561,10.930235180201464
1.8378512807759262,-0.49799394531249996,2.6336218261718747,10.893617553710937,11.218505484215616
1.8403382243223079,-0.5363011718749999,2.6958710693359373,10.970232006835937,11.309347021523596
1.8428251678686893,-0.5793968017578125,2.6671406494140624,10.955866796875,11.290719957935018
1.8453121114150708,-0.59376201171875,2.6671406494140624,10.793061083984375,11.133569065350748
1.8477990549614522,-0.603338818359375,2.6575638427734374,10.481814868164061,10.830286526155307
1.8502859985078337,-0.6703764648437499,3.0837317382812497,10.376469995117187,10.845733520507812
1.8527729420542152,-0.6081272216796875,2.6192566162109374,9.629479077148437,9.997859332704783
1.8552598856005968,-0.603338818359375,2.5809493896484375,9.1554271484375,9.531377851707083
1.8577468291469783,-0.584185205078125,2.5522189697265625,8.671798413085938,9.058431527613601
1.8602337726933598,-0.5410895751953124,2.5617957763671875,8.322244970703125,8.724410403035339
1.8627207162397412,-0.4740519287109375,2.4516625,7.963114721679687,8.345452073773629
1.8652076597861227,-0.4644751220703125,2.480392919921875,7.738059765625,8.13914338936262
1.8676946033325041,-0.44053310546874996,2.437297290039062,7.738059765625,8.12478039293556
1.8701815468788858,-0.354341845703125,2.418143676757812,7.896077075195312,8.265652434169068
1.8726684904252673,-0.36391865234375,2.35589443359375,8.145074047851562,8.486748883568238
1.8751554339716487,-0.3591302490234375,2.365471240234375,8.470685473632813,8.802098676869825
1.8776423775180302,-0.3687070556640625,2.408566870117187,8.968679418945312,9.293780166355118
1.8801293210644117,-0.3495534423828125,2.4133552734375,9.471461767578125,9.780340449064358
1.8826162646107931,-0.373495458984375,2.5330653564453125,9.974244116210937,10.297643645401303
1.8851032081571748,-0.39264907226562495,2.5139117431640625,10.481814868164061,10.786211961427163
1.8875901517035563,-0.4213794921875,2.5761609863281247,10.8409451171875,11.15079625577415
1.8900770952499377,-0.49320554199218747,2.6719290527343746,11.1474029296875,11.473754775412594
1.8925640387963192,-0.5219359619140624,2.6431986328124997,11.271901416015623,11.58942093864987
1.8950509823427006,-0.584185205078125,2.7150246826171873,11.228805786132812,11.567139264474273
1.897537925889082,-0.6512228515624999,2.70065947265625,11.080365283203124,11.423315963364498
1.9000248694354638,-0.6512228515624999,2.73896669921875,10.759542260742187,11.12177051743667
1.9025118129818452,-0.6512228515624999,2.7581203125,10.371681591796875,10.751888108710974
1.9049987565282267,-0.679953271484375,2.7437551025390623,9.835380419921874,10.233534898493971
1.9074857000746082,-0.6560112548828124,2.6527754394531247,9.255983618164063,9.65094819374864
1.9099726436209896,-0.6512228515624999,2.6384102294921874,8.705317236328124,9.119640778374865
1.9124595871673713,-0.5985504150390625,2.5905261962890624,8.2360537109375,8.654575050367908
1.9149465307137528,-0.6081272216796875,2.5330653564453125,7.829039428710937,8.25106642768568
1.9174334742601342,-0.47884033203125,2.5043349365234375,7.589619262695312,8.006453777456494
1.9199204178065157,-0.4644751220703125,2.4516625,7.45075556640625,7.857489717668245
1.9224073613528971,-0.39264907226562495,2.4133552734375,7.50821640625,7.896313733183434
1.9248943048992786,-0.3591302490234375,2.379836450195312,7.6997525390625,8.067142321060246
1.9273812484456603,-0.33518823242187495,2.3511060302734372,8.054094384765625,8.396933194652402
1.9298681919920417,-0.3112462158203125,2.3511060302734372,8.528146313476562,8.85177119657498
1.9323551355384232,-0.258573779296875,2.39420166015625,9.13627353515625,9.448309695285781
1.9348420790848047,-0.27293898925781246,2.370259643554687,9.753977563476562,10.041548923274997
1.9373290226311861,-0.316034619140625,2.403778466796875,10.20887587890625,10.492815423366864
1.9398159661775676,-0.40222587890625,2.398990063476562,10.721235034179687,10.993717280358045
1.9423029097239493,-0.43574470214843747,2.5426421630859375,11.1474029296875,11.442005711052508
1.9447898532703307,-0.4740519287109375,2.6048914062499997,11.405976708984374,11.709248018355563
1.9472767968167122,-0.55545478515625,2.6431986328124997,11.520898388671874,11.833263654332942
1.9497637403630936,-0.612915625,2.6479870361328124,11.477802758789062,11.795230268060154
1.952250683909475,-0.6177040283203125,2.7581203125,11.257536206054686,11.606933589689413
1.9547376274558566,-0.679953271484375,2.7533319091796873,10.869675537109375,11.233566634668765
1.9572245710022382,-0.70868369140625,2.73896669921875,10.371681591796875,10.750625572287065
1.9597115145486197,-0.699106884765625,2.7533319091796873,9.797073193359374,10.20059950171923
1.9621984580950012,-0.679953271484375,2.73896669921875,9.169792358398437,9.594236130457388
1.9646854016413826,-0.6416460449218749,2.7341782958984373,8.590395556640624,9.037828080920601
1.967172345187764,-0.6177040283203125,2.6575638427734374,8.116343627929687,8.562665340398087
1.9696592887341455,-0.5315127685546874,2.5953145996093747,7.6279264892578125,8.074863851459247
1.9721462322805272,-0.51714755859375,2.5234885498046875,7.364564306640625,7.802066616288273
1.9746331758269087,-0.4644751220703125,2.4756045166015626,7.268796240234375,7.692837814726479
1.9771201193732901,-0.40222587890625,2.403778466796875,7.326257080078125,7.721008961171661
1.9796070629196716,-0.3064578125,2.375048046875,7.560888842773437,7.931066114248631
1.982094006466053,-0.26815058593749996,2.3415292236328122,8.001421948242188,8.341307873210107
1.9845809500124345,-0.2346317626953125,2.35589443359375,8.494627490234375,8.818389129775863
1.9870678935588162,-0.24899697265624998,2.2936451904296873,9.050082275390624,9.339528732399335
1.9895548371051976,-0.296881005859375,2.31758720703125,9.65342109375,9.93216429621925
1.992041780651579,-0.3016694091796875,2.365471240234375,10.309432348632813,10.581628134264001
1.9945287241979606,-0.3495534423828125,2.408566870117187,10.874463940429687,11.143489039282684
1.997015667744342,-0.40222587890625,2.50912333984375,11.291055029296874,11.573478702050684
1.9995026112907235,-0.488417138671875,2.5522189697265625,11.573570825195311,11.861699482645504
2.001989554837105,-0.5506663818359374,2.6288334228515624,11.659762084960937,11.965118073261054
2.0044764983834864,-0.6272808349609375,2.6815058593749996,11.664550488281249,11.985228116870953
2.006963441929868,-0.6703764648437499,2.7198130859375,11.401188305664062,11.740267569704885
2.0094503854762498,-0.6703764648437499,2.7724855224609373,11.027692846679686,11.390614122933943
2.011937329022631,-0.7230489013671875,2.7916391357421872,10.481814868164061,10.87126909373698
2.0144242725690127,-0.7038952880859375,2.767697119140625,9.859322436523437,10.264592287432723
2.016911216115394,-0.7326257080078125,2.77727392578125,9.279925634765624,9.71426840650589
2.0193981596617756,-0.6751648681640625,2.7341782958984373,8.657433203124999,9.103995179015433
2.021885103208157,-0.622492431640625,2.6815058593749996,8.054094384765625,8.51154550361011
2.0243720467545385,-0.584185205078125,2.6431986328124997,7.6087728759765625,8.07596409381138
2.02685899030092,-0.49320554199218747,2.5426421630859375,7.273584643554687,7.720965900916071
2.0293459338473014,-0.4644751220703125,2.5043349365234375,7.144297753906249,7.584749238424693
2.031832877393683,-0.36391865234375,2.442085693359375,7.225700610351562,7.635899988191907
2.0343198209400644,-0.33518823242187495,2.403778466796875,7.436390356445312,7.822429520425433
2.036806764486446,-0.2442085693359375,2.3511060302734372,7.762001782226562,8.113939182555754
2.0392937080328277,-0.24899697265624998,2.3415292236328122,8.322244970703125,8.64896062830164
2.041780651579209,-0.24899697265624998,2.308010400390625,8.930372192382812,9.227158771538912
2.0442675951255906,-0.2825157958984375,2.2936451904296873,9.557653027343749,9.833074535749564
2.046754538671972,-0.27293898925781246,2.398990063476562,10.213664282226562,10.49516970260829
2.0492414822183536,-0.32561142578124996,2.327164013671875,10.797849487304687,11.05057775401878
2.0517284257647352,-0.411802685546875,2.437297290039062,11.310208642578125,11.577168007354143
2.0542153693111165,-0.45968671875,2.499546533203125,11.597512841796874,11.872714469180428
2.056702312857498,-0.5123591552734374,2.5761609863281247,11.803414184570311,12.09213396154654
2.0591892564038794,-0.5506663818359374,2.6910826660156246,11.7603185546875,12.076847762853562
2.061676199950261,-0.6751648681640625,2.6671406494140624,11.540052001953125,11.863485451196128
2.0641631434966423,-0.6751648681640625,2.77727392578125,11.219228979492186,11.577573016496363
2.066650087043024,-0.7565677246093749,2.7916391357421872,10.682927807617187,11.067546716815274
2.0691370305894057,-0.7422025146484375,2.7820623291015623,10.079588989257813,10.482788253519375
2.071623974135787,-0.7565677246093749,2.786850732421875,9.414000927734374,9.846945983100781
2.0741109176821686,-0.6703764648437499,2.729389892578125,8.734047656249999,9.17510557170707
2.07659786122855,-0.6560112548828124,2.7341782958984373,8.149862451171874,8.621272510094796
2.0790848047749315,-0.603338818359375,2.6384102294921874,7.637503295898437,8.10288114584484
2.081571748321313,-0.5315127685546874,2.5905261962890624,7.273584643554687,7.739403424279621
2.0840586918676944,-0.4836287353515625,2.5139117431640625,7.115567333984375,7.562072962524326
2.086545635414076,-0.39264907226562495,2.442085693359375,7.067683300781249,7.487997266813319
2.0890325789604574,-0.3495534423828125,2.379836450195312,7.249642626953125,7.638267300723097
2.091519522506839,-0.3064578125,2.327164013671875,7.632714892578124,7.9854834148444365
2.0940064660532203,-0.26336218261718747,2.308010400390625,8.12113203125,8.446837107257302
2.096493409599602,-0.22026655273437498,2.3032219970703123,8.738836059570312,9.039944944416886
2.0989803531459836,-0.22505495605468748,2.3127988037109373,9.390058911132812,9.673308347935377
2.101467296692365,-0.2920926025390625,2.360682836914062,10.022128149414062,10.300543392862165
2.1039542402387466,-0.3447650390625,2.31758720703125,10.687716210937499,10.941542450673529
2.106441183785128,-0.33039982910156246,2.418143676757812,11.214440576171874,11.476944729543847
2.1089281273315095,-0.4165910888671875,2.47081611328125,11.6070896484375,11.87446885160927
2.111415070877891,-0.5267243652343749,2.5905261962890624,11.784260571289062,12.077129698013078
2.1139020144242724,-0.584185205078125,2.5809493896484375,11.81777939453125,12.110428643263054
2.116388957970654,-0.6177040283203125,2.6862942626953124,11.664550488281249,11.9858029862857
2.1188759015170353,-0.7278373046875,2.729389892578125,11.334150659179686,11.680851317125208
2.121362845063417,-0.718260498046875,2.786850732421875,10.864887133789061,11.239582179860156
2.1238497886097982,-0.7613561279296874,2.7533319091796873,10.261548315429687,10.651754483912075
2.12633673215618,-0.7422025146484375,2.81558115234375,9.591171850585937,10.023419539541178
2.1288236757025616,-0.7278373046875,2.7820623291015623,8.954314208984375,9.404752038109258
2.131310619248943,-0.6464344482421874,2.729389892578125,8.312668164062499,8.773135054665465
2.1337975627953245,-0.6464344482421874,2.6240450195312497,7.766790185546874,8.22353449234015
2.1362845063417057,-0.6081272216796875,2.5905261962890624,7.335833886718749,7.80353147651362
2.1387714498880874,-0.5219359619140624,2.5330653564453125,7.115567333984375,7.571006256293022
2.141258393434469,-0.44053310546874996,2.4851813232421875,7.067683300781249,7.504821308102404
2.1437453369808503,-0.3112462158203125,2.4516625,7.182604980468749,7.595876350114132
2.146232280527232,-0.3016694091796875,2.3415292236328122,7.465120776367187,7.8295460751764105
2.1487192240736133,-0.28730419921875,2.3511060302734372,7.9295958984374995,8.27579206970509
2.151206167619995,-0.2346317626953125,2.2840683837890623,8.52335791015625,8.827210800162948
2.153693111166376,-0.2059013427734375,2.327164013671875,9.193734375,9.485928497914262
2.156180054712758,-0.258573779296875,2.31758720703125,9.835380419921874,10.108055147560155
2.1586669982591395,-0.296881005859375,2.35589443359375,10.534487304687499,10.7987869543991
2.161153941805521,-0.354341845703125,2.408566870117187,11.085153686523437,11.34933411109597
2.1636408853519025,-0.373495458984375,2.5043349365234375,11.501744775390625,11.777152678402338
2.1661278288982837,-0.4740519287109375,2.499546533203125,11.77947216796875,12.05107558098914
2.1686147724446654,-0.5267243652343749,2.6479870361328124,11.875240234375,12.178284137126123
2.171101715991047,-0.6512228515624999,2.6384102294921874,11.812990991210937,12.121553361674277
2.1735886595374283,-0.74699091796875,2.7246014892578123,11.473014355468749,11.815731340360854
2.17607560308381,-0.7230489013671875,2.7964275390625,11.037269653320312,11.408949473772811
2.178562546630191,-0.7613561279296874,2.7820623291015623,10.424354028320312,10.816038593879924
2.181049490176573,-0.7613561279296874,2.825157958984375,9.816226806640625,10.24302149593365
2.1835364337229546,-0.7805097412109374,2.786850732421875,9.074024291992187,9.524371334245101
2.186023377269336,-0.679953271484375,2.767697119140625,8.48505068359375,8.950897658774586
2.1885103208157175,-0.63206923828125,2.729389892578125,7.843404638671874,8.328750028283268
2.1909972643620987,-0.584185205078125,2.6719290527343746,7.3837179199218745,7.873993112624216
2.1934842079084804,-0.565031591796875,2.528276953125,7.091625317382812,7.550006271095171
2.1959711514548617,-0.43574470214843747,2.5139117431640625,6.981492041015625,7.4330920091596555
2.1984580950012433,-0.4070142822265625,2.4947581298828125,7.091625317382812,7.5286538235396145
2.200945038547625,-0.3064578125,2.408566870117187,7.340622290039062,7.731742776611668
2.2034319820940063,-0.28730419921875,2.308010400390625,7.762001782226562,8.102970281229492
2.205918925640388,-0.27293898925781246,2.3032219970703123,8.346186987304687,8.662457185273688
2.208405869186769,-0.24899697265624998,2.308010400390625,9.006986645507812,9.301328933709383
2.210892812733151,-0.26336218261718747,2.2601263671875,9.6151138671875,9.880685477934737
2.2133797562795325,-0.26336218261718747,2.3223756103515623,10.342951171874999,10.603745897492033
2.2158666998259138,-0.32561142578124996,2.379836450195312,10.951078393554686,11.211412146204323
2.2183536433722955,-0.38786066894531246,2.403778466796875,11.405976708984374,11.662970955200267
2.2208405869186767,-0.4740519287109375,2.5330653564453125,11.741164941406248,12.02065304018235
2.2233275304650584,-0.51714755859375,2.5474305664062498,11.899182250976562,12.179794018372231
2.2258144740114396,-0.612915625,2.6527754394531247,11.81777939453125,12.127357210593834
2.2283014175578213,-0.6607996582031249,2.7150246826171873,11.650185278320311,11.980602331881869
2.230788361104203,-0.7038952880859375,2.7964275390625,11.233594189453123,11.597806429283587
2.233275304650584,-0.7278373046875,2.825157958984375,10.697293017578124,11.087981896595666
2.235762248196966,-0.7661445312499999,2.8203695556640622,9.988609326171874,10.407390554032682
2.238249191743347,-0.7326257080078125,2.85388837890625,9.370905297851563,9.82320138287883
2.240736135289729,-0.7134720947265625,2.806004345703125,8.643067993164061,9.115115312080006
2.2432230788361105,-0.6560112548828124,2.7581203125,8.078036401367187,8.5610893306034
2.2457100223824917,-0.6416460449218749,2.6815058593749996,7.580042456054687,8.065930011872029
2.2481969659288734,-0.5746083984375,2.5665841796874997,7.182604980468749,7.6490093128738925
2.2506839094752547,-0.49320554199218747,2.5378537597656248,7.019799267578125,7.480744292495146
2.2531708530216363,-0.39743747558593745,2.4516625,7.0102224609374995,7.437191977671342
2.2556577965680176,-0.354341845703125,2.360682836914062,7.235277416992187,7.618898929698048
2.2581447401143993,-0.296881005859375,2.346317626953125,7.6231380859375,7.981577476630911
2.260631683660781,-0.24899697265624998,2.2601263671875,8.145074047851562,8.456500572520124
2.263118627207162,-0.22026655273437498,2.308010400390625,8.801085302734375,9.101347805054578
2.265605570753544,-0.229843359375,2.3319524169921872,9.457096557617186,9.743074737733428
2.268092514299925,-0.2346317626953125,2.308010400390625,10.127473022460936,10.3897869994072
2.2705794578463068,-0.2920926025390625,2.384624853515625,10.764330664062498,11.029168981647649
2.2730664013926885,-0.3687070556640625,2.437297290039062,11.291055029296874,11.557001628776318
2.2755533449390697,-0.4165910888671875,2.499546533203125,11.650185278320311,11.922587723567506
2.2780402884854514,-0.507570751953125,2.5857377929687497,11.851298217773437,12.140714041967424
2.2805272320318326,-0.5889736083984375,2.6431986328124997,11.85608662109375,12.161421746274979
2.2830141755782143,-0.6368576416015624,2.70065947265625,11.678915698242188,12.004008544213972
2.2855011191245955,-0.7134720947265625,2.7629087158203123,11.372457885742186,11.724994898288399
2.287988062670977,-0.7613561279296874,2.786850732421875,10.831368310546875,11.210028529716393
2.290475006217359,-0.7805097412109374,2.77727392578125,10.218452685546874,10.61787272487807
2.29296194976374,-0.74699091796875,2.81558115234375,9.600748657226562,10.03293912252032
2.295448893310122,-0.7565677246093749,2.806004345703125,8.8489693359375,9.313984830263983
2.297935836856503,-0.6847416748046875,2.767697119140625,8.327033374023436,8.801619357630377
2.3004227804028847,-0.6512228515624999,2.6815058593749996,7.666233715820312,8.147742280033148
2.3029097239492664,-0.5363011718749999,2.6671406494140624,7.321468676757812,7.81058011772859
2.3053966674956476,-0.49799394531249996,2.5857377929687497,7.043741284179687,7.519862311373268
2.3078836110420293,-0.4165910888671875,2.480392919921875,6.986280444335937,7.42522805167847
2.3103705545884106,-0.38307226562499996,2.39420166015625,7.144297753906249,7.544530227035736
2.3128574981347922,-0.2825157958984375,2.346317626953125,7.455543969726562,7.821135305440583
2.315344441681174,-0.2346317626953125,2.3032219970703123,7.963114721679687,8.292833032353046
2.317831385227555,-0.2154781494140625,2.2553379638671873,8.537723120117187,8.833215509649872
2.320318328773937,-0.239420166015625,2.3367408203125,9.279925634765624,9.572601499278544
2.322805272320318,-0.22026655273437498,2.27927998046875,9.868899243164062,10.13108122834593
2.3252922158666998,-0.2920926025390625,2.365471240234375,10.548852514648438,10.814761285051032
2.327779159413081,-0.32082302246093747,2.437297290039062,11.109095703125,11.37784482373367
2.3302661029594627,-0.39743747558593745,2.4899697265625,11.578359228515625,11.849738740189624
2.3327530465058444,-0.4836287353515625,2.5522189697265625,11.846509814453125,12.127964099840668
2.3352399900522256,-0.5793968017578125,2.5857377929687497,11.884817041015625,12.176642258286538
2.3377269335986073,-0.6464344482421874,2.6575638427734374,11.784260571289062,12.097492313960316
2.3402138771449885,-0.6607996582031249,2.7246014892578123,11.496956372070311,11.833854624966262
2.34270082069137,-0.7278373046875,2.7964275390625,11.066000073242186,11.437049958110613
2.345187764237752,-0.7278373046875,2.7629087158203123,10.491391674804687,10.873486606797826
2.347674707784133,-0.7852981445312499,2.7437551025390623,9.80665,10.213484687461639
2.350161651330515,-0.7757213378906249,2.7820623291015623,9.121908325195312,9.568219577869876
2.352648594876896,-0.689530078125,2.73896669921875,8.489839086914062,8.947332453293669
2.3551355384232777,-0.679953271484375,2.6910826660156246,7.8529814453124995,8.329080378238311
2.357622481969659,-0.5746083984375,2.6527754394531247,7.4603323730468745,7.9387625899791106
2.3601094255160406,-0.469263525390625,2.5713725830078125,7.1395093505859375,7.602944099755722
2.3625963690624223,-0.45968671875,2.4851813232421875,7.015010864257812,7.456394270318736
2.3650833126088036,-0.38307226562499996,2.408566870117187,7.1203557373046875,7.526447007339184
2.3675702561551852,-0.32561142578124996,2.379836450195312,7.369352709960937,7.750935665717148
2.3700571997015665,-0.26815058593749996,2.3511060302734372,7.742848168945312,8.096375860202299
2.372544143247948,-0.2537853759765625,2.3415292236328122,8.346186987304687,8.672139490877678
2.37503108679433,-0.2537853759765625,2.269703173828125,8.963891015625,9.250259545242374
2.377518030340711,-0.22026655273437498,2.308010400390625,9.696516723632811,9.969847839072347
2.3800049738870928,-0.26336218261718747,2.35589443359375,10.371681591796875,10.639143633915705
2.382491917433474,-0.32561142578124996,2.370259643554687,10.89840595703125,11.157930183628032
2.3849788609798557,-0.4261678955078125,2.418143676757812,11.410765112304686,11.671957777716433
2.387465804526237,-0.5027823486328125,2.5330653564453125,11.702857714843748,11.984410243478733
2.3899527480726186,-0.5267243652343749,2.6096798095703124,11.89439384765625,12.188702649116244
2.3924396916190003,-0.584185205078125,2.6862942626953124,11.8369330078125,12.151972360529092
2.3949266351653815,-0.6416460449218749,2.7198130859375,11.583147631835937,11.915469018477923
2.397413578711763,-0.7134720947265625,2.77727392578125,11.219228979492186,11.579870110802418
2.3999005222581444,-0.7709329345703124,2.7341782958984373,10.63025537109375,11.003290316902248
2.402387465804526,-0.737414111328125,2.7820623291015623,10.022128149414062,10.427209742681384
2.404874409350908,-0.74699091796875,2.829946362304687,9.327809667968749,9.776227546804575
2.407361352897289,-0.7326257080078125,2.7533319091796873,8.667010009765624,9.123302008566773
2.4098482964436707,-0.6655880615234374,2.7341782958984373,8.073247998046874,8.549624065382785
2.412335239990052,-0.5889736083984375,2.6767174560546874,7.541735229492187,8.024305360758733
2.4148221835364336,-0.5458779785156249,2.5857377929687497,7.144297753906249,7.61741511917823
2.417309127082815,-0.507570751953125,2.499546533203125,6.976703637695312,7.428307653033564
2.4197960706291965,-0.40222587890625,2.4947581298828125,6.976703637695312,7.42024241062981
2.4222830141755782,-0.33039982910156246,2.427720483398437,7.230489013671875,7.634327879349456
2.4247699577219595,-0.2920926025390625,2.370259643554687,7.6279264892578125,7.993041435639068
2.427256901268341,-0.26815058593749996,2.269703173828125,8.116343627929687,8.43199212052875
2.4297438448147224,-0.2346317626953125,2.3127988037109373,8.738836059570312,9.042751022037411
2.432230788361104,-0.22505495605468748,2.2601263671875,9.437942944335937,9.707398619065843
2.4347177319074857,-0.24899697265624998,2.3367408203125,10.079588989257813,10.34990199693089
2.437204675453867,-0.2537853759765625,2.379836450195312,10.716446630859375,10.98044884960515
2.4396916190002487,-0.32082302246093747,2.4133552734375,11.228805786132812,11.48970367199517
2.44217856254663,-0.45010991210937495,2.499546533203125,11.631031665039062,11.90509258249461
2.4446655060930116,-0.5123591552734374,2.6001030029296874,11.85608662109375,12.148655789704254
2.4471524496393933,-0.5363011718749999,2.6767174560546874,11.85608662109375,12.166315187984429
2.4496393931857745,-0.6272808349609375,2.6767174560546874,11.731588134765625,12.049417319905173
2.452126336732156,-0.7038952880859375,2.7629087158203123,11.348515869140625,11.701194194640223
2.4546132802785374,-0.7230489013671875,2.844311572265625,10.855310327148437,11.245028694164724
2.457100223824919,-0.7709329345703124,2.77727392578125,10.232817895507813,10.630999488808873
2.4595871673713003,-0.7565677246093749,2.8012159423828122,9.5384994140625,9.970064019345658
2.462074110917682,-0.7517793212890624,2.806004345703125,8.916006982421875,9.377313743637796
2.4645610544640637,-0.699106884765625,2.767697119140625,8.245630517578125,8.725784802070338
2.467047998010445,-0.6464344482421874,2.6958710693359373,7.690175732421874,8.174619325319496
2.4695349415568266,-0.5698199951171875,2.6192566162109374,7.254431030273437,7.733819859642081
2.472021885103208,-0.47884033203125,2.5665841796874997,7.067683300781249,7.53450659666206
2.4745088286495895,-0.411802685546875,2.47081611328125,6.981492041015625,7.417259927779153
2.4769957721959712,-0.3591302490234375,2.422932080078125,7.1395093505859375,7.547991002083891
2.4794827157423525,-0.28730419921875,2.3223756103515623,7.4028715332031245,7.763921632496923
2.481969659288734,-0.2442085693359375,2.31758720703125,7.9295958984374995,8.264946424511706
2.4844566028351154,-0.22026655273437498,2.3032219970703123,8.518569506835936,8.827195215063337
2.486943546381497,-0.27293898925781246,2.2601263671875,9.193734375,9.47140003619158
2.4894304899278783,-0.26815058593749996,2.308010400390625,9.883264453125,10.152720472634618
2.49191743347426,-0.2825157958984375,2.360682836914062,10.510545288085936,10.776093953021114
2.4944043770206417,-0.3447650390625,2.418143676757812,11.094730493164063,11.36042809446669
2.496891320567023,-0.38786066894531246,2.47081611328125,11.496956372070311,11.765856279313168
2.4993782641134046,-0.488417138671875,2.5426421630859375,11.812990991210937,12.093400540347679
2.501865207659786,-0.5123591552734374,2.6001030029296874,11.908759057617187,12.200065156474201
2.5043521512061675,-0.6368576416015624,2.6767174560546874,11.774683764648437,12.091880819487498
2.506839094752549,-0.6560112548828124,2.7198130859375,11.449072338867186,11.785965866639167
2.5093260382989304,-0.7278373046875,2.7581203125,11.01332763671875,11.376746478410814
2.511812981845312,0.0,1.2497732666015624,25.929203979492186,25.959305696185815
2.5142999253916933,-0.49799394531249996,1.5322890624999999,25.26840432128906,25.319718890318764
2.516786868938075,-0.9624690673828125,1.9393033447265624,23.376985009765622,23.477024349677347
2.5192738124844563,-1.3072341064453123,2.24097275390625,20.503943017578123,20.667426041016686
2.521760756030838,-1.656787548828125,2.6431986328124997,16.888698510742188,17.17438736552775
2.5242476995772196,-1.8148048583984373,3.0262708984374997,12.785036865234375,13.263069021542423
2.526734643123601,-1.9393033447265624,3.2704794677734372,8.729259252929687,9.521391732139467
2.5292215866699825,-1.8770541015625,3.5003228271484375,4.936843823242187,6.336246438510229
2.5317085302163638,-1.6903063720703124,3.6152445068359373,1.599326708984375,4.299415587930493
2.5341954737627455,-1.43652099609375,3.6679169433593746,-0.8810662109374999,4.03651891407147
2.536682417309127,-1.158793603515625,3.6152445068359373,-2.403778466796875,4.49343369564885
2.5391693608555084,-0.8283937744140625,3.4811692138671875,-2.91134921875,4.613104119200098
2.54165630440189,-0.4836287353515625,3.227383837890625,-2.4660277099609376,4.090378449120638
2.5441432479482713,-0.1388636962890625,2.978386865234375,-1.0534487304687499,3.1622500965094344
2.546630191494653,0.143652099609375,2.729389892578125,1.158793603515625,2.9686710371778378
2.549117135041034,0.373495458984375,2.408566870117187,3.88818349609375,4.588972011791297
2.551604078587416,0.488417138671875,2.2170307373046874,6.981492041015625,7.341321932068277
2.5540910221337976,0.5889736083984375,1.9823989746093749,10.0748005859375,10.284862782377251
2.556577965680179,0.5506663818359374,1.9105729248046874,12.990938208007812,13.142221954044082
2.5590649092265605,0.4213794921875,1.7860744384765623,15.471331127929687,15.57978528241842
2.5615518527729417,0.201112939453125,1.7334020019531249,17.348385229492187,17.4359283947157
2.5640387963193234,0.0526724365234375,1.8195932617187498,18.497602026367186,18.586957113780755
2.566525739865705,-0.22505495605468748,1.944091748046875,18.875885888671874,18.977070652243214
2.5690126834120863,-0.51714755859375,2.068590234375,18.44492958984375,18.567766013427804
2.571499626958468,-0.7517793212890624,2.231395947265625,17.35796203613281,17.51693883271901
2.5739865705048492,-0.9864110839843749,2.427720483398437,15.658078857421874,15.875839098370879
2.576473514051231,-1.139639990234375,2.6048914062499997,13.48414375,13.78065206063779
2.5789604575976126,-1.20667763671875,2.81558115234375,11.156979736328124,11.569864518706641
2.581447401143994,-1.216254443359375,2.940079638671875,8.748412866210938,9.30903168059973
2.5839343446903755,-1.254561669921875,2.9831752685546875,6.517016918945312,7.276315632816717
2.5864212882367568,-1.1444283935546875,3.0454245117187497,4.687846850585937,5.706157630060709
2.5889082317831384,-0.97683427734375,3.1316157714843746,3.303998291015625,4.655923888192067
2.5913951753295197,-0.8283937744140625,3.0358477050781247,2.4660277099609376,3.9979870185146025
2.5938821188759014,-0.612915625,2.987963671875,2.1978771240234374,3.7595553354245776
2.596369062422283,-0.39743747558593745,2.868253588867187,2.5713725830078125,3.872569193402991
2.5988560059686643,-0.258573779296875,2.70065947265625,3.4524387939453125,4.390871851070852
2.601342949515046,-0.076614453125,2.6288334228515624,4.8123453369140625,5.484095420508986
2.603829893061427,0.062249243164062495,2.528276953125,6.5601125488281244,7.030727983165738
2.606316836607809,0.06703764648437499,2.360682836914062,8.365340600585936,8.692309294218555
2.6088037801541906,0.08140285644531249,2.250549560546875,10.232817895507813,10.477698307936725
2.611290723700572,0.0430956298828125,2.1643583007812497,11.903970654296874,12.099207470980769
2.6137776672469535,-0.0,2.1595698974609374,13.388375683593749,13.561428596835357
2.6162646107933347,-0.1197100830078125,2.2361843505859373,14.432247607421875,14.604951966908814
2.6187515543397164,-0.27293898925781246,2.2266075439453124,15.0547400390625,15.220955110976538
2.6212384978860976,-0.45010991210937495,2.27927998046875,15.126566088867186,15.303944517777483
2.6237254414324793,-0.6177040283203125,2.370259643554687,14.81053146972656,15.01171314208435
2.626212384978861,-0.7326257080078125,2.461239306640625,14.044386938476562,14.277228156411798
2.6286993285252422,-0.8571241943359375,2.5761609863281247,12.876016528320312,13.159143929206527
2.631186272071624,-0.8954314208984374,2.6431986328124997,11.482591162109374,11.816860676092714
2.633673215618005,-0.9337386474609375,2.6767174560546874,9.95987890625,10.355475461246273
2.636160159164387,-0.928950244140625,2.7246014892578123,8.532934716796875,9.005408192440374
2.6386471027107685,-0.8906430175781249,2.8203695556640622,7.201758593749999,7.7854387325268535
2.6411340462571498,-0.814028564453125,2.8107927490234372,6.066907006835937,6.735767143488805
2.6436209898035314,-0.7230489013671875,2.7581203125,5.295974072265625,6.014762567724776
2.6461079333499127,-0.6177040283203125,2.710236279296875,4.84586416015625,5.586531877194199
2.6485948768962944,-0.47884033203125,2.6623522460937497,4.826710546875,5.533040958566509
2.6510818204426756,-0.3687070556640625,2.6096798095703124,5.190629199218749,5.821426378917599
2.6535687639890573,-0.26336218261718747,2.5043349365234375,5.91846650390625,6.431896988555165
2.656055707535439,-0.19632453613281248,2.4756045166015626,6.861781958007812,7.297342851021003
2.65854265108182,-0.105344873046875,2.442085693359375,8.073247998046874,8.43517713589677
2.661029594628202,-0.09576806640624999,2.389413256835937,9.289502441406249,9.592357522704164
2.663516538174583,-0.1149216796875,2.346317626953125,10.524910498046875,10.783884012307924
2.666003481720965,-0.1388636962890625,2.4133552734375,11.597512841796874,11.846766264159138
2.6684904252673465,-0.2442085693359375,2.35589443359375,12.483367456054687,12.70607490338619
2.6709773688137277,-0.32561142578124996,2.47081611328125,13.043610644531249,13.279560749978836
2.6734643123601094,-0.469263525390625,2.418143676757812,13.326126440429686,13.551873413075588
2.6759512559064906,-0.55545478515625,2.4660277099609376,13.297396020507811,13.535529676036514
2.6784381994528723,-0.6272808349609375,2.5713725830078125,12.876016528320312,13.145236393619227
2.6809251429992536,-0.718260498046875,2.6192566162109374,12.258312499999999,12.555581576027274
2.6834120865456352,-0.718260498046875,2.6527754394531247,11.396399902343749,11.72309883986998
2.685899030092017,-0.7852981445312499,2.70065947265625,10.381258398437499,10.75550002083498
2.688385973638398,-0.7948749511718749,2.729389892578125,9.3086560546875,9.733060819607488
2.69087291718478,-0.7517793212890624,2.6958710693359373,8.259995727539062,8.721262660266797
2.693359860731161,-0.689530078125,2.70065947265625,7.37414111328125,7.883334984286272
2.6958468042775428,-0.6512228515624999,2.6431986328124997,6.713341455078124,7.2442766172592785
2.6983337478239244,-0.5889736083984375,2.6288334228515624,6.248866333007812,6.804850147085521
2.7008206913703057,-0.49320554199218747,2.5713725830078125,6.066907006835937,6.607765832480072
2.7033076349166874,-0.39743747558593745,2.50912333984375,6.138733056640625,6.643621002302971
2.7057945784630686,-0.32082302246093747,2.4851813232421875,6.564900952148437,7.026875417470571
2.7082815220094503,-0.2346317626953125,2.422932080078125,7.163451367187499,7.565757557495328
2.7107684655558315,-0.21068974609375,2.398990063476562,7.943961108398437,8.300967509002504
2.713255409102213,-0.181959326171875,2.389413256835937,8.825027319335938,9.144589225074569
2.715742352648595,-0.19632453613281248,2.446874096679687,9.835380419921874,10.137082626331521
2.718229296194976,-0.21068974609375,2.398990063476562,10.678139404296875,10.946332930774851
2.720716239741358,-0.26815058593749996,2.437297290039062,11.4538607421875,11.7133790478322
2.723203183287739,-0.3399766357421875,2.480392919921875,12.066776367187499,12.323758560023963
2.7256901268341207,-0.4644751220703125,2.5330653564453125,12.421118212890624,12.68528024513644
2.7281770703805024,-0.5027823486328125,2.528276953125,12.502521069335936,12.765500676862962
2.7306640139268836,-0.612915625,2.6096798095703124,12.358868969726561,12.646253851742744
2.7331509574732653,-0.6416460449218749,2.70065947265625,12.00931552734375,12.325945427005244
2.7356379010196465,-0.6847416748046875,2.6623522460937497,11.372457885742186,11.699990983179193
2.7381248445660282,-0.7565677246093749,2.7198130859375,10.601524951171875,10.970966649966506
2.74061178811241,-0.7709329345703124,2.7246014892578123,9.830592016601562,10.230265405244452
2.743098731658791,-0.70868369140625,2.7437551025390623,8.954314208984375,9.392026809501441
2.745585675205173,-0.737414111328125,2.7150246826171873,8.192958081054687,8.66254585654389
2.748072618751554,-0.689530078125,2.6336218261718747,7.474697583007812,7.9550310878934205
2.7505595622979357,-0.55545478515625,2.5761609863281247,6.909665991210937,7.395175424283665
2.753046505844317,-0.49320554199218747,2.5570073730468748,6.718129858398437,7.205193072137102
2.7555334493906987,-0.44532150878906246,2.461239306640625,6.622361791992187,7.078960790594969
2.7580203929370803,-0.33518823242187495,2.442085693359375,6.766013891601562,7.201046984030167
2.7605073364834616,-0.296881005859375,2.403778466796875,7.196970190429687,7.5935939561587
2.7629942800298433,-0.2059013427734375,2.379836450195312,7.75721337890625,8.116672735703728
2.7654812235762245,-0.2346317626953125,2.360682836914062,8.456320263671875,8.782780193216366
2.767968167122606,-0.24899697265624998,2.3319524169921872,9.251195214843749,9.543825987027192
2.770455110668988,-0.2059013427734375,2.4133552734375,10.05564697265625,10.343244900778252
2.772942054215369,-0.24899697265624998,2.427720483398437,10.812214697265624,11.084214581903
2.775428997761751,-0.38786066894531246,2.4564509033203126,11.396399902343749,11.66458390484112
2.777915941308132,-0.38307226562499996,2.5234885498046875,11.875240234375,12.146442666303793
2.7804028848545137,-0.4740519287109375,2.5809493896484375,12.114660400390624,12.395604930774212
2.782889828400895,-0.603338818359375,2.5570073730468748,12.129025610351562,12.410300830041125
2.7853767719472766,-0.6272808349609375,2.6862942626953124,11.937489477539062,12.25207383009321
2.7878637154936583,-0.7230489013671875,2.7054478759765623,11.549628808593749,11.884282626212363
2.7903506590400395,-0.6943184814453125,2.7629087158203123,11.018116040039061,11.380449191371946
2.792837602586421,-0.7805097412109374,2.748543505859375,10.309432348632813,10.698041045479474
2.7953245461328025,-0.7565677246093749,2.7533319091796873,9.548076220703125,9.965891372094326
2.797811489679184,-0.6943184814453125,2.7246014892578123,8.781931689453124,9.221055017033757
2.800298433225566,-0.6512228515624999,2.6815058593749996,8.073247998046874,8.53181681204112
2.802785376771947,-0.63206923828125,2.6527754394531247,7.541735229492187,8.019632119113115
2.8052723203183287,-0.5315127685546874,2.5905261962890624,7.1203557373046875,7.595577504216801
2.80775926386471,-0.4836287353515625,2.5043349365234375,6.900089184570312,7.356413595154489
2.8102462074110917,-0.4213794921875,2.47081611328125,6.8569935546875,7.300743356063982
2.812733150957473,-0.32082302246093747,2.398990063476562,7.038952880859375,7.443449361375326
2.8152200945038546,-0.22505495605468748,2.375048046875,7.4794859863281244,7.850746052311737
2.8177070380502363,-0.21068974609375,2.360682836914062,8.0062103515625,8.349647766168117
2.8201939815966175,-0.2825157958984375,2.327164013671875,8.652644799804687,8.964584181826206
2.822680925142999,-0.21068974609375,2.308010400390625,9.399635717773437,9.681139075762857
2.8251678686893804,-0.24899697265624998,2.3511060302734372,10.146626635742187,10.418432278569215
2.827654812235762,-0.32082302246093747,2.398990063476562,10.802637890625,11.070459165380955
2.8301417557821438,-0.33039982910156246,2.5378537597656248,11.391611499023437,11.67555901435601
2.832628699328525,-0.4213794921875,2.4899697265625,11.750741748046874,12.019044951447917
2.8351156428749067,-0.49799394531249996,2.6048914062499997,12.00931552734375,12.298663205536718
2.837602586421288,-0.584185205078125,2.6862942626953124,11.990161914062499,12.301277654985958
2.8400895299676696,-0.7038952880859375,2.6575638427734374,11.793837377929687,12.110025361330079
2.842576473514051,-0.6560112548828124,2.748543505859375,11.477802758789062,11.820524452823593
2.8450634170604325,-0.718260498046875,2.7341782958984373,10.82179150390625,11.184936318586445
2.847550360606814,-0.7278373046875,2.8012159423828122,10.242394702148436,10.643458419731472
2.8500373041531954,-0.699106884765625,2.7724855224609373,9.5001921875,9.921142978912169
2.852524247699577,-0.74699091796875,2.7581203125,8.796296899414061,9.24878706817247
2.8550111912459584,-0.6751648681640625,2.7150246826171873,8.14028564453125,8.607639455796527
2.85749813479234,-0.6177040283203125,2.6527754394531247,7.556100439453124,8.032025252068905
2.8599850783387217,-0.6081272216796875,2.5474305664062498,7.196970190429687,7.6586944795012055
2.862472021885103,-0.469263525390625,2.5570073730468748,6.957550024414062,7.427381591402332
2.8649589654314846,-0.38307226562499996,2.422932080078125,6.909665991210937,7.332177598466897
2.867445908977866,-0.316034619140625,2.418143676757812,7.1395093505859375,7.544527187905362
2.8699328525242476,-0.296881005859375,2.360682836914062,7.522581616210937,7.889879337524462
2.8724197960706292,-0.2059013427734375,2.384624853515625,8.068459594726562,8.415989026056025
2.8749067396170105,-0.2442085693359375,2.288856787109375,8.686163623046875,8.985985850399308
2.877393683163392,-0.2154781494140625,2.2936451904296873,9.351751684570312,9.631329018485445
2.8798806267097734,-0.2346317626953125,2.327164013671875,10.098742602539062,10.366067073048116
2.882367570256155,-0.296881005859375,2.365471240234375,10.769119067382812,11.02984669011696
2.8848545138025363,-0.38786066894531246,2.446874096679687,11.286266625976562,11.554974820229992
2.887341457348918,-0.43574470214843747,2.4756045166015626,11.664550488281249,11.93231868756994
2.8898284008952997,-0.5123591552734374,2.5713725830078125,11.923124267578125,12.20800397955158
2.892315344441681,-0.5698199951171875,2.6527754394531247,11.9135474609375,12.218613892869003
2.8948022879880626,-0.6703764648437499,2.6910826660156246,11.722011328125,12.04561663413862
2.897289231534444,-0.6847416748046875,2.7629087158203123,11.4538607421875,11.802265106096971
2.8997761750808255,-0.7038952880859375,2.7437551025390623,10.888829150390624,11.251233750380237
2.902263118627207,-0.7709329345703124,2.8203695556640622,10.28549033203125,10.692994594145748
2.9047500621735884,-0.6751648681640625,2.81558115234375,9.600748657226562,10.02784720684724
2.90723700571997,-0.699106884765625,2.7581203125,8.916006982421875,9.359014830907547
2.9097239492663514,-0.6655880615234374,2.7198130859375,8.21690009765625,8.680889234689191
2.912210892812733,-0.6081272216796875,2.6671406494140624,7.675810522460937,8.148713097061815
2.9146978363591143,-0.5698199951171875,2.5809493896484375,7.249642626953125,7.716431351168609
2.917184779905496,-0.49320554199218747,2.50912333984375,7.048529687499999,7.498047905739821
2.9196717234518776,-0.4261678955078125,2.4756045166015626,6.9527616210937495,7.392640323831114
2.922158666998259,-0.32561142578124996,2.384624853515625,7.072471704101562,7.470763983550877
2.9246456105446406,-0.2825157958984375,2.365471240234375,7.474697583007812,7.845149668472292
2.927132554091022,-0.2537853759765625,2.3127988037109373,7.939172705078125,8.273083377106978
2.9296194976374035,-0.201112939453125,2.3511060302734372,8.619125976562499,8.936301168820243
2.932106441183785,-0.2442085693359375,2.2601263671875,9.222464794921875,9.498508615280961
2.9345933847301664,-0.22505495605468748,2.2840683837890623,9.945513696289062,10.20690260549903
2.937080328276548,-0.3064578125,2.3319524169921872,10.563217724609375,10.821898500885123
2.9395672718229293,-0.32082302246093747,2.446874096679687,11.190498559570312,11.459379488806897
2.942054215369311,-0.430956298828125,2.4660277099609376,11.573570825195311,11.84122281031849
2.9445411589156922,-0.469263525390625,2.528276953125,11.89439384765625,12.169182290159348
2.947028102462074,-0.59376201171875,2.5905261962890624,11.9135474609375,12.206391457110922
2.9495150460084556,-0.603338818359375,2.6527754394531247,11.793837377929687,12.103546395951742
2.952001989554837,-0.679953271484375,2.7246014892578123,11.506533178710937,11.8442431383117
2.9544889331012185,-0.718260498046875,2.8107927490234372,10.998962426757812,11.375132020607381
2.9569758766475998,-0.70868369140625,2.81558115234375,10.448296044921875,10.844197528735293
2.9594628201939814,-0.7661445312499999,2.806004345703125,9.715670336914062,10.14173988655107
2.961949763740363,-0.7326257080078125,2.73896669921875,9.045293872070312,9.479241543476775
2.9644367072867444,-0.7230489013671875,2.77727392578125,8.398859423828124,8.875634613582243
2.966923650833126,-0.6272808349609375,2.70065947265625,7.805097412109374,8.282909419139731
2.9694105943795073,-0.5793968017578125,2.6192566162109374,7.331045483398437,7.806435406452075
2.971897537925889,-0.49320554199218747,2.5522189697265625,7.082048510742187,7.5440363522844684
2.97438448147227,-0.4165910888671875,2.4899697265625,6.957550024414062,7.40141876377397
2.976871425018652,-0.3447650390625,2.4516625,7.134720947265625,7.552069580016918
2.9793583685650336,-0.3399766357421875,2.375048046875,7.364564306640625,7.74553063156169
2.981845312111415,-0.258573779296875,2.3415292236328122,7.809885815429687,8.157446656553518
2.9843322556577965,-0.24899697265624998,2.308010400390625,8.418013037109375,8.73223081426772
2.9868191992041777,-0.2154781494140625,2.3127988037109373,9.088389501953124,9.38052732411848
2.9893061427505594,-0.2537853759765625,2.250549560546875,9.80665,10.064778416042614
2.991793086296941,-0.27293898925781246,2.39420166015625,10.448296044921875,10.722573735987181
2.9942800298433223,-0.277727392578125,2.4133552734375,11.056423266601563,11.320155106298907
2.996766973389704,-0.38786066894531246,2.408566870117187,11.444283935546874,11.701421497568449
2.9992539169360852,-0.430956298828125,2.5043349365234375,11.79862578125,12.069175080831691
3.001740860482467,-0.5267243652343749,2.6144682128906247,11.956643090820311,12.250477402714074
3.0042278040288486,-0.612915625,2.6431986328124997,11.822567797851562,12.129932972224857
3.00671474757523,-0.679953271484375,2.7246014892578123,11.535263598632811,11.872156333902083
3.0092016911216115,-0.7134720947265625,2.7724855224609373,11.133037719726563,11.495227151781883
3.0116886346679927,-0.7517793212890624,2.7964275390625,10.55364091796875,10.943697535776893
3.0141755782143744,-0.7134720947265625,2.7916391357421872,9.955090502929687,10.363692315757051
3.0166625217607557,-0.7661445312499999,2.767697119140625,9.236830004882812,9.672959905073885
3.0191494653071373,-0.7278373046875,2.7629087158203123,8.556876733398436,9.02128323159328
3.021636408853519,-0.6464344482421874,2.7341782958984373,7.963114721679687,8.444217223654778
3.0241233523999003,-0.59376201171875,2.6623522460937497,7.465120776367187,7.947873993376453
3.026610295946282,-0.5506663818359374,2.5953145996093747,7.110778930664062,7.589602646766548
3.029097239492663,-0.45010991210937495,2.480392919921875,7.000645654296875,7.440698055102317
3.031584183039045,-0.3399766357421875,2.4133552734375,7.067683300781249,7.4760962426136075
3.0340711265854265,-0.32082302246093747,2.403778466796875,7.321468676757812,7.7126507709038075
3.036558070131808,-0.258573779296875,2.288856787109375,7.714117749023437,8.050673166700717
3.0390450136781895,-0.26815058593749996,2.27927998046875,8.250418920898436,8.56366944343505
3.0415319572245707,-0.21068974609375,2.2553379638671873,8.877699755859375,9.162122704676861
3.0440189007709524,-0.2346317626953125,2.3223756103515623,9.581595043945311,9.861817485929187
3.0465058443173336,-0.277727392578125,2.31758720703125,10.28549033203125,10.547021112005583
3.0489927878637153,-0.3399766357421875,2.35589443359375,10.850521923828124,11.108539450106093
3.051479731410097,-0.40222587890625,2.427720483398437,11.405976708984374,11.668415363238843
3.0539666749564782,-0.44053310546874996,2.461239306640625,11.702857714843748,11.966981534014524
3.05645361850286,-0.488417138671875,2.6240450195312497,11.908759057617187,12.204208530595277
3.058940562049241,-0.5793968017578125,2.6479870361328124,11.875240234375,12.180675950928725
3.061427505595623,-0.6368576416015624,2.7150246826171873,11.6837041015625,12.011906102519918
3.0639144491420045,-0.7134720947265625,2.7533319091796873,11.238382592773437,11.592718504889763
3.0664013926883857,-0.679953271484375,2.5617957763671875,10.443507641601562,10.77459910676055
3.0688883362347674,-0.7661445312499999,2.7820623291015623,10.070012182617187,10.475303986225358
3.0713752797811487,-0.7422025146484375,2.786850732421875,9.414000927734374,9.845852682471664
3.0738622233275303,-0.7230489013671875,2.8107927490234372,8.75320126953125,9.221815876314952
3.0763491668739116,-0.689530078125,2.7341782958984373,8.073247998046874,8.55152126351616
3.0788361104202933,-0.5985504150390625,2.6719290527343746,7.570465649414062,8.05042965382269
3.081323053966675,-0.55545478515625,2.5953145996093747,7.240065820312499,7.711208787975842
3.083809997513056,-0.488417138671875,2.50912333984375,7.034164477539062,7.484231499156707
3.086296941059438,-0.4070142822265625,2.4660277099609376,7.015010864257812,7.446967887528905
3.088783884605819,-0.3591302490234375,2.4133552734375,7.230489013671875,7.631070015955948
3.091270828152201,-0.27293898925781246,2.3415292236328122,7.556100439453124,7.915295866111845
3.0937577716985825,-0.229843359375,2.2649147705078123,8.10197841796875,8.415742461170295
3.0962447152449637,-0.22505495605468748,2.3127988037109373,8.724470849609375,9.028625567902086
3.0987316587913454,-0.258573779296875,2.308010400390625,9.404424121093749,9.686948201423453
3.1012186023377266,-0.26815058593749996,2.288856787109375,10.031704956054687,10.293001236469733
3.1037055458841083,-0.2825157958984375,2.35589443359375,10.678139404296875,10.938588341041442
3.1061924894304895,-0.373495458984375,2.418143676757812,11.243170996093749,11.506337894687842
3.108679432976871,-0.430956298828125,2.47081611328125,11.616666455078125,11.884342435561477
3.111166376523253,-0.4740519287109375,2.5522189697265625,11.875240234375,12.155652081425556
3.113653320069634,-0.55545478515625,2.6384102294921874,11.846509814453125,12.149466380931147
3.116140263616016,-0.59376201171875,2.70065947265625,11.717222924804688,12.039079199979405
3.118627207162397,-0.718260498046875,2.748543505859375,11.410765112304686,11.759079470555765
3.1211141507087787,-0.737414111328125,2.8012159423828122,10.922347973632812,11.299923698174526
3.1236010942551604,-0.737414111328125,2.8730419921875,10.295067138671874,10.713848853246907
3.1260880378015417,-0.7805097412109374,2.7916391357421872,9.610325463867188,10.037967923926965
3.1285749813479233,-0.699106884765625,2.8012159423828122,8.935160595703124,9.39002960928197
3.1310619248943046,-0.718260498046875,2.7198130859375,8.298302954101562,8.762140907537502
3.1335488684406863,-0.6368576416015624,2.6623522460937497,7.733271362304687,8.2034866429457
3.136035811987068,-0.5746083984375,2.6048914062499997,7.297526660156249,7.769783099006125
3.138522755533449,-0.4740519287109375,2.5617957763671875,7.105990527343749,7.568528536355426
3.141009699079831,-0.4070142822265625,2.4851813232421875,7.0102224609374995,7.448825799222371
3.143496642626212,-0.3591302490234375,2.446874096679687,7.153874560546875,7.569285871785093
3.1459835861725938,-0.28730419921875,2.384624853515625,7.426813549804687,7.805545394042344
3.148470529718975,-0.2442085693359375,2.29843359375,7.8721350585937495,8.204446671833297
3.1509574732653567,-0.2154781494140625,2.3415292236328122,8.475473876953124,8.795615235838607
3.1534444168117384,-0.2346317626953125,2.2553379638671873,9.150638745117186,9.427395761235758
3.1559313603581196,-0.2825157958984375,2.2649147705078123,9.82580361328125,10.087421411806263
3.1584183039045013,-0.296881005859375,2.3415292236328122,10.453084448242187,10.716243367843473
3.1609052474508825,-0.36391865234375,2.346317626953125,11.027692846679686,11.280410130522071
3.163392190997264,-0.38786066894531246,2.461239306640625,11.535263598632811,11.801289807178312
3.165879134543646,-0.49799394531249996,2.528276953125,11.755530151367187,12.034644633763557
3.168366078090027,-0.55545478515625,2.6240450195312497,11.93270107421875,12.23043323883259
3.170853021636409,-0.603338818359375,2.6767174560546874,11.822567797851562,12.136801201473308
3.17333996518279,-0.6751648681640625,2.73896669921875,11.563994018554688,11.903098077383083
3.1758269087291717,-0.6847416748046875,2.839523168945312,11.133037719726563,11.509834571228465
3.178313852275553,-0.7613561279296874,2.8107927490234372,10.544064111328124,10.938807385418968
3.1808007958219346,-0.7661445312499999,2.8012159423828122,9.854534033203125,10.27354024716809
3.1832877393683163,-0.737414111328125,2.81558115234375,9.150638745117186,9.602367741378115
3.1857746829146976,-0.8810662109374999,2.9975404785156248,8.441955053710936,9.001562737506807
3.1882616264610792,-0.6368576416015624,2.748543505859375,7.939172705078125,8.425588543260675
3.1907485700074605,-0.5889736083984375,2.6767174560546874,7.455543969726562,7.943352071730413
3.193235513553842,-0.5267243652343749,2.6001030029296874,7.134720947265625,7.6119785324267975
3.195722457100224,-0.430956298828125,2.5043349365234375,6.962338427734375,7.411583716595142
3.198209400646605,-0.36391865234375,2.4516625,7.043741284179687,7.467086250867017
3.2006963441929868,-0.32082302246093747,2.365471240234375,7.326257080078125,7.705350375129724
3.203183287739368,-0.24899697265624998,2.3319524169921872,7.742848168945312,8.090222452741795
3.2056702312857497,-0.229843359375,2.27927998046875,8.264784130859374,8.576397957704582
