Time (s),Acceleration x (m/s^2),Acceleration y (m/s^2),Acceleration z (m/s^2),Absolute acceleration (m/s^2)
0.0,-1.2785036865234374,4.204218115234375,-8.9255837890625,9.948671650652372
0.002486943546381497,-1.5658078857421873,4.218583325195312,-9.083601098632812,10.137061138503189
0.004973887092762994,-1.7334020019531249,4.127603662109375,-8.06367119140625,9.22304654520126
0.007460830639144491,-1.8100164550781248,3.921702319335937,-5.990292553710937,7.3850872390367295
0.009947774185525988,-1.7812860351562498,3.6343981201171873,-3.0502129150390624,5.068099097455091
0.012434717731907486,-1.656787548828125,3.2800562744140622,0.55545478515625,3.7164827678368075
0.014921661278288981,-1.4604630126953124,2.901772412109375,4.553771557617187,5.593752831694782
0.01740860482467048,-1.197100830078125,2.518700146484375,8.686163623046875,9.12284710557055
0.019895548371051976,-0.8858546142578124,2.1404162841796874,12.684480395507812,12.89426861714946
0.022382491917433474,-0.5698199951171875,1.8195932617187498,16.299724902343748,16.41086976235606
0.02486943546381497,-0.2825157958984375,1.5562310791015623,19.316418994140623,19.38106584023929
0.027356379010196465,-0.0383072265625,1.3646949462890625,21.57175695800781,21.614915174374204
0.029843322556577963,0.16280571289062498,1.2689268798828124,22.96518232421875,23.00078868889604
0.032330266102959464,0.2825157958984375,1.2593500732421874,23.439234252929687,23.474741322230145
0.03481720964934096,0.33518823242187495,1.3311761230468748,23.013066357421874,23.05397154923261
0.03730415319572245,0.32561142578124996,1.4796166259765624,21.73935107421875,21.792078223258137
0.03979109674210395,0.24899697265624998,1.695094775390625,19.75216369628906,19.826328870341783
0.04227804028848545,0.11013327636718749,1.9488801513671874,17.209521533203123,17.319869935560668
0.04476498383486695,-0.062249243164062495,2.231395947265625,14.302960717773436,14.476107492551924
0.04725192738124844,-0.2537853759765625,2.5139117431640625,11.200075366210937,11.481543775916322
0.04973887092762994,-0.4644751220703125,2.786850732421875,8.135497241210937,8.612118758213528
0.05222581447401144,-0.6703764648437499,3.0358477050781247,5.286397265624999,6.132843707698084
0.05471275802039293,-0.8379705810546875,3.2321722412109373,2.81558115234375,4.367680084095105
0.05719970156677443,-0.9720458740234375,3.3710359375,0.8810662109374999,3.6173241686608977
0.059686645113155926,-1.0678139404296874,3.447650390625,-0.4213794921875,3.633741942376878
0.062173588659537427,-1.1109095703125,3.4572271972656248,-1.0534487304687499,3.781044061453298
0.06466053220591893,-1.1109095703125,3.399766357421875,-1.005564697265625,3.7153319796293327
0.06714747575230041,-1.0630255371093749,3.289633081054687,-0.296881005859375,3.46984832984903
0.06963441929868192,-0.9816226806640624,3.1316157714843746,0.9911994873046874,3.428276075673727
0.07212136284506342,-0.8667010009765624,2.9448680419921875,2.748543505859375,4.120425926217146
0.0746083063914449,-0.7230489013671875,2.7341782958984373,4.8650177734375,5.627337612352146
0.0770952499378264,-0.5793968017578125,2.50912333984375,7.182604980468749,7.63028275320714
0.0795821934842079,-0.45489831542968745,2.288856787109375,9.543287817382812,9.82446640966748
0.0820691370305894,-0.33518823242187495,2.0973206542968748,11.77947216796875,11.969422276536356
0.0845560805769709,-0.229843359375,1.944091748046875,13.7522943359375,13.890929421638113
0.0870430241233524,-0.17238251953125,1.8243816650390623,15.375563061523437,15.48437998925545
0.0895299676697339,-0.143652099609375,1.7525556152343749,16.55351027832031,16.64664499665527
0.09201691121611538,-0.143652099609375,1.7525556152343749,17.214309936523435,17.303888398302306
0.09450385476249688,-0.16759411621093748,1.8004396484374998,17.362750439453123,17.456654133544145
0.09699079830887838,-0.22505495605468748,1.867477294921875,17.013196997070313,17.116862832932203
0.09947774185525989,-0.3064578125,1.9823989746093749,16.2039568359375,16.327646469295576
0.10196468540164137,-0.39264907226562495,2.1308394775390624,14.997279199218749,15.152987611435224
0.10445162894802287,-0.4836287353515625,2.2840683837890623,13.498508959960937,13.698927303903332
0.10693857249440437,-0.5698199951171875,2.446874096679687,11.832144604492187,12.095930456705304
0.10942551604078586,-0.6464344482421874,2.6048914062499997,10.065223779296874,10.416912520586536
0.11191245958716736,-0.7134720947265625,2.7581203125,8.322244970703125,8.79636467187281
0.11439940313354886,-0.7613561279296874,2.877830395507812,6.742071875,7.37001384710441
0.11688634667993036,-0.7852981445312499,2.959233251953125,5.4013189453125,6.208703646032803
0.11937329022631185,-0.7805097412109374,3.0166940917968748,4.3813890380859375,5.376449442026489
0.12186023377269335,-0.7757213378906249,3.0262708984374997,3.7301661865234372,4.8656139308283946
0.12434717731907485,-0.7517793212890624,3.0023288818359375,3.4620156005859375,4.643781097481285
0.12683412086545634,-0.6943184814453125,2.9496564453125,3.5865140869140624,4.69527790388206
0.12932106441183785,-0.622492431640625,2.882618798828125,4.084508032226562,5.037875924646266
0.13180800795821934,-0.5602431884765625,2.7820623291015623,4.879382983398437,5.644654243788421
0.13429495150460083,-0.49799394531249996,2.6623522460937497,5.923254907226562,6.513145641533889
0.13678189505098234,-0.45010991210937495,2.5522189697265625,7.149086157226562,7.604331231992704
0.13926883859736383,-0.411802685546875,2.418143676757812,8.461108666992187,8.80950396832408
0.14175578214374532,-0.37828386230468747,2.308010400390625,9.777919580078125,10.053741691692034
0.14424272569012683,-0.354341845703125,2.231395947265625,11.018116040039061,11.247380454526102
0.14672966923650832,-0.3447650390625,2.1595698974609374,12.095506787109374,12.291618669287951
0.1492166127828898,-0.354341845703125,2.1164742675781247,12.97178459472656,13.148087961408
0.15170355632927132,-0.3687070556640625,2.1116858642578125,13.584700219726562,13.752790340219748
0.1541904998756528,-0.411802685546875,2.1212626708984375,13.91031164550781,14.077148391841332
0.15667744342203432,-0.45489831542968745,2.1547814941406247,13.915100048828124,14.088293904294025
0.1591643869684158,-0.4836287353515625,2.212242333984375,13.642161059570311,13.828827545138704
0.1616513305147973,-0.5315127685546874,2.2936451904296873,13.129801904296874,13.339228318339698
0.1641382740611788,-0.5698199951171875,2.384624853515625,12.39238779296875,12.632592993133304
0.1666252176075603,-0.603338818359375,2.480392919921875,11.511321582031249,11.790966513898523
0.1691121611539418,-0.6272808349609375,2.5665841796874997,10.539275708007812,10.865411545207804
0.1715991047003233,-0.6368576416015624,2.6527754394531247,9.533711010742186,9.916372866334687
0.1740860482467048,-0.6416460449218749,2.729389892578125,8.571241943359375,9.01817427666346
0.17657299179308628,-0.6416460449218749,2.77727392578125,7.709329345703124,8.219411114326114
0.1790599353394678,-0.622492431640625,2.8012159423828122,6.995857250976562,7.561502910093392
0.18154687888584928,-0.6081272216796875,2.81558115234375,6.4739212890625,7.085829012907232
0.18403382243223076,-0.584185205078125,2.8107927490234372,6.148309863281249,6.78553921267252
0.18652076597861228,-0.55545478515625,2.77727392578125,6.042964990234375,6.673770025283739
0.18900770952499377,-0.5219359619140624,2.7341782958984373,6.153098266601562,6.753426269720903
0.19149465307137528,-0.49320554199218747,2.6767174560546874,6.478709692382812,7.027214762932372
0.19398159661775677,-0.47884033203125,2.6096798095703124,6.967126831054687,7.455237960793798
0.19646854016413826,-0.4644751220703125,2.5474305664062498,7.594407666015624,8.023725283639761
0.19895548371051977,-0.45489831542968745,2.4899697265625,8.307879760742187,8.68491495845113
0.20144242725690126,-0.45489831542968745,2.422932080078125,9.054870678710937,9.384466705691462
0.20392937080328274,-0.4644751220703125,2.375048046875,9.777919580078125,10.072949006048932
0.20641631434966426,-0.4740519287109375,2.3319524169921872,10.448296044921875,10.715858227345132
0.20890325789604575,-0.4836287353515625,2.3032219970703123,11.046846459960937,11.294757413570148
0.21139020144242723,-0.507570751953125,2.2936451904296873,11.506533178710937,11.743881050172261
0.21387714498880875,-0.5219359619140624,2.29843359375,11.808202587890625,12.041132109975562
0.21636408853519024,-0.5267243652343749,2.3223756103515623,11.9518546875,12.186783722689224
0.21885103208157172,-0.5506663818359374,2.3511060302734372,11.927912670898436,12.16988223912836
0.22133797562795324,-0.5746083984375,2.39420166015625,11.736376538085937,11.991868521826943
0.22382491917433472,-0.584185205078125,2.442085693359375,11.429918725585937,11.702482512742447
0.22631186272071624,-0.59376201171875,2.4899697265625,11.008539233398437,11.302231576951106
0.22879880626709773,-0.5985504150390625,2.5474305664062498,10.496180078124999,10.817460946194
0.2312857498134792,-0.59376201171875,2.6001030029296874,9.945513696289062,10.296908838844676
0.23377269335986073,-0.59376201171875,2.6336218261718747,9.399635717773437,9.779655866986902
0.23625963690624222,-0.5889736083984375,2.6575638427734374,8.877699755859375,9.28563882805013
0.2387465804526237,-0.5793968017578125,2.6767174560546874,8.398859423828124,8.83410191330514
0.24123352399900522,-0.565031591796875,2.6767174560546874,8.010998754882811,8.465233492941016
0.2437204675453867,-0.5410895751953124,2.6719290527343746,7.728482958984374,8.195207845963575
0.2462074110917682,-0.5267243652343749,2.6575638427734374,7.575254052734374,8.045157431574403
0.2486943546381497,-0.5219359619140624,2.6288334228515624,7.551312036132812,8.01283319310248
0.2511812981845312,-0.51714755859375,2.5905261962890624,7.6279264892578125,8.072393083623986
0.2536682417309127,-0.507570751953125,2.5522189697265625,7.824251025390624,8.245626346494037
0.2561551852772942,-0.5027823486328125,2.5139117431640625,8.116343627929687,8.511614196446509
0.2586421288236757,-0.49799394531249996,2.47081611328125,8.480262280273436,8.846907854015807
0.26112907237005717,-0.49799394531249996,2.43250888671875,8.872911352539061,9.213775193890404
0.2636160159164387,-0.5123591552734374,2.398990063476562,9.289502441406249,9.607940509679713
0.2661029594628202,-0.5219359619140624,2.375048046875,9.725247143554688,10.024654726050295
0.26858990300920166,-0.5219359619140624,2.360682836914062,10.084377392578125,10.37014503277464
0.2710768465555832,-0.51714755859375,2.3367408203125,10.395623608398436,10.667557802335319
0.2735637901019647,-0.5363011718749999,2.3367408203125,10.654197387695312,10.92061804955392
0.27605073364834615,-0.5458779785156249,2.346317626953125,10.812214697265624,11.077327106921869
0.27853767719472766,-0.5410895751953124,2.375048046875,10.874463940429687,11.14394890265813
0.2810246207411092,-0.5506663818359374,2.403778466796875,10.855310327148437,11.131897712439518
0.28351156428749064,-0.55545478515625,2.422932080078125,10.74517705078125,11.028960047786043
0.28599850783387215,-0.5410895751953124,2.4516625,10.544064111328124,10.838852103709554
0.28848545138025367,-0.5410895751953124,2.4851813232421875,10.275913525390624,10.585995603583198
0.2909723949266351,-0.5315127685546874,2.50912333984375,9.95987890625,10.284813736030857
0.29345933847301664,-0.51714755859375,2.5378537597656248,9.639055883789062,9.980958953633891
0.29594628201939815,-0.51714755859375,2.5474305664062498,9.318232861328125,9.674001640787315
0.2984332255657796,-0.51714755859375,2.5665841796874997,9.02135185546875,9.393592776406217
0.30092016911216113,-0.5123591552734374,2.5761609863281247,8.748412866210938,9.13421288394116
0.30340711265854264,-0.5027823486328125,2.5713725830078125,8.547299926757812,8.93985923204024
0.30589405620492416,-0.5027823486328125,2.5665841796874997,8.403647827148436,8.8012181682001
0.3083809997513056,-0.49799394531249996,2.5570073730468748,8.327033374023436,8.725008280081122
0.31086794329768713,-0.5027823486328125,2.5426421630859375,8.350975390624999,8.743947005467463
0.31335488684406865,-0.49320554199218747,2.518700146484375,8.422801440429687,8.80515111962632
0.3158418303904501,-0.5027823486328125,2.50912333984375,8.547299926757812,8.922153667282327
0.3183287739368316,-0.507570751953125,2.5043349365234375,8.729259252929687,9.095564229193737
0.32081571748321314,-0.507570751953125,2.480392919921875,8.939948999023438,9.291537289952453
0.3233026610295946,-0.5123591552734374,2.47081611328125,9.179369165039063,9.51988773241117
0.3257896045759761,-0.5123591552734374,2.4660277099609376,9.409212524414063,9.74048689234158
0.3282765481223576,-0.5219359619140624,2.4564509033203126,9.65342109375,9.974723404787712
0.3307634916687391,-0.5123591552734374,2.461239306640625,9.888052856445311,10.202636919953665
0.3332504352151206,-0.5123591552734374,2.4660277099609376,10.060435375976562,10.370928816865362
0.3357373787615021,-0.5219359619140624,2.480392919921875,10.180145458984374,10.490954568180051
0.3382243223078836,-0.5267243652343749,2.50912333984375,10.256759912109374,10.572334765137457
0.3407112658542651,-0.5315127685546874,2.50912333984375,10.275913525390624,10.591156902765217
0.3431982094006466,-0.5363011718749999,2.518700146484375,10.232817895507813,10.55187336246412
0.34568515294702806,-0.5315127685546874,2.5330653564453125,10.156203442382813,10.480810764737077
0.3481720964934096,-0.5315127685546874,2.5426421630859375,10.041281762695311,10.371830813818574
0.3506590400397911,-0.5315127685546874,2.5617957763671875,9.888052856445311,10.228337729797824
0.35314598358617255,-0.5267243652343749,2.5761609863281247,9.715670336914062,10.065202138059744
0.35563292713255407,-0.5267243652343749,2.5761609863281247,9.5384994140625,9.894292044228395
0.3581198706789356,-0.5363011718749999,2.5809493896484375,9.356540087890625,9.7207901487063
0.36060681422531704,-0.5363011718749999,2.5761609863281247,9.188945971679686,9.558292339371187
0.36309375777169856,-0.5363011718749999,2.5665841796874997,9.050082275390624,9.42225888466859
0.36558070131808007,-0.5363011718749999,2.5522189697265625,8.935160595703124,9.307982353195156
0.36806764486446153,-0.5363011718749999,2.5378537597656248,8.853757739257812,9.225906283849767
0.37055458841084304,-0.5363011718749999,2.518700146484375,8.815450512695312,9.18387919762858
0.37304153195722456,-0.5363011718749999,2.499546533203125,8.825027319335938,9.187843000706309
0.3755284755036061,-0.5506663818359374,2.480392919921875,8.872911352539061,9.229525360022551
0.37801541904998753,-0.55545478515625,2.47081611328125,8.954314208984375,9.30554701440075
0.38050236259636905,-0.5506663818359374,2.461239306640625,9.05965908203125,9.4041668993733
0.38298930614275056,-0.5506663818359374,2.442085693359375,9.169792358398437,9.505372580490318
0.385476249689132,-0.5506663818359374,2.427720483398437,9.299079248046874,9.62652248068079
0.38796319323551354,-0.5506663818359374,2.427720483398437,9.433154541015625,9.756098851707087
0.39045013678189505,-0.5410895751953124,2.427720483398437,9.552864624023437,9.871363998901865
0.3929370803282765,-0.5363011718749999,2.427720483398437,9.662997900390625,9.977723894527271
0.395424023874658,-0.5363011718749999,2.437297290039062,9.749189160156249,10.06353448384286
0.39791096742103954,-0.5267243652343749,2.4516625,9.811438403320311,10.12681643523701
0.400397910967421,-0.5219359619140624,2.4564509033203126,9.854534033203125,10.169484215058352
0.4028848545138025,-0.5219359619140624,2.4564509033203126,9.859322436523437,10.174124389651267
0.40537179806018403,-0.51714755859375,2.461239306640625,9.849745629882811,10.165757694107599
0.4078587416065655,-0.5315127685546874,2.480392919921875,9.816226806640625,10.138696345178962
0.410345685152947,-0.5267243652343749,2.4947581298828125,9.753977563476562,10.081732737597843
0.4128326286993285,-0.5123591552734374,2.4947581298828125,9.682151513671874,10.011512771020545
0.41531957224571,-0.51714755859375,2.499546533203125,9.595960253906249,9.929633813165303
0.4178065157920915,-0.51714755859375,2.5139117431640625,9.495403784179686,9.836152035953468
0.420293459338473,-0.51714755859375,2.5234885498046875,9.390058911132812,9.736972959441736
0.42278040288485447,-0.5123591552734374,2.528276953125,9.299079248046874,9.65026274860698
0.425267346431236,-0.5027823486328125,2.5426421630859375,9.208099584960937,9.565924797224618
0.4277542899776175,-0.5027823486328125,2.5474305664062498,9.141061938476563,9.502694667504711
0.43024123352399896,-0.5027823486328125,2.5426421630859375,9.107543115234375,9.469168963296205
0.43272817707038047,-0.507570751953125,2.5378537597656248,9.102754711914063,9.463533860005386
0.435215120616762,-0.507570751953125,2.5474305664062498,9.121908325195312,9.484526453764925
0.43770206416314344,-0.5027823486328125,2.5426421630859375,9.160215551757812,9.519840766224231
0.44018900770952496,-0.5123591552734374,2.528276953125,9.212887988281249,9.567235825478145
0.4426759512559065,-0.5267243652343749,2.5378537597656248,9.275137231445312,9.630488612995244
0.445162894802288,-0.5315127685546874,2.5378537597656248,9.332598071289063,9.686103152936248
0.44764983834866945,-0.5363011718749999,2.528276953125,9.399635717773437,9.748484750231684
0.45013678189505096,-0.5363011718749999,2.5330653564453125,9.466673364257812,9.81437433729355
0.4526237254414325,-0.5410895751953124,2.5330653564453125,9.5384994140625,9.88393489964797
0.45511066898781394,-0.5458779785156249,2.528276953125,9.605537060546874,9.947688643130665
0.45759761253419545,-0.55545478515625,2.5426421630859375,9.658209497070311,10.002728121725315
0.46008455608057697,-0.55545478515625,2.5378537597656248,9.701305126953125,10.043134614778221
0.4625714996269584,-0.5602431884765625,2.5234885498046875,9.720458740234374,10.058289368069929
0.46505844317333994,-0.5602431884765625,2.5234885498046875,9.725247143554688,10.06291701716994
0.46754538671972146,-0.5602431884765625,2.518700146484375,9.710881933593749,10.047833138857962
0.4700323302661029,-0.565031591796875,2.5139117431640625,9.682151513671874,10.019135236428603
0.47251927381248443,-0.5698199951171875,2.5234885498046875,9.639055883789062,9.980184748722804
0.47500621735886595,-0.5506663818359374,2.518700146484375,9.567229833984374,9.90853019313487
0.4774931609052474,-0.55545478515625,2.50912333984375,9.495403784179686,9.837017992131331
0.4799801044516289,-0.565031591796875,2.5043349365234375,9.437942944335937,9.78088550155664
0.48246704799801043,-0.565031591796875,2.4899697265625,9.370905297851563,9.712521610798543
0.4849539915443919,-0.5602431884765625,2.480392919921875,9.313444458007812,9.654349752304883
0.4874409350907734,-0.5506663818359374,2.47081611328125,9.279925634765624,9.619001274379514
0.4899278786371549,-0.5506663818359374,2.461239306640625,9.236830004882812,9.57496532253462
0.4924148221835364,-0.5458779785156249,2.4564509033203126,9.203311181640624,9.541125222632958
0.4949017657299179,-0.5506663818359374,2.442085693359375,9.188945971679686,9.52385132539579
0.4973887092762994,-0.5458779785156249,2.427720483398437,9.193734375,9.524524201816975
0.49987565282268087,-0.5363011718749999,2.418143676757812,9.212887988281249,9.540038934564954
0.5023625963690624,-0.5267243652343749,2.4133552734375,9.246406811523437,9.570671928184936
0.5048495399154439,-0.5267243652343749,2.408566870117187,9.279925634765624,9.601856732504283
0.5073364834618254,-0.5315127685546874,2.408566870117187,9.327809667968749,9.648405743583446
0.5098234270082069,-0.5219359619140624,2.418143676757812,9.380482104492186,9.70119995168026
0.5123103705545884,-0.5123591552734374,2.422932080078125,9.418789331054686,9.738927262869037
0.5147973141009698,-0.507570751953125,2.43250888671875,9.457096557617186,9.778108347338906
0.5172842576473514,-0.507570751953125,2.4516625,9.509768994140625,9.833818353216767
0.5197712011937329,-0.5027823486328125,2.4660277099609376,9.548076220703125,9.874200842232671
0.5222581447401143,-0.488417138671875,2.4756045166015626,9.567229833984374,9.89439516697444
0.5247450882864959,-0.488417138671875,2.4947581298828125,9.576806640625,9.908460771476259
0.5272320318328774,-0.488417138671875,2.518700146484375,9.581595043945311,9.919141359785442
0.5297189753792588,-0.4836287353515625,2.5426421630859375,9.576806640625,9.920390685607053
0.5322059189256404,-0.4740519287109375,2.5474305664062498,9.557653027343749,9.90266929231046
0.5346928624720219,-0.469263525390625,2.5570073730468748,9.543287817382812,9.891048343198273
0.5371798060184033,-0.4740519287109375,2.5713725830078125,9.519345800781249,9.871910993653175
0.5396667495647849,-0.4740519287109375,2.5761609863281247,9.490615380859374,9.84546143997315
0.5421536931111663,-0.47884033203125,2.5857377929687497,9.447519750976562,9.806679226050935
0.5446406366575478,-0.49320554199218747,2.5905261962890624,9.428366137695312,9.790207643699457
0.5471275802039294,-0.5027823486328125,2.5905261962890624,9.428366137695312,9.790694770556184
0.5496145237503108,-0.5027823486328125,2.5905261962890624,9.428366137695312,9.790694770556184
0.5521014672966923,-0.507570751953125,2.5857377929687497,9.414000927734374,9.775841726910723
0.5545884108430739,-0.5123591552734374,2.5857377929687497,9.399635717773437,9.762259137352459
0.5570753543894553,-0.51714755859375,2.5809493896484375,9.394847314453125,9.756633508089418
0.5595622979358368,-0.5315127685546874,2.5713725830078125,9.370905297851563,9.731820430170474
0.5620492414822184,-0.5315127685546874,2.5761609863281247,9.351751684570312,9.7146472308818
0.5645361850285998,-0.5315127685546874,2.5665841796874997,9.351751684570312,9.712112012555378
0.5670231285749813,-0.5410895751953124,2.5617957763671875,9.361328491210937,9.720599088973655
0.5695100721213628,-0.5458779785156249,2.5617957763671875,9.390058911132812,9.74853767094254
0.5719970156677443,-0.5458779785156249,2.5570073730468748,9.423577734375,9.779574979980094
0.5744839592141258,-0.5506663818359374,2.5426421630859375,9.447519750976562,9.799178132817
0.5769709027605073,-0.55545478515625,2.528276953125,9.471461767578125,9.818823879913019
0.5794578463068888,-0.5506663818359374,2.5234885498046875,9.495403784179686,9.840422803400957
0.5819447898532703,-0.55545478515625,2.5139117431640625,9.514557397460937,9.856727892173437
0.5844317333996518,-0.5506663818359374,2.5043349365234375,9.514557397460937,9.854020976634603
0.5869186769460333,-0.5458779785156249,2.499546533203125,9.519345800781249,9.857162883605387
0.5894056204924147,-0.5458779785156249,2.480392919921875,9.524134204101562,9.856950042602639
0.5918925640387963,-0.5506663818359374,2.47081611328125,9.519345800781249,9.850183257411313
0.5943795075851778,-0.5410895751953124,2.4756045166015626,9.509768994140625,9.841600579830574
0.5968664511315592,-0.5363011718749999,2.4564509033203126,9.485826977539062,9.813393064337408
0.5993533946779408,-0.5363011718749999,2.446874096679687,9.457096557617186,9.783224779797886
0.6018403382243223,-0.5315127685546874,2.4564509033203126,9.428366137695312,9.75759934051401
0.6043272817707037,-0.5219359619140624,2.4564509033203126,9.390058911132812,9.720070706703067
0.6068142253170853,-0.51714755859375,2.4516625,9.366116894531249,9.69547504216732
0.6093011688634667,-0.5219359619140624,2.4516625,9.351751684570312,9.681855490148005
0.6117881124098483,-0.51714755859375,2.4516625,9.342174877929686,9.672348321947792
0.6142750559562298,-0.5123591552734374,2.4564509033203126,9.342174877929686,9.673308347935375
0.6167619995026112,-0.5123591552734374,2.4516625,9.351751684570312,9.68134394016463
0.6192489430489928,-0.5123591552734374,2.4516625,9.366116894531249,9.695220812334417
0.6217358865953743,-0.507570751953125,2.4516625,9.375693701171874,9.704221218641838
0.6242228301417557,-0.507570751953125,2.446874096679687,9.399635717773437,9.726148905917617
0.6267097736881373,-0.5123591552734374,2.446874096679687,9.418789331054686,9.744911349611352
0.6291967172345188,-0.507570751953125,2.437297290039062,9.428366137695312,9.751519582850133
0.6316836607809002,-0.507570751953125,2.437297290039062,9.442731347656249,9.765409435977583
0.6341706043272818,-0.51714755859375,2.442085693359375,9.457096557617186,9.780996852630352
0.6366575478736632,-0.5219359619140624,2.4516625,9.466673364257812,9.792904101837907
0.6391444914200447,-0.5267243652343749,2.47081611328125,9.476250170898437,9.807226321648464
0.6416314349664263,-0.5267243652343749,2.4851813232421875,9.490615380859374,9.824731297787633
0.6441183785128077,-0.5267243652343749,2.499546533203125,9.495403784179686,9.832998751814891
0.6466053220591892,-0.5315127685546874,2.499546533203125,9.490615380859374,9.828632611008967
0.6490922656055708,-0.5363011718749999,2.50912333984375,9.485826977539062,9.82671014782216
0.6515792091519522,-0.5363011718749999,2.518700146484375,9.437942944335937,9.782956424077303
0.6540661526983337,-0.5315127685546874,2.518700146484375,9.437942944335937,9.782695092436315
0.6565530962447153,-0.5363011718749999,2.5330653564453125,9.452308154296874,9.80051878681762
0.6590400397910967,-0.5458779785156249,2.5474305664062498,9.452308154296874,9.804769997398019
0.6615269833374782,-0.55545478515625,2.5426421630859375,9.442731347656249,9.794832029793328
0.6640139268838597,-0.55545478515625,2.5234885498046875,9.433154541015625,9.780640524732112
0.6665008704302412,-0.565031591796875,2.5234885498046875,9.433154541015625,9.78118907676401
0.6689878139766227,-0.5698199951171875,2.5234885498046875,9.447519750976562,9.795321267468616
0.6714747575230042,-0.5698199951171875,2.5234885498046875,9.437942944335937,9.786084830429951
0.6739617010693857,-0.5746083984375,2.5234885498046875,9.437942944335937,9.786364815041935
0.6764486446157671,-0.5746083984375,2.528276953125,9.428366137695312,9.77836628428786
0.6789355881621487,-0.5746083984375,2.528276953125,9.433154541015625,9.782983377167808
0.6814225317085302,-0.5746083984375,2.528276953125,9.428366137695312,9.77836628428786
0.6839094752549116,-0.5698199951171875,2.5234885498046875,9.418789331054686,9.767613923094027
0.6863964188012932,-0.5698199951171875,2.5139117431640625,9.428366137695312,9.774381571521195
0.6888833623476747,-0.565031591796875,2.5139117431640625,9.428366137695312,9.774103589515834
0.6913703058940561,-0.5602431884765625,2.518700146484375,9.437942944335937,9.784298129077797
0.6938572494404377,-0.5602431884765625,2.5139117431640625,9.457096557617186,9.801545795574665
0.6963441929868192,-0.5506663818359374,2.50912333984375,9.4618849609375,9.804396993831297
0.6988311365332006,-0.5458779785156249,2.499546533203125,9.452308154296874,9.792438158235324
0.7013180800795822,-0.5363011718749999,2.50912333984375,9.442731347656249,9.785115951562002
0.7038050236259636,-0.5363011718749999,2.518700146484375,9.433154541015625,9.778336973613593
0.7062919671723451,-0.5315127685546874,2.5139117431640625,9.428366137695312,9.77222319137229
0.7087789107187267,-0.5267243652343749,2.5139117431640625,9.428366137695312,9.771963919079385
0.7112658542651081,-0.5219359619140624,2.5139117431640625,9.428366137695312,9.77170698635591
0.7137527978114896,-0.5219359619140624,2.5139117431640625,9.428366137695312,9.77170698635591
0.7162397413578712,-0.5219359619140624,2.50912333984375,9.428366137695312,9.770476196651185
0.7187266849042526,-0.5123591552734374,2.5043349365234375,9.433154541015625,9.77336226551375
0.7212136284506341,-0.5027823486328125,2.499546533203125,9.428366137695312,9.767016483460244
0.7237005719970157,-0.5027823486328125,2.5043349365234375,9.423577734375,9.763621299507516
0.7261875155433971,-0.507570751953125,2.499546533203125,9.428366137695312,9.767264149511142
0.7286744590897786,-0.5123591552734374,2.499546533203125,9.423577734375,9.762892096681625
0.7311614026361601,-0.5123591552734374,2.499546533203125,9.409212524414063,9.749026879911181
0.7336483461825416,-0.507570751953125,2.499546533203125,9.414000927734374,9.753398095395761
0.7361352897289231,-0.5027823486328125,2.499546533203125,9.433154541015625,9.771638939114984
0.7386222332753046,-0.5027823486328125,2.499546533203125,9.442731347656249,9.78088432943333
0.7411091768216861,-0.5027823486328125,2.5043349365234375,9.452308154296874,9.791353992588347
0.7435961203680675,-0.507570751953125,2.499546533203125,9.457096557617186,9.79500057376113
0.7460830639144491,-0.5123591552734374,2.499546533203125,9.442731347656249,9.781381297120069
0.7485700074608306,-0.5123591552734374,2.5043349365234375,9.442731347656249,9.78260602714299
0.7510569510072121,-0.51714755859375,2.50912333984375,9.442731347656249,9.784084874729885
0.7535438945535936,-0.5219359619140624,2.50912333984375,9.437942944335937,9.779717997132039
0.7560308380999751,-0.5123591552734374,2.5139117431640625,9.442731347656249,9.785062057055166
0.7585177816463566,-0.5123591552734374,2.518700146484375,9.447519750976562,9.79091373555018
0.7610047251927381,-0.51714755859375,2.5139117431640625,9.437942944335937,9.780693271456688
0.7634916687391196,-0.5219359619140624,2.5234885498046875,9.437942944335937,9.783413444696846
0.7659786122855011,-0.5315127685546874,2.518700146484375,9.457096557617186,9.801175008698289
0.7684655558318826,-0.5363011718749999,2.50912333984375,9.457096557617186,9.798979241818914
0.770952499378264,-0.5315127685546874,2.518700146484375,9.457096557617186,9.801175008698289
0.7734394429246456,-0.5267243652343749,2.50912333984375,9.447519750976562,9.789216921519946
0.7759263864710271,-0.5315127685546874,2.499546533203125,9.442731347656249,9.782403283385653
0.7784133300174085,-0.5458779785156249,2.499546533203125,9.452308154296874,9.792438158235324
0.7809002735637901,-0.5410895751953124,2.499546533203125,9.442731347656249,9.782928299034129
0.7833872171101716,-0.5315127685546874,2.4947581298828125,9.428366137695312,9.767313447217338
0.785874160656553,-0.5410895751953124,2.4899697265625,9.428366137695312,9.766617387510497
0.7883611042029346,-0.5410895751953124,2.4851813232421875,9.442731347656249,9.779267837716013
0.790848047749316,-0.5363011718749999,2.4756045166015626,9.447519750976562,9.781199625540049
0.7933349912956975,-0.5363011718749999,2.4756045166015626,9.442731347656249,9.776574654426904
0.7958219348420791,-0.5363011718749999,2.4756045166015626,9.437942944335937,9.771949840748931
0.7983088783884605,-0.5363011718749999,2.4851813232421875,9.428366137695312,9.765133546592484
0.800795821934842,-0.5363011718749999,2.4851813232421875,9.423577734375,9.76051035920533
0.8032827654812236,-0.5315127685546874,2.4851813232421875,9.414000927734374,9.751002281812475
0.805769709027605,-0.5219359619140624,2.480392919921875,9.414000927734374,9.749265595567769
0.8082566525739865,-0.5219359619140624,2.4756045166015626,9.418789331054686,9.752672830242323
0.8107435961203681,-0.5267243652343749,2.4756045166015626,9.428366137695312,9.76217928056995
0.8132305396667495,-0.5219359619140624,2.47081611328125,9.433154541015625,9.76533430091736
0.815717483213131,-0.5123591552734374,2.480392919921875,9.447519750976562,9.781129300151559
0.8182044267595125,-0.51714755859375,2.4851813232421875,9.457096557617186,9.791845745662362
0.820691370305894,-0.5219359619140624,2.480392919921875,9.4618849609375,9.795510869758298
0.8231783138522755,-0.5219359619140624,2.4851813232421875,9.4618849609375,9.796724471564268
0.825665257398657,-0.51714755859375,2.4851813232421875,9.457096557617186,9.791845745662362
0.8281522009450385,-0.51714755859375,2.4851813232421875,9.457096557617186,9.791845745662362
0.83063914449142,-0.5315127685546874,2.4851813232421875,9.457096557617186,9.792614938443322
0.8331260880378015,-0.5219359619140624,2.4851813232421875,9.457096557617186,9.792099808408091
0.835613031584183,-0.51714755859375,2.4899697265625,9.447519750976562,9.783814199055982
0.8380999751305644,-0.5267243652343749,2.4947581298828125,9.437942944335937,9.776299080126817
0.840586918676946,-0.5267243652343749,2.4947581298828125,9.437942944335937,9.776299080126817
0.8430738622233275,-0.5315127685546874,2.499546533203125,9.423577734375,9.763916018206665
0.8455608057697089,-0.5315127685546874,2.4899697265625,9.409212524414063,9.747601519959915
0.8480477493160905,-0.5219359619140624,2.4947581298828125,9.414000927734374,9.7529302644046
0.850534692862472,-0.5267243652343749,2.4899697265625,9.409212524414063,9.747341592748237
0.8530216364088534,-0.5363011718749999,2.4851813232421875,9.404424121093749,9.742019205778451
0.855508579955235,-0.5363011718749999,2.4851813232421875,9.404424121093749,9.742019205778451
0.8579955235016165,-0.5363011718749999,2.4756045166015626,9.404424121093749,9.739580572025805
0.8604824670479979,-0.5410895751953124,2.4899697265625,9.423577734375,9.76199490285623
0.8629694105943795,-0.5458779785156249,2.4851813232421875,9.437942944335937,9.774910536539993
0.8654563541407609,-0.5506663818359374,2.4851813232421875,9.452308154296874,9.789049449117275
0.8679432976871424,-0.5506663818359374,2.4947581298828125,9.442731347656249,9.78224038217783
0.870430241233524,-0.5506663818359374,2.4947581298828125,9.447519750976562,9.786862675842189
0.8729171847799054,-0.5458779785156249,2.4947581298828125,9.457096557617186,9.795839739100447
0.8754041283262869,-0.5315127685546874,2.50912333984375,9.452308154296874,9.794096956916064
0.8778910718726685,-0.5315127685546874,2.5139117431640625,9.471461767578125,9.813808949141459
0.8803780154190499,-0.5410895751953124,2.50912333984375,9.485826977539062,9.826972642209887
0.8828649589654315,-0.5363011718749999,2.518700146484375,9.471461767578125,9.815297111628821
0.885351902511813,-0.5315127685546874,2.5234885498046875,9.466673364257812,9.811646389351807
0.8878388460581944,-0.5315127685546874,2.518700146484375,9.4618849609375,9.805795391759524
0.890325789604576,-0.5315127685546874,2.5234885498046875,9.447519750976562,9.793167502357155
0.8928127331509574,-1.5514426757812498,4.69263525390625,-14.264653491210936,15.096626749931767
0.8952996766973389,-1.8914193115234375,4.678270043945313,-14.365209960937499,15.225732653567047
0.8977866202437205,-2.1164742675781247,4.505887524414062,-12.995726611328124,13.916587076735897
0.9002735637901019,-2.2266075439453124,4.204218115234375,-10.309432348632813,11.354189819897133
0.9027605073364834,-2.2266075439453124,3.7924154296875,-6.53138212890625,7.873953800974574
0.905247450882865,-2.1116858642578125,3.308786694335937,-1.9632453613281249,4.388806093540384
0.9077343944292464,-1.905784521484375,2.806004345703125,3.0980969482421874,4.593895920799883
0.9102213379756279,-1.6232687255859375,2.308010400390625,8.288726147460936,8.755849159926141
0.9127082815220094,-1.2928688964843749,1.8531120849609375,13.278242407226562,13.469122310232201
0.9151952250683909,-0.9337386474609375,1.4796166259765624,17.79849514160156,17.884282555563775
0.9176821686147724,-0.5698199951171875,1.2114660400390624,21.5669685546875,21.60848160866197
0.9201691121611539,-0.2346317626953125,1.0534487304687499,24.38733811035156,24.411207802982574
0.9226560557075354,0.062249243164062495,1.0199299072265624,26.125528515625,26.14550386213019
0.9251429992539169,0.3016694091796875,1.0965443603515623,26.733655737304687,26.757835544889975
0.9276299428002984,0.4644751220703125,1.2641384765625,26.25960380859375,26.29411674522001
0.9301168863466799,0.5602431884765625,1.5275006591796874,24.779987182617187,24.833342414276434
0.9326038298930613,0.584185205078125,1.85790048828125,22.424092749023437,22.508509550723108
0.9350907734394429,0.5267243652343749,2.1978771240234374,19.373879833984375,19.505263962092478
0.9375777169858244,0.411802685546875,2.5474305664062498,15.854403393554687,16.06303492208253
0.9400646605322058,0.2537853759765625,2.882618798828125,12.12423720703125,12.464791454684583
0.9425516040785874,0.047884033203124995,3.1555577880859373,8.413224633789062,8.98566561659072
0.9450385476249689,-0.1867477294921875,3.366247534179687,4.946420629882812,5.986115119472026
0.9475254911713503,-0.4165910888671875,3.5051112304687497,1.9201497314453124,4.018249353194896
0.9500124347177319,-0.6368576416015624,3.5577836669921874,-0.488417138671875,3.647185706559388
0.9524993782641133,-0.8283937744140625,3.5290532470703124,-2.1404162841796874,4.209730981396207
0.9549863218104948,-1.0007762939453124,3.418919970703125,-2.9975404785156248,4.655729360361838
0.9574732653568764,-1.13006318359375,3.2561142578125,-3.0454245117187497,4.59934053049144
0.9599602089032578,-1.2114660400390624,3.0358477050781247,-2.3127988037109373,4.004130312694978
0.9624471524496393,-1.2401964599609374,2.7964275390625,-0.8762778076171874,3.182130895586977
0.9649340959960209,-1.2114660400390624,2.5570073730468748,1.1061211669921875,3.0379994582047187
0.9674210395424023,-1.1444283935546875,2.3127988037109373,3.5098996337890624,4.356391866406591
0.9699079830887838,-1.0534487304687499,2.0973206542968748,6.177040283203125,6.607899425307609
0.9723949266351654,-0.9241618408203125,1.944091748046875,8.896853369140624,9.153554921714361
0.9748818701815468,-0.7805097412109374,1.8291700683593748,11.511321582031249,11.681848447914629
0.9773688137279283,-0.6368576416015624,1.7717092285156248,13.867216015624999,13.994435368033974
0.9798557572743098,-0.49799394531249996,1.7717092285156248,15.830461376953124,15.937078118876745
0.9823427008206913,-0.3591302490234375,1.8243816650390623,17.29571279296875,17.395373638193497
0.9848296443670728,-0.24899697265624998,1.924938134765625,18.181567407226563,18.28487844363725
0.9873165879134543,-0.17238251953125,2.068590234375,18.492813623046874,18.608947766801315
0.9898035314598358,-0.1197100830078125,2.2361843505859373,18.23423984375,18.37123712854361
0.9922904750062173,-0.0909796630859375,2.4133552734375,17.439364892578123,17.60579475148481
0.9947774185525988,-0.09576806640624999,2.5761609863281247,16.194380029296873,16.398284101798936
0.9972643620989803,-0.1292868896484375,2.7198130859375,14.599841723632812,14.851581622083264
0.9997513056453617,-0.19632453613281248,2.844311572265625,12.761094848632812,13.075710052590445
1.0022382491917432,-0.27293898925781246,2.940079638671875,10.812214697265624,11.208146619015867
1.0047251927381249,-0.3447650390625,2.9927520751953125,8.882488159179687,9.37944688207748
1.0072121362845063,-0.44532150878906246,3.0071172851562498,7.091625317382812,7.7157122325175225
1.0096990798308878,-0.5410895751953124,2.978386865234375,5.5258174316406246,6.30065270707798
1.0121860233772693,-0.6272808349609375,2.916137622070312,4.276044165039062,5.213625761226806
1.0146729669236507,-0.699106884765625,2.834734765625,3.404554760742187,4.485026727530396
1.0171599104700322,-0.7613561279296874,2.73896669921875,2.9640216552734375,4.106948515125948
1.0196468540164139,-0.8044517578125,2.6288334228515624,2.9496564453125,4.032168267957409
1.0221337975627953,-0.8283937744140625,2.5139117431640625,3.3327287109375,4.255945154558889
1.0246207411091768,-0.814028564453125,2.403778466796875,4.07971962890625,4.804675397117364
1.0271076846555582,-0.7996633544921875,2.308010400390625,5.128379956054687,5.680374500197365
1.0295946282019397,-0.7709329345703124,2.231395947265625,6.382941625976562,6.805542539996569
1.0320815717483212,-0.7230489013671875,2.1930887207031247,7.75721337890625,8.093626953135763
1.0345685152947028,-0.6607996582031249,2.1691467041015624,9.160215551757812,9.43670506940117
1.0370554588410843,-0.603338818359375,2.1691467041015624,10.51533369140625,10.75367182850943
1.0395424023874658,-0.5458779785156249,2.1978771240234374,11.750741748046874,11.966978660005438
1.0420293459338472,-0.49320554199218747,2.250549560546875,12.770671655273437,12.97683626921192
1.0445162894802287,-0.43574470214843747,2.3127988037109373,13.517662573242188,13.7210099189502
1.0470032330266101,-0.38786066894531246,2.384624853515625,13.986926098632813,14.19404710711976
1.0494901765729918,-0.3687070556640625,2.47081611328125,14.144943408203124,14.363853980732877
1.0519771201193733,-0.3495534423828125,2.5522189697265625,13.996502905273436,14.231588205672674
1.0544640636657547,-0.3447650390625,2.6240450195312497,13.589488623046874,13.844806832621643
1.0569510072121362,-0.3591302490234375,2.6815058593749996,12.943054174804686,13.222787133639985
1.0594379507585177,-0.37828386230468747,2.7198130859375,12.095506787109374,12.403296591629417
1.0619248943048991,-0.39743747558593745,2.7437551025390623,11.133037719726563,11.47304133517193
1.0644118378512808,-0.430956298828125,2.7341782958984373,10.127473022460936,10.498912520158255
1.0668987813976623,-0.45968671875,2.7150246826171873,9.126696728515624,9.533061632073585
1.0693857249440437,-0.49320554199218747,2.6815058593749996,8.183381274414062,8.625627772107082
1.0718726684904252,-0.5315127685546874,2.6336218261718747,7.364564306640625,7.83934162880217
1.0743596120368066,-0.5698199951171875,2.5905261962890624,6.72291826171875,7.227250566726373
1.076846555583188,-0.6081272216796875,2.5234885498046875,6.287173559570312,6.80193829337662
1.0793334991295698,-0.63206923828125,2.4660277099609376,6.0716954101562495,6.583789891999068
1.0818204426759512,-0.6416460449218749,2.418143676757812,6.062118603515625,6.558079783861882
1.0843073862223327,-0.6512228515624999,2.375048046875,6.2584431396484375,6.725552390664617
1.0867943297687142,-0.6512228515624999,2.3511060302734372,6.6510922119140625,7.084406706236536
1.0892812733150956,-0.6416460449218749,2.3367408203125,7.1778165771484375,7.575824583731168
1.0917682168614773,-0.6272808349609375,2.3415292236328122,7.81467421875,8.182015246638915
1.0942551604078588,-0.6081272216796875,2.346317626953125,8.537723120117187,8.875119221739073
1.0967421039542402,-0.5889736083984375,2.375048046875,9.284714038085937,9.601752855879218
1.0992290475006217,-0.55545478515625,2.4133552734375,10.007762939453125,10.30961360801039
1.1017159910470031,-0.5315127685546874,2.437297290039062,10.654197387695312,10.942341882757184
1.1042029345933846,-0.507570751953125,2.4756045166015626,11.180921752929686,11.462951497585278
1.1066898781397663,-0.4836287353515625,2.528276953125,11.559205615234374,11.842352619333148
1.1091768216861477,-0.4644751220703125,2.5617957763671875,11.793837377929687,12.077795114833103
1.1116637652325292,-0.45489831542968745,2.5713725830078125,11.880028637695311,12.163633086807812
1.1141507087789106,-0.45968671875,2.6001030029296874,11.812990991210937,12.104486922776605
1.116637652325292,-0.4644751220703125,2.6144682128906247,11.611878051757811,11.911628480780138
1.1191245958716736,-0.469263525390625,2.6144682128906247,11.305420239257812,11.6132759839202
1.1216115394180552,-0.4740519287109375,2.6096798095703124,10.874463940429687,11.193262255986815
1.1240984829644367,-0.49320554199218747,2.6001030029296874,10.371681591796875,10.70399768189969
1.1265854265108182,-0.5027823486328125,2.5761609863281247,9.82580361328125,10.170339825411277
1.1290723700571996,-0.5123591552734374,2.5570073730468748,9.284714038085937,9.643998827189822
1.131559313603581,-0.5410895751953124,2.5330653564453125,8.777143286132812,9.151362865372281
1.1340462571499625,-0.5458779785156249,2.50912333984375,8.327033374023436,8.713963938075318
1.1365332006963442,-0.55545478515625,2.4899697265625,7.982268334960937,8.380040992075799
1.1390201442427257,-0.5698199951171875,2.47081611328125,7.75721337890625,8.161126545910664
1.1415070877891071,-0.5698199951171875,2.446874096679687,7.6470801025390625,8.049206281770036
1.1439940313354886,-0.5746083984375,2.43250888671875,7.656656909179687,8.054295085257905
1.14648097488187,-0.5793968017578125,2.422932080078125,7.762001782226562,8.151991915222146
1.1489679184282515,-0.5889736083984375,2.4133552734375,7.982268334960937,8.359891228870056
1.1514548619746332,-0.59376201171875,2.43250888671875,8.279149340820313,8.649506726867804
1.1539418055210147,-0.565031591796875,2.4516625,8.619125976562499,8.978821877812768
1.1564287490673961,-0.5506663818359374,2.461239306640625,9.0021982421875,9.348823753835603
1.1589156926137776,-0.5506663818359374,2.4660277099609376,9.390058911132812,9.724080032832113
1.161402636160159,-0.5363011718749999,2.4851813232421875,9.773131176757811,10.098407703913614
1.1638895797065405,-0.5123591552734374,2.5043349365234375,10.09395419921875,10.412594141433257
1.1663765232529222,-0.507570751953125,2.5139117431640625,10.36210478515625,10.674764442329137
1.1688634667993036,-0.507570751953125,2.5330653564453125,10.577582934570312,10.888494336039983
1.171350410345685,-0.49799394531249996,2.5474305664062498,10.70686982421875,11.017007846643063
1.1738373538920666,-0.49320554199218747,2.5570073730468748,10.735600244140624,11.046929483547006
1.176324297438448,-0.49799394531249996,2.5570073730468748,10.692504614257812,11.005268720086239
1.1788112409848295,-0.49799394531249996,2.5617957763671875,10.577582934570312,10.894771971321555
1.1812981845312112,-0.49799394531249996,2.5522189697265625,10.390835205078124,10.711268640926292
1.1837851280775926,-0.507570751953125,2.5522189697265625,10.156203442382813,10.484270031849565
1.186272071623974,-0.5123591552734374,2.5474305664062498,9.892841259765625,10.228402738725851
1.1887590151703555,-0.5267243652343749,2.528276953125,9.610325463867188,9.9512802407574
1.191245958716737,-0.5363011718749999,2.5043349365234375,9.323021264648437,9.668404104211474
1.1937329022631185,-0.5410895751953124,2.4947581298828125,9.05965908203125,9.412439574182281
1.1962198458095001,-0.5458779785156249,2.4899697265625,8.8489693359375,9.20881047231336
1.1987067893558816,-0.565031591796875,2.4851813232421875,8.681375219726561,9.047743509560972
1.201193732902263,-0.5698199951171875,2.480392919921875,8.552088330078124,8.922738294351817
1.2036806764486445,-0.5602431884765625,2.4756045166015626,8.494627490234375,8.865731010508835
1.206167619995026,-0.5602431884765625,2.47081611328125,8.494627490234375,8.864395122834395
1.2086545635414074,-0.565031591796875,2.4756045166015626,8.542511523437499,8.911923560624217
1.2111415070877891,-0.5602431884765625,2.480392919921875,8.657433203124999,9.0231574924748
1.2136284506341706,-0.5602431884765625,2.480392919921875,8.815450512695312,9.174878157731197
1.216115394180552,-0.55545478515625,2.4851813232421875,9.006986645507812,9.360046188993985
1.2186023377269335,-0.5458779785156249,2.499546533203125,9.208099584960937,9.556924903212009
1.221089281273315,-0.5458779785156249,2.50912333984375,9.423577734375,9.767164379582502
1.2235762248196966,-0.5363011718749999,2.5234885498046875,9.6151138671875,9.955201057082233
1.226063168366078,-0.5363011718749999,2.5330653564453125,9.782707983398437,10.119556044383836
1.2285501119124596,-0.5363011718749999,2.5474305664062498,9.916783276367187,10.252785572128742
1.231037055458841,-0.5267243652343749,2.5426421630859375,10.031704956054687,10.362314994814916
1.2335239990052225,-0.5219359619140624,2.5378537597656248,10.09395419921875,10.421181805832845
1.236010942551604,-0.5267243652343749,2.5330653564453125,10.103531005859374,10.429534862270547
1.2384978860979856,-0.5363011718749999,2.528276953125,10.098742602539062,10.424222054954267
1.240984829644367,-0.5267243652343749,2.518700146484375,10.050858569335936,10.37502033567287
1.2434717731907485,-0.507570751953125,2.5234885498046875,9.955090502929687,10.282482650155773
1.24595871673713,-0.51714755859375,2.5330653564453125,9.835380419921874,10.169492106391816
1.2484456602835114,-0.5315127685546874,2.5234885498046875,9.682151513671874,10.019708489663289
1.250932603829893,-0.5315127685546874,2.50912333984375,9.519345800781249,9.858810792004121
1.2534195473762746,-0.5219359619140624,2.5139117431640625,9.366116894531249,9.711658719435162
1.255906490922656,-0.51714755859375,2.5139117431640625,9.222464794921875,9.572933236127316
1.2583934344690375,-0.5219359619140624,2.5043349365234375,9.102754711914063,9.455382275080405
1.260880378015419,-0.5219359619140624,2.499546533203125,9.011775048828124,9.366548966971136
1.2633673215618004,-0.5219359619140624,2.4947581298828125,8.968679418945312,9.323810690633351
1.2658542651081819,-0.51714755859375,2.4899697265625,8.954314208984375,9.308444219619982
1.2683412086545636,-0.51714755859375,2.4899697265625,8.968679418945312,9.322263746342431
1.270828152200945,-0.5267243652343749,2.499546533203125,9.006986645507812,9.3622102017064
1.2733150957473265,-0.51714755859375,2.499546533203125,9.04050546875,9.393929614357662
1.275802039293708,-0.5219359619140624,2.5043349365234375,9.112331518554686,9.464602280427645
1.2782889828400894,-0.5267243652343749,2.5043349365234375,9.208099584960937,9.557103640631988
1.2807759263864709,-0.5219359619140624,2.518700146484375,9.323021264648437,9.671349082590623
1.2832628699328525,-0.5219359619140624,2.528276953125,9.414000927734374,9.761558019467275
1.285749813479234,-0.5219359619140624,2.5139117431640625,9.504980590820312,9.84565007669012
1.2882367570256155,-0.5267243652343749,2.50912333984375,9.610325463867188,9.94643121993684
1.290723700571997,-0.5219359619140624,2.518700146484375,9.6917283203125,10.027256125729854
1.2932106441183784,-0.5219359619140624,2.5139117431640625,9.739612353515625,10.072349189613687
1.2956975876647598,-0.5219359619140624,2.50912333984375,9.773131176757811,10.103574124091104
1.2981845312111415,-0.5219359619140624,2.499546533203125,9.782707983398437,10.110466137049984
1.300671474757523,-0.5267243652343749,2.4851813232421875,9.753977563476562,10.079367196165022
1.3031584183039044,-0.5315127685546874,2.4851813232421875,9.720458740234374,10.047186180873094
1.305645361850286,-0.5315127685546874,2.480392919921875,9.672574707031249,9.999677810981506
1.3081323053966674,-0.5410895751953124,2.4660277099609376,9.619902270507811,9.945681992141191
1.3106192489430488,-0.5458779785156249,2.461239306640625,9.562441430664062,9.889184385320242
1.3131061924894305,-0.5410895751953124,2.4660277099609376,9.495403784179686,9.825312392962076
1.315593136035812,-0.5363011718749999,2.4660277099609376,9.418789331054686,9.751025796091366
1.3180800795821934,-0.5315127685546874,2.4660277099609376,9.356540087890625,9.690647083953484
1.3205670231285749,-0.5267243652343749,2.4756045166015626,9.299079248046874,9.637371588820555
1.3230539666749563,-0.5267243652343749,2.4851813232421875,9.241618408203124,9.584418374067473
1.3255409102213378,-0.5363011718749999,2.4851813232421875,9.217676391601563,9.561867140712376
1.3280278537677195,-0.5363011718749999,2.4851813232421875,9.198522778320312,9.543404343295107
1.330514797314101,-0.5267243652343749,2.4947581298828125,9.184157568359375,9.531526998545445
1.3330017408604824,-0.5219359619140624,2.499546533203125,9.193734375,9.541745216575611
1.3354886844068639,-0.5219359619140624,2.5043349365234375,9.222464794921875,9.57068270899231
1.3379756279532453,-0.5267243652343749,2.499546533203125,9.260772021484375,9.606615942280982
1.3404625714996268,-0.5315127685546874,2.5043349365234375,9.303867651367186,9.649671112094198
1.3429495150460085,-0.5315127685546874,2.5139117431640625,9.34696328125,9.69370830263582
1.34543645859239,-0.5219359619140624,2.5139117431640625,9.399635717773437,9.743988968979773
1.3479234021387714,-0.5219359619140624,2.5139117431640625,9.4618849609375,9.804052040598956
1.3504103456851528,-0.5219359619140624,2.50912333984375,9.514557397460937,9.853675433688004
1.3528972892315343,-0.5315127685546874,2.5139117431640625,9.548076220703125,9.887771113446716
1.3553842327779158,-0.5267243652343749,2.518700146484375,9.581595043945311,9.921101378929121
1.3578711763242974,-0.5219359619140624,2.50912333984375,9.605537060546874,9.941552157707935
1.360358119870679,-0.5267243652343749,2.5043349365234375,9.605537060546874,9.940597278471898
1.3628450634170604,-0.5315127685546874,2.518700146484375,9.610325463867188,9.949106079065151
1.3653320069634418,-0.5363011718749999,2.50912333984375,9.605537060546874,9.942316686921748
1.3678189505098233,-0.5363011718749999,2.518700146484375,9.567229833984374,9.907742228738876
1.370305894056205,-0.5219359619140624,2.528276953125,9.5384994140625,9.881678631290983
1.3727928376025864,-0.5315127685546874,2.528276953125,9.519345800781249,9.863702887338572
1.3752797811489679,-0.5315127685546874,2.5330653564453125,9.471461767578125,9.818732807132204
1.3777667246953493,-0.51714755859375,2.5378537597656248,9.409212524414063,9.759171257484237
1.3802536682417308,-0.5219359619140624,2.5426421630859375,9.361328491210937,9.714520957731223
1.3827406117881123,-0.5219359619140624,2.5426421630859375,9.332598071289063,9.686838136258386
1.385227555334494,-0.5267243652343749,2.5522189697265625,9.303867651367186,9.661946672411334
1.3877144988808754,-0.5315127685546874,2.5474305664062498,9.299079248046874,9.656333837189639
1.3902014424272569,-0.5315127685546874,2.5426421630859375,9.3086560546875,9.664295760018382
1.3926883859736383,-0.5267243652343749,2.5378537597656248,9.313444458007812,9.667387854807755
1.3951753295200198,-0.5267243652343749,2.5234885498046875,9.323021264648437,9.672856792024467
1.3976622730664012,-0.5267243652343749,2.5139117431640625,9.332598071289063,9.679595940408776
1.400149216612783,-0.5219359619140624,2.5139117431640625,9.351751684570312,9.697805368773958
1.4026361601591644,-0.5267243652343749,2.5234885498046875,9.3852705078125,9.732868822846736
1.4051231037055458,-0.5458779785156249,2.5234885498046875,9.399635717773437,9.747775584986856
1.4076100472519273,-0.5458779785156249,2.5139117431640625,9.437942944335937,9.782254445698443
1.4100969907983087,-0.5410895751953124,2.5139117431640625,9.476250170898437,9.818953482029329
1.4125839343446902,-0.5506663818359374,2.5139117431640625,9.504980590820312,9.847214923437656
1.4150708778910719,-0.5506663818359374,2.518700146484375,9.533711010742186,9.876169780250413
1.4175578214374533,-0.5410895751953124,2.518700146484375,9.543287817382812,9.884885974137115
1.4200447649838348,-0.5410895751953124,2.5234885498046875,9.548076220703125,9.890729594207745
1.4225317085302163,-0.5410895751953124,2.5234885498046875,9.5384994140625,9.881484881405783
1.4250186520765977,-0.5363011718749999,2.5234885498046875,9.504980590820312,9.84887148052104
1.4275055956229792,-0.5315127685546874,2.5234885498046875,9.471461767578125,9.816266515270772
1.4299925391693609,-0.5363011718749999,2.5234885498046875,9.457096557617186,9.802667428207727
1.4324794827157423,-0.5315127685546874,2.518700146484375,9.442731347656249,9.787314828646673
1.4349664262621238,-0.5315127685546874,2.5139117431640625,9.442731347656249,9.78608365892939
1.4374533698085052,-0.5410895751953124,2.50912333984375,9.442731347656249,9.785379561720827
1.4399403133548867,-0.5458779785156249,2.499546533203125,9.423577734375,9.764708544287654
1.4424272569012682,-0.5363011718749999,2.4899697265625,9.409212524414063,9.747863792428713
1.4449142004476498,-0.5315127685546874,2.4947581298828125,9.390058911132812,9.73034070854139
1.4474011439940313,-0.5315127685546874,2.4947581298828125,9.380482104492186,9.721099138598023
1.4498880875404128,-0.5315127685546874,2.4851813232421875,9.390058911132812,9.727889719105226
1.4523750310867942,-0.5315127685546874,2.480392919921875,9.3852705078125,9.72204491684493
1.4548619746331757,-0.5315127685546874,2.4756045166015626,9.380482104492186,9.71620131833696
1.4573489181795571,-0.5315127685546874,2.4756045166015626,9.394847314453125,9.730070894276249
1.4598358617259388,-0.5267243652343749,2.4756045166015626,9.409212524414063,9.743681881565104
1.4623228052723203,-0.5315127685546874,2.480392919921875,9.404424121093749,9.740536325569817
1.4648097488187017,-0.5363011718749999,2.4899697265625,9.404424121093749,9.743241823723876
1.4672966923650832,-0.5315127685546874,2.4947581298828125,9.428366137695312,9.767313447217338
1.4697836359114647,-0.5363011718749999,2.4899697265625,9.423577734375,9.761730661207595
1.4722705794578461,-0.5363011718749999,2.499546533203125,9.423577734375,9.764177852456935
1.4747575230042278,-0.5363011718749999,2.5043349365234375,9.414000927734374,9.756163482057381
1.4772444665506093,-0.5315127685546874,2.499546533203125,9.409212524414063,9.750052257520206
1.4797314100969907,-0.5410895751953124,2.4899697265625,9.414000927734374,9.7527504138559
1.4822183536433722,-0.5363011718749999,2.4899697265625,9.414000927734374,9.752485921729695
1.4847052971897536,-0.5219359619140624,2.4851813232421875,9.409212524414063,9.745861875038113
1.487192240736135,-0.5267243652343749,2.480392919921875,9.418789331054686,9.754146813377359
1.4896791842825168,-0.5410895751953124,2.480392919921875,9.428366137695312,9.764180200714407
1.4921661278288982,-0.5458779785156249,2.4756045166015626,9.442731347656249,9.77710467337117
1.4946530713752797,-0.5458779785156249,2.47081611328125,9.452308154296874,9.785144070317296
1.4971400149216612,-0.5458779785156249,2.4756045166015626,9.457096557617186,9.79097930700199
1.4996269584680426,-0.5458779785156249,2.4851813232421875,9.471461767578125,9.80727775641713
1.5021139020144243,-0.5410895751953124,2.4947581298828125,9.481038574218749,9.818690773256142
1.5046008455608058,-0.5363011718749999,2.4899697265625,9.476250170898437,9.812588113622466
1.5070877891071872,-0.5267243652343749,2.4851813232421875,9.4618849609375,9.796980748186584
1.5095747326535687,-0.5363011718749999,2.4899697265625,9.4618849609375,9.798715997525772
1.5120616761999501,-0.5363011718749999,2.4947581298828125,9.457096557617186,9.795310733900468
1.5145486197463316,-1.455674609375,3.835511059570312,-7.417236743164062,8.476174523958804
1.5170355632927133,-1.714248388671875,3.782838623046875,-6.660669018554687,7.849396623996876
1.5195225068390947,-1.848323681640625,3.6296097167968746,-4.448426684570312,6.031489624991248
1.5220094503854762,-1.8435352783203125,3.414131567382812,-1.024718310546875,4.013099088956241
1.5244963939318577,-1.7525556152343749,3.1411925781249996,3.2321722412109373,4.8358535331636805
1.5269833374782391,-1.5610194824218748,2.8203695556640622,7.848193041992187,8.484421033835599
1.5294702810246206,-1.2785036865234374,2.499546533203125,12.382810986328124,12.697098584764564
1.5319572245710023,-0.967257470703125,2.2074539306640624,16.4338001953125,16.60958243695754
1.5344441681173837,-0.6368576416015624,1.944091748046875,19.642030419921873,19.748276871606457
1.5369311116637652,-0.3064578125,1.7334020019531249,21.72498586425781,21.796183374467628
1.5394180552101466,-0.01915361328125,1.5753846923828123,22.548591235351562,22.603565437533724
1.541904998756528,0.201112939453125,1.5035586425781249,22.112846533203125,22.164817093923432
1.5443919423029095,0.354341845703125,1.5275006591796874,20.503943017578123,20.563815202328126
1.5468788858492912,0.4165910888671875,1.608903515625,17.937358837890624,18.014187762349067
1.5493658293956727,0.4070142822265625,1.7525556152343749,14.69082138671875,14.800585962281998
1.5518527729420541,0.3112462158203125,1.9488801513671874,11.104307299804686,11.278326500848923
1.5543397164884356,0.1484405029296875,2.1787235107421874,7.532158422851562,7.842339014994474
1.556826660034817,-0.062249243164062495,2.427720483398437,4.295197778320312,4.934209730916855
1.5593136035811985,-0.2920926025390625,2.6719290527343746,1.6998831787109374,3.1802713363121167
1.5618005471275802,-0.5315127685546874,2.882618798828125,-0.0430956298828125,2.9315276215326658
1.5642874906739617,-0.7613561279296874,3.0550013183593747,-0.7948749511718749,3.247233037019994
1.5667744342203431,-0.9528922607421875,3.1938650146484373,-0.565031591796875,3.380538136466756
1.5692613777667246,-1.1013327636718748,3.2704794677734372,0.5793968017578125,3.4992385542217517
1.571748321313106,-1.1875240234375,3.2704794677734372,2.5234885498046875,4.298167483517154
1.5742352648594875,-1.20667763671875,3.2321722412109373,5.023035083007812,6.093758262430417
1.5767222084058692,-1.16837041015625,3.1459809814453124,7.81467421875,8.504787998306613
1.5792091519522506,-1.0821791503906248,3.0071172851562498,10.63025537109375,11.100279065631332
1.581696095498632,-0.9624690673828125,2.844311572265625,13.201627954101562,13.538812195473747
1.5841830390450136,-0.7948749511718749,2.6623522460937497,15.279794995117186,15.530359968883179
1.586669982591395,-0.622492431640625,2.47081611328125,16.697162377929686,16.89046063812502
1.5891569261377765,-0.469263525390625,2.29843359375,17.377115649414062,17.534741330691244
1.5916438696841582,-0.3016694091796875,2.1547814941406247,17.28134758300781,17.417780053860355
1.5941308132305396,-0.17238251953125,2.0446482177734375,16.452953808593747,16.580409859083808
1.596617756776921,-0.09576806640624999,1.9776105712890624,15.0164328125,15.14639790532865
1.5991047003233025,-0.047884033203124995,1.9584569580078124,13.110648291015623,13.256204024822337
1.601591643869684,-0.047884033203124995,1.9728221679687499,10.922347973632812,11.09918940482527
1.6040785874160655,-0.08140285644531249,2.039859814453125,8.71489404296875,8.950811844063665
1.6065655309624471,-0.1484405029296875,2.1452046874999997,6.6893994384765625,7.026521371323973
1.6090524745088286,-0.2537853759765625,2.2649147705078123,5.013458276367187,5.507178027229433
1.61153941805521,-0.3687070556640625,2.398990063476562,3.8690298828125,4.56732859028687
1.6140263616015915,-0.5027823486328125,2.5330653564453125,3.284844677734375,4.178446451369216
1.616513305147973,-0.612915625,2.6623522460937497,3.294421484375,4.279836207422096
1.6190002486943544,-0.7038952880859375,2.786850732421875,3.883395092773437,4.831434882927301
1.6214871922407361,-0.7948749511718749,2.887407202148437,4.946420629882812,5.782389089878805
1.6239741357871176,-0.8475473876953125,2.9544448486328125,6.363788012695312,7.067169080227716
1.626461079333499,-0.8714894042968749,2.96881005859375,8.030152368164062,8.605618746013562
1.6289480228798805,-0.8667010009765624,2.9448680419921875,9.758765966796874,10.230197046223186
1.631434966426262,-0.8283937744140625,2.896984008789062,11.362881079101562,11.755586714854848
1.6339219099726436,-0.7709329345703124,2.829946362304687,12.722787622070312,13.05650255158066
1.636408853519025,-0.6943184814453125,2.729389892578125,13.713987109375,14.000181776515896
1.6388957970654066,-0.603338818359375,2.6240450195312497,14.250288281249999,14.50242552447683
1.641382740611788,-0.5123591552734374,2.518700146484375,14.288595507812499,14.517931116993648
1.6438696841581695,-0.44532150878906246,2.403778466796875,13.857639208984374,14.07162487454834
1.646356627704551,-0.373495458984375,2.308010400390625,13.053187451171874,13.260924307966777
1.6488435712509326,-0.316034619140625,2.24097275390625,11.942277880859374,12.15482775476101
1.651330514797314,-0.28730419921875,2.1883003173828124,10.644620581054687,10.871023378530628
1.6538174583436955,-0.277727392578125,2.1691467041015624,9.299079248046874,9.552759014544382
1.656304401890077,-0.277727392578125,2.1691467041015624,8.02536396484375,8.317980325578771
1.6587913454364585,-0.3016694091796875,2.1883003173828124,6.938396411132812,7.281552545268984
1.66127828898284,-0.36391865234375,2.2361843505859373,6.143521459960938,6.547962520076738
1.6637652325292216,-0.4213794921875,2.29843359375,5.693411547851563,6.1542905939291055
1.666252176075603,-0.4836287353515625,2.375048046875,5.61200869140625,6.113050918407419
1.6687391196219845,-0.5602431884765625,2.4564509033203126,5.899312890625,6.414820032717352
1.671226063168366,-0.612915625,2.528276953125,6.53138212890625,7.030419790372984
1.6737130067147474,-0.6560112548828124,2.5905261962890624,7.398083129882812,7.865927201344382
1.676199950261129,-0.699106884765625,2.6671406494140624,8.403647827148436,8.844415553490247
1.6786868938075106,-0.718260498046875,2.7150246826171873,9.437942944335937,9.84692968345035
1.681173837353892,-0.718260498046875,2.7341782958984373,10.424354028320312,10.800869687417515
1.6836607809002735,-0.718260498046875,2.748543505859375,11.271901416015623,11.624377449095126
1.686147724446655,-0.6847416748046875,2.73896669921875,11.9135474609375,12.24350533322275
1.6886346679930364,-0.6368576416015624,2.710236279296875,12.306196533203124,12.617188334137834
1.6911216115394179,-0.603338818359375,2.6767174560546874,12.401964599609375,12.70187230290288
1.6936085550857995,-0.5698199951171875,2.6144682128906247,12.224793676757812,12.51422068298097
1.696095498632181,-0.5219359619140624,2.5570073730468748,11.789048974609374,12.074451522942711
1.6985824421785625,-0.47884033203125,2.499546533203125,11.161768139648437,11.448235188818341
1.701069385724944,-0.44532150878906246,2.4516625,10.390835205078124,10.685430104548313
1.7035563292713254,-0.4213794921875,2.398990063476562,9.576806640625,9.881697193954821
1.7060432728177068,-0.40222587890625,2.35589443359375,8.786720092773438,9.105958171914056
1.7085302163640885,-0.411802685546875,2.3319524169921872,8.087613208007811,8.427162685582955
1.71101715991047,-0.430956298828125,2.3223756103515623,7.541735229492187,7.90296919384221
1.7135041034568514,-0.45010991210937495,2.31758720703125,7.216123803710937,7.59251290059211
1.715991047003233,-0.488417138671875,2.3367408203125,7.115567333984375,7.505345258356118
1.7184779905496144,-0.5315127685546874,2.35589443359375,7.240065820312499,7.632253762017611
1.7209649340959958,-0.565031591796875,2.389413256835937,7.575254052734374,7.963229895911608
1.7234518776423775,-0.5889736083984375,2.43250888671875,8.054094384765625,8.43400413528881
1.725938821188759,-0.612915625,2.480392919921875,8.63827958984375,9.008212301721068
1.7284257647351404,-0.63206923828125,2.528276953125,9.255983618164063,9.615868583409716
1.7309127082815219,-0.6464344482421874,2.5713725830078125,9.868899243164062,10.218855450990715
1.7333996518279033,-0.6512228515624999,2.5905261962890624,10.414777221679687,10.751860385685593
1.7358865953742848,-0.6368576416015624,2.5953145996093747,10.850521923828124,11.17475152055233
1.7383735389206665,-0.6177040283203125,2.6096798095703124,11.123460913085937,11.442175040613245
1.740860482467048,-0.612915625,2.6192566162109374,11.228805786132812,11.546525458666066
1.7433474260134294,-0.5889736083984375,2.6096798095703124,11.156979736328124,11.473252174370838
1.7458343695598109,-0.55545478515625,2.5905261962890624,10.922347973632812,11.239085427610808
1.7483213131061923,-0.5363011718749999,2.5570073730468748,10.572794531249999,10.890816767019839
1.7508082566525738,-0.5219359619140624,2.5378537597656248,10.122684619140625,10.449012525252414
1.7532952001989555,-0.49320554199218747,2.50912333984375,9.605537060546874,9.940085203997999
1.755782143745337,-0.4740519287109375,2.480392919921875,9.107543115234375,9.451159498398393
1.7582690872917184,-0.4644751220703125,2.4660277099609376,8.662221606445312,9.018376404014496
1.7607560308380998,-0.45968671875,2.437297290039062,8.322244970703125,8.683979002267357
1.7632429743844813,-0.469263525390625,2.4133552734375,8.106766821289062,8.471372983574964
1.765729917930863,-0.488417138671875,2.4133552734375,8.030152368164062,8.399177461698729
1.7682168614772444,-0.5027823486328125,2.427720483398437,8.0828248046875,8.454506115609627
1.770703805023626,-0.5123591552734374,2.442085693359375,8.245630517578125,8.614912481860667
1.7731907485700074,-0.5219359619140624,2.4564509033203126,8.508992700195313,8.871838871436939
1.7756776921163888,-0.5363011718749999,2.4756045166015626,8.8489693359375,9.2043736874344
1.7781646356627703,-0.5506663818359374,2.499546533203125,9.236830004882812,9.584883665169622
1.780651579209152,-0.5602431884765625,2.528276953125,9.624690673828125,9.966981857554046
1.7831385227555334,-0.565031591796875,2.5474305664062498,9.97903251953125,10.314540863085064
1.7856254663019149,-0.5698199951171875,2.5713725830078125,10.275913525390624,10.608065354662253
1.7881124098482963,-0.565031591796875,2.5905261962890624,10.481814868164061,10.811962338255418
1.7905993533946778,-0.55545478515625,2.6001030029296874,10.568006127929687,10.897330827508009
1.7930862969410593,-0.5506663818359374,2.6096798095703124,10.548852514648438,10.880806566995293
1.795573240487441,-0.5410895751953124,2.6240450195312497,10.424354028320312,10.763156930040077
1.7980601840338224,-0.5267243652343749,2.6288334228515624,10.199299072265624,10.545800362587539
1.8005471275802039,-0.5123591552734374,2.6192566162109374,9.897629663085937,10.251150670688434
1.8030340711265853,-0.507570751953125,2.6001030029296874,9.586383447265625,9.945698129949983
1.8055210146729668,-0.49799394531249996,2.5713725830078125,9.289502441406249,9.651673976005657
1.8080079582193482,-0.4836287353515625,2.5522189697265625,8.992621435546875,9.36028625129312
1.81049490176573,-0.4836287353515625,2.5378537597656248,8.767566479492187,9.140285577153993
1.8129818453121114,-0.47884033203125,2.50912333984375,8.633491186523438,9.003452563650587
1.8154687888584928,-0.4836287353515625,2.480392919921875,8.56166513671875,8.926833464569707
1.8179557324048743,-0.49799394531249996,2.461239306640625,8.571241943359375,8.931510809808367
1.8204426759512558,-0.507570751953125,2.437297290039062,8.67658681640625,9.026694020011133
1.8229296194976372,-0.5219359619140624,2.43250888671875,8.82981572265625,9.17361228352127
1.825416563044019,-0.5315127685546874,2.43250888671875,9.02135185546875,9.358653461223565
1.8279035065904004,-0.5363011718749999,2.427720483398437,9.251195214843749,9.579460245526088
1.8303904501367818,-0.5363011718749999,2.437297290039062,9.504980590820312,9.82714063493838
1.8328773936831633,-0.5410895751953124,2.446874096679687,9.744400756835937,10.061476873859615
1.8353643372295447,-0.55545478515625,2.442085693359375,9.935936889648437,10.246714323486342
1.8378512807759262,-0.5506663818359374,2.4564509033203126,10.0748005859375,10.384555423845262
1.8403382243223079,-0.5506663818359374,2.4756045166015626,10.137049829101562,10.449479911669783
1.8428251678686893,-0.5602431884765625,2.4899697265625,10.141838232421874,10.458044960796743
1.8453121114150708,-0.5458779785156249,2.5043349365234375,10.050858569335936,10.372532681197674
1.8477990549614522,-0.5315127685546874,2.5234885498046875,9.907206469726562,10.23734537455506
1.8502859985078337,-0.5267243652343749,2.5234885498046875,9.753977563476562,10.088880578475052
1.8527729420542152,-0.5267243652343749,2.5234885498046875,9.567229833984374,9.90844688708617
1.8552598856005968,-0.51714755859375,2.5330653564453125,9.366116894531249,9.716378305696345
1.8577468291469783,-0.5027823486328125,2.5234885498046875,9.193734375,9.547017141974173
1.8602337726933598,-0.49799394531249996,2.5139117431640625,9.069235888671875,9.424372118415105
1.8627207162397412,-0.49320554199218747,2.5043349365234375,8.973467822265624,9.329419592781761
1.8652076597861227,-0.49799394531249996,2.4899697265625,8.9255837890625,9.279762560773898
1.8676946033325041,-0.5027823486328125,2.4756045166015626,8.920795385742187,9.271569345423345
1.8701815468788858,-0.5027823486328125,2.4564509033203126,8.963891015625,9.30796880476737
1.8726684904252673,-0.507570751953125,2.43250888671875,9.064447485351561,9.398879495285605
1.8751554339716487,-0.5219359619140624,2.437297290039062,9.193734375,9.525627905100407
1.8776423775180302,-0.5219359619140624,2.446874096679687,9.318232861328125,9.648267909385421
1.8801293210644117,-0.51714755859375,2.446874096679687,9.457096557617186,9.782193503629763
1.8826162646107931,-0.5315127685546874,2.442085693359375,9.605537060546874,9.925352919588638
1.8851032081571748,-0.5363011718749999,2.4564509033203126,9.715670336914062,10.035737146964815
1.8875901517035563,-0.5410895751953124,2.4660277099609376,9.782707983398437,10.103239385619235
1.8900770952499377,-0.5410895751953124,2.480392919921875,9.80665,10.12993145031513
1.8925640387963192,-0.5315127685546874,2.50912333984375,9.811438403320311,10.141130573059097
1.8950509823427006,-0.5315127685546874,2.528276953125,9.777919580078125,10.113476231707615
1.897537925889082,-0.5363011718749999,2.5378537597656248,9.720458740234374,10.06059833079076
1.9000248694354638,-0.5363011718749999,2.5522189697265625,9.639055883789062,9.985631624849534
1.9025118129818452,-0.5363011718749999,2.5665841796874997,9.5384994140625,9.892317441855944
1.9049987565282267,-0.5363011718749999,2.5665841796874997,9.423577734375,9.781553588984979
1.9074857000746082,-0.5363011718749999,2.5617957763671875,9.313444458007812,9.674226802135852
1.9099726436209896,-0.5315127685546874,2.5617957763671875,9.212887988281249,9.577192099335084
1.9124595871673713,-0.5315127685546874,2.5617957763671875,9.141061938476563,9.508118467184469
1.9149465307137528,-0.5315127685546874,2.5617957763671875,9.09796630859375,9.466693951705443
1.9174334742601342,-0.5410895751953124,2.5570073730468748,9.102754711914063,9.470544228262428
1.9199204178065157,-0.5458779785156249,2.5570073730468748,9.131485131835937,9.498436196879208
1.9224073613528971,-0.5506663818359374,2.5378537597656248,9.188945971679686,9.548856645718855
1.9248943048992786,-0.55545478515625,2.518700146484375,9.270348828125,9.62246059183263
1.9273812484456603,-0.5458779785156249,2.50912333984375,9.370905297851563,9.716354707568032
1.9298681919920417,-0.5458779785156249,2.499546533203125,9.466673364257812,9.80630512602093
1.9323551355384232,-0.55545478515625,2.4947581298828125,9.5384994140625,9.874984517306345
1.9348420790848047,-0.55545478515625,2.4899697265625,9.595960253906249,9.929296674593784
1.9373290226311861,-0.55545478515625,2.4947581298828125,9.648632690429688,9.981405759701275
1.9398159661775676,-0.55545478515625,2.4947581298828125,9.682151513671874,10.013810767069044
1.9423029097239493,-0.5602431884765625,2.5043349365234375,9.6917283203125,10.025725097930502
1.9447898532703307,-0.5602431884765625,2.5043349365234375,9.696516723632811,10.030354055376959
1.9472767968167122,-0.5458779785156249,2.5043349365234375,9.658209497070311,9.992531557669423
1.9497637403630936,-0.5458779785156249,2.5139117431640625,9.591171850585937,9.93017182566941
1.952250683909475,-0.5363011718749999,2.518700146484375,9.524134204101562,9.866134081421771
1.9547376274558566,-0.5410895751953124,2.5234885498046875,9.457096557617186,9.802930566390605
1.9572245710022382,-0.5458779785156249,2.528276953125,9.370905297851563,9.721318491873097
1.9597115145486197,-0.5410895751953124,2.528276953125,9.318232861328125,9.670285721633224
1.9621984580950012,-0.5363011718749999,2.5234885498046875,9.279925634765624,9.631855127374477
1.9646854016413826,-0.5315127685546874,2.518700146484375,9.241618408203124,9.593428326405316
1.967172345187764,-0.5267243652343749,2.518700146484375,9.227253198242186,9.579326206435535
1.9696592887341455,-0.5267243652343749,2.50912333984375,9.227253198242186,9.576812626127278
1.9721462322805272,-0.5219359619140624,2.4947581298828125,9.2320416015625,9.577412354489924
1.9746331758269087,-0.5267243652343749,2.4947581298828125,9.265560424804686,9.609987859995181
1.9771201193732901,-0.5315127685546874,2.4851813232421875,9.313444458007812,9.653956686505532
1.9796070629196716,-0.5315127685546874,2.47081611328125,9.380482104492186,9.714982377826791
1.982094006466053,-0.5315127685546874,2.47081611328125,9.442731347656249,9.775101707542328
1.9845809500124345,-0.5363011718749999,2.47081611328125,9.490615380859374,9.821625706572679
1.9870678935588162,-0.5410895751953124,2.461239306640625,9.528922607421874,9.856512715518281
1.9895548371051976,-0.5363011718749999,2.461239306640625,9.567229833984374,9.893290886645758
1.992041780651579,-0.5315127685546874,2.461239306640625,9.576806640625,9.902294187692496
1.9945287241979606,-0.51714755859375,2.4660277099609376,9.572018237304688,9.898094129626582
1.997015667744342,-0.5123591552734374,2.480392919921875,9.562441430664062,9.892176052622176
1.9995026112907235,-0.5219359619140624,2.4851813232421875,9.519345800781249,9.852232631874998
2.001989554837105,-0.5219359619140624,2.4851813232421875,9.481038574218749,9.81522469450164
2.0044764983834864,-0.5123591552734374,2.480392919921875,9.447519750976562,9.781129300151559
2.006963441929868,-0.5267243652343749,2.499546533203125,9.399635717773437,9.740550449303235
2.0094503854762498,-0.5363011718749999,2.5234885498046875,9.361328491210937,9.710308158256746
2.011937329022631,-0.5267243652343749,2.5330653564453125,9.327809667968749,9.679973753001928
2.0144242725690127,-0.5267243652343749,2.5426421630859375,9.303867651367186,9.65942135951169
2.016911216115394,-0.5267243652343749,2.5426421630859375,9.299079248046874,9.654809298369901
2.0193981596617756,-0.5267243652343749,2.5330653564453125,9.3086560546875,9.66151831760543
2.021885103208157,-0.5363011718749999,2.5378537597656248,9.327809667968749,9.681753655963483
2.0243720467545385,-0.5363011718749999,2.5426421630859375,9.366116894531249,9.71991737611388
2.02685899030092,-0.5410895751953124,2.5426421630859375,9.418789331054686,9.770946707493444
2.0293459338473014,-0.5506663818359374,2.5330653564453125,9.452308154296874,9.801315371310878
2.031832877393683,-0.5410895751953124,2.5378537597656248,9.476250170898437,9.825110530461947
2.0343198209400644,-0.5410895751953124,2.5330653564453125,9.490615380859374,9.837732377728772
2.036806764486446,-0.5458779785156249,2.5234885498046875,9.519345800781249,9.863261210333794
2.0392937080328277,-0.5506663818359374,2.528276953125,9.5384994140625,9.883237773516226
2.041780651579209,-0.5506663818359374,2.5234885498046875,9.528922607421874,9.872770329715735
2.0442675951255906,-0.5506663818359374,2.50912333984375,9.514557397460937,9.855239006143462
2.046754538671972,-0.55545478515625,2.50912333984375,9.5001921875,9.841640186083703
2.0492414822183536,-0.5458779785156249,2.518700146484375,9.466673364257812,9.811204705889946
2.0517284257647352,-0.5410895751953124,2.5043349365234375,9.447519750976562,9.788774226008542
2.0542153693111165,-0.5458779785156249,2.4947581298828125,9.433154541015625,9.772727638112524
2.056702312857498,-0.5506663818359374,2.499546533203125,9.414000927734374,9.755735738688072
2.0591892564038794,-0.5506663818359374,2.50912333984375,9.390058911132812,9.735098343272021
2.061676199950261,-0.5363011718749999,2.499546533203125,9.351751684570312,9.694875522071746
2.0641631434966423,-0.5363011718749999,2.4947581298828125,9.34696328125,9.689022636706277
2.066650087043024,-0.5363011718749999,2.4899697265625,9.351751684570312,9.692410833018577
2.0691370305894057,-0.5363011718749999,2.4899697265625,9.34696328125,9.687790809425438
2.071623974135787,-0.5315127685546874,2.5043349365234375,9.361328491210937,9.705084771282843
2.0741109176821686,-0.5363011718749999,2.5043349365234375,9.3852705078125,9.728443602450572
2.07659786122855,-0.5315127685546874,2.50912333984375,9.399635717773437,9.743272416623046
2.0790848047749315,-0.5219359619140624,2.5234885498046875,9.418789331054686,9.764937484291648
2.081571748321313,-0.5123591552734374,2.5139117431640625,9.433154541015625,9.775820617784186
2.0840586918676944,-0.5123591552734374,2.5139117431640625,9.452308154296874,9.794304140682883
2.086545635414076,-0.5027823486328125,2.528276953125,9.452308154296874,9.79750498267732
2.0890325789604574,-0.507570751953125,2.528276953125,9.457096557617186,9.80237153550283
2.091519522506839,-0.5219359619140624,2.5234885498046875,9.466673364257812,9.811132258556238
2.0940064660532203,-0.5219359619140624,2.5139117431640625,9.471461767578125,9.813294931645103
2.096493409599602,-0.51714755859375,2.50912333984375,9.471461767578125,9.811815812916704
2.0989803531459836,-0.5219359619140624,2.5043349365234375,9.466673364257812,9.806223289736948
2.101467296692365,-0.5123591552734374,2.4947581298828125,9.466673364257812,9.803276728530987
2.1039542402387466,-0.51714755859375,2.499546533203125,9.457096557617186,9.795501506768403
2.106441183785128,-0.5267243652343749,2.5043349365234375,9.433154541015625,9.774125875284557
2.1089281273315095,-0.51714755859375,2.5043349365234375,9.418789331054686,9.759750382793655
2.111415070877891,-0.51714755859375,2.50912333984375,9.414000927734374,9.756359720679214
2.1139020144242724,-0.51714755859375,2.518700146484375,9.394847314453125,9.740351538170836
2.116388957970654,-0.5123591552734374,2.5234885498046875,9.375693701171874,9.72286679653598
2.1188759015170353,-0.5267243652343749,2.5330653564453125,9.370905297851563,9.721508358184828
2.121362845063417,-0.5267243652343749,2.5426421630859375,9.399635717773437,9.751698280467666
2.1238497886097982,-0.51714755859375,2.5330653564453125,9.452308154296874,9.799489330631983
2.12633673215618,-0.5123591552734374,2.5234885498046875,9.457096557617186,9.801386721535005
2.1288236757025616,-0.51714755859375,2.5330653564453125,9.471461767578125,9.817965660567216
2.131310619248943,-0.51714755859375,2.5426421630859375,9.4618849609375,9.811204705889947
2.1337975627953245,-0.51714755859375,2.5426421630859375,9.457096557617186,9.806586871432723
2.1362845063417057,-0.5219359619140624,2.5330653564453125,9.457096557617186,9.80436191439593
2.1387714498880874,-0.5267243652343749,2.5330653564453125,9.442731347656249,9.790762685356283
2.141258393434469,-0.5219359619140624,2.5426421630859375,9.442731347656249,9.792988390774875
2.1437453369808503,-0.5267243652343749,2.5426421630859375,9.433154541015625,9.784011054834188
2.146232280527232,-0.5363011718749999,2.5234885498046875,9.423577734375,9.770334217607815
2.1487192240736133,-0.5363011718749999,2.5234885498046875,9.418789331054686,9.765715840159361
2.151206167619995,-0.5458779785156249,2.5234885498046875,9.418789331054686,9.766246448416775
2.153693111166376,-0.5458779785156249,2.5234885498046875,9.414000927734374,9.761628485852519
2.156180054712758,-0.5363011718749999,2.518700146484375,9.404424121093749,9.750623694116435
2.1586669982591395,-0.5315127685546874,2.5139117431640625,9.394847314453125,9.73988778875003
2.161153941805521,-0.5315127685546874,2.499546533203125,9.404424121093749,9.745431326739435
2.1636408853519025,-0.5363011718749999,2.499546533203125,9.414000927734374,9.754935432179236
2.1661278288982837,-0.5363011718749999,2.499546533203125,9.423577734375,9.764177852456935
2.1686147724446654,-0.5410895751953124,2.4947581298828125,9.437942944335937,9.777083566971386
2.171101715991047,-0.5410895751953124,2.4756045166015626,9.452308154296874,9.786088344930791
2.1735886595374283,-0.5363011718749999,2.47081611328125,9.4618849609375,9.79386635740043
2.17607560308381,-0.5315127685546874,2.4851813232421875,9.4618849609375,9.79723935843887
2.178562546630191,-0.5315127685546874,2.4851813232421875,9.447519750976562,9.783366571769696
2.181049490176573,-0.5315127685546874,2.480392919921875,9.433154541015625,9.768278223669663
2.1835364337229546,-0.5315127685546874,2.4851813232421875,9.423577734375,9.760248426568696
2.186023377269336,-0.5315127685546874,2.4756045166015626,9.442731347656249,9.77631315219417
2.1885103208157175,-0.5315127685546874,2.4756045166015626,9.4618849609375,9.79481447296323
2.1909972643620987,-0.5315127685546874,2.480392919921875,9.437942944335937,9.772902428699252
2.1934842079084804,-0.5410895751953124,2.4756045166015626,9.428366137695312,9.76296490198765
2.1959711514548617,-0.5410895751953124,2.4660277099609376,9.418789331054686,9.75129032782174
2.1984580950012433,-0.5267243652343749,2.47081611328125,9.404424121093749,9.737841848787223
2.200945038547625,-0.5363011718749999,2.4756045166015626,9.399635717773437,9.734957025915149
2.2034319820940063,-0.5363011718749999,2.47081611328125,9.409212524414063,9.742988840299224
2.205918925640388,-0.5267243652343749,2.47081611328125,9.418789331054686,9.751715914923455
2.208405869186769,-0.5363011718749999,2.4851813232421875,9.423577734375,9.76051035920533
2.210892812733151,-0.5363011718749999,2.480392919921875,9.433154541015625,9.768539940996135
2.2133797562795325,-0.5267243652343749,2.4756045166015626,9.442731347656249,9.776053988371771
2.2158666998259138,-0.5315127685546874,2.4851813232421875,9.437942944335937,9.77411883767887
2.2183536433722955,-0.5315127685546874,2.4899697265625,9.423577734375,9.76146876131572
2.2208405869186767,-0.5363011718749999,2.499546533203125,9.414000927734374,9.754935432179236
2.2233275304650584,-0.5363011718749999,2.5043349365234375,9.418789331054686,9.760784030191218
2.2258144740114396,-0.5315127685546874,2.499546533203125,9.433154541015625,9.773159329994991
2.2283014175578213,-0.5219359619140624,2.5043349365234375,9.442731347656249,9.78311228222599
2.230788361104203,-0.5219359619140624,2.5139117431640625,9.447519750976562,9.790188907567085
2.233275304650584,-0.5219359619140624,2.50912333984375,9.447519750976562,9.78896044163935
2.235762248196966,-0.507570751953125,2.518700146484375,9.442731347656249,9.786043827826884
2.238249191743347,-0.51714755859375,2.518700146484375,9.442731347656249,9.786545219293163
2.240736135289729,-0.5267243652343749,2.5234885498046875,9.433154541015625,9.779050956642502
2.2432230788361105,-0.5267243652343749,2.5378537597656248,9.437942944335937,9.78738510959023
2.2457100223824917,-0.5363011718749999,2.5330653564453125,9.447519750976562,9.795900596273432
2.2481969659288734,-0.5363011718749999,2.5234885498046875,9.437942944335937,9.78419033075759
2.2506839094752547,-0.5219359619140624,2.518700146484375,9.433154541015625,9.777559622468342
2.2531708530216363,-0.5267243652343749,2.5139117431640625,9.428366137695312,9.771963919079385
2.2556577965680176,-0.5363011718749999,2.5139117431640625,9.418789331054686,9.763245549619361
2.2581447401143993,-0.5267243652343749,2.5234885498046875,9.423577734375,9.769813218978916
2.260631683660781,-0.5267243652343749,2.5234885498046875,9.433154541015625,9.779050956642502
2.263118627207162,-0.5363011718749999,2.5139117431640625,9.423577734375,9.76786509505434
2.265605570753544,-0.5315127685546874,2.518700146484375,9.418789331054686,9.764217772757153
2.268092514299925,-0.5267243652343749,2.5234885498046875,9.409212524414063,9.75595783854755
2.2705794578463068,-0.5363011718749999,2.5234885498046875,9.423577734375,9.770334217607815
2.2730664013926885,-0.5458779785156249,2.5234885498046875,9.428366137695312,9.775482865560313
2.2755533449390697,-0.5410895751953124,2.5330653564453125,9.414000927734374,9.763842045823566
2.2780402884854514,-0.5315127685546874,2.5330653564453125,9.409212524414063,9.75869900410657
2.2805272320318326,-0.5219359619140624,2.518700146484375,9.409212524414063,9.754462973727975
2.2830141755782143,-0.51714755859375,2.518700146484375,9.418789331054686,9.763446342764908
2.2855011191245955,-0.5123591552734374,2.518700146484375,9.414000927734374,9.7585744757765
2.287988062670977,-0.51714755859375,2.518700146484375,9.409212524414063,9.754207930675372
2.290475006217359,-0.5219359619140624,2.5234885498046875,9.428366137695312,9.774175138382478
2.29296194976374,-0.5267243652343749,2.5234885498046875,9.433154541015625,9.779050956642502
2.295448893310122,-0.5315127685546874,2.518700146484375,9.437942944335937,9.782695092436315
2.297935836856503,-0.5315127685546874,2.5139117431640625,9.452308154296874,9.79532477865548
2.3004227804028847,-0.5267243652343749,2.499546533203125,9.447519750976562,9.786766619965531
2.3029097239492664,-0.5267243652343749,2.499546533203125,9.433154541015625,9.772900082537578
2.3053966674956476,-0.5219359619140624,2.499546533203125,9.437942944335937,9.77726531503198
2.3078836110420293,-0.51714755859375,2.50912333984375,9.437942944335937,9.779463612716631
2.3103705545884106,-0.5267243652343749,2.5139117431640625,9.433154541015625,9.776584035542959
2.3128574981347922,-0.5267243652343749,2.5043349365234375,9.428366137695312,9.769504596327442
2.315344441681174,-0.5219359619140624,2.499546533203125,9.447519750976562,9.786510075868678
2.317831385227555,-0.5267243652343749,2.5043349365234375,9.452308154296874,9.792612597004467
2.320318328773937,-0.5219359619140624,2.5043349365234375,9.457096557617186,9.79697840779114
2.322805272320318,-0.5410895751953124,2.499546533203125,9.466673364257812,9.80603974015918
2.3252922158666998,-0.5363011718749999,2.5043349365234375,9.4618849609375,9.802376213717855
2.327779159413081,-0.5267243652343749,2.518700146484375,9.457096557617186,9.800916502293385
2.3302661029594627,-0.5315127685546874,2.50912333984375,9.442731347656249,9.784854677597176
2.3327530465058444,-0.5315127685546874,2.5139117431640625,9.433154541015625,9.776843185314908
2.3352399900522256,-0.5410895751953124,2.528276953125,9.418789331054686,9.76721837284688
2.3377269335986073,-0.5458779785156249,2.5234885498046875,9.390058911132812,9.738541142438553
2.3402138771449885,-2.3415292236328122,4.0988732421875,-8.10197841796875,9.376863827841298
2.34270082069137,-2.7533319091796873,4.012681982421875,-7.024587670898437,8.545600344054158
2.345187764237752,-2.9640216552734375,3.81156904296875,-4.472368701171875,6.581456126228405
2.347674707784133,-2.9496564453125,3.5146880371093747,-0.7852981445312499,4.6551260261541305
2.350161651330515,-2.7341782958984373,3.1459809814453124,3.6296097167968746,5.5269335065336165
2.352648594876896,-2.365471240234375,2.729389892578125,8.360552197265624,9.10735177849668
2.3551355384232777,-1.867477294921875,2.3127988037109373,12.938265771484375,13.275361800232023
2.357622481969659,-1.2976572998046874,1.9393033447265624,16.931794140624998,17.09182450036002
2.3601094255160406,-0.699106884765625,1.62805712890625,20.01552587890625,20.093794979059457
2.3625963690624223,-0.12449848632812499,1.39821376953125,21.935675610351563,21.980545172970057
2.3650833126088036,0.36391865234375,1.2832920898437499,22.596475268554688,22.63581166947152
2.3675702561551852,0.7517793212890624,1.2689268798828124,21.988348046875,22.037758447830367
2.3700571997015665,1.005564697265625,1.35990654296875,20.235792431640625,20.306348797911458
2.372544143247948,1.1109095703125,1.5418658691406248,17.58780539550781,17.690177191370537
2.37503108679433,1.0678139404296874,1.7908628417968748,14.331691137695312,14.482568390855233
2.377518030340711,0.9002198242187499,2.0829554443359375,10.793061083984375,11.02901929808916
2.3800049738870928,0.622492431640625,2.408566870117187,7.316680273437499,7.72803347682872
2.382491917433474,0.26336218261718747,2.729389892578125,4.228160131835938,5.039470897364863
2.3849788609798557,-0.13407529296874998,3.0119056884765625,1.7956512451171873,3.509118900030752
2.387465804526237,-0.5267243652343749,3.23696064453125,0.19632453613281248,3.2854065341542564
2.3899527480726186,-0.9002198242187499,3.39018955078125,-0.45010991210937495,3.5364360386018463
2.3924396916190003,-1.2210428466796874,3.4620156005859375,-0.1292868896484375,3.673310870585692
2.3949266351653815,-1.455674609375,3.4668040039062498,1.0534487304687499,3.904801249437119
2.397413578711763,-1.6041151123046875,3.380612744140625,2.9448680419921875,4.761719815793153
2.3999005222581444,-1.656787548828125,3.21780703125,5.348646508789062,6.458114782836804
2.402387465804526,-1.6041151123046875,3.0166940917968748,7.991845141601562,8.691560119124007
2.404874409350908,-1.465251416015625,2.786850732421875,10.615890161132812,11.07296810390839
2.407361352897289,-1.254561669921875,2.5378537597656248,13.005303417968749,13.309866403650464
2.4098482964436707,-1.0103531005859374,2.2936451904296873,14.92545314941406,15.134423456570751
2.412335239990052,-0.74699091796875,2.0829554443359375,16.223110449218748,16.37333232613835
2.4148221835364336,-0.469263525390625,1.9297265380859374,16.82166086425781,16.93848656167835
2.417309127082815,-0.2154781494140625,1.8195932617187498,16.701950781249998,16.802157908145745
2.4197960706291965,-0.01915361328125,1.7717092285156248,15.921441040039062,16.019725504600547
2.4222830141755782,0.12449848632812499,1.7956512451171873,14.571111303710937,14.681864591812634
2.4247699577219595,0.21068974609375,1.8818425048828125,12.81376728515625,12.95292837239646
2.427256901268341,0.2346317626953125,2.0063409912109376,10.8409451171875,11.027535865774833
2.4297438448147224,0.1867477294921875,2.1643583007812497,8.8489693359375,9.111727601118975
2.432230788361104,0.0909796630859375,2.346317626953125,7.015010864257812,7.397557781545292
2.4347177319074857,-0.062249243164062495,2.5378537597656248,5.506663818359375,6.063655917238318
2.437204675453867,-0.2442085693359375,2.7150246826171873,4.44363828125,5.213148571367223
2.4396916190002487,-0.430956298828125,2.858676782226562,3.912125512695312,4.864409759037823
2.44217856254663,-0.612915625,2.96881005859375,3.9169139160156248,4.952949964703199
2.4446655060930116,-0.7757213378906249,3.0358477050781247,4.429273071289062,5.425548343027954
2.4471524496393933,-0.9002198242187499,3.0502129150390624,5.367800122070312,6.239188465616789
2.4496393931857745,-1.005564697265625,3.0023288818359375,6.636727001953124,7.353317915985059
2.452126336732156,-1.0534487304687499,2.935291235351562,8.078036401367187,8.659120103444186
2.4546132802785374,-1.0438719238281249,2.834734765625,9.567229833984374,10.032809999251473
2.457100223824919,-1.005564697265625,2.6910826660156246,10.984597216796875,11.35405047949754
2.4595871673713003,-0.928950244140625,2.5474305664062498,12.172121240234373,12.470480605562665
2.462074110917682,-0.8188169677734375,2.408566870117187,13.038822241210937,13.284673162424312
2.4645610544640637,-0.699106884765625,2.269703173828125,13.5224509765625,13.729420357289241
2.467047998010445,-0.5698199951171875,2.1643583007812497,13.584700219726562,13.767832862903113
2.4695349415568266,-0.44053310546874996,2.0877438476562498,13.263877197265625,13.434402930334622
2.472021885103208,-0.33039982910156246,2.0350714111328125,12.617442749023438,12.78477771493758
2.4745088286495895,-0.2537853759765625,2.039859814453125,11.707646118164062,11.886732633816676
2.4769957721959712,-0.2059013427734375,2.0733786376953125,10.615890161132812,10.818429564934258
2.4794827157423525,-0.181959326171875,2.1260510742187497,9.481038574218749,9.718194009814349
2.481969659288734,-0.181959326171875,2.221819140625,8.427589843749999,8.717445730516863
2.4844566028351154,-0.21068974609375,2.3319524169921872,7.50821640625,7.864839848802162
2.486943546381497,-0.26815058593749996,2.4564509033203126,6.804321118164062,7.239118845291548
2.4894304899278783,-0.3399766357421875,2.5761609863281247,6.406883642578125,6.9137795416013095
2.49191743347426,-0.4213794921875,2.6862942626953124,6.296750366210937,6.858775598939181
2.4944043770206417,-0.51714755859375,2.77727392578125,6.488286499023437,7.07662022081118
2.496891320567023,-0.603338818359375,2.839523168945312,6.9527616210937495,7.53444116816043
2.4993782641134046,-0.6655880615234374,2.8730419921875,7.6231380859375,8.173714702250507
2.501865207659786,-0.7134720947265625,2.8730419921875,8.398859423828124,8.905293501061754
2.5043521512061675,-0.74699091796875,2.839523168945312,9.246406811523437,9.701387848276763
2.506839094752549,-0.7661445312499999,2.7916391357421872,10.089165795898436,10.496260903964735
2.5093260382989304,-0.7613561279296874,2.7198130859375,10.812214697265624,11.175018256617737
2.511812981845312,-0.7278373046875,2.6288334228515624,11.362881079101562,11.685699753331013
2.5142999253916933,-0.689530078125,2.5426421630859375,11.702857714843748,11.995722553978116
2.516786868938075,-0.6464344482421874,2.461239306640625,11.793837377929687,12.065246641386095
2.5192738124844563,-0.59376201171875,2.39420166015625,11.669338891601562,11.927205250313252
2.521760756030838,-0.5219359619140624,2.3319524169921872,11.367669482421874,11.616123651418336
2.5242476995772196,-0.469263525390625,2.2936451904296873,10.884040747070312,11.13298520163079
2.526734643123601,-0.430956298828125,2.2744915771484373,10.28549033203125,10.542786473998566
2.5292215866699825,-0.39264907226562495,2.2840683837890623,9.65342109375,9.927722824950003
2.5317085302163638,-0.373495458984375,2.31758720703125,9.050082275390624,9.34958279878928
2.5341954737627455,-0.373495458984375,2.3511060302734372,8.494627490234375,8.821898583712898
2.536682417309127,-0.38307226562499996,2.389413256835937,8.054094384765625,8.409784565097226
2.5391693608555084,-0.411802685546875,2.4516625,7.7763669921875,8.164074599298633
2.54165630440189,-0.44053310546874996,2.5234885498046875,7.656656909179687,8.073813157542002
2.5441432479482713,-0.47884033203125,2.5809493896484375,7.704540942382812,8.139443405317065
2.546630191494653,-0.51714755859375,2.6288334228515624,7.915230688476562,8.356379815103073
2.549117135041034,-0.55545478515625,2.6719290527343746,8.25520732421875,8.694606537793064
2.551604078587416,-0.584185205078125,2.6910826660156246,8.690952026367187,9.116789204197815
2.5540910221337976,-0.6177040283203125,2.6910826660156246,9.169792358398437,9.576459475091788
2.556577965680179,-0.6464344482421874,2.6862942626953124,9.634267480468749,10.022632600613553
2.5590649092265605,-0.6512228515624999,2.6719290527343746,10.046070166015625,10.415700737144496
2.5615518527729417,-0.6512228515624999,2.6336218261718747,10.386046801757812,10.73452482851429
2.5640387963193234,-0.6368576416015624,2.5857377929687497,10.615890161132812,10.9448047722602
2.566525739865705,-0.612915625,2.528276953125,10.721235034179687,11.03234927715734
2.5690126834120863,-0.59376201171875,2.4756045166015626,10.711658227539061,11.010031472833473
2.571499626958468,-0.5746083984375,2.418143676757812,10.577582934570312,10.865673213874592
2.5739865705048492,-0.5410895751953124,2.379836450195312,10.342951171874999,10.626995737359346
2.576473514051231,-0.51714755859375,2.346317626953125,10.041281762695311,10.32472699114838
2.5789604575976126,-0.49799394531249996,2.327164013671875,9.6917283203125,9.979643688571484
2.581447401143994,-0.47884033203125,2.3319524169921872,9.337386474609374,9.63608200021739
2.5839343446903755,-0.45968671875,2.3415292236328122,9.02135185546875,9.331605450547674
2.5864212882367568,-0.45010991210937495,2.370259643554687,8.75320126953125,9.079606939497248
2.5889082317831384,-0.45010991210937495,2.398990063476562,8.552088330078124,8.89359134788061
2.5913951753295197,-0.45489831542968745,2.442085693359375,8.451531860351562,8.809035463524303
2.5938821188759014,-0.45968671875,2.4899697265625,8.456320263671875,8.82726534779489
2.596369062422283,-0.47884033203125,2.5426421630859375,8.56166513671875,8.94407217918032
2.5988560059686643,-0.5123591552734374,2.5857377929687497,8.71489404296875,9.104830037850878
2.601342949515046,-0.5219359619140624,2.6144682128906247,8.911218579101561,9.30148793199666
2.603829893061427,-0.5267243652343749,2.6431986328124997,9.165003955078124,9.553074639404377
2.606316836607809,-0.5458779785156249,2.6575638427734374,9.437942944335937,9.8201525123791
2.6088037801541906,-0.565031591796875,2.6479870361328124,9.696516723632811,10.067449161279471
2.611290723700572,-0.5793968017578125,2.6336218261718747,9.9215716796875,10.2815003366412
2.6137776672469535,-0.5793968017578125,2.6192566162109374,10.09395419921875,10.444334217717174
2.6162646107933347,-0.5793968017578125,2.5809493896484375,10.175357055664062,10.513557514755233
2.6187515543397164,-0.5793968017578125,2.5522189697265625,10.184933862304687,10.515816663618663
2.6212384978860976,-0.5746083984375,2.518700146484375,10.127473022460936,10.451781429982612
2.6237254414324793,-0.565031591796875,2.4851813232421875,9.993397729492187,10.313262582177373
2.626212384978861,-0.5506663818359374,2.4564509033203126,9.821015209960937,10.13852673019071
2.6286993285252422,-0.5315127685546874,2.43250888671875,9.610325463867188,9.927636215562918
2.631186272071624,-0.5219359619140624,2.422932080078125,9.404424121093749,9.72554420392097
2.633673215618005,-0.5123591552734374,2.4133552734375,9.217676391601563,9.542135695959784
2.636160159164387,-0.507570751953125,2.403778466796875,9.050082275390624,9.377620603170834
2.6386471027107685,-0.51714755859375,2.408566870117187,8.930372192382812,9.263918364259789
2.6411340462571498,-0.5123591552734374,2.418143676757812,8.872911352539061,9.210780999212437
2.6436209898035314,-0.507570751953125,2.442085693359375,8.853757739257812,9.19839315899339
2.6461079333499127,-0.507570751953125,2.47081611328125,8.901641772460938,9.252123355160697
2.6485948768962944,-0.51714755859375,2.4851813232421875,8.997409838867187,9.348633676387973
2.6510818204426756,-0.5267243652343749,2.50912333984375,9.102754711914063,9.456917142322538
2.6535687639890573,-0.5315127685546874,2.528276953125,9.241618408203124,9.59594711207177
2.656055707535439,-0.5458779785156249,2.5426421630859375,9.394847314453125,9.748136642395702
2.65854265108182,-0.5458779785156249,2.5570073730468748,9.543287817382812,9.894979122699127
2.661029594628202,-0.5458779785156249,2.5617957763671875,9.677363110351562,10.02557415497159
2.663516538174583,-0.55545478515625,2.5570073730468748,9.792284790039062,10.135860009560087
2.666003481720965,-0.55545478515625,2.5426421630859375,9.868899243164062,10.206308414876531
2.6684904252673465,-0.55545478515625,2.5234885498046875,9.873687646484374,10.206185978105948
2.6709773688137277,-0.5506663818359374,2.4947581298828125,9.849745629882811,10.175683788527246
2.6734643123601094,-0.55545478515625,2.47081611328125,9.787496386718749,10.109824321126247
2.6759512559064906,-0.55545478515625,2.4564509033203126,9.682151513671874,10.004336009574784
2.6784381994528723,-0.5410895751953124,2.437297290039062,9.576806640625,9.896889483081837
2.6809251429992536,-0.5363011718749999,2.427720483398437,9.4618849609375,9.783082985771003
2.6834120865456352,-0.5410895751953124,2.427720483398437,9.351751684570312,9.676872647904437
2.685899030092017,-0.5363011718749999,2.422932080078125,9.251195214843749,9.5782478415822
2.688385973638398,-0.5315127685546874,2.422932080078125,9.184157568359375,9.513246340143892
2.69087291718478,-0.5219359619140624,2.4516625,9.145850341796875,9.48312420232865
2.693359860731161,-0.507570751953125,2.4756045166015626,9.117119921875,9.46087318701114
2.6958468042775428,-0.507570751953125,2.4851813232421875,9.112331518554686,9.458770532245467
2.6983337478239244,-0.507570751953125,2.5043349365234375,9.145850341796875,9.496099200043991
2.7008206913703057,-0.5123591552734374,2.518700146484375,9.193734375,9.546261786162663
2.7033076349166874,-0.5219359619140624,2.528276953125,9.260772021484375,9.613870184995738
2.7057945784630686,-0.5315127685546874,2.5522189697265625,9.356540087890625,9.712938273708584
2.7082815220094503,-0.5315127685546874,2.5809493896484375,9.466673364257812,9.826581814680608
2.7107684655558315,-0.5315127685546874,2.6001030029296874,9.562441430664062,9.92387663989538
2.713255409102213,-0.5458779785156249,2.6001030029296874,9.6151138671875,9.975416436031812
2.715742352648595,-0.5458779785156249,2.6001030029296874,9.65342109375,10.012345240078856
2.718229296194976,-0.5458779785156249,2.5953145996093747,9.696516723632811,10.052665179446924
2.720716239741358,-0.5458779785156249,2.5905261962890624,9.696516723632811,10.051430013325417
2.723203183287739,-0.5506663818359374,2.5809493896484375,9.65342109375,10.007650674822155
2.7256901268341207,-0.5506663818359374,2.5713725830078125,9.595960253906249,9.949755957774896
2.7281770703805024,-0.5506663818359374,2.5522189697265625,9.5384994140625,9.889389576995491
2.7306640139268836,-0.5458779785156249,2.5330653564453125,9.481038574218749,9.828758584545437
2.7331509574732653,-0.5458779785156249,2.5234885498046875,9.409212524414063,9.757010687603767
2.7356379010196465,-0.5458779785156249,2.50912333984375,9.34696328125,9.6932659760791
2.7381248445660282,-0.5363011718749999,2.499546533203125,9.294290844726563,9.639460261081544
2.74061178811241,-0.5363011718749999,2.4947581298828125,9.246406811523437,9.592052752031648
2.743098731658791,-0.5363011718749999,2.4947581298828125,9.246406811523437,9.592052752031648
2.745585675205173,-0.5267243652343749,2.4947581298828125,9.251195214843749,9.596138264254837
2.748072618751554,-0.5219359619140624,2.4947581298828125,9.255983618164063,9.60049311309982
2.7505595622979357,-0.5267243652343749,2.499546533203125,9.284714038085937,9.629698136370079
2.753046505844317,-0.5315127685546874,2.5043349365234375,9.332598071289063,9.677374956963115
2.7555334493906987,-0.5363011718749999,2.50912333984375,9.394847314453125,9.738915491130943
2.7580203929370803,-0.5267243652343749,2.5139117431640625,9.457096557617186,9.799687041403137
2.7605073364834616,-0.51714755859375,2.518700146484375,9.519345800781249,9.860488654225584
2.7629942800298433,-0.51714755859375,2.50912333984375,9.557653027343749,9.895042845940651
2.7654812235762245,-0.5219359619140624,2.499546533203125,9.576806640625,9.911376062480224
2.767968167122606,-0.5315127685546874,2.499546533203125,9.576806640625,9.911884993617688
2.770455110668988,-0.5410895751953124,2.4947581298828125,9.557653027343749,9.892690607013572
2.772942054215369,-0.5267243652343749,2.4899697265625,9.5384994140625,9.872201318257238
2.775428997761751,-0.5219359619140624,2.480392919921875,9.519345800781249,9.851025868425548
2.777915941308132,-0.5363011718749999,2.480392919921875,9.495403784179686,9.828665270969754
2.7804028848545137,-0.5315127685546874,2.47081611328125,9.466673364257812,9.798231609547473
2.782889828400895,-0.5267243652343749,2.4660277099609376,9.423577734375,9.755129345069443
2.7853767719472766,-0.5315127685546874,2.4660277099609376,9.3852705078125,9.718389835474133
2.7878637154936583,-0.5219359619140624,2.4660277099609376,9.327809667968749,9.662388059713065
2.7903506590400395,-0.5123591552734374,2.4564509033203126,9.279925634765624,9.61320356235089
2.792837602586421,-0.5267243652343749,2.446874096679687,9.255983618164063,9.588423444010756
2.7953245461328025,-0.5315127685546874,2.446874096679687,9.251195214843749,9.584065503286514
2.797811489679184,-0.5219359619140624,2.4564509033203126,9.284714038085937,9.618340967016735
2.800298433225566,-0.5267243652343749,2.4564509033203126,9.34696328125,9.67870405469609
2.802785376771947,-0.5315127685546874,2.4564509033203126,9.3852705078125,9.715964150220756
2.8052723203183287,-0.5315127685546874,2.4660277099609376,9.414000927734374,9.746138309957207
2.80775926386471,-0.5267243652343749,2.4851813232421875,9.452308154296874,9.78773182152589
2.8102462074110917,-0.5267243652343749,2.499546533203125,9.485826977539062,9.823751059365621
2.812733150957473,-0.5315127685546874,2.5043349365234375,9.519345800781249,9.857593203834297
2.8152200945038546,-0.5123591552734374,2.50912333984375,9.543287817382812,9.880918692305304
2.8177070380502363,-0.5123591552734374,2.5234885498046875,9.5384994140625,9.879953311481717
2.8201939815966175,-0.5219359619140624,2.5234885498046875,9.528922607421874,9.87120953417413
2.822680925142999,-0.51714755859375,2.5139117431640625,9.524134204101562,9.86389001294697
2.8251678686893804,-0.51714755859375,2.518700146484375,9.524134204101562,9.865111472406037
2.827654812235762,-0.5267243652343749,2.5234885498046875,9.504980590820312,9.848354636679051
2.8301417557821438,-0.5267243652343749,2.518700146484375,9.481038574218749,9.824020634681904
2.832628699328525,-0.5219359619140624,2.50912333984375,9.442731347656249,9.784339138996451
2.8351156428749067,-0.5219359619140624,2.5139117431640625,9.418789331054686,9.762466996796809
2.837602586421288,-0.5315127685546874,2.50912333984375,9.394847314453125,9.738652977674706
2.8400895299676696,-0.5363011718749999,2.499546533203125,9.366116894531249,9.708733053319879
2.842576473514051,-0.5315127685546874,2.4899697265625,9.356540087890625,9.696767372616439
2.8450634170604325,-0.5315127685546874,2.4851813232421875,9.34696328125,9.686297260231292
2.847550360606814,-0.5267243652343749,2.4851813232421875,9.351751684570312,9.690656548252393
2.8500373041531954,-0.5219359619140624,2.4756045166015626,9.361328491210937,9.697190623645328
2.852524247699577,-0.5123591552734374,2.4756045166015626,9.366116894531249,9.70130276347637
2.8550111912459584,-0.5027823486328125,2.4660277099609376,9.380482104492186,9.712235956209572
2.85749813479234,-0.5123591552734374,2.4660277099609376,9.399635717773437,9.731236108384683
2.8599850783387217,-0.51714755859375,2.4756045166015626,9.433154541015625,9.766292229636653
2.862472021885103,-0.5123591552734374,2.480392919921875,9.4618849609375,9.795005255496616
2.8649589654314846,-0.51714755859375,2.4899697265625,9.485826977539062,9.820809757060008
2.867445908977866,-0.5123591552734374,2.499546533203125,9.490615380859374,9.82761543219131
2.8699328525242476,-0.49799394531249996,2.499546533203125,9.437942944335937,9.776016461819005
2.8724197960706292,-0.507570751953125,2.499546533203125,9.433154541015625,9.771886488010885
2.8749067396170105,-0.5123591552734374,2.5139117431640625,9.437942944335937,9.780441256760923
2.877393683163392,-0.507570751953125,2.518700146484375,9.442731347656249,9.786043827826884
2.8798806267097734,-0.507570751953125,2.50912333984375,9.442731347656249,9.783583357175269
2.882367570256155,-0.5027823486328125,2.518700146484375,9.437942944335937,9.781176183800067
2.8848545138025363,-0.5123591552734374,2.5234885498046875,9.437942944335937,9.782907205198686
2.887341457348918,-0.5315127685546874,2.518700146484375,9.433154541015625,9.77807551851185
2.8898284008952997,-0.5267243652343749,2.518700146484375,9.418789331054686,9.763958287888245
2.892315344441681,-0.51714755859375,2.518700146484375,9.414000927734374,9.758827055166186
2.8948022879880626,-0.5219359619140624,2.518700146484375,9.428366137695312,9.772939967209416
2.897289231534444,-0.5315127685546874,2.518700146484375,9.428366137695312,9.773456107103398
2.8997761750808255,-0.5219359619140624,2.518700146484375,9.423577734375,9.768320474475017
2.902263118627207,-0.5267243652343749,2.5234885498046875,9.433154541015625,9.779050956642502
2.9047500621735884,-0.5410895751953124,2.5330653564453125,9.428366137695312,9.777693289055863
2.90723700571997,-0.5363011718749999,2.5378537597656248,9.423577734375,9.774054326057293
2.9097239492663514,-0.5410895751953124,2.5426421630859375,9.428366137695312,9.78017868570544
2.912210892812733,-0.5410895751953124,2.5474305664062498,9.428366137695312,9.781424663385469
2.9146978363591143,-0.5410895751953124,2.5570073730468748,9.428366137695312,9.783923173279762
2.917184779905496,-0.5458779785156249,2.5570073730468748,9.437942944335937,9.7934180189444
2.9196717234518776,-0.5410895751953124,2.5665841796874997,9.437942944335937,9.795657165312988
2.922158666998259,-0.5410895751953124,2.5713725830078125,9.433154541015625,9.79230000989109
2.9246456105446406,-0.5506663818359374,2.5570073730468748,9.442731347656249,9.798300642147614
2.927132554091022,-0.55545478515625,2.5522189697265625,9.437942944335937,9.792707424830253
2.9296194976374035,-0.55545478515625,2.5522189697265625,9.433154541015625,9.788092576312751
2.932106441183785,-0.5458779785156249,2.5522189697265625,9.418789331054686,9.773709474894883
2.9345933847301664,-0.5506663818359374,2.5474305664062498,9.414000927734374,9.76811391324491
2.937080328276548,-0.55545478515625,2.5474305664062498,9.423577734375,9.777614730844231
2.9395672718229293,-0.5506663818359374,2.5330653564453125,9.423577734375,9.773610943756456
2.942054215369311,-0.5602431884765625,2.528276953125,9.428366137695312,9.777532654426526
2.9445411589156922,-0.5698199951171875,2.528276953125,9.418789331054686,9.768852114825362
2.947028102462074,-0.5602431884765625,2.5234885498046875,9.414000927734374,9.762442335738195
2.9495150460084556,-0.55545478515625,2.50912333984375,9.418789331054686,9.763084677277526
2.952001989554837,-0.5506663818359374,2.4947581298828125,9.418789331054686,9.759131316540948
2.9544889331012185,-0.5458779785156249,2.4899697265625,9.399635717773437,9.739152100335438
2.9569758766475998,-0.5410895751953124,2.4899697265625,9.399635717773437,9.7388848845453
2.9594628201939814,-0.5458779785156249,2.480392919921875,9.423577734375,9.75982321153591
2.961949763740363,-0.5458779785156249,2.4756045166015626,9.414000927734374,9.749359669097762
2.9644367072867444,-0.5315127685546874,2.4660277099609376,9.404424121093749,9.736888185598199
2.966923650833126,-0.5363011718749999,2.4660277099609376,9.414000927734374,9.746400621800507
2.9694105943795073,-0.5458779785156249,2.47081611328125,9.418789331054686,9.7527692219117
2.971897537925889,-0.5363011718749999,2.4660277099609376,9.404424121093749,9.737150746633207
2.97438448147227,-0.5363011718749999,2.4660277099609376,9.404424121093749,9.737150746633207
2.976871425018652,-0.5315127685546874,2.4660277099609376,9.409212524414063,9.74151316885741
2.9793583685650336,-0.5123591552734374,2.47081611328125,9.399635717773437,9.732450657284883
2.981845312111415,-0.51714755859375,2.4756045166015626,9.404424121093749,9.738544674097227
2.9843322556577965,-0.5219359619140624,2.4756045166015626,9.423577734375,9.757297381281637
2.9868191992041777,-0.507570751953125,2.47081611328125,9.437942944335937,9.769203005078204
2.9893061427505594,-0.507570751953125,2.4660277099609376,9.4618849609375,9.791128012060136
2.991793086296941,-0.507570751953125,2.4756045166015626,9.481038574218749,9.812050664192485
2.9942800298433223,-0.5027823486328125,2.4851813232421875,9.481038574218749,9.814224816322092
2.996766973389704,-0.507570751953125,2.4899697265625,9.466673364257812,9.80181013348985
2.9992539169360852,-0.51714755859375,2.4947581298828125,9.466673364257812,9.803528156206019
3.001740860482467,-0.51714755859375,2.5043349365234375,9.4618849609375,9.801346952621694
3.0042278040288486,-0.5123591552734374,2.499546533203125,9.457096557617186,9.795249873062714
3.00671474757523,-0.51714755859375,2.499546533203125,9.471461767578125,9.809371156384152
3.0092016911216115,-0.5267243652343749,2.50912333984375,9.4618849609375,9.803081429096437
3.0116886346679927,-0.5267243652343749,2.50912333984375,9.457096557617186,9.798459766288529
3.0141755782143744,-0.5315127685546874,2.50912333984375,9.457096557617186,9.798718337506195
3.0166625217607557,-0.5363011718749999,2.5043349365234375,9.442731347656249,9.783889192200428
3.0191494653071373,-0.5363011718749999,2.50912333984375,9.433154541015625,9.775874563239181
3.021636408853519,-0.5458779785156249,2.5043349365234375,9.423577734375,9.765935365213535
3.0241233523999003,-0.5506663818359374,2.499546533203125,9.418789331054686,9.76035648931542
3.026610295946282,-0.5458779785156249,2.50912333984375,9.418789331054686,9.762544502575471
3.029097239492663,-0.5458779785156249,2.5139117431640625,9.409212524414063,9.754538192525413
3.031584183039045,-0.55545478515625,2.518700146484375,9.404424121093749,9.751695929204484
3.0340711265854265,-0.5506663818359374,2.50912333984375,9.399635717773437,9.74433604846811
3.036558070131808,-0.5458779785156249,2.50912333984375,9.399635717773437,9.744066621735461
3.0390450136781895,-0.55545478515625,2.518700146484375,9.404424121093749,9.751695929204484
3.0415319572245707,-0.55545478515625,2.5139117431640625,9.414000927734374,9.759697522882295
3.0440189007709524,-0.5506663818359374,2.5043349365234375,9.418789331054686,9.761583857200927
3.0465058443173336,-0.55545478515625,2.50912333984375,9.423577734375,9.767704298795593
3.0489927878637153,-0.5602431884765625,2.50912333984375,9.433154541015625,9.777217240067174
3.051479731410097,-0.565031591796875,2.499546533203125,9.437942944335937,9.77966055606823
3.0539666749564782,-0.5602431884765625,2.4947581298828125,9.437942944335937,9.778162280172653
3.05645361850286,-0.5602431884765625,2.4947581298828125,9.423577734375,9.764297612867965
3.058940562049241,-0.565031591796875,2.4947581298828125,9.414000927734374,9.755331480463827
3.061427505595623,-0.55545478515625,2.4947581298828125,9.404424121093749,9.745539553784557
3.0639144491420045,-0.5506663818359374,2.4899697265625,9.394847314453125,9.734800396781083
3.0664013926883857,-0.5506663818359374,2.4899697265625,9.375693701171874,9.716316950443515
3.0688883362347674,-0.5458779785156249,2.4851813232421875,9.375693701171874,9.714820706272146
3.0713752797811487,-0.5506663818359374,2.4851813232421875,9.380482104492186,9.719712145232194
3.0738622233275303,-0.5506663818359374,2.4851813232421875,9.3852705078125,9.72433350817891
3.0763491668739116,-0.5363011718749999,2.4851813232421875,9.404424121093749,9.742019205778451
3.0788361104202933,-0.5363011718749999,2.4851813232421875,9.423577734375,9.76051035920533
3.081323053966675,-0.5363011718749999,2.4899697265625,9.433154541015625,9.770976040336807
3.083809997513056,-0.5267243652343749,2.499546533203125,9.452308154296874,9.791389118626963
3.086296941059438,-0.51714755859375,2.499546533203125,9.466673364257812,9.804747781282064
3.088783884605819,-0.5123591552734374,2.5043349365234375,9.490615380859374,9.82883440117336
3.091270828152201,-0.507570751953125,2.5139117431640625,9.490615380859374,9.831030496751648
3.0937577716985825,-0.507570751953125,2.5234885498046875,9.471461767578125,9.814999263572451
3.0962447152449637,-0.507570751953125,2.5378537597656248,9.457096557617186,9.8048459995193
3.0987316587913454,-0.5027823486328125,2.5378537597656248,9.452308154296874,9.79998067548301
3.1012186023377266,-0.49799394531249996,2.5522189697265625,9.442731347656249,9.794232738862704
3.1037055458841083,-0.49799394531249996,2.5665841796874997,9.437942944335937,9.793371193901034
3.1061924894304895,-0.5027823486328125,2.5665841796874997,9.433154541015625,9.78900143202577
3.108679432976871,-0.5027823486328125,2.5570073730468748,9.428366137695312,9.781879411562606
3.111166376523253,-0.49799394531249996,2.5617957763671875,9.418789331054686,9.773657863470065
3.113653320069634,-0.49799394531249996,2.5665841796874997,9.414000927734374,9.770300189266127
3.116140263616016,-0.507570751953125,2.5570073730468748,9.414000927734374,9.768281744577088
3.118627207162397,-0.5267243652343749,2.5474305664062498,9.423577734375,9.776024670764732
3.1211141507087787,-0.5267243652343749,2.5522189697265625,9.423577734375,9.777273522929178
3.1236010942551604,-0.507570751953125,2.5474305664062498,9.433154541015625,9.784244230066154
3.1260880378015417,-0.507570751953125,2.5426421630859375,9.437942944335937,9.78761586180624
3.1285749813479233,-0.51714755859375,2.5378537597656248,9.442731347656249,9.79149215427996
3.1310619248943046,-0.5219359619140624,2.5330653564453125,9.437942944335937,9.785888016368421
3.1335488684406863,-0.5219359619140624,2.5378537597656248,9.433154541015625,9.782511101398219
3.136035811987068,-0.51714755859375,2.5426421630859375,9.437942944335937,9.788117172745855
3.138522755533449,-0.5123591552734374,2.5378537597656248,9.428366137695312,9.7773872602239
3.141009699079831,-0.51714755859375,2.5426421630859375,9.418789331054686,9.769650107841702
3.143496642626212,-0.5219359619140624,2.5330653564453125,9.423577734375,9.772034310427427
3.1459835861725938,-0.5315127685546874,2.5234885498046875,9.428366137695312,9.774691213054847
3.148470529718975,-0.5267243652343749,2.5234885498046875,9.423577734375,9.769813218978916
3.1509574732653567,-0.5219359619140624,2.5139117431640625,9.423577734375,9.76708691046443
3.1534444168117384,-0.5363011718749999,2.4947581298828125,9.423577734375,9.762953159233078
3.1559313603581196,-0.5363011718749999,2.4851813232421875,9.414000927734374,9.751264462813525
3.1584183039045013,-0.5363011718749999,2.4756045166015626,9.418789331054686,9.753452164867685
3.1609052474508825,-0.5363011718749999,2.4660277099609376,9.418789331054686,9.751025796091366
3.163392190997264,-0.5315127685546874,2.4660277099609376,9.428366137695312,9.760014678056148
3.165879134543646,-0.5363011718749999,2.4660277099609376,9.428366137695312,9.760276616965797
3.168366078090027,-0.5315127685546874,2.4564509033203126,9.433154541015625,9.76222625522701
3.170853021636409,-0.5315127685546874,2.4516625,9.437942944335937,9.765650099076016
3.17333996518279,-0.5410895751953124,2.4660277099609376,9.433154541015625,9.765166418928247
3.1758269087291717,-0.5363011718749999,2.47081611328125,9.423577734375,9.756862637570185
3.178313852275553,-0.5267243652343749,2.4660277099609376,9.414000927734374,9.74587834372102
3.1808007958219346,-0.5267243652343749,2.4660277099609376,9.423577734375,9.755129345069443
3.1832877393683163,-0.5267243652343749,2.4564509033203126,9.423577734375,9.752712797635487
3.1857746829146976,-0.5315127685546874,2.4660277099609376,9.418789331054686,9.750763608672987
3.1882616264610792,-0.5267243652343749,2.4756045166015626,9.423577734375,9.757554693434102
3.1907485700074605,-0.5315127685546874,2.480392919921875,9.433154541015625,9.768278223669663
3.193235513553842,-0.5363011718749999,2.4851813232421875,9.423577734375,9.76051035920533
3.195722457100224,-0.5315127685546874,2.4947581298828125,9.409212524414063,9.748825789773019
3.198209400646605,-0.5219359619140624,2.4947581298828125,9.418789331054686,9.75755234358213
3.2006963441929868,-0.5219359619140624,2.499546533203125,9.423577734375,9.76339937397806
3.203183287739368,-0.5219359619140624,2.499546533203125,9.418789331054686,9.7587777145899
3.2056702312857497,-0.5267243652343749,2.499546533203125,9.423577734375,9.763656525318144
3.208157174832131,-0.5315127685546874,2.50912333984375,9.442731347656249,9.784854677597176
3.2106441183785126,-0.5315127685546874,2.5139117431640625,9.447519750976562,9.790704138142829
3.2131310619248943,-0.5315127685546874,2.518700146484375,9.437942944335937,9.782695092436315
3.2156180054712755,-0.5315127685546874,2.5234885498046875,9.437942944335937,9.783929032074616
3.218104949017657,-0.5315127685546874,2.5330653564453125,9.447519750976562,9.795639609961789
