Time (s),Acceleration x (m/s^2),Acceleration y (m/s^2),Acceleration z (m/s^2),Absolute acceleration (m/s^2)
0.0,-2.3367408203125,4.007893579101562,-7.115567333984375,8.494402102984282
0.002486943546381497,-2.1930887207031247,3.5673604736328124,-7.9295958984374995,8.967395942983103
0.004973887092762994,-1.9823989746093749,3.0262708984374997,-7.235277416992187,8.089342405047468
0.007460830639144491,-1.637633935546875,2.4660277099609376,-5.334281298828125,6.100630668068458
0.009947774185525988,-1.2114660400390624,1.9871873779296874,-2.346317626953125,3.304810137923499
0.012434717731907486,-0.7517793212890624,1.5610194824218748,1.4317325927734375,2.2476236761585002
0.014921661278288981,-0.3064578125,1.2401964599609374,5.674257934570313,5.816288056671203
0.01740860482467048,0.08140285644531249,0.9959878906249999,10.026916552734374,10.0765903885594
0.019895548371051976,0.44053310546874996,0.9002198242187499,14.130578198242187,14.166075863328128
0.022382491917433474,0.6943184814453125,0.9624690673828125,17.616535815429685,17.656465076443304
0.02486943546381497,0.8044517578125,1.0821791503906248,20.32198369140625,20.366670702350184
0.027356379010196465,0.814028564453125,1.3646949462890625,21.997924853515624,22.05524274772538
0.029843322556577963,0.7326257080078125,1.695094775390625,22.639570898437498,22.71475857655037
0.032330266102959464,0.5602431884765625,2.1404162841796874,22.146365356445312,22.25661144022102
0.03481720964934096,0.32082302246093747,2.5426421630859375,20.757728393554686,20.91533515490081
0.03730415319572245,-0.028730419921875,2.91134921875,18.435352783203125,18.663842368379036
0.03979109674210395,-0.37828386230468747,3.1938650146484373,15.543157177734374,15.872416560310878
0.04227804028848545,-0.6847416748046875,3.5194764404296874,12.334926953124999,12.845466457660597
0.04476498383486695,-0.9720458740234375,3.7110125732421873,9.02135185546875,9.803125868830667
0.04725192738124844,-1.2401964599609374,3.778050219726562,5.928043310546875,7.1381684074974805
0.04973887092762994,-1.4700398193359374,3.744531396484375,3.246537451171875,5.169384670495322
0.05222581447401144,-1.5035586425781249,3.6200329101562496,1.2018892333984375,4.099983486752694
0.05471275802039293,-1.5227122558593749,3.447650390625,-0.08140285644531249,3.769823902406917
0.05719970156677443,-1.4939818359375,3.1842882080078123,-0.55545478515625,3.5609272859919177
0.059686645113155926,-1.3024457031249999,2.906560815429687,-0.143652099609375,3.1882748484254373
0.062173588659537427,-1.1252747802734375,2.5378537597656248,0.948103857421875,2.933572218564627
0.06466053220591893,-0.8906430175781249,2.27927998046875,2.7581203125,3.6872198025546825
0.06714747575230041,-0.5985504150390625,1.9823989746093749,4.984727856445312,5.397747687387547
0.06963441929868192,-0.3591302490234375,1.7477672119140624,7.503428002929687,7.712658203107077
0.07212136284506342,-0.1149216796875,1.608903515625,9.988609326171874,10.1180083902881
0.0746083063914449,0.023942016601562498,1.5131354492187499,12.421118212890624,12.512966465488692
0.0770952499378264,0.21068974609375,1.608903515625,14.494496850585938,14.585040268828372
0.0795821934842079,0.28730419921875,1.6328455322265625,15.99326708984375,16.078971373880858
0.0820691370305894,0.258573779296875,1.838746875,16.9701013671875,17.071385148320015
0.0845560805769709,0.22026655273437498,2.0446482177734375,17.28134758300781,17.403277793950988
0.0870430241233524,0.08140285644531249,2.269703173828125,16.97488977050781,17.126151396131405
0.0895299676697339,-0.0143652099609375,2.528276953125,16.0507279296875,16.248638644016015
0.09201691121611538,-0.2825157958984375,2.7533319091796873,14.657302563476561,14.916339035243727
0.09450385476249688,-0.44532150878906246,2.978386865234375,12.847286108398437,13.195524238022461
0.09699079830887838,-0.622492431640625,3.1411925781249996,10.888829150390624,11.349942198386477
0.09947774185525989,-0.852335791015625,3.2609026611328122,8.86812294921875,9.487020981767118
0.10196468540164137,-0.9864110839843749,3.31357509765625,7.029376074218749,7.833576114854177
0.10445162894802287,-1.0821791503906248,3.323151904296875,5.396530541992187,6.42938505482652
0.10693857249440437,-1.1061211669921875,3.246537451171875,4.242525341796875,5.455504626862525
0.10942551604078586,-1.149216796875,3.1316157714843746,3.4907460205078125,4.82835627994874
0.11191245958716736,-1.0821791503906248,2.96881005859375,3.308786694335937,4.575261114533479
0.11439940313354886,-1.01514150390625,2.748543505859375,3.6296097167968746,4.664661871220794
0.11688634667993036,-0.8714894042968749,2.5665841796874997,4.434061474609375,5.19689804535734
0.11937329022631185,-0.6943184814453125,2.408566870117187,5.578489868164062,6.115784637371702
0.12186023377269335,-0.5219359619140624,2.1883003173828124,7.048529687499999,7.398840867525515
0.12434717731907485,-0.36391865234375,2.039859814453125,8.652644799804687,8.897287613634367
0.12683412086545634,-0.2154781494140625,1.9584569580078124,10.232817895507813,10.420774758714874
0.12932106441183785,-0.12449848632812499,1.89620771484375,11.77947216796875,11.931767183736085
0.13180800795821934,-0.0718260498046875,1.9297265380859374,13.014880224609374,13.157359566195332
0.13429495150460083,-0.028730419921875,1.9919757812499999,13.929465258789062,14.07120447388662
0.13678189505098234,-0.009576806640625,2.059013427734375,14.437036010742187,14.583128497900667
0.13926883859736383,-0.086191259765625,2.1883003173828124,14.484920043945312,14.649539101685294
0.14175578214374532,-0.1388636962890625,2.346317626953125,14.202404248046873,14.395581820740622
0.14424272569012683,-0.258573779296875,2.5522189697265625,13.517662573242188,13.758920143412585
0.14672966923650832,-0.38307226562499996,2.6958710693359373,12.516886279296875,12.809641185920233
0.1492166127828898,-0.5315127685546874,2.834734765625,11.286266625976562,11.648950225973673
0.15170355632927132,-0.6943184814453125,2.935291235351562,9.964667309570311,10.411177041066368
0.1541904998756528,-0.7757213378906249,3.0071172851562498,8.628702783203124,9.170551220161286
0.15667744342203432,-0.8475473876953125,3.0645781249999997,7.4028715332031245,8.056828321102966
0.1591643869684158,-0.928950244140625,3.0502129150390624,6.392518432617187,7.14360128328216
0.1616513305147973,-0.9624690673828125,3.0310593017578125,5.717353564453124,6.542308382933821
0.1641382740611788,-0.9002198242187499,2.978386865234375,5.305550878906249,6.150614130278371
0.1666252176075603,-0.8571241943359375,2.8107927490234372,5.305550878906249,6.0649886967035345
0.1691121611539418,-0.7948749511718749,2.6767174560546874,5.626373901367187,6.281140486053006
0.1715991047003233,-0.70868369140625,2.5378537597656248,6.282385156249999,6.812583763293633
0.1740860482467048,-0.603338818359375,2.43250888671875,7.144297753906249,7.571136480752071
0.17657299179308628,-0.469263525390625,2.2840683837890623,8.2360537109375,8.559775544226271
0.1790599353394678,-0.373495458984375,2.1883003173828124,9.337386474609374,9.597653010666605
0.18154687888584928,-0.26336218261718747,2.0925322509765625,10.520122094726561,10.729446385930817
0.18403382243223076,-0.2154781494140625,2.0733786376953125,11.49216796875,11.679694106871533
0.18652076597861228,-0.143652099609375,2.0781670410156248,12.325350146484375,12.500146815518939
0.18900770952499377,-0.16280571289062498,2.1164742675781247,12.895170141601561,13.068717687911183
0.19149465307137528,-0.17238251953125,2.221819140625,13.158532324218749,13.345904576093643
0.19398159661775677,-0.24899697265624998,2.27927998046875,13.125013500976562,13.3237793483146
0.19646854016413826,-0.316034619140625,2.375048046875,12.7563064453125,12.979371526856813
0.19895548371051977,-0.38307226562499996,2.528276953125,12.191274853515624,12.456569000585855
0.20144242725690126,-0.47884033203125,2.6623522460937497,11.362881079101562,11.680431240483568
0.20392937080328274,-0.603338818359375,2.729389892578125,10.386046801757812,10.755628995263391
0.20641631434966426,-0.6655880615234374,2.844311572265625,9.3852705078125,9.829365101194572
0.20890325789604575,-0.7565677246093749,2.920926025390625,8.418013037109375,8.942435186271595
0.21139020144242723,-0.7709329345703124,2.96881005859375,7.599196069335937,8.194873498341716
0.21387714498880875,-0.833182177734375,2.959233251953125,6.828263134765624,7.488419821187814
0.21636408853519024,-0.842758984375,2.877830395507812,6.387730029296875,7.056574623585758
0.21885103208157172,-0.8283937744140625,2.849099975585937,6.196193896484375,6.8699654816601505
0.22133797562795324,-0.7565677246093749,2.7820623291015623,6.263231542968749,6.894949955276348
0.22382491917433472,-0.6751648681640625,2.6767174560546874,6.593631372070312,7.148191282380508
0.22631186272071624,-0.5985504150390625,2.5713725830078125,7.1778165771484375,7.647958575670675
0.22879880626709773,-0.507570751953125,2.446874096679687,7.982268334960937,8.3642948707324
0.2312857498134792,-0.4165910888671875,2.398990063476562,8.86812294921875,9.196320247927597
0.23377269335986073,-0.354341845703125,2.2457611572265623,9.739612353515625,10.00145240031057
0.23625963690624222,-0.3064578125,2.1835119140624997,10.596736547851561,10.823699281404126
0.2387465804526237,-0.24899697265624998,2.1499930908203124,11.396399902343749,11.600103470103518
0.24123352399900522,-0.17238251953125,2.1787235107421874,11.994950317382811,12.192431463239098
0.2437204675453867,-0.21068974609375,2.2026655273437497,12.411541406249999,12.607239415253275
0.2462074110917682,-0.22505495605468748,2.2601263671875,12.617442749023438,12.820245023157126
0.2486943546381497,-0.258573779296875,2.3415292236328122,12.46900224609375,12.689587720550945
0.2511812981845312,-0.3399766357421875,2.4756045166015626,12.119448803710936,12.374378414338196
0.2536682417309127,-0.45489831542968745,2.5234885498046875,11.549628808593749,11.830843273185339
0.2561551852772942,-0.5027823486328125,2.6719290527343746,10.864887133789061,11.19990032915105
0.2586421288236757,-0.59376201171875,2.748543505859375,9.969455712890625,10.358430959438286
0.26112907237005717,-0.6512228515624999,2.7964275390625,9.179369165039063,9.617947621592368
0.2636160159164387,-0.718260498046875,2.825157958984375,8.365340600585936,8.85868720522848
0.2661029594628202,-0.7900865478515624,2.8107927490234372,7.618349682617187,8.158679091476275
0.26858990300920166,-0.8188169677734375,2.877830395507812,7.058106494140625,7.66610959318039
0.2710768465555832,-0.7900865478515624,2.8107927490234372,6.698976245117187,7.307603941354724
0.2735637901019647,-0.7805097412109374,2.7820623291015623,6.636727001953124,7.238453671716417
0.27605073364834615,-0.718260498046875,2.7054478759765623,6.68461103515625,7.247024978845688
0.27853767719472766,-0.6655880615234374,2.6862942626953124,7.077260107421875,7.599131197810534
0.2810246207411092,-0.622492431640625,2.4851813232421875,7.575254052734374,7.996755404556914
0.28351156428749064,-0.43574470214843747,2.442085693359375,8.312668164062499,8.674912563535102
0.28599850783387215,-0.40222587890625,2.4133552734375,9.083601098632812,9.40733109083409
0.28848545138025367,-0.36391865234375,2.2936451904296873,9.90241806640625,10.171092793156193
0.2909723949266351,-0.28730419921875,2.2361843505859373,10.663774194335938,10.899502017086801
0.29345933847301664,-0.22026655273437498,2.269703173828125,11.367669482421874,11.594135556958292
0.29594628201939815,-0.22505495605468748,2.221819140625,11.851298217773437,12.059867307457916
0.2984332255657796,-0.2537853759765625,2.212242333984375,12.143390820312499,12.345864237718722
0.30092016911216113,-0.2825157958984375,2.2840683837890623,12.267889306640624,12.481902563180995
0.30340711265854264,-0.28730419921875,2.3511060302734372,12.109871997070313,12.339337221014123
0.30589405620492416,-0.3495534423828125,2.4564509033203126,11.870451831054687,12.126993251539906
0.3083809997513056,-0.45010991210937495,2.5474305664062498,11.343727465820312,11.63495398540304
0.31086794329768713,-0.5458779785156249,2.5857377929687497,10.63025537109375,10.953828187263243
0.31335488684406865,-0.5889736083984375,2.7629087158203123,9.86411083984375,10.26066455664879
0.3158418303904501,-0.70868369140625,2.7629087158203123,9.050082275390624,9.488934942224052
0.3183287739368316,-0.737414111328125,2.825157958984375,8.379705810546875,8.87382479746539
0.32081571748321314,-0.7278373046875,2.901772412109375,7.694964135742187,8.256058582891253
0.3233026610295946,-0.7996633544921875,2.85388837890625,7.201758593749999,7.787776781753943
0.3257896045759761,-0.7565677246093749,2.844311572265625,6.866570361328125,7.470762448981671
0.3282765481223576,-0.7757213378906249,2.7820623291015623,6.804321118164062,7.391914520349804
0.3307634916687391,-0.6943184814453125,2.7629087158203123,6.89530078125,7.460624343145769
0.3332504352151206,-0.6177040283203125,2.6671406494140624,7.206546997070312,7.709054230665597
0.3357373787615021,-0.5458779785156249,2.518700146484375,7.762001782226562,8.17866155691853
0.3382243223078836,-0.4836287353515625,2.518700146484375,8.379705810546875,8.763402116351346
0.3407112658542651,-0.40222587890625,2.375048046875,9.121908325195312,9.43460917981737
0.3431982094006466,-0.316034619140625,2.3032219970703123,9.86411083984375,10.134366882494776
0.34568515294702806,-0.3064578125,2.2744915771484373,10.596736547851561,10.842419185307977
0.3481720964934096,-0.3016694091796875,2.2170307373046874,11.219228979492186,11.440162962863154
0.3506590400397911,-0.27293898925781246,2.250549560546875,11.717222924804688,11.934520605617275
0.35314598358617255,-0.239420166015625,2.2840683837890623,12.052411157226562,12.26926668960126
0.35563292713255407,-0.27293898925781246,2.288856787109375,12.138602416992187,12.355526282662439
0.3581198706789356,-0.316034619140625,2.360682836914062,12.042834350585936,12.276097121343108
0.36060681422531704,-0.40222587890625,2.4660277099609376,11.717222924804688,11.980667401840584
0.36309375777169856,-0.44532150878906246,2.4899697265625,11.271901416015623,11.55223017506849
0.36558070131808007,-0.49799394531249996,2.6240450195312497,10.606313354492187,10.9374354035932
0.36806764486446153,-0.5698199951171875,2.7054478759765623,9.868899243164062,10.248868977023056
0.37055458841084304,-0.6560112548828124,2.7246014892578123,9.083601098632812,9.506082945192622
0.37304153195722456,-0.74699091796875,2.767697119140625,8.437166650390624,8.910887938992998
0.3755284755036061,-0.737414111328125,2.7964275390625,7.742848168945312,8.26531816206447
0.37801541904998753,-0.7517793212890624,2.829946362304687,7.316680273437499,7.880836172967233
0.38050236259636905,-0.7852981445312499,2.7629087158203123,6.924031201171875,7.496170076950076
0.38298930614275056,-0.7517793212890624,2.7437551025390623,6.866570361328125,7.432573762681192
0.385476249689132,-0.70868369140625,2.7533319091796873,6.9527616210937495,7.511588602707581
0.38796319323551354,-0.6368576416015624,2.6575638427734374,7.225700610351562,7.725217313740628
0.39045013678189505,-0.565031591796875,2.5330653564453125,7.671022119140624,8.098164060581672
0.3929370803282765,-0.5027823486328125,2.4660277099609376,8.322244970703125,8.694472043130933
0.395424023874658,-0.43574470214843747,2.408566870117187,9.016563452148437,9.342884153188216
0.39791096742103954,-0.3495534423828125,2.4133552734375,9.758765966796874,10.058826197903173
0.400397910967421,-0.28730419921875,2.29843359375,10.472238061523436,10.725348978237836
0.4028848545138025,-0.26336218261718747,2.308010400390625,11.104307299804686,11.34468652083608
0.40537179806018403,-0.22026655273437498,2.2649147705078123,11.635820068359374,11.856250036801379
0.4078587416065655,-0.239420166015625,2.29843359375,11.918335864257811,12.140298545506509
0.410345685152947,-0.2346317626953125,2.31758720703125,12.100295190429687,12.322475653122478
0.4128326286993285,-0.316034619140625,2.370259643554687,12.018892333984374,12.254459661456629
0.41531957224571,-0.3495534423828125,2.422932080078125,11.77947216796875,12.031157551528606
0.4178065157920915,-0.45968671875,2.4756045166015626,11.305420239257812,11.582420143831484
0.420293459338473,-0.4836287353515625,2.5809493896484375,10.702081420898438,11.019516470568204
0.42278040288485447,-0.565031591796875,2.6719290527343746,9.983820922851562,10.350610889321612
0.425267346431236,-0.6560112548828124,2.6958710693359373,9.246406811523437,9.653709676243762
0.4277542899776175,-0.689530078125,2.77727392578125,8.609549169921875,9.0726533658443
0.43024123352399896,-0.737414111328125,2.806004345703125,7.915230688476562,8.430202655422455
0.43272817707038047,-0.7565677246093749,2.8107927490234372,7.388506323242187,7.9412200755597455
0.435215120616762,-0.7565677246093749,2.7820623291015623,7.029376074218749,7.597657107143334
0.43770206416314344,-0.7422025146484375,2.7820623291015623,6.924031201171875,7.498862810490542
0.44018900770952496,-0.689530078125,2.7629087158203123,6.947973217773437,7.508891272051545
0.4426759512559065,-0.6751648681640625,2.6719290527343746,7.182604980468749,7.69317013769379
0.445162894802288,-0.59376201171875,2.5570073730468748,7.632714892578124,8.07150399019664
0.44764983834866945,-0.5315127685546874,2.5522189697265625,8.231265307617187,8.634237433436207
0.45013678189505096,-0.4644751220703125,2.461239306640625,8.844180932617187,9.192005898194608
0.4526237254414325,-0.3399766357421875,2.4133552734375,9.605537060546874,9.90990464183277
0.45511066898781394,-0.354341845703125,2.29843359375,10.295067138671874,10.554466472458772
0.45759761253419545,-0.2537853759765625,2.2601263671875,11.042058056640624,11.273846918374307
0.46008455608057697,-0.2346317626953125,2.2649147705078123,11.501744775390625,11.724974365002062
0.4625714996269584,-0.26336218261718747,2.2840683837890623,11.822567797851562,12.044062327796814
0.46505844317333994,-0.2442085693359375,2.288856787109375,12.018892333984374,12.237331251263166
0.46754538671972146,-0.2825157958984375,2.327164013671875,12.028469140624999,12.254777737210473
0.4700323302661029,-0.3591302490234375,2.4133552734375,11.789048974609374,12.038892554439157
0.47251927381248443,-0.39264907226562495,2.446874096679687,11.386823095703125,11.653373174827587
0.47500621735886595,-0.5123591552734374,2.5617957763671875,10.831368310546875,11.141985863504061
0.4774931609052474,-0.5363011718749999,2.6288334228515624,10.17056865234375,10.518500407572047
0.4799801044516289,-0.6272808349609375,2.7054478759765623,9.466673364257812,9.865639058929924
0.48246704799801043,-0.6751648681640625,2.767697119140625,8.729259252929687,9.182372353992234
0.4849539915443919,-0.7278373046875,2.7964275390625,8.111555224609374,8.61087000745044
0.4874409350907734,-0.7661445312499999,2.7964275390625,7.5465236328125,8.084367839515282
0.4899278786371549,-0.7805097412109374,2.8012159423828122,7.1203557373046875,7.691259457185967
0.4924148221835364,-0.7422025146484375,2.786850732421875,6.962338427734375,7.536017380543756
0.4949017657299179,-0.6751648681640625,2.767697119140625,6.957550024414062,7.518211042843
0.4973887092762994,-0.6368576416015624,2.710236279296875,7.1203557373046875,7.645288364152856
0.49987565282268087,-0.6081272216796875,2.6384102294921874,7.517793212890624,7.990509498687879
0.5023625963690624,-0.5602431884765625,2.518700146484375,8.030152368164062,8.434516578563686
0.5048495399154439,-0.44532150878906246,2.4756045166015626,8.71489404296875,9.07062881772705
0.5073364834618254,-0.38307226562499996,2.403778466796875,9.399635717773437,9.709688301123244
0.5098234270082069,-0.33039982910156246,2.3415292236328122,10.127473022460936,10.399886199996175
0.5123103705545884,-0.3064578125,2.269703173828125,10.778695874023438,11.019335444246066
0.5147973141009698,-0.2442085693359375,2.2553379638671873,11.324573852539062,11.549552376529972
0.5172842576473514,-0.239420166015625,2.27927998046875,11.765106958007811,11.986249662785452
0.5197712011937329,-0.239420166015625,2.288856787109375,11.985373510742187,12.204317498319687
0.5222581447401143,-0.2920926025390625,2.2936451904296873,12.014103930664062,12.234574761912935
0.5247450882864959,-0.33518823242187495,2.365471240234375,11.865663427734374,12.103791716640002
0.5272320318328774,-0.38307226562499996,2.403778466796875,11.511321582031249,11.76585822807099
0.5297189753792588,-0.49320554199218747,2.499546533203125,10.989385620117186,11.280850184535648
0.5322059189256404,-0.5602431884765625,2.5953145996093747,10.381258398437499,10.715412088963683
0.5346928624720219,-0.59376201171875,2.6862942626953124,9.648632690429688,10.033187080244167
0.5371798060184033,-0.6607996582031249,2.7629087158203123,8.935160595703124,9.375895457567934
0.5396667495647849,-0.689530078125,2.77727392578125,8.259995727539062,8.741637810297737
0.5421536931111663,-0.7661445312499999,2.786850732421875,7.632714892578124,8.161608363487463
0.5446406366575478,-0.7805097412109374,2.839523168945312,7.264007836914062,7.838233036715054
0.5471275802039294,-0.7661445312499999,2.786850732421875,6.976703637695312,7.551682467887247
0.5496145237503108,-0.7230489013671875,2.825157958984375,6.967126831054687,7.552825530024057
0.5521014672966923,-0.7230489013671875,2.6815058593749996,7.077260107421875,7.602689262079297
0.5545884108430739,-0.6751648681640625,2.6575638427734374,7.407659936523437,7.898855544494666
0.5570753543894553,-0.612915625,2.5378537597656248,7.886500268554687,8.307421606927074
0.5595622979358368,-0.5027823486328125,2.499546533203125,8.537723120117187,8.910288381277457
0.5620492414822184,-0.33518823242187495,2.4133552734375,9.251195214843749,9.566673807030874
0.5645361850285998,-0.32561142578124996,2.3415292236328122,9.90241806640625,10.180700637363554
0.5670231285749813,-0.26336218261718747,2.288856787109375,10.59194814453125,10.839630553093981
0.5695100721213628,-0.2825157958984375,2.2840683837890623,11.176133349609374,11.410641533454978
0.5719970156677443,-0.26336218261718747,2.2553379638671873,11.678915698242188,11.897603996483548
0.5744839592141258,-0.3016694091796875,2.3032219970703123,11.942277880859374,12.166093743839328
0.5769709027605073,-0.229843359375,2.31758720703125,12.00931552734375,12.233057584567456
0.5794578463068888,-0.3495534423828125,2.3223756103515623,11.899182250976562,12.12873259358096
0.5819447898532703,-0.40222587890625,2.422932080078125,11.578359228515625,11.835995435403248
0.5844317333996518,-0.43574470214843747,2.5378537597656248,11.1474029296875,11.440942584779124
0.5869186769460333,-0.5458779785156249,2.528276953125,10.510545288085936,10.824127187539732
0.5894056204924147,-0.612915625,2.6575638427734374,9.883264453125,10.25266928132328
0.5918925640387963,-0.679953271484375,2.7054478759765623,9.150638745117186,9.56639817824181
0.5943795075851778,-0.6943184814453125,2.7820623291015623,8.480262280273436,8.951915845164708
0.5968664511315592,-0.7565677246093749,2.767697119140625,7.8529814453124995,8.360733200242807
0.5993533946779408,-0.737414111328125,2.7820623291015623,7.398083129882812,7.938216699690713
0.6018403382243223,-0.74699091796875,2.834734765625,7.1203557373046875,7.7002066497424995
0.6043272817707037,-0.7517793212890624,2.7581203125,6.900089184570312,7.468843990951152
0.6068142253170853,-0.699106884765625,2.7341782958984373,7.005434057617187,7.552521944735519
0.6093011688634667,-0.612915625,2.6671406494140624,7.278373046874999,7.7758613038429685
0.6117881124098483,-0.565031591796875,2.5809493896484375,7.723694555664062,8.16308875615412
0.6142750559562298,-0.507570751953125,2.5426421630859375,8.279149340820313,8.675653926093757
0.6167619995026112,-0.43574470214843747,2.4564509033203126,8.978256225585938,9.318428480068206
0.6192489430489928,-0.373495458984375,2.35589443359375,9.65342109375,9.943755641274448
0.6217358865953743,-0.316034619140625,2.3032219970703123,10.409988818359375,10.666422860858797
0.6242228301417557,-0.2537853759765625,2.31758720703125,11.042058056640624,11.285506794356937
0.6267097736881373,-0.2537853759765625,2.2457611572265623,11.496956372070311,11.716990057760368
0.6291967172345188,-0.26336218261718747,2.288856787109375,11.827356201171874,12.04967135404648
0.6316836607809002,-0.277727392578125,2.3319524169921872,12.004527124023436,12.232081018825797
0.6341706043272818,-0.33518823242187495,2.346317626953125,11.985373510742187,12.217476652308592
0.6366575478736632,-0.33518823242187495,2.418143676757812,11.741164941406248,11.992277689159183
0.6391444914200447,-0.411802685546875,2.518700146484375,11.3389390625,11.622606030611742
0.6416314349664263,-0.5363011718749999,2.50912333984375,10.759542260742187,11.061241726958155
0.6441183785128077,-0.55545478515625,2.6431986328124997,10.117896215820313,10.47219427173531
0.6466053220591892,-0.6607996582031249,2.7246014892578123,9.34696328125,9.758372407557678
0.6490922656055708,-0.679953271484375,2.7581203125,8.690952026367187,9.143424480698865
0.6515792091519522,-0.7422025146484375,2.7964275390625,8.054094384765625,8.557996723105868
0.6540661526983337,-0.7422025146484375,2.8012159423828122,7.532158422851562,8.070383252085604
0.6565530962447153,-0.7613561279296874,2.7724855224609373,7.1203557373046875,7.6789195171950695
0.6590400397910967,-0.7326257080078125,2.806004345703125,6.9336080078124995,7.515671681369563
0.6615269833374782,-0.718260498046875,2.7198130859375,6.9719152343749995,7.518037204004886
0.6640139268838597,-0.6512228515624999,2.6431986328124997,7.168239770507812,7.667740972567406
0.6665008704302412,-0.6081272216796875,2.6144682128906247,7.575254052734374,8.03677402428561
0.6689878139766227,-0.5267243652343749,2.528276953125,8.092401611328125,8.494503325542972
0.6714747575230042,-0.430956298828125,2.480392919921875,8.729259252929687,9.085044825071408
0.6739617010693857,-0.38786066894531246,2.360682836914062,9.437942944335937,9.736427803643172
0.6764486446157671,-0.33518823242187495,2.3319524169921872,10.13226142578125,10.402551361403821
0.6789355881621487,-0.3064578125,2.31758720703125,10.788272680664061,11.038657268227858
0.6814225317085302,-0.2442085693359375,2.31758720703125,11.305420239257812,11.543109419638721
0.6839094752549116,-0.258573779296875,2.308010400390625,11.765106958007811,11.992143850914022
0.6863964188012932,-0.2537853759765625,2.3367408203125,11.980585107421874,12.208979654113325
0.6888833623476747,-0.2825157958984375,2.3367408203125,12.00931552734375,12.237803408763622
0.6913703058940561,-0.38786066894531246,2.35589443359375,11.79862578125,12.037784048849268
0.6938572494404377,-0.39743747558593745,2.499546533203125,11.501744775390625,11.776919049431962
0.6963441929868192,-0.4740519287109375,2.5713725830078125,11.01332763671875,11.319455279538492
0.6988311365332006,-0.5602431884765625,2.6144682128906247,10.328585961914062,10.669067646195618
0.7013180800795822,-0.622492431640625,2.6815058593749996,9.65342109375,10.03825230379122
0.7038050236259636,-0.6272808349609375,2.7820623291015623,8.930372192382812,9.3746946373415
0.7062919671723451,-0.7326257080078125,2.7820623291015623,8.279149340820313,8.76475470499006
0.7087789107187267,-0.7613561279296874,2.8203695556640622,7.709329345703124,8.2442650700091
0.7112658542651081,-0.7230489013671875,2.834734765625,7.273584643554687,7.839869544333368
0.7137527978114896,-0.7661445312499999,2.7820623291015623,7.029376074218749,7.59861673191702
0.7162397413578712,-0.7230489013671875,2.7629087158203123,6.89530078125,7.463352942855576
0.7187266849042526,-0.718260498046875,2.6910826660156246,7.082048510742187,7.610074583530041
0.7212136284506341,-0.603338818359375,2.6767174560546874,7.4220251464843745,7.912982455707429
0.7237005719970157,-0.565031591796875,2.5426421630859375,7.9104422851562495,8.328228323960557
0.7261875155433971,-0.4740519287109375,2.4660277099609376,8.494627490234375,8.858031050705078
0.7286744590897786,-0.39264907226562495,2.437297290039062,9.246406811523437,9.570299383936211
0.7311614026361601,-0.3591302490234375,2.360682836914062,9.945513696289062,10.228149425743524
0.7336483461825416,-0.3112462158203125,2.2553379638671873,10.582371337890624,10.824509534899585
0.7361352897289231,-0.26336218261718747,2.269703173828125,11.180921752929686,11.412007859340731
0.7386222332753046,-0.2346317626953125,2.2744915771484373,11.688492504882811,11.910047062681421
0.7411091768216861,-0.258573779296875,2.27927998046875,11.918335864257811,12.1370798548069
0.7435961203680675,-0.27293898925781246,2.327164013671875,12.033257543945313,12.259260791634349
0.7460830639144491,-0.32082302246093747,2.384624853515625,11.875240234375,12.116546278864458
0.7485700074608306,-0.38786066894531246,2.461239306640625,11.616666455078125,11.880870100779862
0.7510569510072121,-0.4740519287109375,2.4660277099609376,11.128249316406249,11.408065162222115
0.7535438945535936,-0.507570751953125,2.5570073730468748,10.558429321289061,10.875492839715859
0.7560308380999751,-0.584185205078125,2.6479870361328124,9.868899243164062,10.234660715875432
0.7585177816463566,-0.6703764648437499,2.7533319091796873,9.169792358398437,9.597673317156916
0.7610047251927381,-0.699106884765625,2.786850732421875,8.494627490234375,8.967384436889756
0.7634916687391196,-0.7230489013671875,2.8012159423828122,7.848193041992187,8.364433303816972
0.7659786122855011,-0.7757213378906249,2.7916391357421872,7.3932947265625,7.940768197856117
0.7684655558318826,-0.7230489013671875,2.858676782226562,7.077260107421875,7.6669709329770255
0.770952499378264,-0.7422025146484375,2.7724855224609373,6.938396411132812,7.508587437263193
0.7734394429246456,-0.7326257080078125,2.7246014892578123,6.9910688476562495,7.538914864618748
0.7759263864710271,-0.6703764648437499,2.6623522460937497,7.316680273437499,7.814815052872734
0.7784133300174085,-0.565031591796875,2.6144682128906247,7.733271362304687,8.182798463788888
0.7809002735637901,-0.507570751953125,2.5617957763671875,8.288726147460936,8.690420405000763
0.7833872171101716,-0.430956298828125,2.43250888671875,8.939948999023438,9.274993850165373
0.785874160656553,-0.32561142578124996,2.3319524169921872,9.667786303710937,9.950382750926508
0.7883611042029346,-0.296881005859375,2.35589443359375,10.424354028320312,10.691376610223587
0.790848047749316,-0.2537853759765625,2.308010400390625,11.046846459960937,11.288229964672157
0.7933349912956975,-0.26336218261718747,2.2266075439453124,11.520898388671874,11.737045645139549
0.7958219348420791,-0.2537853759765625,2.2457611572265623,11.832144604492187,12.046057285850036
0.7983088783884605,-0.24899697265624998,2.3032219970703123,12.028469140624999,12.249526559306219
0.800795821934842,-0.3064578125,2.3511060302734372,11.999738720703125,12.231735172148401
0.8032827654812236,-0.37828386230468747,2.375048046875,11.745953344726562,11.989636019576992
0.805769709027605,-0.4261678955078125,2.47081611328125,11.362881079101562,11.63622008036184
0.8082566525739865,-0.49320554199218747,2.5713725830078125,10.793061083984375,11.106096354251301
0.8107435961203681,-0.5602431884765625,2.6192566162109374,10.127473022460936,10.475690310068984
0.8132305396667495,-0.6416460449218749,2.6527754394531247,9.409212524414063,9.797050959789892
0.815717483213131,-0.70868369140625,2.73896669921875,8.681375219726561,9.13074185702218
0.8182044267595125,-0.7278373046875,2.844311572265625,8.054094384765625,8.572531237676074
0.820691370305894,-0.7613561279296874,2.834734765625,7.551312036132812,8.101709561075575
0.8231783138522755,-0.74699091796875,2.8012159423828122,7.144297753906249,7.71011002410843
0.825665257398657,-0.7900865478515624,2.73896669921875,6.9527616210937495,7.514457365124872
0.8281522009450385,-0.7661445312499999,2.7533319091796873,6.909665991210937,7.477385783478632
0.83063914449142,-2.3367408203125,3.73495458984375,-8.757989672851561,9.803704736439395
0.8331260880378015,-2.1164742675781247,3.265691064453125,-8.556876733398436,9.40023089526767
0.835613031584183,-1.8004396484374998,2.7054478759765623,-6.9719152343749995,7.692114999959506
0.8380999751305644,-1.3838485595703125,2.2601263671875,-4.13718046875,4.91319348921732
0.840586918676946,-0.8954314208984374,1.7286135986328124,-0.354341845703125,1.9787522701254883
0.8430738622233275,-0.43574470214843747,1.2976572998046874,3.9264907226562498,4.158258927519115
0.8455608057697089,0.028730419921875,1.0630255371093749,8.508992700195313,8.575185449980232
0.8480477493160905,0.4070142822265625,0.9050082275390624,12.976572998046874,13.014459162465762
0.850534692862472,0.7278373046875,0.928950244140625,16.9701013671875,17.011085682895217
0.8530216364088534,0.8954314208984374,0.9864110839843749,20.101717138671873,20.145814358802028
0.855508579955235,0.9576806640625,1.20667763671875,22.33790148925781,22.390959472900278
0.8579955235016165,0.9097966308593749,1.5275006591796874,23.424869042968748,23.492242929391672
0.8604824670479979,0.7565677246093749,1.9297265380859374,23.37219660644531,23.46392578926313
0.8629694105943795,0.5267243652343749,2.365471240234375,22.21819140625,22.34996470042109
0.8654563541407609,0.143652099609375,2.8012159423828122,20.163966381835937,20.358118452582783
0.8679432976871424,-0.16280571289062498,3.1411925781249996,17.243040356445313,17.527579332212966
0.870430241233524,-0.5410895751953124,3.418919970703125,13.943830468749999,14.367052579972642
0.8729171847799054,-0.9050082275390624,3.6918589599609373,10.467449658203124,11.136263503490476
0.8754041283262869,-1.1923124267578125,3.825934252929687,6.9910688476562495,8.058189961983487
0.8778910718726685,-1.4221557861328125,3.835511059570312,3.883395092773437,5.640428141080607
0.8803780154190499,-1.6232687255859375,3.782838623046875,1.3359645263671873,4.327778947588714
0.8828649589654315,-1.6328455322265625,3.5769372802734374,-0.4165910888671875,3.954012262809225
0.885351902511813,-1.6424223388671875,3.337517114257812,-1.3359645263671873,3.952388245464413
0.8878388460581944,-1.465251416015625,3.1028853515624997,-1.3263877197265623,3.6788807537236594
0.890325789604576,-1.3168109130859373,2.7581203125,-0.49799394531249996,3.096646025721252
0.8928127331509574,-1.0103531005859374,2.4516625,1.1156979736328125,2.87684625417109
0.8952996766973389,-0.7805097412109374,2.1116858642578125,3.27526787109375,3.9743920633035708
0.8977866202437205,-0.5027823486328125,1.9105729248046874,5.88015927734375,6.203172746105434
0.9002735637901019,-0.24899697265624998,1.6328455322265625,8.623914379882812,8.780665308281245
0.9027605073364834,0.0430956298828125,1.5705962890624998,11.3772462890625,11.48522368343422
0.905247450882865,0.2154781494140625,1.5466542724609373,13.819331982421874,13.907282506362796
0.9077343944292464,0.33518823242187495,1.6041151123046875,15.844826586914062,15.929346063604026
0.9102213379756279,0.40222587890625,1.7190367919921874,17.2765591796875,17.366530172695093
0.9127082815220094,0.36391865234375,1.838746875,17.9660892578125,18.06360401679387
0.9151952250683909,0.28730419921875,2.1164742675781247,18.06185732421875,18.18770730544792
0.9176821686147724,0.11013327636718749,2.3415292236328122,17.396269262695313,17.553491752465877
0.9201691121611539,-0.09576806640624999,2.5857377929687497,16.17043801269531,16.376149638390324
0.9226560557075354,-0.296881005859375,2.8730419921875,14.456189624023436,14.741910563635761
0.9251429992539169,-0.5219359619140624,3.0071172851562498,12.39238779296875,12.7626974706112
0.9276299428002984,-0.7565677246093749,3.1699229980468746,10.137049829101562,10.648032014093266
0.9301168863466799,-0.9145850341796874,3.35188232421875,8.034940771484374,8.753962194424732
0.9326038298930613,-1.1061211669921875,3.337517114257812,6.023811376953125,6.974871183695213
0.9350907734394429,-1.1731588134765625,3.35188232421875,4.458003491210937,5.699579970901079
0.9375777169858244,-1.2210428466796874,3.299209887695312,3.265691064453125,4.800048921098944
0.9400646605322058,-1.2114660400390624,3.1076737548828124,2.6048914062499997,4.232108856268996
0.9425516040785874,-1.1731588134765625,2.882618798828125,2.5905261962890624,4.049273850291545
0.9450385476249689,-1.01514150390625,2.6910826660156246,3.0885201416015624,4.2203548255284575
0.9475254911713503,-0.8571241943359375,2.5139117431640625,4.074931225585937,4.86410100945586
0.9500124347177319,-0.6655880615234374,2.3032219970703123,5.45877978515625,5.9620563380650475
0.9524993782641133,-0.5123591552734374,2.1547814941406247,7.129932543945312,7.466025266009611
0.9549863218104948,-0.277727392578125,2.0733786376953125,9.011775048828124,9.25138481582734
0.9574732653568764,-0.1580173095703125,1.915361328125,10.721235034179687,10.892128311102587
0.9599602089032578,-0.0047884033203125,1.8722656982421875,12.339715356445312,12.480944549661011
0.9624471524496393,0.028730419921875,1.886630908203125,13.661314672851562,13.791001421633078
0.9649340959960209,0.06703764648437499,1.9488801513671874,14.61420693359375,14.743733319222061
0.9674210395424023,0.0718260498046875,2.0925322509765625,15.093047265625,15.237582681160351
0.9699079830887838,0.023942016601562498,2.2361843505859373,15.236699365234374,15.399938351061603
0.9723949266351654,-0.1149216796875,2.3223756103515623,14.777012646484375,14.95883478825731
0.9748818701815468,-0.229843359375,2.5378537597656248,14.020444921874999,14.250137033837104
0.9773688137279283,-0.3591302490234375,2.6527754394531247,12.799402075195312,13.076348326289088
0.9798557572743098,-0.5315127685546874,2.8107927490234372,11.401188305664062,11.754580234202766
0.9823427008206913,-0.6655880615234374,2.9975404785156248,9.950302099609374,10.413297665075792
0.9848296443670728,-0.7709329345703124,3.0550013183593747,8.465897070312499,9.03320451721915
0.9873165879134543,-0.9097966308593749,3.1076737548828124,7.072471704101562,7.778510273929563
0.9898035314598358,-0.93852705078125,3.1220389648437497,5.971138940429687,6.803121384259327
0.9922904750062173,-1.0007762939453124,3.0406361083984375,5.166687182617188,6.077966565985704
0.9947774185525988,-1.0007762939453124,2.96881005859375,4.745307690429687,5.686240535835735
0.9972643620989803,-0.9193734375,2.8730419921875,4.673481640625,5.562467838263178
0.9997513056453617,-0.852335791015625,2.710236279296875,5.051765502929687,5.795877128343356
1.0022382491917432,-0.718260498046875,2.5713725830078125,5.7077767578125,6.301314991390558
1.0047251927381249,-0.5985504150390625,2.408566870117187,6.679822631835937,7.125972730789609
1.0072121362845063,-0.49799394531249996,2.2361843505859373,7.843404638671874,8.171139133885362
1.0096990798308878,-0.36391865234375,2.221819140625,9.17458076171875,9.446790419633066
1.0121860233772693,-0.201112939453125,2.1595698974609374,10.457872851562499,10.680416337197856
1.0146729669236507,-0.1484405029296875,2.059013427734375,11.645396875,11.826953929679451
1.0171599104700322,-0.1292868896484375,2.020706201171875,12.569558715820312,12.73160535681749
1.0196468540164139,-0.062249243164062495,2.068590234375,13.302184423828125,13.462208250192896
1.0221337975627953,-0.09576806640624999,2.1452046874999997,13.63737265625,13.805397771859033
1.0246207411091768,-0.1197100830078125,2.308010400390625,13.685256689453125,13.879030699890627
1.0271076846555582,-0.2346317626953125,2.346317626953125,13.3692220703125,13.575579443837647
1.0295946282019397,-0.27293898925781246,2.4756045166015626,12.741941235351561,12.983072820393005
1.0320815717483212,-0.4261678955078125,2.6001030029296874,11.85608662109375,12.14532604205765
1.0345685152947028,-0.5793968017578125,2.748543505859375,10.888829150390624,11.245300899659624
1.0370554588410843,-0.6416460449218749,2.81558115234375,9.773131176757811,10.19084392337125
1.0395424023874658,-0.7422025146484375,2.9640216552734375,8.671798413085938,9.194366572139712
1.0420293459338472,-0.8188169677734375,2.9544448486328125,7.60398447265625,8.198767312878442
1.0445162894802287,-0.8954314208984374,2.93050283203125,6.7277066650390625,7.392677542601625
1.0470032330266101,-0.9002198242187499,2.9640216552734375,6.100425830078125,6.841857599594624
1.0494901765729918,-0.8810662109374999,2.868253588867187,5.832275244140624,6.558855909495256
1.0519771201193733,-0.814028564453125,2.825157958984375,5.76523759765625,6.471640020457533
1.0544640636657547,-0.7134720947265625,2.73896669921875,6.062118603515625,6.690311126731925
1.0569510072121362,-0.6943184814453125,2.6001030029296874,6.5409589355468745,7.072959605146279
1.0594379507585177,-0.603338818359375,2.461239306640625,7.326257080078125,7.752145474492011
1.0619248943048991,-0.469263525390625,2.379836450195312,8.269572534179687,8.617984664873761
1.0644118378512808,-0.3447650390625,2.308010400390625,9.246406811523437,9.536341744330374
1.0668987813976623,-0.258573779296875,2.1978771240234374,10.251971508789062,10.488109651823253
1.0693857249440437,-0.201112939453125,2.1691467041015624,11.204863769531249,11.414666702627992
1.0718726684904252,-0.1580173095703125,2.1739351074218747,11.985373510742187,12.181959674592825
1.0743596120368066,-0.181959326171875,2.24097275390625,12.58392392578125,12.783200282010013
1.076846555583188,-0.19632453613281248,2.231395947265625,12.799402075195312,12.993935688600097
1.0793334991295698,-0.19632453613281248,2.2649147705078123,12.876016528320312,13.075174334544457
1.0818204426759512,-0.2825157958984375,2.398990063476562,12.636596362304687,12.865400736992356
1.0843073862223327,-0.36391865234375,2.461239306640625,12.181698046874999,12.433177510810125
1.0867943297687142,-0.45489831542968745,2.6144682128906247,11.458649145507811,11.761930825907928
1.0892812733150956,-0.5219359619140624,2.6575638427734374,10.596736547851561,10.937362030733413
1.0917682168614773,-0.6512228515624999,2.7246014892578123,9.639055883789062,10.03787541307779
1.0942551604078588,-0.70868369140625,2.85388837890625,8.781931689453124,9.261168158064205
1.0967421039542402,-0.7805097412109374,2.89219560546875,7.939172705078125,8.485543831568807
1.0992290475006217,-0.7852981445312499,2.925714428710937,7.206546997070312,7.817340834014769
1.1017159910470031,-0.8714894042968749,2.896984008789062,6.636727001953124,7.293706563019586
1.1042029345933846,-0.814028564453125,2.786850732421875,6.330269189453125,6.964300935448258
1.1066898781397663,-0.7852981445312499,2.8107927490234372,6.335057592773437,6.974969803341326
1.1091768216861477,-0.7661445312499999,2.6862942626953124,6.545747338867187,7.116878707189051
1.1116637652325292,-0.6512228515624999,2.6001030029296874,6.981492041015625,7.478359308498468
1.1141507087789106,-0.55545478515625,2.5378537597656248,7.594407666015624,8.026472420805193
1.116637652325292,-0.4836287353515625,2.446874096679687,8.413224633789062,8.775160302652873
1.1191245958716736,-0.38307226562499996,2.370259643554687,9.251195214843749,9.557692610756163
1.1216115394180552,-0.3064578125,2.2553379638671873,10.151415039062499,10.403446208704459
1.1240984829644367,-0.2442085693359375,2.2266075439453124,10.927136376953124,11.15435916494639
1.1265854265108182,-0.19153613281249998,2.1930887207031247,11.640608471679688,11.846944324085808
1.1290723700571996,-0.239420166015625,2.1739351074218747,12.105083593749999,12.301071688225042
1.131559313603581,-0.2154781494140625,2.269703173828125,12.449848632812499,12.656884067972797
1.1340462571499625,-0.258573779296875,2.31758720703125,12.488155859374999,12.704019349386117
1.1365332006963442,-0.296881005859375,2.39420166015625,12.334926953124999,12.56864204518788
1.1390201442427257,-0.36391865234375,2.4756045166015626,11.89439384765625,12.154738150668019
1.1415070877891071,-0.4213794921875,2.5809493896484375,11.276689819335937,11.57594893345153
1.1439940313354886,-0.55545478515625,2.5953145996093747,10.572794531249999,10.900833550207453
1.14648097488187,-0.603338818359375,2.7150246826171873,9.7683427734375,10.156569169573379
1.1489679184282515,-0.70868369140625,2.7964275390625,8.949525805664061,9.402991635747599
1.1514548619746332,-0.737414111328125,2.863465185546875,8.21690009765625,8.73273494704197
1.1539418055210147,-0.7565677246093749,2.85388837890625,7.50821640625,8.067861377357596
1.1564287490673961,-0.8044517578125,2.858676782226562,6.995857250976562,7.600078568799811
1.1589156926137776,-0.8188169677734375,2.7964275390625,6.6702458251953125,7.278918022376425
1.161402636160159,-0.7565677246093749,2.7629087158203123,6.58884296875,7.184630189559012
1.1638895797065405,-0.7038952880859375,2.7341782958984373,6.809109521484374,7.371239516249681
1.1663765232529222,-0.6512228515624999,2.6288334228515624,7.163451367187499,7.6583217389686045
1.1688634667993036,-0.5698199951171875,2.5378537597656248,7.733271362304687,8.158975578823219
1.171350410345685,-0.45489831542968745,2.437297290039062,8.432378247070313,8.78933179821294
1.1738373538920666,-0.4070142822265625,2.365471240234375,9.150638745117186,9.46019578327807
1.176324297438448,-0.33039982910156246,2.31758720703125,9.9981861328125,10.268597784295059
1.1788112409848295,-0.33518823242187495,2.2601263671875,10.687716210937499,10.929217728288995
1.1812981845312112,-0.22026655273437498,2.231395947265625,11.415553515625,11.633679869062291
1.1837851280775926,-0.229843359375,2.288856787109375,11.880028637695311,12.100693112140567
1.186272071623974,-0.2154781494140625,2.2649147705078123,12.186486450195313,12.39704487978217
1.1887590151703555,-0.24899697265624998,2.31758720703125,12.287042919921875,12.50618381723974
1.191245958716737,-0.3064578125,2.360682836914062,12.167332836914062,12.39801307514999
1.1937329022631185,-0.36391865234375,2.4756045166015626,11.846509814453125,12.107883766045822
1.1962198458095001,-0.4070142822265625,2.528276953125,11.276689819335937,11.56380466192482
1.1987067893558816,-0.5506663818359374,2.5857377929687497,10.635043774414061,10.958714773264905
1.201193732902263,-0.612915625,2.6623522460937497,9.878476049804688,10.249296273999224
1.2036806764486445,-0.6272808349609375,2.729389892578125,9.083601098632812,9.505517311051522
1.206167619995026,-0.718260498046875,2.844311572265625,8.33182177734375,8.83319085000422
1.2086545635414074,-0.7661445312499999,2.77727392578125,7.694964135742187,8.216611281541022
1.2111415070877891,-0.8283937744140625,2.829946362304687,7.163451367187499,7.74660365250927
1.2136284506341706,-0.7805097412109374,2.849099975585937,6.880935571289062,7.488246821736053
1.216115394180552,-0.7517793212890624,2.7629087158203123,6.756437084960937,7.338138647021405
1.2186023377269335,-0.7134720947265625,2.7581203125,6.880935571289062,7.447385072923901
1.221089281273315,-0.6464344482421874,2.6384102294921874,7.220912207031249,7.714963326978043
1.2235762248196966,-0.55545478515625,2.5857377929687497,7.666233715820312,8.109605991533742
1.226063168366078,-0.45489831542968745,2.5522189697265625,8.322244970703125,8.716680302684408
1.2285501119124596,-0.38786066894531246,2.418143676757812,9.04050546875,9.366354353239961
1.231037055458841,-0.37828386230468747,2.3319524169921872,9.7683427734375,10.049956283236483
1.2335239990052225,-0.3016694091796875,2.2601263671875,10.529698901367187,10.7737521124975
1.236010942551604,-0.27293898925781246,2.2457611572265623,11.152191333007812,11.37933699277683
1.2384978860979856,-0.239420166015625,2.231395947265625,11.688492504882811,11.90198751999304
1.240984829644367,-0.2442085693359375,2.2601263671875,12.023680737304687,12.236695121380816
1.2434717731907485,-0.258573779296875,2.308010400390625,12.20085166015625,12.419925669696607
1.24595871673713,-0.296881005859375,2.3511060302734372,12.109871997070313,12.339563917847986
1.2484456602835114,-0.3447650390625,2.4133552734375,11.769895361328125,12.019716445266155
1.250932603829893,-0.4165910888671875,2.47081611328125,11.3389390625,11.612494110399462
1.2534195473762746,-0.5027823486328125,2.5426421630859375,10.716446630859375,11.025427322859478
1.255906490922656,-0.5985504150390625,2.6815058593749996,10.026916552734374,10.396527873704013
1.2583934344690375,-0.6416460449218749,2.748543505859375,9.299079248046874,9.717976945435796
1.260880378015419,-0.74699091796875,2.767697119140625,8.552088330078124,9.019775916301112
1.2633673215618004,-0.7709329345703124,2.825157958984375,7.886500268554687,8.412653657956632
1.2658542651081819,-0.7852981445312499,2.806004345703125,7.37414111328125,7.9289539488190925
1.2683412086545636,-0.7422025146484375,2.8012159423828122,6.995857250976562,7.572297802163583
1.270828152200945,-0.7661445312499999,2.7916391357421872,6.89530078125,7.4783286482260545
1.2733150957473265,-0.7278373046875,2.7533319091796873,6.909665991210937,7.4735579113497765
1.275802039293708,-0.6272808349609375,2.6623522460937497,7.1395093505859375,7.645534284488806
1.2782889828400894,-0.55545478515625,2.6479870361328124,7.60398447265625,8.070994066549533
1.2807759263864709,-0.5027823486328125,2.5474305664062498,8.207323291015625,8.608272078878846
1.2832628699328525,-0.430956298828125,2.446874096679687,8.858546142578124,9.200367163145579
1.285749813479234,-0.373495458984375,2.39420166015625,9.576806640625,9.878609511429024
1.2882367570256155,-0.3112462158203125,2.308010400390625,10.352527978515624,10.611249773760044
1.290723700571997,-0.26336218261718747,2.29843359375,10.984597216796875,11.225574935804984
1.2932106441183784,-0.2442085693359375,2.2266075439453124,11.49216796875,11.708430449981533
1.2956975876647598,-0.24899697265624998,2.2840683837890623,11.880028637695311,12.10016728424353
1.2981845312111415,-0.27293898925781246,2.27927998046875,12.08592998046875,12.302004568931686
1.300671474757523,-0.296881005859375,2.3415292236328122,12.038045947265624,12.267251023161013
1.3031584183039044,-0.354341845703125,2.461239306640625,11.851298217773437,12.109356981886732
1.305645361850286,-0.430956298828125,2.442085693359375,11.429918725585937,11.695834640533793
1.3081323053966674,-0.5027823486328125,2.5330653564453125,10.86009873046875,11.1629276906038
1.3106192489430488,-0.5410895751953124,2.6575638427734374,10.20887587890625,10.56298112360879
1.3131061924894305,-0.6560112548828124,2.710236279296875,9.514557397460937,9.914763432665882
1.315593136035812,-0.6560112548828124,2.7916391357421872,8.777143286132812,9.233734027794315
1.3180800795821934,-0.7326257080078125,2.85388837890625,8.12113203125,8.63910902676224
1.3205670231285749,-0.7517793212890624,2.844311572265625,7.536946826171874,8.090787843503517
1.3230539666749563,-0.7900865478515624,2.849099975585937,7.173028173828125,7.758475404775853
1.3255409102213378,-0.7709329345703124,2.7629087158203123,6.919242797851562,7.490255206411979
1.3280278537677195,-0.7278373046875,2.7437551025390623,6.885723974609375,7.447894592387451
1.330514797314101,-0.6416460449218749,2.710236279296875,7.144297753906249,7.667990658122291
1.3330017408604824,-0.6081272216796875,2.6144682128906247,7.4794859863281244,7.9465699124617375
1.3354886844068639,-0.5363011718749999,2.5522189697265625,7.987056738281249,8.402054270052684
1.3379756279532453,-0.45489831542968745,2.422932080078125,8.657433203124999,9.001593303889242
1.3404625714996268,-0.373495458984375,2.418143676757812,9.366116894531249,9.680447478363252
1.3429495150460085,-0.3447650390625,2.375048046875,10.108319409179687,10.389313617131947
1.34543645859239,-0.32082302246093747,2.269703173828125,10.754753857421875,10.996327134218822
1.3479234021387714,-0.277727392578125,2.3127988037109373,11.334150659179686,11.571047574702055
1.3504103456851528,-0.2537853759765625,2.27927998046875,11.793837377929687,12.014746120641776
1.3528972892315343,-0.239420166015625,2.2553379638671873,11.999738720703125,12.212190659840577
1.3553842327779158,-0.32561142578124996,2.3032219970703123,12.066776367187499,12.288935928879383
1.3578711763242974,-0.316034619140625,2.398990063476562,11.923124267578125,12.166179495029038
1.360358119870679,-0.36391865234375,2.4756045166015626,11.573570825195311,11.840971081543683
1.3628450634170604,-0.469263525390625,2.5426421630859375,11.0707884765625,11.368711225048925
1.3653320069634418,-0.507570751953125,2.6336218261718747,10.443507641601562,10.782413637572867
1.3678189505098233,-0.603338818359375,2.6479870361328124,9.725247143554688,10.097340495223747
1.370305894056205,-0.7230489013671875,2.7533319091796873,9.006986645507812,9.44613385191166
1.3727928376025864,-0.7565677246093749,2.7724855224609373,8.283937744140625,8.7682777808971
1.3752797811489679,-0.814028564453125,2.81558115234375,7.704540942382812,8.243184509765143
1.3777667246953493,-0.7709329345703124,2.8107927490234372,7.302315063476562,7.862486804684929
1.3802536682417308,-0.74699091796875,2.8107927490234372,7.005434057617187,7.585160357244488
1.3827406117881123,-0.7422025146484375,2.7581203125,6.9336080078124995,7.498867396945833
1.385227555334494,-0.6703764648437499,2.7246014892578123,7.072471704101562,7.608726167053165
1.3877144988808754,-0.6416460449218749,2.6575638427734374,7.37414111328125,7.864624109515053
1.3902014424272569,-0.5506663818359374,2.6001030029296874,7.862558251953125,8.29961392808632
1.3926883859736383,-0.5219359619140624,2.5474305664062498,8.504204296874999,8.89287975641115
1.3951753295200198,-0.39264907226562495,2.446874096679687,9.208099584960937,9.535746646461979
1.3976622730664012,-0.3399766357421875,2.408566870117187,9.878476049804688,10.173547441637135
1.400149216612783,-0.2920926025390625,2.389413256835937,10.572794531249999,10.843366543672277
1.4026361601591644,-0.2825157958984375,2.2840683837890623,11.176133349609374,11.410641533454978
1.4051231037055458,-0.28730419921875,2.31758720703125,11.616666455078125,11.849079866961022
1.4076100472519273,-0.277727392578125,2.288856787109375,11.9518546875,12.172215425615857
1.4100969907983087,-0.316034619140625,2.31758720703125,12.028469140624999,12.253781384113974
1.4125839343446902,-0.2825157958984375,2.384624853515625,11.966219897460936,12.204780600294566
1.4150708778910719,-0.40222587890625,2.4851813232421875,11.6837041015625,11.95185564671537
1.4175578214374533,-0.44532150878906246,2.5043349365234375,11.214440576171874,11.499290506677887
1.4200447649838348,-0.5458779785156249,2.5857377929687497,10.572794531249999,10.89807354083487
1.4225317085302163,-0.612915625,2.6527754394531247,9.926360083007811,10.292983415563521
1.4250186520765977,-0.6512228515624999,2.7341782958984373,9.222464794921875,9.641248832476665
1.4275055956229792,-0.7230489013671875,2.7629087158203123,8.475473876953124,8.943719680571332
1.4299925391693609,-0.74699091796875,2.834734765625,7.9104422851562495,8.436161080121623
1.4324794827157423,-0.7900865478515624,2.825157958984375,7.426813549804687,7.985193407167497
1.4349664262621238,-0.7805097412109374,2.844311572265625,7.096413720703125,7.68494576894547
1.4374533698085052,-0.737414111328125,2.7964275390625,6.947973217773437,7.5258300796463615
1.4399403133548867,-0.718260498046875,2.7820623291015623,7.000645654296875,7.567351486688475
1.4424272569012682,-0.6560112548828124,2.6719290527343746,7.244854223632812,7.749675370689351
1.4449142004476498,-0.6177040283203125,2.5522189697265625,7.709329345703124,8.144270310872216
1.4474011439940313,-0.5506663818359374,2.4756045166015626,8.231265307617187,8.61310511668612
1.4498880875404128,-0.45010991210937495,2.403778466796875,8.8872765625,9.21761544808511
1.4523750310867942,-0.38307226562499996,2.384624853515625,9.658209497070311,9.955611018013643
1.4548619746331757,-0.33039982910156246,2.3415292236328122,10.328585961914062,10.595829893162925
1.4573489181795571,-0.3064578125,2.308010400390625,10.984597216796875,11.228633238930517
1.4598358617259388,-0.19632453613281248,2.27927998046875,11.458649145507811,11.684789291754486
1.4623228052723203,-0.28730419921875,2.2840683837890623,11.8369330078125,12.058710342161577
1.4648097488187017,-0.2825157958984375,2.3127988037109373,12.028469140624999,12.252057922991826
1.4672966923650832,-0.27293898925781246,2.4133552734375,12.033257543945313,12.27591407947296
1.4697836359114647,-0.38307226562499996,2.427720483398437,11.741164941406248,11.995646097126683
1.4722705794578461,-0.44532150878906246,2.442085693359375,11.329362255859374,11.598126698066016
1.4747575230042278,-0.4740519287109375,2.5953145996093747,10.850521923828124,11.166656129815
1.4772444665506093,-0.55545478515625,2.6288334228515624,10.127473022460936,10.477833984375229
1.4797314100969907,-0.6464344482421874,2.7198130859375,9.433154541015625,9.838682092282216
1.4822183536433722,-0.737414111328125,2.7341782958984373,8.724470849609375,9.172562462639961
1.4847052971897536,-0.7134720947265625,2.7724855224609373,8.125920434570313,8.615468722662534
1.487192240736135,-0.7517793212890624,2.81558115234375,7.584830859375,8.125412514985223
1.4896791842825168,-0.8044517578125,2.825157958984375,7.163451367187499,7.742331406877442
1.4921661278288982,-0.7661445312499999,2.825157958984375,6.9719152343749995,7.561487748537799
1.4946530713752797,-0.7278373046875,2.7581203125,6.9527616210937495,7.515175910121735
1.4971400149216612,-0.689530078125,2.7054478759765623,7.144297753906249,7.6704556797321395
1.4996269584680426,-0.59376201171875,2.6575638427734374,7.503428002929687,7.982269771194558
1.5021139020144243,-0.5458779785156249,2.5570073730468748,8.044517578125,8.458754786492305
1.5046008455608058,-0.4836287353515625,2.499546533203125,8.700528833007812,9.065364394182167
1.5070877891071872,-0.40222587890625,2.398990063476562,9.380482104492186,9.690736994419947
1.5095747326535687,-0.39264907226562495,2.3319524169921872,10.050858569335936,10.325305484578188
1.5120616761999501,-0.32561142578124996,2.288856787109375,10.70686982421875,10.953627236000958
1.5145486197463316,-0.22505495605468748,2.3415292236328122,11.334150659179686,11.575680541694064
1.5170355632927133,-0.2346317626953125,2.31758720703125,11.741164941406248,11.970013229214395
1.5195225068390947,-0.27293898925781246,2.360682836914062,12.018892333984374,12.251575085851862
1.5220094503854762,-0.27293898925781246,2.39420166015625,12.023680737304687,12.262772759616148
1.5244963939318577,-0.316034619140625,2.360682836914062,11.841721411132811,12.078868627312627
1.5269833374782391,-0.39264907226562495,2.43250888671875,11.511321582031249,11.772077019067416
1.5294702810246206,-0.430956298828125,2.5234885498046875,11.042058056640624,11.334935549826348
1.5319572245710023,-0.51714755859375,2.6096798095703124,10.453084448242187,10.786326751397858
1.5344441681173837,-0.6081272216796875,2.710236279296875,9.734823950195311,10.12333920940423
1.5369311116637652,-0.679953271484375,2.7533319091796873,9.04050546875,9.474909613500703
1.5394180552101466,-0.7422025146484375,2.77727392578125,8.312668164062499,8.795712991986099
1.541904998756528,-0.7565677246093749,2.8203695556640622,7.766790185546874,8.29758452435072
1.5443919423029095,-0.7852981445312499,2.81558115234375,7.287949853515625,7.8522865121311
1.5468788858492912,-0.7852981445312499,2.806004345703125,6.967126831054687,7.551901074822894
1.5493658293956727,-0.7517793212890624,2.7724855224609373,6.904877587890625,7.478581591714273
1.5518527729420541,-0.6847416748046875,2.70065947265625,7.043741284179687,7.574742505651236
1.5543397164884356,-0.63206923828125,2.6671406494140624,7.4028715332031245,7.894026710294784
1.556826660034817,-0.5793968017578125,2.6192566162109374,7.81467421875,8.262284128535393
1.5593136035811985,-0.49799394531249996,2.5378537597656248,8.461108666992187,8.847545396898212
1.5618005471275802,-0.4644751220703125,2.418143676757812,9.117119921875,9.443782698173228
1.5642874906739617,-0.37828386230468747,2.365471240234375,9.821015209960937,10.10895111389605
1.5667744342203431,-0.3399766357421875,2.3032219970703123,10.548852514648438,10.80271748480186
1.5692613777667246,-0.296881005859375,2.3319524169921872,11.137826123046874,11.383203027003479
1.571748321313106,-0.2346317626953125,2.31758720703125,11.688492504882811,11.91835221676898
1.5742352648594875,-0.28730419921875,2.308010400390625,11.956643090820311,12.180754069944156
1.5767222084058692,-0.277727392578125,2.29843359375,12.033257543945313,12.253946980805146
1.5792091519522506,-0.3447650390625,2.365471240234375,11.980585107421874,12.216740016744014
1.581696095498632,-0.3687070556640625,2.437297290039062,11.707646118164062,11.964336195589384
1.5841830390450136,-0.4836287353515625,2.4899697265625,11.214440576171874,11.497718183593893
1.586669982591395,-0.45968671875,2.6336218261718747,10.658985791015624,10.989142545974959
1.5891569261377765,-0.5458779785156249,2.6815058593749996,9.950302099609374,10.319736833601015
1.5916438696841582,-0.6464344482421874,2.748543505859375,9.203311181640624,9.626697544100326
1.5941308132305396,-0.7278373046875,2.7964275390625,8.528146313476562,9.00438968877879
1.596617756776921,-0.7900865478515624,2.77727392578125,7.9295958984374995,8.438955997304241
1.5991047003233025,-0.7900865478515624,2.829946362304687,7.417236743164062,7.9779843363321135
1.601591643869684,-0.7757213378906249,2.839523168945312,7.096413720703125,7.682689836015744
1.6040785874160655,-0.74699091796875,2.77727392578125,6.9527616210937495,7.524103936689496
1.6065655309624471,-0.7230489013671875,2.73896669921875,6.962338427734375,7.516574663735092
1.6090524745088286,-0.6560112548828124,2.6910826660156246,7.307103466796875,7.814476166470635
1.61153941805521,-0.584185205078125,2.6479870361328124,7.704540942382812,8.167806243429911
1.6140263616015915,-0.55545478515625,2.5617957763671875,8.226476904296874,8.634017018462242
1.616513305147973,-0.49320554199218747,2.446874096679687,8.911218579101561,9.254202348996843
1.6190002486943544,-0.40222587890625,2.4133552734375,9.624690673828125,9.930797546036501
1.6214871922407361,-0.3591302490234375,2.3511060302734372,10.352527978515624,10.622217736767617
1.6239741357871176,-0.26815058593749996,2.27927998046875,10.960655200195312,11.198347395204026
1.626461079333499,-0.2346317626953125,2.3032219970703123,11.463437548828125,11.69488281547689
1.6289480228798805,-0.277727392578125,2.2553379638671873,11.79862578125,12.01545888269882
1.631434966426262,-0.2346317626953125,2.308010400390625,12.061987963867187,12.283058158001765
1.6339219099726436,-0.296881005859375,2.39420166015625,11.994950317382811,12.23516134089032
1.636408853519025,-0.40222587890625,2.398990063476562,11.784260571289062,12.032694469417862
1.6388957970654066,-0.45010991210937495,2.4851813232421875,11.396399902343749,11.672902632872063
1.641382740611788,-0.5363011718749999,2.5330653564453125,10.82179150390625,11.127228334180773
1.6438696841581695,-0.5746083984375,2.6001030029296874,10.165780249023436,10.508748665223367
1.646356627704551,-0.6464344482421874,2.6767174560546874,9.437942944335937,9.831452632035743
1.6488435712509326,-0.6751648681640625,2.767697119140625,8.75320126953125,9.20513592552689
1.651330514797314,-0.7852981445312499,2.7150246826171873,8.092401611328125,8.571756881879631
1.6538174583436955,-0.7852981445312499,2.8203695556640622,7.580042456054687,8.125775116375822
1.656304401890077,-0.7613561279296874,2.7724855224609373,7.168239770507812,7.723341280383864
1.6587913454364585,-0.7517793212890624,2.8107927490234372,6.976703637695312,7.559108523768631
1.66127828898284,-0.7230489013671875,2.7629087158203123,6.9336080078124995,7.498758850084843
1.6637652325292216,-0.6655880615234374,2.7054478759765623,7.149086157226562,7.672801871592741
1.666252176075603,-2.3032219970703123,3.7301661865234372,-8.283937744140625,9.37243809772404
1.6687391196219845,-2.1116858642578125,3.284844677734375,-8.135497241210937,9.02417514833887
1.671226063168366,-1.8100164550781248,2.6767174560546874,-6.564900952148437,7.317028113839724
1.6737130067147474,-1.39821376953125,2.1883003173828124,-3.864241479492187,4.655751522170451
1.676199950261129,-0.93852705078125,1.7334020019531249,-0.2059013427734375,1.9818957814121196
1.6786868938075106,-0.44053310546874996,1.369483349609375,4.0222587890625,4.271781809510147
1.681173837353892,-0.0383072265625,1.1109095703125,8.494627490234375,8.567046382205735
1.6836607809002735,0.37828386230468747,0.9097966308593749,12.808978881835937,12.846819395683985
1.686147724446655,0.6464344482421874,0.9193734375,16.735469604492188,16.773165112653505
1.6886346679930364,0.8379705810546875,1.0582371337890624,19.823989746093748,19.869892550773226
1.6911216115394179,0.86191259765625,1.2880804931640624,21.945252416992187,21.999912461834246
1.6936085550857995,0.8475473876953125,1.5658078857421873,22.931663500976562,23.000680029761345
1.696095498632181,0.6847416748046875,1.9393033447265624,22.941240307617186,23.03324283456243
1.6985824421785625,0.47884033203125,2.403778466796875,21.806388720703122,21.94370132906991
1.701069385724944,0.16759411621093748,2.767697119140625,19.756952099609375,19.95057371098253
1.7035563292713254,-0.21068974609375,3.1699229980468746,16.946159350585937,17.241378097997465
1.7060432728177068,-0.5315127685546874,3.4763808105468748,13.737929125976562,14.18091767247206
1.7085302163640885,-0.9337386474609375,3.687070556640625,10.290278735351562,10.970697042696827
1.71101715991047,-1.1731588134765625,3.806780639648437,6.967126831054687,8.0255053872041
1.7135041034568514,-1.4221557861328125,3.801992236328125,3.9600095458984375,5.670921234573544
1.715991047003233,-1.5849614990234373,3.758896606445312,1.5849614990234373,4.376472278527459
1.7184779905496144,-1.6472107421875,3.6008792968749996,-0.076614453125,3.96049298879174
1.7209649340959958,-1.5514426757812498,3.337517114257812,-0.9433154541015625,3.7994524487280947
1.7234518776423775,-1.4796166259765624,3.0119056884765625,-0.8858546142578124,3.4706742333076437
1.725938821188759,-1.235408056640625,2.7629087158203123,0.009576806640625,3.026547431247996
1.7284257647351404,-1.0390835205078124,2.39420166015625,1.5705962890624998,3.0460907496827385
1.7309127082815219,-0.7805097412109374,2.1452046874999997,3.7158009765625,4.360994783856083
1.7333996518279033,-0.49320554199218747,1.8339584716796873,6.234501123046875,6.5173353171192785
1.7358865953742848,-0.24899697265624998,1.7094599853515624,8.916006982421875,9.08181884010608
1.7383735389206665,0.0383072265625,1.5658078857421873,11.501744775390625,11.607900527523695
1.740860482467048,0.1197100830078125,1.5275006591796874,13.824120385742187,13.908770370067257
1.7433474260134294,0.2920926025390625,1.5658078857421873,15.701174487304687,15.781760126940787
1.7458343695598109,0.316034619140625,1.8004396484374998,16.98925498046875,17.087312415928473
1.7483213131061923,0.3064578125,1.9488801513671874,17.66441984863281,17.77424481726321
1.7508082566525738,0.1771709228515625,2.1643583007812497,17.64526623535156,17.778392978739742
1.7532952001989555,0.01915361328125,2.4133552734375,16.936582543945313,17.107673097315235
1.755782143745337,-0.16280571289062498,2.6288334228515624,15.653290454101562,15.873335279824413
1.7582690872917184,-0.3687070556640625,2.89219560546875,14.020444921874999,14.320391618964884
1.7607560308380998,-0.5746083984375,3.0885201416015624,11.97100830078125,12.376355328367355
1.7632429743844813,-0.7805097412109374,3.2513258544921873,9.821015209960937,10.374615897588622
1.765729917930863,-1.0007762939453124,3.327940307617187,7.790732202148437,8.530665163231923
1.7682168614772444,-1.1013327636718748,3.3327287109375,5.91846650390625,6.881007213693684
1.770703805023626,-1.177947216796875,3.289633081054687,4.434061474609375,5.645365055879373
1.7731907485700074,-1.22583125,3.2225954345703123,3.4332851806640625,4.865719959076709
1.7756776921163888,-1.20667763671875,3.1124621582031247,2.935291235351562,4.445157617175718
1.7781646356627703,-1.1061211669921875,2.901772412109375,3.0119056884765625,4.326125638955102
1.780651579209152,-0.9720458740234375,2.6910826660156246,3.5721488769531247,4.576794368950087
1.7831385227555334,-0.842758984375,2.4516625,4.6255976074218745,5.302550796120486
1.7856254663019149,-0.6703764648437499,2.288856787109375,5.966350537109375,6.425387827063701
1.7881124098482963,-0.47884033203125,2.1739351074218747,7.651868505859374,7.969088627052891
1.7905993533946778,-0.296881005859375,2.039859814453125,9.327809667968749,9.552863423922279
1.7930862969410593,-0.16759411621093748,1.886630908203125,10.9941740234375,11.156134027036597
1.795573240487441,-0.0383072265625,1.905784521484375,12.502521069335936,12.646996290626694
1.7980601840338224,0.009576806640625,1.944091748046875,13.670891479492187,13.808434316898548
1.8005471275802039,-0.0143652099609375,2.0063409912109376,14.489708447265624,14.627961628984105
1.8030340711265853,-0.028730419921875,2.1068974609374997,14.939818359375,15.087677586661641
1.8055210146729668,-0.0909796630859375,2.24097275390625,14.762647436523437,14.932045925389373
1.8080079582193482,-0.16759411621093748,2.418143676757812,14.288595507812499,14.492738465007633
1.81049490176573,-0.3495534423828125,2.5426421630859375,13.354856860351562,13.599243307591168
1.8129818453121114,-0.45489831542968745,2.8203695556640622,12.272677709960936,12.600795017794294
1.8154687888584928,-0.612915625,2.858676782226562,10.845733520507812,11.232881825536897
1.8179557324048743,-0.7230489013671875,2.987963671875,9.423577734375,9.912343009300136
1.8204426759512558,-0.8667010009765624,3.0454245117187497,8.02536396484375,8.627412581410706
1.8229296194976372,-0.9241618408203125,3.1172505615234374,6.852205151367187,7.584460535052548
1.825416563044019,-0.97683427734375,3.1268273681640624,5.884947680664062,6.735270135625357
1.8279035065904004,-0.9528922607421875,3.0789433349609374,5.267243652343749,6.1750912069084665
1.8303904501367818,-0.9720458740234375,2.906560815429687,4.955997436523437,5.827081563340619
1.8328773936831633,-0.9050082275390624,2.7964275390625,5.03740029296875,5.832190719167386
1.8353643372295447,-0.8044517578125,2.6862942626953124,5.506663818359375,6.1795360590311
1.8378512807759262,-0.70868369140625,2.5378537597656248,6.263231542968749,6.794924844415898
1.8403382243223079,-0.5506663818359374,2.360682836914062,7.307103466796875,7.698689368656188
1.8428251678686893,-0.44532150878906246,2.2457611572265623,8.456320263671875,8.760770903481346
1.8453121114150708,-0.3399766357421875,2.1499930908203124,9.619902270507811,9.863091508119906
1.8477990549614522,-0.2442085693359375,2.0829554443359375,10.831368310546875,11.032537363958705
1.8502859985078337,-0.1771709228515625,2.0733786376953125,11.927912670898436,12.10807124176823
1.8527729420542152,-0.1197100830078125,2.0829554443359375,12.684480395507812,12.854924223467226
1.8552598856005968,-0.105344873046875,2.1595698974609374,13.235146777343749,13.410590960212355
1.8577468291469783,-0.15322890625,2.1835119140624997,13.431471313476562,13.608659927461899
1.8602337726933598,-0.22505495605468748,2.3319524169921872,13.350068457031249,13.554076125497495
1.8627207162397412,-0.3112462158203125,2.43250888671875,12.904746948242186,13.135694404522138
1.8652076597861227,-0.4261678955078125,2.5857377929687497,12.215216870117187,12.493165419266008
1.8676946033325041,-0.5027823486328125,2.6958710693359373,11.3006318359375,11.628619471114503
1.8701815468788858,-0.6368576416015624,2.7724855224609373,10.261548315429687,10.648550955778896
1.8726684904252673,-0.70868369140625,2.877830395507812,9.227253198242186,9.691560346210743
1.8751554339716487,-0.7948749511718749,2.93050283203125,8.183381274414062,8.728539518096621
1.8776423775180302,-0.8667010009765624,2.9544448486328125,7.273584643554687,7.898414306407414
1.8801293210644117,-0.8858546142578124,2.9544448486328125,6.5409589355468745,7.231709794905028
1.8826162646107931,-0.8571241943359375,2.920926025390625,6.110002636718749,6.82631693895254
1.8851032081571748,-0.852335791015625,2.844311572265625,5.923254907226562,6.625823218042716
1.8875901517035563,-0.7948749511718749,2.73896669921875,6.062118603515625,6.699481079197103
1.8900770952499377,-0.7326257080078125,2.6431986328124997,6.440402465820312,7.000144524385205
1.8925640387963192,-0.622492431640625,2.5426421630859375,7.096413720703125,7.563835911251364
1.8950509823427006,-0.5315127685546874,2.4516625,7.948749511718749,8.33521287293204
1.897537925889082,-0.4644751220703125,2.35589443359375,8.8489693359375,9.168982169773393
1.9000248694354638,-0.3687070556640625,2.2601263671875,9.8449572265625,10.107784073742266
1.9025118129818452,-0.3016694091796875,2.2170307373046874,10.754753857421875,10.985033466326776
1.9049987565282267,-0.19153613281249998,2.1643583007812497,11.559205615234374,11.761648158298197
1.9074857000746082,-0.19153613281249998,2.2074539306640624,12.243947290039062,12.442820588091426
1.9099726436209896,-0.22026655273437498,2.1930887207031247,12.598289135742187,12.789645993493657
1.9124595871673713,-0.19632453613281248,2.3223756103515623,12.794613671875,13.005157085232543
1.9149465307137528,-0.296881005859375,2.3127988037109373,12.593500732421875,12.807553916950617
1.9174334742601342,-0.36391865234375,2.480392919921875,12.220005273437499,12.474506591667765
1.9199204178065157,-0.45489831542968745,2.5522189697265625,11.650185278320311,11.93514018208434
1.9224073613528971,-0.4836287353515625,2.710236279296875,10.903194360351561,11.245395711262312
1.9248943048992786,-0.6703764648437499,2.7246014892578123,9.945513696289062,10.333736040898065
1.9273812484456603,-0.718260498046875,2.839523168945312,9.083601098632812,9.5441395049064
1.9298681919920417,-0.7900865478515624,2.877830395507812,8.231265307617187,8.755562409279424
1.9323551355384232,-0.8092401611328125,2.916137622070312,7.493851196289062,8.081864513920483
1.9348420790848047,-0.814028564453125,2.887407202148437,6.957550024414062,7.576758224794322
1.9373290226311861,-0.8571241943359375,2.7964275390625,6.5601125488281244,7.182600192063833
1.9398159661775676,-0.7900865478515624,2.7964275390625,6.430825659179687,7.0568946706810785
1.9423029097239493,-0.7422025146484375,2.7533319091796873,6.641515405273437,7.227823189131144
1.9447898532703307,-0.6943184814453125,2.6240450195312497,6.900089184570312,7.414777216695555
1.9472767968167122,-0.5602431884765625,2.5953145996093747,7.522581616210937,7.977390831201309
1.9497637403630936,-0.5123591552734374,2.480392919921875,8.221688500976562,8.602965927416038
1.952250683909475,-0.411802685546875,2.375048046875,9.04050546875,9.356344040664977
1.9547376274558566,-0.38786066894531246,2.231395947265625,9.883264453125,10.139451662806641
1.9572245710022382,-0.32561142578124996,2.2601263671875,10.697293017578124,10.93829382948644
1.9597115145486197,-0.2346317626953125,2.24097275390625,11.367669482421874,11.588827395789501
1.9621984580950012,-0.2442085693359375,2.250549560546875,11.942277880859374,12.154941881122998
1.9646854016413826,-0.26336218261718747,2.2553379638671873,12.243947290039062,12.452716740203655
1.967172345187764,-0.2537853759765625,2.288856787109375,12.397176196289061,12.609252557181664
1.9696592887341455,-0.33518823242187495,2.3367408203125,12.306196533203124,12.530569896309164
1.9721462322805272,-0.38786066894531246,2.422932080078125,11.918335864257811,12.16830988824826
1.9746331758269087,-0.5315127685546874,2.4947581298828125,11.396399902343749,11.678366952784696
1.9771201193732901,-0.5363011718749999,2.6384102294921874,10.740388647460938,11.072704086380675
1.9796070629196716,-0.6512228515624999,2.7198130859375,9.969455712890625,10.35429966903226
1.982094006466053,-0.7038952880859375,2.81558115234375,9.145850341796875,9.59528760780879
1.9845809500124345,-0.7326257080078125,2.7964275390625,8.33182177734375,8.81907033301587
1.9870678935588162,-0.8044517578125,2.844311572265625,7.6231380859375,8.176153449394318
1.9895548371051976,-0.82360537109375,2.863465185546875,7.1586629638671875,7.753980533015105
1.992041780651579,-0.8283937744140625,2.7964275390625,6.813897924804687,7.411845124958613
1.9945287241979606,-0.7661445312499999,2.806004345703125,6.694187841796874,7.298821048096069
1.997015667744342,-0.7661445312499999,2.70065947265625,6.766013891601562,7.32526334075148
1.9995026112907235,-0.6368576416015624,2.6240450195312497,7.086836914062499,7.583828674667694
2.001989554837105,-0.5698199951171875,2.6144682128906247,7.637503295898437,8.092687777117707
2.0044764983834864,-0.5267243652343749,2.4851813232421875,8.298302954101562,8.678444370068524
2.006963441929868,-0.45968671875,2.370259643554687,9.016563452148437,9.334230506253746
2.0094503854762498,-0.37828386230468747,2.3319524169921872,9.792284790039062,10.073228984036163
2.011937329022631,-0.27293898925781246,2.2601263671875,10.587159741210938,10.829155935410244
2.0144242725690127,-0.26336218261718747,2.2601263671875,11.200075366210937,11.428876543374423
2.016911216115394,-0.2537853759765625,2.24097275390625,11.784260571289062,11.998131650921644
2.0193981596617756,-0.2346317626953125,2.3032219970703123,12.105083593749999,12.32448507823063
2.021885103208157,-0.258573779296875,2.269703173828125,12.234370483398436,12.44581190688965
2.0243720467545385,-0.3591302490234375,2.346317626953125,12.157756030273436,12.387300457886887
2.02685899030092,-0.430956298828125,2.39420166015625,11.808202587890625,12.056184026368436
2.0293459338473014,-0.49320554199218747,2.4947581298828125,11.334150659179686,11.61593909239591
2.031832877393683,-0.5267243652343749,2.5713725830078125,10.692504614257812,11.009952336113923
2.0343198209400644,-0.59376201171875,2.6240450195312497,9.95987890625,10.31684803698546
2.036806764486446,-0.6272808349609375,2.7581203125,9.265560424804686,9.687689037631275
2.0392937080328277,-0.737414111328125,2.77727392578125,8.475473876953124,8.949340057754263
2.041780651579209,-0.7900865478515624,2.8012159423828122,7.843404638671874,8.366005249513957
2.0442675951255906,-0.7900865478515624,2.882618798828125,7.287949853515625,7.8770515397458025
2.046754538671972,-0.7757213378906249,2.858676782226562,6.9527616210937495,7.557424872207081
2.0492414822183536,-0.7852981445312499,2.7724855224609373,6.809109521484374,7.393736648246872
2.0517284257647352,-0.7134720947265625,2.7916391357421872,6.823474731445312,7.406895362082117
2.0542153693111165,-0.6368576416015624,2.6910826660156246,7.1778165771484375,7.692110528728964
2.056702312857498,-0.6081272216796875,2.5761609863281247,7.570465649414062,8.019873708119425
2.0591892564038794,-0.5123591552734374,2.5043349365234375,8.240842114257813,8.62819124326817
2.061676199950261,-0.4644751220703125,2.39420166015625,8.954314208984375,9.280500077136827
2.0641631434966423,-0.3591302490234375,2.35589443359375,9.634267480468749,9.924632134402732
2.066650087043024,-0.32561142578124996,2.2601263671875,10.371681591796875,10.620074059905308
2.0691370305894057,-0.296881005859375,2.269703173828125,11.075576879882812,11.309646062150673
2.071623974135787,-0.2442085693359375,2.27927998046875,11.621454858398437,11.84537749843775
2.0741109176821686,-0.26336218261718747,2.2553379638671873,11.980585107421874,12.193864378722287
2.07659786122855,-0.27293898925781246,2.2840683837890623,12.114660400390624,12.331117576703036
2.0790848047749315,-0.3399766357421875,2.35589443359375,12.052411157226562,12.28521214297612
2.081571748321313,-0.3687070556640625,2.418143676757812,11.851298217773437,12.101100494621969
2.0840586918676944,-0.45968671875,2.437297290039062,11.405976708984374,11.67253334308028
2.086545635414076,-0.5027823486328125,2.6240450195312497,10.8409451171875,11.165325494068455
2.0890325789604574,-0.5793968017578125,2.6527754394531247,10.156203442382813,10.512915226002795
2.091519522506839,-0.6512228515624999,2.7246014892578123,9.375693701171874,9.785253029730864
2.0940064660532203,-0.6943184814453125,2.806004345703125,8.652644799804687,9.122718924386986
2.096493409599602,-0.7805097412109374,2.7916391357421872,7.977479931640625,8.48779303353124
2.0989803531459836,-0.8188169677734375,2.786850732421875,7.426813549804687,7.97461959814238
2.101467296692365,-0.8044517578125,2.825157958984375,7.067683300781249,7.6538099900639365
2.1039542402387466,-0.7613561279296874,2.839523168945312,6.909665991210937,7.50906379588097
2.106441183785128,-0.70868369140625,2.77727392578125,6.9336080078124995,7.502693052450647
2.1089281273315095,-0.63206923828125,2.7150246826171873,7.153874560546875,7.677811652889236
2.111415070877891,-0.6272808349609375,2.6144682128906247,7.50821640625,7.975101183383597
2.1139020144242724,-0.55545478515625,2.5474305664062498,8.12113203125,8.529403143128397
2.116388957970654,-0.4644751220703125,2.418143676757812,8.743624462890624,9.083728569729798
2.1188759015170353,-0.38307226562499996,2.389413256835937,9.528922607421874,9.831398991540832
2.121362845063417,-0.354341845703125,2.29843359375,10.180145458984374,10.442399948985626
2.1238497886097982,-0.27293898925781246,2.3319524169921872,10.864887133789061,11.115676776379738
2.12633673215618,-0.277727392578125,2.269703173828125,11.420341918945311,11.647012258407441
2.1288236757025616,-0.239420166015625,2.327164013671875,11.851298217773437,12.07999519076991
2.131310619248943,-0.24899697265624998,2.29843359375,12.066776367187499,12.28624793714441
2.1337975627953245,-0.28730419921875,2.398990063476562,12.08592998046875,12.3250720290123
2.1362845063417057,-0.354341845703125,2.427720483398437,11.899182250976562,12.149482422353813
2.1387714498880874,-0.44532150878906246,2.4851813232421875,11.487379565429686,11.76156140722113
2.141258393434469,-0.4836287353515625,2.5043349365234375,10.927136376953124,11.220868933753831
2.1437453369808503,-0.5506663818359374,2.6096798095703124,10.342951171874999,10.681306152168547
2.146232280527232,-0.6464344482421874,2.6719290527343746,9.572018237304688,9.958946505229042
2.1487192240736133,-0.689530078125,2.77727392578125,8.858546142578124,9.309271826928743
2.151206167619995,-0.7613561279296874,2.829946362304687,8.164227661132813,8.674264975769635
2.153693111166376,-0.7565677246093749,2.8012159423828122,7.60398447265625,8.138782792173384
2.156180054712758,-0.8092401611328125,2.7724855224609373,7.1778165771484375,7.737092246175734
2.1586669982591395,-0.7805097412109374,2.825157958984375,6.957550024414062,7.549716239141842
2.161153941805521,-0.7134720947265625,2.786850732421875,6.943184814453125,7.515543546704145
2.1636408853519025,-0.6655880615234374,2.6910826660156246,7.038952880859375,7.565169597697779
2.1661278288982837,-0.6368576416015624,2.5857377929687497,7.417236743164062,7.880801259630662
2.1686147724446654,-0.59376201171875,2.5617957763671875,7.967903124999999,8.390639495041949
2.171101715991047,-0.45968671875,2.499546533203125,8.647856396484375,9.013571157163991
2.1735886595374283,-0.43574470214843747,2.408566870117187,9.289502441406249,9.606556272784186
2.17607560308381,-0.32561142578124996,2.3415292236328122,9.983820922851562,10.25989581454385
2.178562546630191,-0.32561142578124996,2.27927998046875,10.697293017578124,10.942267495080287
2.181049490176573,-0.28730419921875,2.27927998046875,11.257536206054686,11.489551007889146
2.1835364337229546,-0.296881005859375,2.250549560546875,11.765106958007811,11.98210554908784
2.186023377269336,-0.3016694091796875,2.288856787109375,11.990161914062499,12.210399360781217
2.1885103208157175,-0.3064578125,2.3223756103515623,12.061987963867187,12.287347089867486
2.1909972643620987,-0.3495534423828125,2.365471240234375,11.927912670898436,12.165226774788751
2.1934842079084804,-0.4070142822265625,2.437297290039062,11.602301245117188,11.86252388357621
2.1959711514548617,-0.45968671875,2.5139117431640625,11.056423266601563,11.347931951772608
2.1984580950012433,-0.5458779785156249,2.5905261962890624,10.500968481445312,10.82954975007715
2.200945038547625,-0.6464344482421874,2.6719290527343746,9.792284790039062,10.170836925639431
2.2034319820940063,-0.6943184814453125,2.7533319091796873,9.088389501953124,9.521645787099798
2.205918925640388,-0.689530078125,2.7964275390625,8.365340600585936,8.84728105542475
2.208405869186769,-0.7805097412109374,2.839523168945312,7.766790185546874,8.306329939835623
2.210892812733151,-0.7996633544921875,2.767697119140625,7.340622290039062,7.8857050685931265
2.2133797562795325,-0.7948749511718749,2.81558115234375,7.048529687499999,7.631585298547261
2.2158666998259138,-0.7852981445312499,2.7629087158203123,6.943184814453125,7.513865391089499
2.2183536433722955,-0.7422025146484375,2.6767174560546874,7.0102224609374995,7.540484060332662
2.2208405869186767,-0.6751648681640625,2.5857377929687497,7.340622290039062,7.811953861756239
2.2233275304650584,-0.5746083984375,2.5953145996093747,7.848193041992187,8.286130985380032
2.2258144740114396,-0.507570751953125,2.499546533203125,8.355763793945313,8.736369355750327
2.2283014175578213,-0.39264907226562495,2.442085693359375,9.074024291992187,9.405098228053012
2.230788361104203,-0.3687070556640625,2.360682836914062,9.830592016601562,10.116783468388926
2.233275304650584,-0.316034619140625,2.360682836914062,10.500968481445312,10.767685005854501
2.235762248196966,-0.2920926025390625,2.27927998046875,11.109095703125,11.344269154908746
2.238249191743347,-0.22026655273437498,2.308010400390625,11.597512841796874,11.826991734088942
2.240736135289729,-0.296881005859375,2.2553379638671873,11.89439384765625,12.109966666595888
2.2432230788361105,-0.3112462158203125,2.29843359375,12.023680737304687,12.245348899250393
2.2457100223824917,-0.354341845703125,2.346317626953125,11.980585107421874,12.21331994448463
2.2481969659288734,-0.37828386230468747,2.442085693359375,11.654973681640625,11.914079600788568
2.2506839094752547,-0.45010991210937495,2.499546533203125,11.257536206054686,11.540470234581388
2.2531708530216363,-0.5410895751953124,2.5857377929687497,10.702081420898438,11.023310056508048
2.2556577965680176,-0.6177040283203125,2.6527754394531247,9.974244116210937,10.339454603050267
2.2581447401143993,-0.6655880615234374,2.6719290527343746,9.260772021484375,9.66147559974129
2.260631683660781,-0.70868369140625,2.7916391357421872,8.628702783203124,9.096702334336873
2.263118627207162,-0.7709329345703124,2.8012159423828122,7.9295958984374995,8.445095586077262
2.265605570753544,-0.7757213378906249,2.81558115234375,7.4699091796875,8.020522674506429
2.268092514299925,-0.82360537109375,2.7629087158203123,7.082048510742187,7.6463979420218475
2.2705794578463068,-0.7613561279296874,2.7820623291015623,6.900089184570312,7.478687365545259
2.2730664013926885,-0.6943184814453125,2.710236279296875,6.986280444335937,7.525660986930266
2.2755533449390697,-0.6655880615234374,2.6767174560546874,7.249642626953125,7.756619239444864
2.2780402884854514,-0.5698199951171875,2.6048914062499997,7.632714892578124,8.085078273991808
2.2805272320318326,-0.51714755859375,2.528276953125,8.207323291015625,8.603474969587001
2.2830141755782143,-0.45968671875,2.446874096679687,8.844180932617187,9.187929097096179
2.2855011191245955,-0.39743747558593745,2.379836450195312,9.567229833984374,9.866785939350212
2.287988062670977,-0.316034619140625,2.3367408203125,10.251971508789062,10.519655667313106
2.290475006217359,-0.296881005859375,2.27927998046875,10.941501586914061,11.18032703177544
2.29296194976374,-0.239420166015625,2.288856787109375,11.449072338867186,11.678075390594348
2.295448893310122,-0.258573779296875,2.2936451904296873,11.81777939453125,12.041078792065457
2.297935836856503,-0.2825157958984375,2.29843359375,11.999738720703125,12.221143216776102
2.3004227804028847,-0.3064578125,2.3511060302734372,12.014103930664062,12.245828237127453
2.3029097239492664,-0.38307226562499996,2.360682836914062,11.77947216796875,12.019797517976004
2.3053966674956476,-0.4644751220703125,2.446874096679687,11.420341918945311,11.688761248722798
2.3078836110420293,-0.49320554199218747,2.5809493896484375,10.869675537109375,11.18277236380194
2.3103705545884106,-0.5698199951171875,2.6671406494140624,10.242394702148436,10.59929164167071
2.3128574981347922,-0.6368576416015624,2.6958710693359373,9.504980590820312,9.900402239809232
2.315344441681174,-0.699106884765625,2.6910826660156246,8.805873706054687,9.234397006769948
2.317831385227555,-0.7422025146484375,2.7820623291015623,8.169016064453125,8.661614101138984
2.320318328773937,-0.7805097412109374,2.829946362304687,7.6087728759765625,8.155440916826223
2.322805272320318,-0.8475473876953125,2.767697119140625,7.192181787109375,7.752803543010507
2.3252922158666998,-0.7613561279296874,2.748543505859375,6.976703637695312,7.537144565773489
2.327779159413081,-0.7565677246093749,2.7341782958984373,6.943184814453125,7.500396059098157
2.3302661029594627,-0.7038952880859375,2.70065947265625,7.153874560546875,7.67899416537591
2.3327530465058444,-0.6464344482421874,2.6479870361328124,7.474697583007812,7.9561810434921885
2.3352399900522256,-0.5746083984375,2.50912333984375,8.0062103515625,8.409832277731232
2.3377269335986073,-0.5027823486328125,2.4947581298828125,8.619125976562499,8.986987304796171
2.3402138771449885,-0.40222587890625,2.370259643554687,9.332598071289063,9.637287128427493
2.34270082069137,-0.32561142578124996,2.403778466796875,10.098742602539062,10.385989402573694
2.345187764237752,-0.316034619140625,2.2936451904296873,10.702081420898438,10.949668162990882
2.347674707784133,-0.27293898925781246,2.346317626953125,11.334150659179686,11.57767996031119
2.350161651330515,-0.26815058593749996,2.27927998046875,11.693280908203125,11.916368589643907
2.352648594876896,-0.3016694091796875,2.308010400390625,11.97100830078125,12.19520217864877
2.3551355384232777,-0.2920926025390625,2.3415292236328122,12.038045947265624,12.267136072533917
2.357622481969659,-0.354341845703125,2.418143676757812,11.923124267578125,12.171025810718277
2.3601094255160406,-0.40222587890625,2.47081611328125,11.6070896484375,11.873973556909124
2.3625963690624223,-0.45968671875,2.5905261962890624,11.046846459960937,11.355833503667025
2.3650833126088036,-0.5506663818359374,2.6048914062499997,10.457872851562499,10.791468726817834
2.3675702561551852,-0.6416460449218749,2.6527754394531247,9.773131176757811,10.147069536434897
2.3700571997015665,-0.6655880615234374,2.7629087158203123,9.05965908203125,9.494951012102678
2.372544143247948,-0.7422025146484375,2.8107927490234372,8.37012900390625,8.860613973802597
2.37503108679433,-0.8283937744140625,2.7198130859375,7.771578588867187,8.275327983280405
2.377518030340711,-0.7900865478515624,2.844311572265625,7.302315063476562,7.876430051711045
2.3800049738870928,-0.7900865478515624,2.81558115234375,7.072471704101562,7.6532078231187874
2.382491917433474,-0.7422025146484375,2.786850732421875,6.981492041015625,7.553716482389005
2.3849788609798557,-0.7230489013671875,2.73896669921875,7.067683300781249,7.6142554155570386
2.387465804526237,-0.6655880615234374,2.6527754394531247,7.359775903320312,7.851530191427819
2.3899527480726186,-0.603338818359375,2.5378537597656248,7.805097412109374,8.229475381104939
2.3924396916190003,-0.55545478515625,2.4851813232421875,8.418013037109375,8.794748417134409
2.3949266351653815,-0.43574470214843747,2.47081611328125,9.09796630859375,9.437573663999007
2.397413578711763,-0.39743747558593745,2.39420166015625,9.849745629882811,10.14434064441305
2.3999005222581444,-0.316034619140625,2.365471240234375,10.453084448242187,10.72204768460549
2.402387465804526,-0.3064578125,2.327164013671875,11.137826123046874,11.382476860709932
2.404874409350908,-0.239420166015625,2.29843359375,11.602301245117188,11.830194976551372
2.407361352897289,-0.258573779296875,2.2936451904296873,11.89439384765625,12.116281346274688
2.4098482964436707,-0.3064578125,2.3032219970703123,12.018892333984374,12.241426424013632
2.412335239990052,-0.3399766357421875,2.365471240234375,11.966219897460936,12.202518466923808
2.4148221835364336,-0.3687070556640625,2.422932080078125,11.722011328125,11.97547887703281
2.417309127082815,-0.43574470214843747,2.4851813232421875,11.271901416015623,11.550833787533142
2.4197960706291965,-0.5458779785156249,2.5570073730468748,10.70686982421875,11.021494041463272
2.4222830141755782,-0.59376201171875,2.6527754394531247,9.993397729492187,10.356532674527012
2.4247699577219595,-0.6703764648437499,2.729389892578125,9.3086560546875,9.723685069704505
2.427256901268341,-0.7326257080078125,2.767697119140625,8.571241943359375,9.036762485698972
2.4297438448147224,-0.7565677246093749,2.7820623291015623,7.982268334960937,8.486982578999832
2.432230788361104,-0.7805097412109374,2.7916391357421872,7.50821640625,8.048338842482604
2.4347177319074857,-0.7757213378906249,2.7916391357421872,7.110778930664062,7.678422341799268
2.437204675453867,-0.7900865478515624,2.786850732421875,6.967126831054687,7.545305165326215
2.4396916190002487,-0.7278373046875,2.77727392578125,6.986280444335937,7.553218654840458
2.44217856254663,-0.679953271484375,2.6958710693359373,7.201758593749999,7.719804668289008
2.4446655060930116,-0.603338818359375,2.6096798095703124,7.6470801025390625,8.102609489100846
2.4471524496393933,-0.5410895751953124,2.5043349365234375,8.212111694335936,8.602514160576892
2.4496393931857745,-0.5123591552734374,2.442085693359375,8.82981572265625,9.175616607823725
2.452126336732156,-0.39743747558593745,2.418143676757812,9.5384994140625,9.848266165194488
2.4546132802785374,-0.33518823242187495,2.360682836914062,10.251971508789062,10.525592355049543
2.457100223824919,-0.3112462158203125,2.2840683837890623,10.927136376953124,11.167638603985155
2.4595871673713003,-0.27293898925781246,2.2649147705078123,11.4538607421875,11.678838149017459
2.462074110917682,-0.27293898925781246,2.31758720703125,11.860875024414062,12.088261351361545
2.4645610544640637,-0.3016694091796875,2.3127988037109373,12.038045947265624,12.261916366023701
2.467047998010445,-0.32561142578124996,2.375048046875,11.97100830078125,12.208681983037222
2.4695349415568266,-0.373495458984375,2.408566870117187,11.841721411132811,12.089956956275293
2.472021885103208,-0.4740519287109375,2.4851813232421875,11.444283935546874,11.720600933310655
2.4745088286495895,-0.4644751220703125,2.5905261962890624,10.893617553710937,11.20702755056849
2.4769957721959712,-0.5698199951171875,2.6240450195312497,10.275913525390624,10.620955977343474
2.4794827157423525,-0.6751648681640625,2.6767174560546874,9.519345800781249,9.911539154621872
2.481969659288734,-0.718260498046875,2.7437551025390623,8.844180932617187,9.287821411646172
2.4844566028351154,-0.7230489013671875,2.7916391357421872,8.154650854492187,8.649530584756947
2.486943546381497,-0.7996633544921875,2.839523168945312,7.6279264892578125,8.17848493506077
2.4894304899278783,-0.7996633544921875,2.7916391357421872,7.216123803710937,7.778505852360638
2.49191743347426,-0.7852981445312499,2.7437551025390623,6.9910688476562495,7.551154141664904
2.4944043770206417,-0.7422025146484375,2.73896669921875,6.928819604492187,7.487412387719471
2.496891320567023,-0.689530078125,2.6958710693359373,7.115567333984375,7.640318778401007
2.4993782641134046,-0.6416460449218749,2.6001030029296874,7.503428002929687,7.967036906401103
2.501865207659786,-0.5746083984375,2.5426421630859375,7.991845141601562,8.406235349334311
2.5043521512061675,-0.5123591552734374,2.461239306640625,8.662221606445312,9.019661522901696
2.506839094752549,-0.43574470214843747,2.398990063476562,9.332598071289063,9.645849549435138
2.5093260382989304,-0.373495458984375,2.360682836914062,9.993397729492187,10.275228488661563
2.511812981845312,-0.316034619140625,2.3319524169921872,10.654197387695312,10.910994543651128
2.5142999253916933,-0.2920926025390625,2.308010400390625,11.3006318359375,11.537612837505577
2.516786868938075,-0.2537853759765625,2.27927998046875,11.698069311523437,11.920752906743417
2.5192738124844563,-0.277727392578125,2.308010400390625,11.947066284179687,12.171131307790684
2.521760756030838,-1.9967641845703124,3.342305517578125,-3.9695863525390624,5.5601878737935015
2.5242476995772196,-1.8291700683593748,2.9735984619140625,-4.146757275390625,5.420677711567493
2.526734643123601,-1.6519991455078125,2.5522189697265625,-3.2704794677734372,4.465306125599709
2.5292215866699825,-1.3263877197265623,2.1883003173828124,-1.455674609375,2.943968619139512
2.5317085302163638,-1.005564697265625,1.9297265380859374,1.1156979736328125,2.4453602680481272
2.5341954737627455,-0.699106884765625,1.6519991455078125,4.07971962890625,4.456676324747871
2.536682417309127,-0.3687070556640625,1.446097802734375,7.316680273437499,7.467325757704634
2.5391693608555084,-0.05746083984375,1.37906015625,10.486603271484375,10.577048588154383
2.54165630440189,0.181959326171875,1.43652099609375,13.393164086914062,13.471211750529486
2.5441432479482713,0.411802685546875,1.5705962890624998,15.835249780273436,15.918275338700811
2.546630191494653,0.4740519287109375,1.6998831787109374,17.597382202148438,17.68564922248741
2.549117135041034,0.49320554199218747,1.9823989746093749,18.641254125976563,18.752853457285436
2.551604078587416,0.430956298828125,2.250549560546875,18.899827905273437,19.038229736635966
2.5540910221337976,0.2442085693359375,2.47081611328125,18.420987573242186,18.587559099153673
2.556577965680179,0.1149216796875,2.767697119140625,17.348385229492187,17.56814800730641
2.5590649092265605,-0.1388636962890625,3.0023288818359375,15.753846923828124,16.03798474685215
2.5615518527729417,-0.3447650390625,3.1699229980468746,13.742717529296874,14.107783661360484
2.5640387963193234,-0.5698199951171875,3.289633081054687,11.597512841796874,12.06849968929229
2.566525739865705,-0.8044517578125,3.31357509765625,9.428366137695312,10.026016685847617
2.5690126834120863,-0.9911994873046874,3.303998291015625,7.426813549804687,8.188799706564433
2.571499626958468,-1.120486376953125,3.2561142578125,5.683834741210937,6.64558102397855
2.5739865705048492,-1.20667763671875,3.1124621582031247,4.376600634765625,5.504373236021924
2.576473514051231,-1.197100830078125,2.9448680419921875,3.5529952636718747,4.767501811829274
2.5789604575976126,-1.149216796875,2.806004345703125,3.23696064453125,4.435343712562604
2.581447401143994,-1.0965443603515623,2.6001030029296874,3.414131567382812,4.429361073502883
2.5839343446903755,-1.0295067138671874,2.408566870117187,4.031835595703125,4.807990922672639
2.5864212882367568,-0.86191259765625,2.2553379638671873,5.03740029296875,5.586129641250799
2.5889082317831384,-0.6703764648437499,2.1691467041015624,6.2392895263671875,6.639528283121201
2.5913951753295197,-0.5315127685546874,2.020706201171875,7.60398447265625,7.885831550000829
2.5938821188759014,-0.45010991210937495,2.0159177978515626,9.026140258789061,9.259467126784697
2.596369062422283,-0.26815058593749996,2.04943662109375,10.376469995117187,10.58032252628369
2.5988560059686643,-0.201112939453125,2.1021090576171875,11.563994018554688,11.755222948362157
2.601342949515046,-0.1149216796875,2.1883003173828124,12.502521069335936,12.693104362633632
2.603829893061427,-0.0909796630859375,2.3223756103515623,13.120225097656249,13.324489198007551
2.606316836607809,-0.1388636962890625,2.365471240234375,13.388375683593749,13.596445887053255
2.6088037801541906,-0.1292868896484375,2.5426421630859375,13.431471313476562,13.670631511165865
2.611290723700572,-0.2154781494140625,2.6336218261718747,13.101071484375,13.364896886802665
2.6137776672469535,-0.2825157958984375,2.729389892578125,12.612654345703124,12.90768894902661
2.6162646107933347,-0.39264907226562495,2.829946362304687,11.870451831054687,12.209438823339186
2.6187515543397164,-0.45010991210937495,2.834734765625,11.080365283203124,11.446082951544392
2.6212384978860976,-0.55545478515625,2.887407202148437,10.232817895507813,10.64688745371137
2.6237254414324793,-0.6512228515624999,2.868253588867187,9.34696328125,9.798810766286001
2.626212384978861,-0.7038952880859375,2.825157958984375,8.628702783203124,9.106673255951357
2.6286993285252422,-0.7613561279296874,2.77727392578125,8.06367119140625,8.562459150003319
2.631186272071624,-0.8667010009765624,2.6767174560546874,7.541735229492187,8.049456952888514
2.633673215618005,-0.8092401611328125,2.6527754394531247,7.307103466796875,7.815743614335803
2.636160159164387,-0.7565677246093749,2.528276953125,7.187393383789062,7.656579048567214
2.6386471027107685,-0.74699091796875,2.4899697265625,7.316680273437499,7.764776551481373
2.6411340462571498,-0.7326257080078125,2.408566870117187,7.50821640625,7.919043401758934
2.6436209898035314,-0.6703764648437499,2.422932080078125,7.848193041992187,8.241003488269053
2.6461079333499127,-0.5985504150390625,2.379836450195312,8.283937744140625,8.639763230425897
2.6485948768962944,-0.5889736083984375,2.346317626953125,8.671798413085938,9.002898646277243
2.6510818204426756,-0.5027823486328125,2.375048046875,9.112331518554686,9.430176510495794
2.6535687639890573,-0.49320554199218747,2.43250888671875,9.557653027343749,9.874668732758108
2.656055707535439,-0.430956298828125,2.422932080078125,9.916783276367187,10.217578663587929
2.65854265108182,-0.39743747558593745,2.4947581298828125,10.17056865234375,10.479610745903393
2.661029594628202,-0.40222587890625,2.5522189697265625,10.414777221679687,10.730479574758627
2.663516538174583,-0.38307226562499996,2.5953145996093747,10.563217724609375,10.884115532698939
2.666003481720965,-0.37828386230468747,2.5905261962890624,10.601524951171875,10.919993404048368
2.6684904252673465,-0.3591302490234375,2.6671406494140624,10.582371337890624,10.919212284433776
2.6709773688137277,-0.430956298828125,2.6288334228515624,10.534487304687499,10.86608997152256
2.6734643123601094,-0.44532150878906246,2.6719290527343746,10.409988818359375,10.756643682273918
2.6759512559064906,-0.4740519287109375,2.6144682128906247,10.256759912109374,10.595342994069798
2.6784381994528723,-0.45968671875,2.5953145996093747,10.146626635742187,10.483367867030783
2.6809251429992536,-0.45010991210937495,2.6096798095703124,10.022128149414062,10.366102463546063
2.6834120865456352,-0.5219359619140624,2.5378537597656248,9.82580361328125,10.16166991695098
2.685899030092017,-0.5793968017578125,2.4947581298828125,9.662997900390625,9.99665179965058
2.688385973638398,-0.55545478515625,2.4947581298828125,9.524134204101562,9.861109495523648
2.69087291718478,-0.565031591796875,2.5043349365234375,9.375693701171874,9.720832605914698
2.693359860731161,-0.59376201171875,2.461239306640625,9.236830004882812,9.577540435321405
2.6958468042775428,-0.63206923828125,2.461239306640625,9.0788126953125,9.427727743369644
2.6983337478239244,-0.6177040283203125,2.50912333984375,8.992621435546875,9.35652170863772
2.7008206913703057,-0.6464344482421874,2.4947581298828125,8.858546142578124,9.225808115426872
2.7033076349166874,-0.6607996582031249,2.499546533203125,8.757989672851561,9.131635788274943
2.7057945784630686,-0.63206923828125,2.5761609863281247,8.71489404296875,9.109637486180926
2.7082815220094503,-0.6416460449218749,2.5761609863281247,8.671798413085938,9.069090516233851
2.7107684655558315,-0.612915625,2.6144682128906247,8.652644799804687,9.059766643306643
2.713255409102213,-0.5793968017578125,2.6623522460937497,8.734047656249999,9.149175296047929
2.715742352648595,-0.565031591796875,2.6144682128906247,8.805873706054687,9.203157961424399
2.718229296194976,-0.5267243652343749,2.6288334228515624,8.892064965820312,9.287465912637419
2.720716239741358,-0.507570751953125,2.6192566162109374,9.088389501953124,9.47190355889537
2.723203183287739,-0.4836287353515625,2.6096798095703124,9.289502441406249,9.661220475231344
2.7256901268341207,-0.43574470214843747,2.5809493896484375,9.548076220703125,9.900350130865753
2.7281770703805024,-0.45010991210937495,2.5474305664062498,9.7683427734375,10.105074070139645
2.7306640139268836,-0.4070142822265625,2.5761609863281247,10.103531005859374,10.434730702791388
2.7331509574732653,-0.411802685546875,2.461239306640625,10.32379755859375,10.621114649941536
2.7356379010196465,-0.4213794921875,2.499546533203125,10.544064111328124,10.844472395275009
2.7381248445660282,-0.4213794921875,2.39420166015625,10.673351000976561,10.94669739492138
2.74061178811241,-0.37828386230468747,2.427720483398437,10.740388647460938,11.017843424395732
2.743098731658791,-0.4165910888671875,2.379836450195312,10.682927807617187,10.952721862978278
2.745585675205173,-0.4740519287109375,2.43250888671875,10.596736547851561,10.882676609164369
2.748072618751554,-0.4644751220703125,2.446874096679687,10.386046801757812,10.680491475223786
2.7505595622979357,-0.5219359619140624,2.499546533203125,10.165780249023436,10.481566585745755
2.753046505844317,-0.5889736083984375,2.5234885498046875,9.821015209960937,10.157126765314555
2.7555334493906987,-0.5889736083984375,2.5713725830078125,9.404424121093749,9.767396783250083
2.7580203929370803,-0.6464344482421874,2.6192566162109374,9.074024291992187,9.46658859194289
2.7605073364834616,-0.689530078125,2.6192566162109374,8.700528833007812,9.11236297149121
2.7629942800298433,-0.679953271484375,2.6958710693359373,8.374917407226562,8.82435826855139
2.7654812235762245,-0.718260498046875,2.7150246826171873,8.097190014648437,8.570399249953146
2.767968167122606,-0.689530078125,2.6719290527343746,7.948749511718749,8.414111681665162
2.770455110668988,-0.6655880615234374,2.7150246826171873,7.848193041992187,8.331176418684079
2.772942054215369,-0.6416460449218749,2.6815058593749996,8.010998754882811,8.472206582205152
2.775428997761751,-0.603338818359375,2.6575638427734374,8.164227661132813,8.607048077649047
2.777915941308132,-0.5363011718749999,2.6431986328124997,8.504204296874999,8.921637107753462
2.7804028848545137,-0.4740519287109375,2.6240450195312497,8.939948999023438,9.3291492431401
2.782889828400895,-0.44532150878906246,2.528276953125,9.356540087890625,9.70233672958208
2.7853767719472766,-0.39743747558593745,2.5234885498046875,9.782707983398437,10.110753013324132
2.7878637154936583,-0.354341845703125,2.4660277099609376,10.261548315429687,10.559650782095463
2.7903506590400395,-0.354341845703125,2.384624853515625,10.673351000976561,10.942230824912627
2.792837602586421,-0.33518823242187495,2.3511060302734372,10.955866796875,11.21031078907317
2.7953245461328025,-0.3495534423828125,2.3511060302734372,11.238382592773437,11.486998323157481
2.797811489679184,-0.3687070556640625,2.398990063476562,11.305420239257812,11.563028366469396
2.800298433225566,-0.38786066894531246,2.422932080078125,11.262324609375,11.526534230640195
2.802785376771947,-0.40222587890625,2.4564509033203126,11.1474029296875,11.421931919552426
2.8052723203183287,-0.4644751220703125,2.499546533203125,10.812214697265624,11.107090378242034
2.80775926386471,-0.565031591796875,2.4756045166015626,10.342951171874999,10.650094711604071
2.8102462074110917,-0.603338818359375,2.5713725830078125,9.868899243164062,10.216219798051906
2.812733150957473,-0.612915625,2.6336218261718747,9.351751684570312,9.734828660871319
2.8152200945038546,-0.6655880615234374,2.6910826660156246,8.853757739257812,9.277605266901578
2.8177070380502363,-0.6943184814453125,2.7198130859375,8.389282617187499,8.846441330114484
2.8201939815966175,-0.7278373046875,2.7581203125,7.939172705078125,8.436079542143814
2.822680925142999,-0.7230489013671875,2.7246014892578123,7.671022119140624,8.172565897034964
2.8251678686893804,-0.737414111328125,2.7437551025390623,7.4794859863281244,8.00091758825035
2.827654812235762,-0.6607996582031249,2.7198130859375,7.50821640625,8.012949083439873
2.8301417557821438,-0.6464344482421874,2.70065947265625,7.651868505859374,8.140180017302116
2.832628699328525,-0.584185205078125,2.6336218261718747,7.982268334960937,8.425784476738121
2.8351156428749067,-0.5506663818359374,2.5713725830078125,8.389282617187499,8.791771906491482
2.837602586421288,-0.469263525390625,2.4947581298828125,8.920795385742187,9.274945643892341
2.8400895299676696,-0.45968671875,2.418143676757812,9.4618849609375,9.776809179627788
2.842576473514051,-0.38786066894531246,2.408566870117187,10.1131078125,10.4032004639721
2.8450634170604325,-0.32561142578124996,2.379836450195312,10.596736547851561,10.865563482620244
2.847550360606814,-0.2920926025390625,2.31758720703125,11.066000073242186,11.309857920046964
2.8500373041531954,-0.32082302246093747,2.2840683837890623,11.439495532226562,11.669702388038747
2.852524247699577,-0.32082302246093747,2.327164013671875,11.578359228515625,11.814271970071761
2.8550111912459584,-0.36391865234375,2.379836450195312,11.650185278320311,11.896338736535423
2.85749813479234,-0.354341845703125,2.39420166015625,11.6070896484375,11.85674027041059
2.8599850783387217,-0.45010991210937495,2.4660277099609376,11.18571015625,11.463158521930536
2.862472021885103,-0.507570751953125,2.528276953125,10.831368310546875,11.134107593276632
2.8649589654314846,-0.5793968017578125,2.6048914062499997,10.28549033203125,10.626028009682198
2.867445908977866,-0.6177040283203125,2.6240450195312497,9.634267480468749,10.004313090679817
2.8699328525242476,-0.6368576416015624,2.7198130859375,9.05965908203125,9.480527071884477
2.8724197960706292,-0.699106884765625,2.77727392578125,8.456320263671875,8.928121487577254
2.8749067396170105,-0.7709329345703124,2.77727392578125,7.934384301757812,8.441684802005486
2.877393683163392,-0.7134720947265625,2.767697119140625,7.584830859375,8.105482646861944
2.8798806267097734,-0.7134720947265625,2.806004345703125,7.292738256835937,7.846447227935506
2.882367570256155,-0.7757213378906249,2.7246014892578123,7.254431030273437,7.787937239238567
2.8848545138025363,-0.6655880615234374,2.729389892578125,7.37414111328125,7.89116808919535
2.887341457348918,-0.6416460449218749,2.6192566162109374,7.632714892578124,8.095094286042167
2.8898284008952997,-0.565031591796875,2.5809493896484375,8.058882788085937,8.480928737099665
2.892315344441681,-0.488417138671875,2.5426421630859375,8.59997236328125,8.981264115927782
2.8948022879880626,-0.411802685546875,2.518700146484375,9.2320416015625,9.57831008125675
2.897289231534444,-0.3591302490234375,2.389413256835937,9.821015209960937,10.11388204410112
2.8997761750808255,-0.32561142578124996,2.370259643554687,10.486603271484375,10.75606813626476
2.902263118627207,-0.3016694091796875,2.3223756103515623,10.989385620117186,11.236148326523152
2.9047500621735884,-0.2825157958984375,2.31758720703125,11.4538607421875,11.68939483200696
2.90723700571997,-0.27293898925781246,2.3367408203125,11.707646118164062,11.941684595622757
2.9097239492663514,-0.3064578125,2.3319524169921872,11.851298217773437,12.082433029508495
2.912210892812733,-0.33518823242187495,2.39420166015625,11.712434521484374,11.95933422731834
2.9146978363591143,-0.38786066894531246,2.4564509033203126,11.549628808593749,11.814335044988209
2.917184779905496,-0.45010991210937495,2.4947581298828125,11.094730493164063,11.380661745941664
2.9196717234518776,-0.507570751953125,2.6001030029296874,10.606313354492187,10.932156542410173
2.922158666998259,-0.5889736083984375,2.5953145996093747,9.926360083007811,10.276924261658557
2.9246456105446406,-0.6560112548828124,2.6527754394531247,9.284714038085937,9.67850624155033
2.927132554091022,-0.7517793212890624,2.6767174560546874,8.652644799804687,9.088357966049358
2.9296194976374035,-0.7517793212890624,2.7916391357421872,8.073247998046874,8.57529908808393
2.932106441183785,-0.7517793212890624,2.8203695556640622,7.594407666015624,8.136011576692319
2.9345933847301664,-0.737414111328125,2.81558115234375,7.264007836914062,7.825412874204665
2.937080328276548,-0.737414111328125,2.81558115234375,7.163451367187499,7.7321609066987
2.9395672718229293,-0.74699091796875,2.73896669921875,7.168239770507812,7.709967277391451
2.942054215369311,-0.6177040283203125,2.6910826660156246,7.3837179199218745,7.883068850575157
2.9445411589156922,-0.6177040283203125,2.6384102294921874,7.771578588867187,8.230443521987807
2.947028102462074,-0.5363011718749999,2.5330653564453125,8.240842114257813,8.638027425234483
2.9495150460084556,-0.45968671875,2.4660277099609376,8.90643017578125,9.252951043951175
2.952001989554837,-0.4165910888671875,2.4516625,9.533711010742186,9.852707383535583
2.9544889331012185,-0.32082302246093747,2.365471240234375,10.251971508789062,10.526219711612502
2.9569758766475998,-0.33518823242187495,2.2840683837890623,10.82179150390625,11.0652831363231
2.9594628201939814,-0.258573779296875,2.3127988037109373,11.386823095703125,11.622204563619793
2.961949763740363,-0.28730419921875,2.2649147705078123,11.745953344726562,11.965776305657995
2.9644367072867444,-0.27293898925781246,2.3319524169921872,11.923124267578125,12.152094060987315
2.966923650833126,-0.3064578125,2.3223756103515623,11.899182250976562,12.127567072927436
2.9694105943795073,-0.3687070556640625,2.427720483398437,11.707646118164062,11.96238894479572
2.971897537925889,-0.45010991210937495,2.43250888671875,11.329362255859374,11.596298872547042
2.97438448147227,-0.49799394531249996,2.528276953125,10.836156713867187,11.13833356695515
2.976871425018652,-0.55545478515625,2.6479870361328124,10.24718310546875,10.598354917574925
2.9793583685650336,-0.6607996582031249,2.6862942626953124,9.567229833984374,9.959152561857449
2.981845312111415,-0.689530078125,2.7150246826171873,8.877699755859375,9.309154833337193
2.9843322556577965,-0.7134720947265625,2.8203695556640622,8.259995727539062,8.757342991994419
2.9868191992041777,-0.8044517578125,2.7629087158203123,7.694964135742187,8.215429401617541
2.9893061427505594,-0.7948749511718749,2.8107927490234372,7.273584643554687,7.838202321509556
2.991793086296941,-0.7948749511718749,2.7437551025390623,7.015010864257812,7.574324767024765
2.9942800298433223,-0.7422025146484375,2.7581203125,7.024587670898437,7.583068256129169
2.996766973389704,-0.6847416748046875,2.7341782958984373,7.220912207031249,7.751527282841061
2.9992539169360852,-0.6464344482421874,2.6096798095703124,7.556100439453124,8.020159602866817
3.001740860482467,-0.584185205078125,2.5570073730468748,8.001421948242188,8.420351076615514
3.0042278040288486,-0.4836287353515625,2.50912333984375,8.657433203124999,9.026668618863638
3.00671474757523,-0.4740519287109375,2.47081611328125,9.342174877929686,9.67501364064079
3.0092016911216115,-0.3687070556640625,2.379836450195312,10.007762939453125,10.293438952792508
3.0116886346679927,-0.33039982910156246,2.327164013671875,10.673351000976561,10.929102341164489
3.0141755782143744,-0.2920926025390625,2.3032219970703123,11.2240173828125,11.461619251481169
3.0166625217607557,-0.3016694091796875,2.2457611572265623,11.650185278320311,11.868498836286488
3.0191494653071373,-0.3016694091796875,2.288856787109375,11.884817041015625,12.106970963983802
3.021636408853519,-0.3112462158203125,2.365471240234375,11.966219897460936,12.201751801672923
3.0241233523999003,-0.3591302490234375,2.408566870117187,11.870451831054687,12.117664609031698
3.026610295946282,-0.3687070556640625,2.4899697265625,11.544840405273437,11.816058315501337
3.029097239492663,-0.49799394531249996,2.50912333984375,11.085153686523437,11.376481448934936
3.031584183039045,-0.5506663818359374,2.6096798095703124,10.453084448242187,10.787985755211484
3.0340711265854265,-0.59376201171875,2.6862942626953124,9.801861596679688,10.180629693334991
3.036558070131808,-0.6607996582031249,2.729389892578125,9.112331518554686,9.535240483492492
3.0390450136781895,-0.7134720947265625,2.77727392578125,8.470685473632813,8.942863371537767
3.0415319572245707,-0.7996633544921875,2.7629087158203123,7.838616235351562,8.349672480857596
3.0440189007709524,-0.8044517578125,2.81558115234375,7.388506323242187,7.947620118291435
3.0465058443173336,-0.8044517578125,2.7964275390625,7.110778930664062,7.683119588594903
3.0489927878637153,-0.718260498046875,2.7341782958984373,7.019799267578125,7.567642357690208
3.051479731410097,-0.7278373046875,2.7581203125,7.115567333984375,7.666046783367903
3.0539666749564782,-0.612915625,2.6719290527343746,7.41244833984375,7.9031171582526545
3.05645361850286,-0.5889736083984375,2.6048914062499997,7.819462622070312,8.262950129808342
3.058940562049241,-0.5219359619140624,2.50912333984375,8.418013037109375,8.799492063513167
3.061427505595623,-0.430956298828125,2.47081611328125,9.088389501953124,9.428121728974528
3.0639144491420045,-0.37828386230468747,2.384624853515625,9.753977563476562,10.048363681778678
3.0664013926883857,-0.32561142578124996,2.31758720703125,10.481814868164061,10.739910436929136
3.0688883362347674,-0.316034619140625,2.2744915771484373,11.061211669921875,11.297061273704344
3.0713752797811487,-0.2825157958984375,2.3127988037109373,11.602301245117188,11.833944721175046
3.0738622233275303,-0.26815058593749996,2.2840683837890623,11.923124267578125,12.142889500389675
3.0763491668739116,-0.2920926025390625,2.3223756103515623,12.066776367187499,12.29169794860452
3.0788361104202933,-0.33039982910156246,2.39420166015625,11.980585107421874,12.221938682252668
3.081323053966675,-0.40222587890625,2.403778466796875,11.741164941406248,11.991450736103845
3.083809997513056,-0.40222587890625,2.4660277099609376,11.286266625976562,11.559536871198148
3.086296941059438,-0.5219359619140624,2.5761609863281247,10.726023437499999,11.043396278211588
3.088783884605819,-0.5506663818359374,2.6336218261718747,10.065223779296874,10.418633649125802
3.091270828152201,-0.6751648681640625,2.7054478759765623,9.284714038085937,9.694390675945506
3.0937577716985825,-0.689530078125,2.77727392578125,8.652644799804687,9.113559360592905
3.0962447152449637,-0.7517793212890624,2.81558115234375,8.044517578125,8.556104980545372
3.0987316587913454,-0.7852981445312499,2.806004345703125,7.455543969726562,8.004716700073473
3.1012186023377266,-0.82360537109375,2.825157958984375,7.134720947265625,7.717777289858663
3.1037055458841083,-0.7852981445312499,2.7820623291015623,6.957550024414062,7.534193143332227
3.1061924894304895,-0.7134720947265625,2.7341782958984373,7.0102224609374995,7.55830618164865
3.108679432976871,-0.689530078125,2.6671406494140624,7.216123803710937,7.724087889380826
3.111166376523253,-0.6081272216796875,2.6240450195312497,7.60398447265625,8.066970363319303
3.113653320069634,-0.55545478515625,2.5426421630859375,8.1594392578125,8.564461932298322
3.116140263616016,-0.4740519287109375,2.47081611328125,8.805873706054687,9.158224130460562
3.118627207162397,-0.4261678955078125,2.346317626953125,9.519345800781249,9.813499373646696
3.1211141507087787,-0.33518823242187495,2.3415292236328122,10.213664282226562,10.483990095679756
3.1236010942551604,-0.26336218261718747,2.327164013671875,10.903194360351561,11.151892182287469
3.1260880378015417,-0.296881005859375,2.2649147705078123,11.434707128906249,11.660639106548317
3.1285749813479233,-0.26815058593749996,2.269703173828125,11.769895361328125,11.989741200319438
3.1310619248943046,-0.26336218261718747,2.3127988037109373,12.033257543945313,12.256332447538961
3.1335488684406863,-0.3016694091796875,2.3511060302734372,12.071564770507813,12.302088440853783
3.136035811987068,-0.38307226562499996,2.398990063476562,11.846509814453125,12.09304314344758
3.138522755533449,-0.430956298828125,2.5043349365234375,11.458649145507811,11.737037830970742
3.141009699079831,-0.49799394531249996,2.5139117431640625,10.893617553710937,11.191007712824845
3.143496642626212,-0.565031591796875,2.6144682128906247,10.290278735351562,10.632240647538625
3.1459835861725938,-0.6464344482421874,2.70065947265625,9.605537060546874,9.998889003517421
3.148470529718975,-0.6751648681640625,2.7724855224609373,8.892064965820312,9.338701351249407
3.1509574732653567,-0.7565677246093749,2.7629087158203123,8.21690009765625,8.701925448355654
3.1534444168117384,-0.7805097412109374,2.77727392578125,7.64229169921875,8.168663803272684
3.1559313603581196,-0.7613561279296874,2.7964275390625,7.244854223632812,7.803049586953387
3.1584183039045013,-0.7613561279296874,2.7916391357421872,6.986280444335937,7.561813715283802
3.1609052474508825,-0.718260498046875,2.7533319091796873,6.962338427734375,7.521362318587529
3.163392190997264,-0.699106884765625,2.7246014892578123,7.1203557373046875,7.655825855997533
3.165879134543646,-0.603338818359375,2.6336218261718747,7.445967163085937,7.921010582418269
3.168366078090027,-0.5267243652343749,2.5617957763671875,7.953537915039062,8.37251464750634
3.170853021636409,-0.488417138671875,2.499546533203125,8.566453540039062,8.937024696544368
3.17333996518279,-0.38786066894531246,2.427720483398437,9.299079248046874,9.618582926059487
3.1758269087291717,-0.3591302490234375,2.360682836914062,10.026916552734374,10.30732038639349
3.178313852275553,-0.33518823242187495,2.3032219970703123,10.601524951171875,10.854009121484212
3.1808007958219346,-0.277727392578125,2.2649147705078123,11.228805786132812,11.458317974508406
3.1832877393683163,-0.258573779296875,2.250549560546875,11.693280908203125,11.910694863103718
3.1857746829146976,-0.26336218261718747,2.2936451904296873,11.942277880859374,12.163394628247378
3.1882616264610792,-0.28730419921875,2.360682836914062,12.04762275390625,12.280088809932483
3.1907485700074605,-0.3447650390625,2.384624853515625,11.923124267578125,12.164135436777846
3.193235513553842,-0.38786066894531246,2.4133552734375,11.597512841796874,11.852300354361034
3.195722457100224,-0.4644751220703125,2.480392919921875,11.085153686523437,11.368760637381056
3.198209400646605,-0.5698199951171875,2.6384102294921874,10.520122094726561,10.860887268261205
3.2006963441929868,-0.6272808349609375,2.6527754394531247,9.830592016601562,10.201531168160267
3.203183287739368,-0.6560112548828124,2.7629087158203123,9.126696728515624,9.558274348060248
