Time (s),Acceleration x (m/s^2),Acceleration y (m/s^2),Acceleration z (m/s^2),Absolute acceleration (m/s^2)
0.004966894,0.007176634555175254,0.006557265292074899,-0.020361346058342278,0.02256293919144304
0.007453810572636816,0.014038106728807564,0.011539982355249556,0.06065779144961603,0.06332146000238761
0.009940727145273633,0.0020076723643525085,0.01562223117290884,0.031577638655322815,0.03528784660741609
0.012427643717910448,-0.0029709346222566158,0.02060362268028637,-0.011287960800229868,0.02368024026712694
0.014914560290547264,-0.0010551985370065298,0.025577736390477224,-0.04725327307750149,0.05374203065897464
0.01740147686318408,-0.0010881198625670718,0.0206543741991303,-0.07523765667027149,0.0780287905815966
0.019888393435820897,-0.001121029070092372,0.01169061695174678,-0.06122678322013897,0.062342972453792674
0.022375310008457713,-0.0011453592679183666,0.008715453823211483,-0.020113826320027783,0.02195078569047998
0.024862226581094528,0.006917571533499145,-0.00024393028390035099,0.0009025400749518298,0.006980463916630145
0.027349143153731343,0.010780343405367154,-0.0002190216174522419,0.005881255517710571,0.012282220518748046
0.029836059726368158,0.010751556924314842,-0.005141179099209747,0.007839669776753766,0.014264926254119929
0.03232297629900498,0.013727352088872213,-0.012140457360199086,-0.008048386024094967,0.0200151796864161
0.034809892871641795,0.022689770632552397,-0.005066131605812707,-0.03709323971813916,0.043776704005584845
0.03729680944427861,0.027753925294840665,-0.0030797573772125553,-0.04905370465626113,0.05644493967821904
0.039783726016915426,0.03070747002138874,0.0018984937458315088,-0.05590327764837255,0.06381010457167799
0.04227064258955224,0.025583394291502914,0.004928360237986595,-0.05192667005996121,0.058096280962088645
0.044757559162189056,0.025544861109839778,0.007055907695403096,-0.022812996727440193,0.03496796508539281
0.047244475734825875,0.022499739248645678,0.007076932618126808,-0.005853737530838288,0.024302005773567305
0.049731392307462687,0.013496154265603355,0.001992478215823379,-0.000835470324924259,0.013667997661154447
0.052218308880099505,0.018552391758161035,-0.00997701680787566,0.020140111224675294,0.029143716037513246
0.05470522545273632,0.018528601282661095,-0.02191219548054235,0.015207776914593296,0.032476604732535816
0.057192142025373136,0.022386985541798743,-0.018878076145742106,0.004314922814133482,0.029600294584768455
0.059679058598009954,0.02231412181031389,-0.014806335900382273,0.00434712104647339,0.02713015068799226
0.062165975170646766,0.006413843511014594,-0.014762015730499733,0.004347893231816613,0.016672092627099403
0.06465289174328359,0.003402295898486396,-0.009774684806491685,-0.007628737081796899,0.012857593472742084
0.06713980831592041,0.0083008899516962,-0.0027121471587254753,-0.02256170569755156,0.02419278983878635
0.06962672488855721,0.006309102768139563,-0.002706761835671312,-0.02462356286520162,0.02556269128144627
0.07211364146119403,0.0011974979005178188,-0.011670420323441899,-0.02457618310002374,0.02723272824219863
0.07460055803383085,0.003252102135967383,-0.018661482811025643,-0.01945988697618084,0.027157214697658184
0.07708747460646767,0.0011261321801281365,-0.016492178659091028,-0.019443952196313674,0.025521116896073122
0.07957439117910448,0.0011228248391651485,-0.0025390300433034696,-0.024494811709573128,0.024651637062631047
0.0820613077517413,0.010048092796366426,0.0023963600792260564,-0.024455624456638958,0.026547773504342252
0.08454822432437811,0.006110836363670491,-0.006584088420250822,-0.022313195885351078,0.02405350810188166
0.08703514089701493,0.0010390644353153178,-0.018521591916663915,-0.017331008500677925,0.02538686427424107
0.08952205746965175,0.012989301042384827,-0.02143578575604499,-0.012347474658700008,0.02794056160845733
0.09200897404228855,0.019973893564475653,-0.0094365028186294,-0.007234550275585505,0.02324527322405518
0.09449589061492537,0.017979227553257315,-0.006427907243840014,-0.0072485539531488286,0.0204233236609257
0.09698280718756219,0.012874724106407776,-0.009345333133131462,-0.019202190959790144,0.02493627698437697
0.09946972376019901,0.014934146999784015,0.0006843813782357877,-0.027188610836510918,0.031027692207144134
0.10195664033283583,0.014893092774030392,-0.0022718665787642145,-0.01522165001128073,0.02141644739898531
0.10444355690547263,0.012799335833333036,-0.002197746932710576,-0.019137434028239753,0.023127785681727304
0.10693047347810945,0.019787188523502586,0.007819279540786983,-0.03401140466164598,0.04011794622434998
0.10941739005074627,0.019701432383622874,0.002750656929148665,-0.027073000107611378,0.033595533726003865
0.11190430662338309,0.007745010048115564,-0.0021234381783861167,-0.0189909560881798,0.02061917999063038
0.11439122319601991,0.012650088544040261,0.0028129709959121563,-0.02189896505523592,0.025446064852671143
0.11687813976865673,0.014731820319049405,-0.0021020049807094487,-0.011988089315215333,0.019109140228729924
0.11936505634129353,0.019660051408054158,-0.006057836196049049,-0.006919966874413319,0.021704859877190452
0.12185197291393035,0.02661884170460005,0.0029060750737959218,-0.014967540732625295,0.03067629836880405
0.12433888948656717,0.021501890353162523,-0.002008610098592545,-0.01878182797664607,0.028620322594826154
0.126825806059204,0.019581220045383985,-0.006006555478251574,-0.011873124927815226,0.023674331727222397
0.12931272263184082,0.029567966973927606,-0.0059749965362372315,-0.00978856746568546,0.031714055363664805
0.13179963920447763,0.03335232389349857,-0.005969522931446036,-0.016833459995485356,0.03783355770404763
0.13428655577711443,0.021411169508790073,-0.010851342844441003,-0.028738206130226374,0.03744428277915233
0.13677347234975126,0.02642358274738843,-0.00881454360761147,-0.028695431278841,0.039991620128437586
0.13926038892238807,0.021319555663274703,0.003168048197107698,-0.026707066291344006,0.034319489695345255
0.14174730549502487,0.021287612462185135,0.006127184949961784,-0.02359516219182467,0.0323641239431833
0.1442342220676617,0.021186288347258886,-0.003726362100187952,-0.006438538033808783,0.02245438399172235
0.1467211386402985,0.009253808112420048,-0.010674958758482678,0.01453013377552459,0.020266042944083525
0.14920805521293534,0.014333572921286453,-0.0056681818770742964,0.024374284858737383,0.02883895561313385
0.15169497178557215,0.021160113902509603,0.0032791014783910555,0.01938342500882051,0.028882868485407314
0.15418188835820895,0.02111626697018454,-0.0016212763965799404,0.0025874932047251775,0.02133589438000462
0.15666880493084578,0.019040833843333438,-0.003465919158045505,0.005612471650731976,0.020151074092708037
0.1591557215034826,0.002164808783509331,0.006404002359622574,0.007493466671968818,0.010092060545553522
0.16164263807611942,0.0021650139387043854,0.006416240030371778,-0.006432473143261674,0.009339814356876279
0.16412955464875623,0.007038639969813021,0.0034083089906924435,-0.021336467064690723,0.022724520888311735
0.16661647122139303,0.005036110241510849,-0.00550132577490503,-0.02630505605513811,0.027341963457481303
0.16910338779402986,-0.0001286605259662732,-0.005374624279689932,-0.016302717360007435,0.01716629642640084
0.17159030436666667,-0.009959668606119743,0.008661918102003785,-0.01834524965037687,0.022600265677292397
0.1740772209393035,-0.0050264115435316725,0.00867901903263446,-0.03835826228567463,0.039647780138998806
0.1765641375119403,0.0019434101957410688,0.006569065391323292,-0.05025736779568213,0.050722110376588816
0.1790510540845771,0.0019119040549550048,-0.0013790489081384472,-0.05209018942550259,0.05214350378897771
0.18153797065721394,0.0019020229126665011,-0.013291051321867364,-0.042029544276664055,0.0441220163694372
0.18402488722985075,0.004826961337279889,-0.017250578668074557,-0.035147434035042835,0.03944900682378089
0.18651180380248758,0.0017508981509740673,-0.013250980006891844,-0.03504882747818705,0.03751099069704573
0.18899872037512438,-0.007199186049939854,-0.02025432876409683,-0.026023028325955266,0.03375298678219809
0.1914856369477612,-0.005219161741467526,-0.025098040555721735,-0.017937547488871886,0.03128748789749323
0.19397255352039802,0.004738627617152491,-0.020154081785570988,-0.015877380003685104,0.02609085663781364
0.19645947009303483,0.006627114655063049,-0.020099245182313208,-0.0038997384447636563,0.021519903937695907
0.19894638666567166,0.004637485140246089,-0.016980281248020646,0.0008959257335945381,0.017624951137747924
0.20143330323830846,0.001708989812381434,-0.0028633165159610563,-0.017889528712418112,0.018197649991189273
0.20392021981094527,0.011612663528368983,0.008991014562765187,-0.025892429047718934,0.02976760284406734
0.2064071363835821,0.025509984413299214,-0.00092173175537269,-0.02587647525350789,0.03634832686302132
0.2088940529562189,0.01844527177384736,0.002160097668115313,-0.02776280345920945,0.03340160667784679
0.21138096952885574,0.01356301197141041,0.011058010997627044,-0.02579690054590955,0.031172343170442148
0.21386788610149254,0.020298146865598166,0.004081981414597369,-0.02563829009540619,0.03295450284047256
0.21635480267412938,0.011301068290379912,0.0022821215303920894,-0.010715045811060975,0.015739581630921606
0.21884171924676618,0.006423304119894668,0.014185349626750998,-0.00867907852893346,0.01782720909063486
0.22132863581940299,0.013407514470747839,0.011207740830303514,-0.017614589669113556,0.02481226849793882
0.22381555239203982,0.0163504163829451,0.0071545045153453835,-0.022513412667946042,0.02872937174239998
0.22630246896467662,0.01635450336229649,-0.0006496601037868643,-0.00839826018293266,0.018396266267317718
0.22878938553731346,0.02017112723898673,0.004333530633473082,0.003634295675544408,0.020949032600574253
0.23127630210995026,0.01814372807717024,0.009354780245812488,0.015684024339746472,0.02574287088643182
0.23376321868258707,0.01109938685650369,0.002400457727043559,0.029538996079518043,0.03164665662080961
0.2362501352552239,0.008078318535467477,0.0024501086812680484,0.029570716776175843,0.03075206584227001
0.2387370518278607,0.006049441272726774,0.004461417264232104,0.02960242560332027,0.030541833365367407
0.24122396840049753,-0.0009449263551533083,0.009591771585814257,0.029548865313401507,0.031081029733273636
0.24371088497313434,0.0011998804674340224,0.014497254443988528,0.020531677291325323,0.025162668219904635
0.24619780154577114,0.010878063795836335,0.011605745948885193,0.006649937181753884,0.017240860636801837
0.24868471811840798,0.0009931492957833132,0.016539024209633713,-0.003319702951973369,0.016898109214344238
0.2511716346910448,-0.004057223577212277,0.016591294385868594,-0.008188774591015857,0.018941703773855952
0.25365855126368164,-0.001066471483633591,0.01885174187535643,-0.008227597380686902,0.020596574759390376
0.2561454678363184,0.004042915591656038,0.033662259120048166,-0.015156367636878443,0.037137694267290446
0.25863238440895525,0.01284965275819605,0.0265918822094946,-0.013163453047567941,0.032334474969997216
0.26111930098159203,0.005821367646178355,0.014745988779517383,-0.010213264742636952,0.01885850691493936
0.26360621755422886,0.003881438839384743,0.014777355778353929,-0.01506098995958105,0.021453886124115973
0.2660931341268657,0.005855224150819294,0.014682220905533061,-0.013099408350141672,0.020529144154079363
0.2685800506995025,0.012746676067076579,0.0027877355588064034,-0.013036045266790808,0.018444177848379026
0.2710669672721393,0.00757435332928158,-0.0020785022770568595,-0.010088970281071141,0.012785864124292352
0.27355388384477614,-0.0012628061063579832,-0.0021020082102944926,-0.014879245533725438,0.015079955750309378
0.27604080041741297,0.007697931804933389,-0.00716939909217551,-0.007819499755537862,0.013107364870299015
0.27852771699004975,0.015624227209490082,-0.012056070693582388,-0.0028375134228078025,0.019937823323699123
0.2810146335626866,0.010649780822961086,-0.013931816688641074,0.002222724108534635,0.017676364170430205
0.2835015501353234,0.01952033432373712,-0.011972076563775857,0.014166062322715334,0.026926778327353528
0.2859884667079602,0.01935523660026417,-0.011986443380789247,0.018122978791314637,0.029098837932871345
0.288475383280597,0.007438444897503338,-0.01593574549085952,0.01113999181616343,0.02081772957137332
0.29096229985323385,0.005458469688323864,-0.013908863751507461,0.007315185301584037,0.016636205041801445
0.2934492164258707,0.0035808015319370723,-0.020824629831284636,0.007311907959987707,0.022359591794943047
0.29593613299850746,0.010336312316436613,-0.01872641863347324,0.004274038191709906,0.021812508099785497
0.2984230495711443,0.007178080368077544,-0.006834686297805259,-0.0046258323926924305,0.01093782884695449
0.3009099661437811,-0.006638104417661661,-0.00688478314881058,-0.007381952064781316,0.01208130313967225
0.3033968827164179,-0.006583613815786871,-0.013649163282378307,0.007579488395780487,0.01694379749425184
0.30588379928905474,0.00032745706283765497,-0.011510941564247812,0.016478055441842443,0.020103117046069336
0.30837071586169157,-0.0018607880010422795,0.0034257824032120077,0.01446019615001859,0.014976507929286866
0.31085763243432835,-0.008682446024510626,0.010334899281648546,0.016356802229106293,0.02120707408607931
0.3133445490069652,-0.006846539603994506,0.003278665753780441,-0.0006496269804152632,0.007618843015035903
0.315831465579602,-0.011828270957092601,-0.006492366880010536,-0.012470938587565428,0.01837343546520047
0.31831838215223884,-0.01683051107273692,0.003639145168951252,-0.012638918016763867,0.021360049839939502
0.3208052987248756,-0.011761430429492958,0.017571800310426156,-0.028410077295932368,0.03541513664887017
0.32329221529751245,-0.0069276922742452784,0.027463559799246084,-0.036402079686004285,0.046123220210210925
0.3257791318701493,-0.008920705105147309,0.02256878555555719,-0.03820586606252796,0.045261653334954015
0.32826604844278606,-0.011938451189529853,0.01967697614980235,-0.031214668234550658,0.038782283586680955
0.3307529650154229,-0.014013184347505425,0.022603034202753225,-0.03109386045768403,0.040915701740162416
0.3332398815880597,-0.011930379296340998,0.01766677543815387,-0.023964726081148413,0.03207424201257442
0.33572679816069656,-0.008972779194892033,0.022691573032756374,-0.0020783391030150256,0.02448954361780401
0.33821371473333334,-0.007011671295525379,0.01950889017235058,0.004882338707369982,0.021297829968492443
0.34070063130597017,-0.0021283552954500795,0.0006489772844164854,0.002909459384857982,0.0036627887860887064
0.343187547878607,-0.00015366272117711688,-0.006235827154466467,0.007971789602617463,0.01012218266979315
0.3456744644512438,-0.005144941732997177,-0.003352982789881942,0.00784015244209435,0.009958961258106113
0.3481613810238806,-0.00014286298424404098,-0.011328211707742675,-0.004007069202053515,0.012016879541617747
0.35064829759651744,-0.00024152922888298622,-0.023160159965246674,-0.006798598366655639,0.024138605712329623
0.3531352141691542,-0.005300274621596546,-0.025025601881881077,0.002996767735037764,0.025755664958849605
0.35562213074179105,-0.005215865524624719,-0.023197423850858545,0.0028184656071736924,0.02394304648256296
0.3581090473144279,0.0029107255404523524,-0.03201379968624263,-0.011941539159757042,0.03429221560393438
0.3605959638870647,0.014713991460324705,-0.030060359395824854,-0.011965447568023535,0.035542913319025836
0.3630828804597015,0.014569994246416695,-0.030057448703662892,-0.015994013957580933,0.03703435482615075
0.36556979703233833,0.0067289733068307545,-0.031878070568686745,-0.030920390201712777,0.044917268340498945
0.36805671360497516,0.018673242620719677,-0.026909989802308854,-0.04284710884055798,0.053932478870595685
0.37054363017761194,0.028550369947460186,-0.02301836076088426,-0.05176068880178342,0.06343608958227265
0.37303054675024877,0.028625145086448867,-0.03185699587344537,-0.05672521531191599,0.07107754335571954
0.3755174633228856,0.03561655958741028,-0.03169428189940149,-0.054625030059838764,0.07250490142742465
0.3780043798955224,0.04046571549053507,-0.02292918644704578,-0.05454966895928237,0.07168603842347276
0.3804912964681592,0.040466682829962575,-0.0319442559485581,-0.051639131967851526,0.07296977358989791
0.38297821304079604,0.0423303043623518,-0.043705560798196874,-0.05670661105799191,0.08317253422721105
0.3854651296134329,0.040456396406873874,-0.04160215727512595,-0.06144547518700705,0.08451630565240965
0.38795204618606965,0.04525794002576072,-0.03153694622222192,-0.054288538949599285,0.07739577232433843
0.3904389627587065,0.042245807155621484,-0.022672938173782242,-0.042288680965732794,0.06393045350600637
0.3929258793313433,0.04040654593065446,-0.024671516674486416,-0.03237022132432443,0.057351581649081815
0.3954127959039801,0.047366418958393275,-0.03150564153752233,-0.02335305471887139,0.06149429451856076
0.39789971247661693,0.05016619616878093,-0.026382597853638945,-0.015240927174570373,0.058693905720202354
0.40038662904925376,0.04216446183959338,-0.012394245537382442,-0.00830647727570799,0.044726465648375395
0.40287354562189054,0.04194728648977081,-0.007981668597414338,-0.001068802732067553,0.04271327916156677
0.40536046219452737,0.029096132425437626,-0.03984267751574455,0.01578653421565157,0.05179998587146677
0.4078473787671642,-0.0337872265145297,-0.12267214151008599,0.02277798182293722,0.12926278441276423
0.41033429533980104,-0.03092979886388414,-0.13353256241351907,-0.09637025919002085,0.16755543721059157
0.4128212119124378,0.02757488948037523,-0.07756560470389662,-0.22540699946904574,0.23996898335529623
0.41530812848507465,-0.0033906875278103543,-0.08643874992788225,-0.17475335626012622,0.19499202490149387
0.4177950450577115,-0.026486689335206037,-0.08837567884585429,-0.0840525648706052,0.12480640602442084
0.42028196163034826,0.005831182810554947,-0.028850532936012918,-0.016657177770570186,0.033820371301073196
0.4227688782029851,-0.0012977205433063466,-0.00028379382382537344,0.06929864594775914,0.06931137675544928
0.4252557947756219,-0.01977815475147071,-0.005070007633429796,0.15230501127227392,0.15366748791277757
0.42774271134825875,-0.0027867170298040422,0.006845873905851008,0.17310161626881637,0.1732593470385236
0.43022962792089553,0.017836151714753612,0.012092750912997996,0.1181092749268533,0.12005900114686337
0.43271654449353236,0.017454131011848784,0.024443186989727916,0.06518270389540248,0.07176977753002516
0.4352034610661692,-0.003385734696144671,0.0549373302188334,0.01236731971066618,0.05641386396828049
0.43769037763880597,-0.013059964215741626,0.05980876427769566,-0.02490887025465227,0.06609162403137418
0.4401772942114428,-0.008187983919806907,0.05001219432644266,-0.024345105745751994,0.05622229838586045
0.44266421078407964,-0.006331961398107211,0.05293879367087717,0.007116927581753529,0.053789034836839646
0.4451511273567164,-0.008274979220680989,0.04972519499099759,0.05963493958016208,0.07808582660588934
0.44763804392935325,-0.00830164523175203,0.032942823697712065,0.08500515558780819,0.09154246786732313
0.4501249605019901,-0.008452132169163185,0.024288318269959586,0.07577154868423897,0.08001680156439553
0.4526118770746269,-0.015492561342970501,0.03321319399893774,0.051532316133592104,0.06323539609007961
0.4550987936472637,-0.020346653870332854,0.03631250339253489,0.012277988785397653,0.04339738742097662
0.4575857102199005,-0.018404217057080063,0.04321060784105546,-0.04263267313777597,0.06343040796297975
0.46007262679253735,-0.015446503542473455,0.0481229139997601,-0.09863942708320117,0.11083386620892602
0.46255954336517413,-0.013320985435289923,0.041174716989072824,-0.10097793020723245,0.10986058602171278
0.46504645993781096,-0.008358806170547961,0.03816877419578191,-0.06922979890631709,0.079495220113001
0.4675333765104478,-0.0012824569444466194,0.033338141636719776,-0.050111779512171495,0.06020188393630916
0.4700202930830846,0.00841088387233535,0.03329363205179581,-0.029063919518490522,0.044988001961540486
0.4725072096557214,0.008478851245533714,0.029383207609163353,-0.007182857221327055,0.03141428410308046
0.47499412622835824,0.013531056488591653,0.031235033398070655,0.011859759100886436,0.036046784697211294
0.47748104280099507,0.017484134176257715,0.026406212927537975,0.028432901916888298,0.04256069713342636
0.47996795937363185,0.025218436572692182,0.02639909018059816,0.02354965436812506,0.043444996563383506
0.4824548759462687,0.01533105036861504,0.024382213049689128,0.02072902247390651,0.03548557159366555
0.4849417925189055,0.015438522627668538,0.017361123824932267,0.02548588624855519,0.034486040643482964
0.4874287090915423,0.022289480421240904,0.010322463597335574,0.018705584062807645,0.0308751205228087
0.4899156256641791,0.020109210929996957,0.0025531851102944536,0.01667563188834542,0.026248348849216042
0.49240254223681595,0.015190782475022369,0.0023146716411437396,0.01684098437308812,0.02279772645823175
0.4948894588094528,0.013385514154033218,-0.011474171527700694,0.023592597022572548,0.029452321397207725
0.49737637538208956,0.019935008160409162,-0.018592113540781607,0.013591622243747992,0.030459865913783007
0.4998632919547264,0.010102441051662026,-0.030525551608713286,0.004837294934892711,0.03251565835879174
0.5023502085273632,0.005176090824309809,-0.040485768049868476,0.006691618384513376,0.041360211404358325
0.5048371251,0.010050504324166876,-0.047419866394303956,-0.005380914170666884,0.04877100166426581
0.5073240416726369,0.004948650910883923,-0.0574204683236732,-0.022114293975405985,0.061730392242220745
0.5098109582452737,0.000939683663215285,-0.06625227826351976,-0.0221618823975529,0.06986699086046809
0.5122978748179106,-0.006964559741381993,-0.06805651935204926,-0.0262543499207748,0.0732767753689368
0.5147847913905473,-0.00410987339367308,-0.06400381444982495,-0.041165549523704215,0.07621011606754176
0.5172717079631841,-0.007256081313010254,-0.05412656360044288,-0.0529977396745096,0.07609925107266756
0.519758624535821,-0.016057195465497998,-0.0540976697071347,-0.05772282968569975,0.08072370445466281
0.5222455411084578,-0.0138846457859233,-0.05402927911410016,-0.04577131536288448,0.07215926621189078
0.5247324576810946,-0.007189195600086795,-0.051845092835673956,-0.03776548625474163,0.0645432423772856
0.5272193742537314,-0.009124100948626035,-0.03971047383365356,-0.03518916222215651,0.05383723700294481
0.5297062908263682,-0.009046505092253687,-0.022830194165806894,-0.004045269013424502,0.024888174328857218
0.5321932073990051,-0.004179937448863691,-0.017953975821851653,0.02922664456305135,0.03455450589001362
0.5346801239716419,-0.0020856070849487596,-0.01792530367590972,0.03110356555434457,0.035959672676204674
0.5371670405442787,0.0011186985218899492,-0.01770876027245949,0.021292597612539765,0.02771689719033955
0.5396539571169156,0.014648884789509431,-0.008615670131606912,0.021322222568331384,0.027266403735117774
0.5421408736895523,0.009629913537919754,0.00311950871111355,0.021203159629779478,0.02349554314401848
0.5446277902621891,0.0026629217118671056,0.0013439654399496348,0.014290545148865519,0.014598529919107475
0.547114706834826,0.0005572138857403708,0.0064736074370768115,0.012603113388681919,0.01417944102042854
0.5496016234074628,-0.007330083723697034,0.018095144755933656,0.021655488644508836,0.029156895917896553
0.5520885399800995,-0.004266953145104613,0.011053789272445602,0.03126211421767522,0.033432213982641394
0.5545754565527364,0.0025655180388902687,0.0033674624186645907,0.019591287591744333,0.020043458669885925
0.5570623731253732,0.0005229236065585896,0.006331191113401857,0.021636396376209177,0.022549746742727566
0.55954928969801,-0.004555677852471018,0.006401887385271365,0.026052288646386756,0.027211396629056802
0.5620362062706469,-0.0074029594913800345,0.008403266887598182,0.00527646733777587,0.012379814666699714
0.5645231228432837,-0.0023721864664720815,0.011300003322157082,-0.006385938293526294,0.013194603124050373
0.5670100394159204,0.0006241207620762967,0.008506606089219826,-0.004567403742250065,0.009675383756085667
0.5694969559885573,0.00452733476227507,0.013256510960974577,-0.016273429391745253,0.021472222685978776
0.5719838725611941,0.009444134478267863,0.0013936929085964778,-0.01609084244519643,0.01870960359182457
0.574470789133831,0.007300079952809013,-0.005092782257194006,-0.009469157524861771,0.012995866368474263
0.5769577057064678,0.004299909698941118,0.011439051710837145,-0.016299899613770208,0.02037223244716298
0.5794446222791045,0.002258787200546619,0.00842290501011611,-0.02125636424621291,0.022975649487979026
0.5819315388517414,-0.0026507334533180105,0.0035680214374469443,-0.020955165870470083,0.02142139448022781
0.5844184554243782,-0.0046105750151475,0.0015741851133679319,-0.009081863726862593,0.010306100595994301
0.586905371997015,0.0003947914612006942,-0.003495022948309945,-0.004068257076735193,0.005377895624633868
0.5893922885696519,0.002232498693205076,-0.008396996253642985,-0.003970442183208078,0.0095529057165375
0.5918792051422886,0.0003489121441129228,-0.012395707086309216,-0.0009207298525648611,0.012434751196356527
0.5943661217149254,0.0024632378165313495,-0.015506977545805434,0.0031063883940642967,0.01600573465985493
0.5968530382875623,0.012303134764276358,-0.0245005494373447,0.010978361445866724,0.02953249850242627
0.5993399548601991,0.014069581805202902,-0.03398261906550504,0.008147665601137888,0.03767168678825636
0.6018268714328359,0.009163088630861793,-0.02698088559970735,0.011267486458018894,0.030641257025180335
0.6043137880054728,0.006807728564262039,-0.017254727079995202,0.017964659066846522,0.025822465997611847
0.6068007045781095,-0.004883911814610897,-0.022110287869489653,0.014973032072752801,0.027146069950110298
0.6092876211507463,-0.002738775364989565,-0.024133411614846167,0.01100153735699827,0.0266637632544413
0.6117745377233832,0.002071398275364178,-0.02405614773828324,0.0029590071495864123,0.0243258023122074
0.61426145429602,0.002288388682579967,-0.02164618969130938,-0.004202026076763232,0.022168700324207254
0.6167483708686567,0.01212318361059972,-0.008048234163162693,-0.02293870007437704,0.027164859931603513
0.6192352874412936,0.01371548222162755,-0.009924212136369626,-0.02945114029566831,0.03397019434466905
0.6217222040139304,0.0019816893644933886,-0.009658017884874859,-0.015784280790896332,0.018610425096911888
0.6242091205865673,0.0020796512617157203,3.0296015779640584e-05,-0.02090007418541262,0.02100330850543978
0.6266960371592041,0.006887220266516003,0.00022909237202517474,-0.027362367214525563,0.02821675789131296
0.6291829537318409,0.0067440902898414645,0.007013566113616587,-0.01774777577641906,0.020239970565137985
0.6316698703044777,0.0020143543959166843,0.0020865849744571285,-0.020866386771261958,0.02106697788900618
0.6341567868771145,0.006747069028229746,-0.002787466650148396,-0.029442986691709194,0.030334508008628577
0.6366437034497513,0.0037509486159167382,0.00026564834072395627,-0.02219360197718423,0.02250991233394419
0.6391306200223882,0.0018756328779441223,0.00431689182790107,-0.008060670928756508,0.00933423642127862
0.641617536595025,0.0035839029389737043,0.007269361973203825,0.012091399116552992,0.014556439000292092
0.6441044531676617,-0.0031662454719374455,0.0073449676175019185,0.032421483760243675,0.03339350638831539
0.6465913697402986,-0.0030636202525935463,0.009449993930138234,0.025400009249171518,0.027273588399580818
0.6490782863129354,0.0015630456098019163,0.01665177897642245,0.01860810223706011,0.025019718693918745
0.6515652028855722,-0.005331010862300922,0.0285016007553045,0.02032697580243692,0.035411112206503774
0.6540521194582091,-0.005173518655167464,0.033482407092601196,0.006183253960598378,0.034439359888524236
0.6565390360308458,0.001676121395462693,0.038479552893326385,-0.010308432596001893,0.03987165856079911
0.6590259526034826,0.0016048353136173255,0.038248575003196006,-0.01009912793457346,0.039591935683896864
0.6615128691761195,-0.00013920345979312465,0.028790730788373686,-0.003508851115213929,0.02900409614314097
0.6639997857487563,0.006485118182485761,0.04069054797589855,-0.015535112299579268,0.044035408100530284
0.6664867023213932,0.0035412693573237952,0.047170843054973766,-0.029111851415615675,0.05554393680702666
0.66897361889403,0.0035202198366697246,0.03143311259857784,-0.02380300909354638,0.03958554985396575
0.6714605354666667,0.0034484496201121484,0.02645437087744007,-0.011852695582664552,0.029192669214700404
0.6739474520393036,0.0015282995981217296,0.01935154450712817,-0.0029284573468011388,0.01963145019872488
0.6764343686119404,0.0015074546285850365,0.009854699060229954,0.0021843667879917206,0.010205830259681026
0.6789212851845772,0.001435315367592227,0.01990362729119921,0.012286989587655839,0.02343468844850683
0.6814082017572141,-0.000483996149146515,0.028324455560541306,0.022977115675431037,0.036475428439370065
0.6838951183298508,-0.0005046359162040881,0.014582154660713442,0.022818809879465718,0.027084903106197225
0.6863820349024876,-0.00047325626639649343,0.00793271608799806,0.01593246674890736,0.017804366114285153
0.6888689514751245,0.0015366053973518978,0.014873023443167988,0.014251053354072951,0.02065576200939654
0.6913558680477613,0.006253412909420386,0.016688283294860273,0.021084236022142377,0.027607045857581797
0.6938427846203981,0.003531761302104308,0.012691817761327773,0.018745535305724204,0.022911801978018866
0.696329701193035,0.011312136983590015,0.009474355140397517,0.006830725049088215,0.01625997088429506
0.6988166177656717,0.008048154111421124,-0.002309860929667895,-0.003017294593847808,0.008900129705889359
0.7013035343383085,-0.0035127872516270697,-0.007210194782848678,-0.011966091215549923,0.014405343524563132
0.7037904509109454,0.001147949620666,-0.011259304421280092,-0.019596939004838276,0.02263028375301548
0.7062773674835822,-0.003826903381328184,-0.016049004960130286,-0.01136115330043097,0.020032262828153017
0.7087642840562189,-0.008996753009033132,-0.016435327473914185,0.0011048752326896505,0.018769184935957025
0.7112512006288558,-0.015590950677288995,-0.031245497141055623,0.028874510181559288,0.04531110429947988
0.7137381172014926,-0.010269722781824808,-0.04005544147875817,0.050067650807742226,0.0649359319289387
0.7162250337741295,0.008175000818080647,-0.04286373048429182,0.03974104557444136,0.059021019414742845
0.7187119503467663,0.006030103259372144,-0.03944996687996705,0.01874205354443248,0.04408998302575724
0.721198866919403,0.003236699765035045,-0.022946220841828957,-0.0033882969466461077,0.023419774390237298
0.7236857834920399,0.008115615632846462,-0.023198543019787632,-0.03426971707090587,0.042171662564582116
0.7261727000646767,0.006198422419786298,-0.032601791671521774,-0.05954791403334525,0.06817075125308575
0.7286596166373135,0.011245528735805088,-0.025671914999204848,-0.06190293690076487,0.06795206202326971
0.7311465332099504,0.01490574336971362,-0.018795512125851843,-0.04322292079514334,0.04943352449037029
0.7336334497825872,0.011292957789521108,-0.01882584631263029,-0.03322960996625568,0.03982650328025497
0.7361203663552239,0.01789236613733991,-0.020554487414216727,-0.026265809487403757,0.03784859927239595
0.7386072829278608,0.014761088953939572,-0.015463006276792868,-0.023125407911482654,0.031492519767314854
0.7410941995004976,0.007979422885554643,-0.006954107731233172,-0.016192860523235098,0.01934527166645782
0.7435811160731344,0.006179756987069407,-0.015813533478747033,-0.00960695894327479,0.01950771379840431
0.7460680326457713,0.015048898724423276,-0.020310447751960226,-0.019105828658691593,0.031686216710714074
0.748554949218408,0.019634930818979157,-0.010671485446791085,-0.010807449946490522,0.02482361948332816
0.7510418657910448,0.008051440546038569,-0.010585741839942653,0.0031152291870295556,0.013659731990636827
0.7535287823636817,0.011002285428431846,-0.008321129727283605,0.015056497077953424,0.020420322936853537
0.7560156989363185,0.01281991211079403,-0.0017990600741746299,0.02376499302334345,0.027062181306733858
0.7585026155089554,0.010820218538407866,-0.008825337606111372,0.02183790549542053,0.025920220475676263
0.7609895320815921,0.007889822494349441,-0.020510344386690083,0.020242602946931143,0.029877859694430544
0.7634764486542289,0.0079599298286811,-0.022524091237005273,0.03451301709537802,0.0419743197438186
0.7659633652268658,0.010853016189033227,-0.02229065403749697,0.0524693038458075,0.05803179356079275
0.7684502817995026,0.010535764527831115,-0.015367632995983982,0.03851517555389883,0.042785338914548825
0.7709371983721394,0.0006189681544644943,-0.013299341030513556,0.02372055009238494,0.027201472204781228
0.7734241149447763,-0.003994886102353434,-0.008120464307386666,0.014446081355451668,0.01704671000711415
0.775911031517413,0.0024732195230151577,-0.0013129120588084575,-0.004212299372500894,0.0050580647373041215
0.7783979480900498,-0.0043008860933057,0.0014720981985418824,-0.01067045588705362,0.01159841899274629
0.7808848646626867,-0.006201712367142731,-0.0032460584695601646,-0.003886380944516432,0.008006378002472454
0.7833717812353235,-0.001428049774873874,-0.0010261927301513651,-0.001672005819914446,0.0024265203771575076
0.7858586978079602,-0.006177047902043764,0.008802317960282302,0.0032144059760081944,0.011223596929534169
0.7883456143805971,0.0004902223215317303,0.010657547879591611,0.004648604837115045,0.011637575849890947
0.7908325309532339,-0.00439070982331613,0.008790739433448547,-0.010895613538082216,0.014672076434867442
0.7933194475258707,-0.0062876968887634055,0.008662622963735878,-0.015903666567453456,0.019170361996205133
0.7958063640985076,-0.0014538778750553538,0.003823578168600683,-0.019060953269274705,0.01949495961576862
0.7982932806711444,-0.004379112011658748,0.001811778409452014,-0.027169222211158583,0.027579445218766156
0.8007801972437811,-0.0043035305482658215,0.001900420671935077,-0.008307572931503415,0.0095471326544897
0.803267113816418,-0.001292574843520855,0.004112675739092353,0.0032876622300115343,0.005421584122714154
0.8057540303890548,0.0022544192468219038,0.008932390289388081,0.0018593800678985417,0.009398260299613643
0.8082409469616917,-0.004513671159667387,0.008581380876414357,0.015684160572710937,0.018439257521773576
0.8107278635343285,-0.00649938592217425,-0.0031761123517966006,0.024303677104917654,0.025357413666553027
0.8132147801069652,-0.004482243425260712,-0.007570731104148187,0.020252386182725957,0.0220808881539869
0.8157016966796021,-0.004659851530455894,0.004075653418532443,0.01526364995712548,0.016471313763253493
0.8181886132522389,-0.00983446809652555,0.0040323703575229075,0.008306903814762734,0.013490049089218614
0.8206755298248757,-0.016314061150193404,0.002150416100464625,0.0032217703713737222,0.016767608205801112
0.8231624463975126,-0.009487411033169857,0.006033052373553893,-0.006701374838485208,0.013088816362843512
0.8256493629701493,-0.004790893873982238,0.0041011398061749915,-0.013258836859407097,0.014682260271699511
0.8281362795427861,-0.011632815461010582,0.002091022201262671,-0.010106827896835924,0.01555129382181306
0.830623196115423,-0.011711938073690198,0.0019550062348154817,-0.003399622912471756,0.012351071968340418
0.8331101126880598,-0.013615808378289018,-0.0029725148377974797,-0.0032082668858368635,0.01430101600117869
0.8355970292606966,-0.013632186335661989,-0.007517556862222108,0.0018173224441042635,0.015673315741501454
0.8380839458333335,-0.01358535692435714,-0.0005894800682222368,0.003571592742870777,0.014059362867283032
0.8405708624059702,-0.011553998990680214,0.006191655978839972,-0.0009664427104461026,0.01314402936505844
0.843057778978607,-0.006712581276756557,0.004259248056990295,0.005673198896834819,0.009766530967087858
0.8455446955512439,-0.0046969899302052864,0.002250114517263313,0.0038136035151161707,0.006455098877302763
0.8480316121238807,-0.004550985003010877,0.0021105780129566654,0.004002869744685,0.006417863370259651
0.8505185286965176,0.00028502246897665895,-0.0025909919157078853,0.009113950030130269,0.009479375615872424
0.8530054452691543,0.002253812835363189,-0.0006825936464163185,0.017845555654240286,0.018000262858957457
0.8554923618417911,0.00513930467247703,-0.0004917938650552678,0.017644787513885873,0.01838458158709175
0.857979278414428,0.004895002271738669,0.004625970258035128,0.01116399457181494,0.013038229284226663
0.8604661949870648,-0.0017920652128320391,0.009200282112238778,0.015912021757415573,0.018467515400840746
0.8629531115597016,-0.0015776478440542308,0.0020763247879820312,0.013953613075091909,0.01419518986116119
0.8654400281323384,0.005247226140870254,-0.007406465862782152,0.011081395998084886,0.01432433090990156
0.8679269447049752,0.009990525600249489,-0.005333839842152965,0.0108723911823283,0.015699342000623753
0.870413861277612,0.004945256053342839,-0.0003564857431825885,0.004019607780032075,0.0063827804461308885
0.8729007778502489,0.0020306157306112516,0.004356783050073698,0.002227539581546978,0.0052978194927888805
0.8753876944228857,0.001949537582044747,-0.002671835340101847,0.004073288944518083,0.005247007117772499
0.8778746109955224,-0.00011737671263511995,-0.009391019269644918,0.002043291863053298,0.009611454720963473
0.8803615275681593,-0.004813212214600959,-0.007579430403002796,-0.0026173699879254997,0.00935229398118131
0.8828484441407961,-0.0016949750642591965,-0.014200160777181559,0.003980058514699181,0.014844472787764997
0.8853353607134329,0.005129168635758297,-0.009397080697180815,-0.003381243069119577,0.011227034390962027
0.8878222772860698,0.009763050565455678,-0.00947815427367571,-0.019659386548864788,0.023909078699459067
0.8903091938587065,0.0014460653058361306,-0.012421053009869176,-0.017470628176603498,0.021484797221008513
0.8927961104313434,-0.01197230321407794,-0.014112283103580037,-0.009142283982564336,0.02064155844560347
0.8952830270039802,-0.00975733969770165,-0.009171476512559451,0.004701633054398968,0.014192498468380794
0.897769943576617,-1.1792996770232378e-06,-0.005068353784033253,0.014431553422541654,0.015295683889860748
0.9002568601492539,0.0018667169747992318,-0.00026860497046143905,0.014697974635231148,0.014818476280375739
0.9027437767218907,0.002029747444247443,-0.0006650846999942672,0.021458219691991687,0.02156426221078234
0.9052306932945274,0.007042445662456265,-0.012048534757029827,0.023020347087845394,0.02692024536932895
0.9077176098671643,0.009923463013405631,-0.00717882581379925,0.009019427891187703,0.015210546924014096
0.9102045264398011,0.009803950205297118,-0.009357919608421916,-0.0027756816001751616,0.013834468091371774
0.9126914430124379,0.006647085118829166,-0.013865411772771008,-0.009692436430176699,0.01817626771805679
0.9151783595850748,5.270074089458454e-06,-0.007042433863044817,-0.01737463809339168,0.018747638554372083
0.9176652761577115,0.005085226120179698,-0.007202050787400882,-0.01420389257607546,0.016717644108855505
0.9201521927303483,0.013752807632236963,-0.011994523030322224,-0.006701805296392749,0.019440228772445126
0.9226391093029852,0.013738887683022671,-0.009080122682465053,0.011806918197002858,0.02026348884091892
0.925126025875622,0.013907020214338317,-0.008984543637624576,0.014544415642752995,0.022037859741988394
0.9276129424482588,0.01873620741871984,-0.006585036686830303,0.009728849954321106,0.02211467155618385
0.9300998590208956,0.016267538836709727,0.0033042370302394097,0.011275192072551121,0.020066907046896496
0.9325867755935324,0.004759476692022702,0.012363906156784843,-0.002541257117160356,0.01348987700356114
0.9350736921661692,0.007018511000092875,0.022142585267880932,-0.008918874639180174,0.024881718265288948
0.9375606087388061,0.013656830558120947,0.023717840066665996,-0.0017304384518848082,0.02742333633161608
0.9400475253114429,0.013572802268479678,0.015063277782625395,0.012136917509703693,0.023631082616188685
0.9425344418840798,0.012045398899010795,0.0156669272889971,0.01906983838445342,0.027462756258689432
0.9450213584567165,0.02196804280624598,0.030973249609986375,0.026326744323862172,0.04620643421465875
0.9475082750293533,0.028055963824211216,0.026146898365128735,0.03740717999526666,0.05357326306489178
0.9499951916019902,0.013338043091630336,0.023891284949501213,0.0232960582027264,0.03593609909043088
0.952482108174627,0.006787469557205217,0.016746023771165408,0.004787855020719434,0.018692849189833338
0.9549690247472638,0.009366134006302262,0.0032608581864819186,0.00015696605847814737,0.009918785242148958
0.9574559413199006,0.0016619174354105537,0.005225999159961692,0.002701997702489578,0.0061134138062379564
0.9599428578925374,0.004283674740716448,0.002929671433988368,-0.00746589750180604,0.00909244023916865
0.9624297744651742,-0.002819163315627593,-0.004707151979969293,-0.020617988137143328,0.021335566465085765
0.9649166910378111,-0.01413090461754929,-0.004503697591482059,-0.012866959752718898,0.0196347755419787
0.9674036076104479,-0.007309948022018453,0.00039380571624736405,0.015513484653041587,0.017153968319514802
0.9698905241830846,-0.0024123535577047495,0.0033800125580540907,0.023941950573201254,0.024299401882136647
0.9723774407557215,-0.002278878731981848,0.005421168688586775,0.01691779674209215,0.017910728763284218
0.9748643573283583,0.0013894568793829665,0.00536177012244643,0.009708267941357818,0.011177192656781926
0.9773512739009951,-0.0009508732548433318,0.0036982538788374875,-0.0026382895390106853,0.00464131591154557
0.979838190473632,-0.012438487642215112,0.012379282535732727,-0.0247870487348969,0.030370386825182016
0.9823251070462687,-0.010574373296801887,0.012058062499564759,-0.05291032366908155,0.055287580817309216
0.9848120236189056,-0.0109272812863479,0.003684496909139412,-0.05584099741706794,0.057019277321949766
0.9872989401915424,-0.019405150506802138,0.010828281323000066,-0.03496648336706798,0.04143026069989322
0.9897858567641792,-0.014436441628255303,0.019237235498586358,-0.017987891672108347,0.030034086024408976
0.9922727733368161,-0.012498229397492011,0.012285729326656725,-0.0008547633188946691,0.01754638149281881
0.9947596899094528,-0.010175538667034578,0.0076584068852629805,0.01975401925652065,0.02350349037848523
0.9972466064820896,0.0013535244805805702,0.010372380201642883,0.029445670457775464,0.03124845289410141
0.9997335230547265,0.0010763124902368748,0.005550448186808055,0.02935657264316127,0.02989605795091195
1.0022204396273633,-0.005766622475088856,0.0036309267596985606,0.02680454657586573,0.02765721029030676
1.0047073562,-0.010565790074892112,0.005205191935632403,0.03409183331854493,0.03606914251840362
1.0071942727726368,-0.007419897169980705,-0.0063128844297599684,0.0240537604241311,0.025951700799332768
1.0096811893452737,-0.0007305039814550218,-0.005909670751929497,0.010609080760755063,0.012165954095399004
1.0121681059179106,-0.002616144369768092,0.003157215895632781,0.012653727577379925,0.013301467782829488
1.0146550224905473,-0.0026275202445656953,-0.008667343439189956,0.01259811625843632,0.015515773850812254
1.0171419390631842,-0.0029556586877420576,-0.01628896374539135,0.010412570700488288,0.019557297532373077
1.019628855635821,-0.01090290238059366,-0.016076755418127586,0.005958139191976741,0.020318335751877387
1.0221157722084577,-0.01458452059855786,-0.011379412129182587,0.012876667212429638,0.022539028816592935
1.0246026887810946,-0.012645486491131175,-0.01335278254504857,0.01558312500436898,0.024104748810027547
1.0270896053537315,-0.010582086134927837,-0.01590239838024754,0.010711010240006757,0.021899601858770427
1.0295765219263682,-0.005694381376265212,-0.007969458528799045,0.010618479607888531,0.014446119121886975
1.032063438499005,-0.0059073872052136656,-0.001299270736327074,0.0077630807078072905,0.009841277869998782
1.034550355071642,-0.01069680662577488,-0.004323606709855099,0.007037461827453129,0.013514478012249875
1.0370372716442786,-0.007545831416063353,-0.007835900311754518,-0.011646666047727905,0.015936929926516623
1.0395241882169155,-0.0005899656670218523,0.0009429215633174337,-0.025074651511713952,0.02509930893464464
1.0420111047895524,0.0037550405701808343,0.0034441592597471704,-0.022912175109308208,0.023471905140610313
1.044498021362189,-0.005638415805437447,-0.005842943816318336,-0.020006035012823276,0.02159104356370878
1.046984937934826,-0.0022870000842407645,-0.0009955939426804505,-0.019901598469566295,0.020057297882014484
1.0494718545074628,0.009099387207063825,0.0006156145651270428,-0.01711631329192187,0.019394483997881837
1.0519587710800997,0.006003702066373906,-0.0057889149789671634,0.004635450725336554,0.009541665397744563
1.0544456876527364,0.0010206230926356197,-0.0014285716319610842,0.018126798797169386,0.018211626040470042
1.0569326042253733,-0.0008606801988610968,-0.011255223586478014,0.02023107348442288,0.023167156983938297
1.0594195207980102,-0.0008708533810085628,-0.01557843781374224,0.024942216185177557,0.029420405479122506
1.0619064373706468,-0.0005933660653625328,-0.006005557965615083,0.019794736219568065,0.02069421155222316
1.0643933539432837,0.005950531476015319,-0.00812540348161983,0.013404739916774489,0.016766575643897476
1.0668802705159206,0.0010490481880106595,-0.010985708650829817,0.018257812327316714,0.021333869964008025
1.0693671870885573,0.0012487057126727708,-0.011172102122349425,0.019784403541269313,0.022755169858141158
1.0718541036611942,0.006042885433931833,-0.015697884487971603,0.010896402284521045,0.02004174704239729
1.074341020233831,0.004229657704161727,-0.010644350591079377,0.004589961783224794,0.012339365987426205
1.0768279368064677,0.009190318772096084,-0.003948591640825505,0.011108397946047788,0.014948238692451276
1.0793148533791046,0.010633593231981098,-0.006012717924909428,0.007972025058956334,0.014586955316596711
1.0818017699517415,0.0008286838214121017,-0.010884659788299,0.0013841257137396923,0.011003560313567551
1.0842886865243782,-0.002631913619501547,-0.011155062105798308,0.0013227046936172826,0.011537414250656528
1.086775603097015,0.003971562393111028,-0.01775132318759942,-0.0009515064907805737,0.018215052768382974
1.089262519669652,0.0038367443856056616,-0.017446348452583305,-0.007752084292871331,0.01947281419551922
1.0917494362422886,0.001166600487624736,-0.011025993645397136,-0.012524272755062071,0.01672695132441218
1.0942363528149255,0.005955510855061519,-0.015626133545949106,-0.010574514496662246,0.019785462238237236
1.0967232693875624,0.0037259346143209138,-0.0122305721595799,-0.01247204953791936,0.017861173079537645
1.099210185960199,-0.0009424728410893923,-0.0006373880750629723,-0.010225870344825694,0.010288971907999805
1.101697102532836,0.0010430342819408578,0.0011641447576793418,-0.005161203660749791,0.005392696612815635
1.1041840191054728,0.003615155674782544,-0.000985764095639663,0.001909231617863938,0.004205501964785662
1.1066709356781095,-0.0029188621721387698,-0.008231037005632214,0.008542868680670779,0.01221680530512029
1.1091578522507464,-0.0008500432843449035,-0.019405370321697646,0.008568708064828456,0.021230019519721123
1.1116447688233833,0.0037527205003358155,-0.012128043071659267,0.00851141203060024,0.015284517481958975
1.11413168539602,0.0005773429846721578,-0.0005403546599871412,0.00624110119858301,0.006290997715106425
1.1166186019686568,-0.006036810943543358,0.001130179001792353,-0.0038679273191100094,0.007258185220156258
1.1191055185412937,-0.0057494471789297785,-0.0036757664979831794,-0.015714246159561185,0.01713198571603078
1.1215924351139304,0.0005494436125018654,-0.005010686358537519,-0.023786415136433092,0.02431465424614725
1.1240793516865673,-0.005933340056261116,0.006269655529353102,-0.0114563846633704,0.01434440149448868
1.1265662682592041,-0.002773441878480609,0.0014046899569404303,0.006495184882853167,0.00720087219653867
1.1290531848318408,0.0038207111190607934,0.0018548682452590448,8.021077674946753e-05,0.004247917540547592
1.1315401014044777,0.0036823645713145448,0.011179988780333439,0.007370793078473881,0.013888144173003554
1.1340270179771146,0.0009347033227801171,0.0045422391253442385,0.01879160324730833,0.019355359959909637
1.1365139345497512,0.004188283377525193,0.006474617274356831,0.01682118398926491,0.01850444858136972
1.1390008511223881,0.012787888510083945,0.0045730178872092075,0.013585491799602778,0.019209585434885018
1.141487767695025,0.012084826193117348,0.007029236642789982,0.005003294719520213,0.014848776042104458
1.143974684267662,-0.003568884168306252,0.01651165277683253,0.005331673450818641,0.017714354445353995
1.1464616008402986,-0.012744631502287662,0.016704537547556075,0.011652430290055804,0.02402595135413838
1.1489485174129355,-0.002747781073361266,0.021119761922923974,0.00442027078792151,0.021751630705458935
1.1514354339855724,0.005623093933270984,0.03282493834450673,-0.009893264254142053,0.03474150889505725
1.153922350558209,0.0005681102344649025,0.03766406300599279,-0.009734953171575356,0.03890595975696607
1.156409267130846,-0.0029943146352627847,0.039905264149987296,-0.007374226666881256,0.04069121829031115
1.1588961837034828,0.0009515366099908107,0.0444310629406397,-0.019175437871558287,0.04840167552390341
1.1613831002761195,0.005724422679859176,0.03962195187138473,-0.026890892450481374,0.04822642617797187
1.1638700168487564,0.0035764526579846745,0.03754289091842855,-0.02663787726073963,0.04617181149885783
1.1663569334213932,0.0008367707463536878,0.03515835979458393,-0.02106946025732981,0.04099673894668415
1.16884384999403,0.004097893010425402,0.02370862867243373,-0.006311759180709586,0.024874286012014732
1.1713307665666668,0.012378474638070847,0.023588390264828618,0.0025342017823000162,0.02675931554290276
1.1738176831393037,0.0055517253895860375,0.020198321545310982,0.007826497066099947,0.02236175092372731
1.1763045997119403,0.000903282230466429,0.00834647890116047,0.019941056562673865,0.02163620497386618
1.1787915162845772,0.005448722676769546,-0.00036948599192720977,0.033201051540508786,0.033647212694398534
1.1812784328572141,-0.0012905356342289842,-0.003084448766607295,0.031140395073053995,0.031319379172054566
1.1837653494298508,-0.0012975402982902118,-0.00020608532433419313,0.026208287914085915,0.02624119733118546
1.1862522660024877,-0.000984544225616557,-0.0005120484555685145,0.021277189586211165,0.021306109866435444
1.1887391825751246,0.005963619776713447,-0.007453186851251292,0.018984306344457025,0.021248968032849598
1.1912260991477612,0.010456155774562936,-0.012390097932815536,0.009006466172740701,0.018546216683933362
1.1937130157203981,0.005080920427993907,-0.017422535261324423,0.00021636375577216427,0.018149581278985763
1.196199932293035,-0.008147893765161118,-0.024047397523602854,-0.004709277998989236,0.025823299551728397
1.1986868488656717,-0.00310929339756727,-0.021849549279418845,-0.009819456095266688,0.024155583767584216
1.2011737654383086,0.0006051344456563523,-0.01464764690929421,-0.01875294472825395,0.023803207423740685
1.2036606820109454,0.0005986086912302957,-0.00514278633466958,-0.025993024708167667,0.026503658561200478
1.2061475985835821,0.0005921421947713279,-0.007914017848753563,-0.015917016039040277,0.017785772698319408
1.208634515156219,0.0005857348195567047,-0.02439518045153699,-0.005985805698173863,0.025125639979872837
1.211121431728856,0.00039867203012622365,-0.031105835926082737,0.0009480245128870024,0.03112283275225793
1.2136083483014926,-0.003326894617140863,-0.03109256498722246,0.00792616139533564,0.03225895007192767
1.2160952648741294,-0.003242347587007366,-0.031079358137232838,0.013000676310470638,0.033844599342095716
1.2185821814467663,-0.0016200758743417643,-0.03129696220248457,0.019516841761836545,0.036919257864953606
1.221069098019403,-0.006114252345990723,-0.036003183605010314,0.014164985136028818,0.03916963256593625
1.2235560145920399,-0.0013103123192839128,-0.03566048847367753,0.0007489294359501741,0.035692411684493774
1.2260429311646768,0.0009218291027029979,-0.028927180123723417,0.0011045383210479542,0.028962933617083624
1.2285298477373134,0.008396885563694334,-0.029153968552491083,0.007518179708503325,0.03125675280093517
1.2310167643099503,0.003205982038012367,-0.034234412756660504,0.0010653513613796406,0.03440070218970321
1.2335036808825872,-0.0035165561901372433,-0.0387053825368886,0.006275535326459192,0.03936819970990432
1.235990597455224,-0.006380896523225155,-0.033834137895195404,0.012308871647965347,0.03656464205755732
1.2384775140278608,-0.006059834992224178,-0.031339874976245685,0.0009018177027222407,0.0319330962925401
1.2409644306004977,0.0006501080497307576,-0.038523634801895135,0.0014967013137177076,0.038558179335240854
1.2434513471731345,0.003502122676666497,-0.030268327661558292,0.012952821961468075,0.03310909421043358
1.2459382637457712,0.003260656119405958,-0.016732846916060584,0.012406319397559429,0.0210840414825905
1.248425180318408,-0.001458882224714686,-0.014863388935766775,0.0008604530765694562,0.014959580458637217
1.250912096891045,-0.001464306044322572,-0.014370572027972095,-0.002064426086851867,0.014591757525077236
1.2533990134636817,-0.0015630313060601697,-0.004121121777469039,-0.004132975177130405,0.006042201203471284
1.2558859300363185,-0.0032376533595358525,0.00907963800647682,-0.008344691192260001,0.012749748887697898
1.2583728466089554,0.0007151711931296933,0.006989999193823149,0.0012064188547107335,0.007129306068484672
1.260859763181592,0.006041559753705794,0.002870102745922143,0.0029850741114056945,0.007324520563172168
1.263346679754229,0.015314455569545138,0.017159529474396695,-0.0008727239743304693,0.023016160590107818
1.2658335963268659,0.012454323860334737,0.017273076064456827,0.01861488761175778,0.028283977449167007
1.2683205128995025,0.012449292822590552,0.01961779702355093,0.024624587390079,0.033855769906642005
1.2708074294721394,0.012589940512524822,0.0257581000100382,0.013086899578606648,0.03151592071979777
1.2732943460447763,0.015439418131124927,0.017309121197386368,0.010403755698286332,0.025420846592573283
1.275781262617413,0.015193099267598598,0.019903879999397578,0.013136983307152406,0.02827675785513475
1.2782681791900499,0.010575008843073719,0.03157180501281598,0.010308464554359631,0.03485504447374653
1.2807550957626868,0.012233886227706159,0.03590208575777831,0.010730692618391657,0.0394179590803701
1.2832420123353234,0.008122928625213355,0.028500189582801205,0.018311661188654682,0.03483618393558633
1.2857289289079603,0.00031987964661250867,0.031217120374618545,0.015484868296445242,0.034848128696244166
1.2882158454805972,-0.001538960144909729,0.028176535408725556,0.01575377996700844,0.03231821667752882
1.2907027620532339,-0.0015434970733739783,0.024337091981102787,0.020485185852137988,0.03184837937334969
1.2931896786258708,-0.0010514406599783088,0.024200118223202338,0.02016225748277556,0.03151615262496621
1.2956765951985076,0.008690625777108663,0.021604717208858926,0.012402378369891665,0.02638389226976314
1.2981635117711443,0.01229656566055981,0.02642471395452395,-0.009429219208243467,0.030633008495738367
1.3006504283437812,0.010341990314278182,0.028431676270455508,-0.029862597845784933,0.04250990154431889
1.303137344916418,0.007887478600486886,0.028241122391938323,-0.038791274652000496,0.048626497938433884
1.3056242614890547,-0.003773791141028715,0.024403566107574992,-0.027011522438176172,0.0365977852167448
1.3081111780616916,-0.00836916050341907,0.02451176059427418,-0.02063905771460739,0.0331185742191583
1.3105980946343285,-0.003332582908605497,0.025676894866960343,-0.027064472340084578,0.037455235974411735
1.3130850112069652,2.2262235691461463e-05,0.012082740775346323,-0.022080799626005287,0.02517051513924874
1.315571927779602,-0.006641344396293936,0.0051481990281709855,-0.01701505292739114,0.01897691847339202
1.318058844352239,-0.008383460277489485,0.0008117208818756438,-0.013285946562861639,0.015730787427383666
1.3205457609248756,-0.0034455774668271655,0.007616046852575664,-0.013109598353553409,0.015547917633304629
1.3230326774975125,-0.0015976085443335508,0.008872603042157312,-0.009273346541986527,0.012933305605776128
1.3255195940701494,-0.0013510487699407436,-0.0021091718862606967,0.009697193877480359,0.010015463440200531
1.3280065106427863,0.0033448434241756253,0.005905581825742523,0.026020311627974024,0.02689089978877002
1.330493427215423,0.003089832904250911,0.014360522450120872,0.02943354811298171,0.03289537090436626
1.3329803437880599,-0.0019708422224031796,0.012367240202983076,0.02020684120703997,0.023772868587329056
1.3354672603606967,-0.00917015456330561,0.009529892601284118,0.0073423360159630136,0.015126813474034512
1.3379541769333334,-0.018317222419734436,0.00979238712586783,0.013764068376545424,0.024917083719229696
1.3404410935059703,-0.013623043205733043,0.014500100163773677,0.010228697906793371,0.02237110797017389
1.3429280100786072,-0.013726316766695779,0.014410248140210413,-0.002883105118213436,0.02010918493039387
1.3454149266512438,-0.015226001941829104,0.012416126265294647,-0.0011074154862846797,0.019677847840340323
1.3479018432238807,-0.009299427206856614,0.009579832711035241,-0.0031865257014622728,0.013726124259714591
1.3503887597965176,-0.021404942359655177,0.009489208155879059,-0.008119294456200521,0.024781839546576253
1.3528756763691543,-0.034074741774708484,0.007030179883148691,-0.01303221394434928,0.037153062545283985
1.3553625929417912,-0.023429416887442156,-0.00506946425882715,-0.01398087313818408,0.027750709130814708
1.357849509514428,-0.018860280828513987,-0.018586695625396832,0.0028498308677260553,0.02663263004617085
1.3603364260870647,-0.023076687477610713,-0.021157209918413855,0.016400268583087296,0.03534303108207536
1.3628233426597016,-0.011437330469951879,-0.016678325366697777,0.019736637443717342,0.028257988656326366
1.3653102592323385,-0.0074947290752288565,-0.023875666833880427,0.028809431883122016,0.03816021221248365
1.3677971758049752,-0.023441979651136702,-0.033237005040287926,0.038219772661836515,0.0558119694719233
1.370284092377612,-0.01825057883980341,-0.030015948938315606,0.03782981768445026,0.05162495447643703
1.372771008950249,-0.011815823121032132,-0.02332489698494067,0.030477471334084072,0.04015645345776352
1.3752579255228856,-0.01314008757831564,-0.023056400371241903,0.03308670029033678,0.04241449322752048
1.3777448420955225,-0.003619293314921057,-0.017726144730807913,0.027420048469101843,0.03285079221517916
1.3802317586681594,-0.003779767829942604,-0.005976824589893681,0.008662694412578276,0.011182636161135785
1.382718675240796,-0.006624645306545829,0.0005533634208236826,-0.004054444300567894,0.007786568891331589
1.385205591813433,-0.006262680659010367,-0.0022796478343729554,0.004021823580623973,0.007784152375125172
1.3876925083860698,0.000698685416371303,-0.0021120726062826556,-0.005009735564703632,0.0054814653545850285
1.3901794249587065,0.008208753999055296,0.0003645448301092813,-0.013763549097006944,0.016029716744093963
1.3926663415313434,0.005253887000281288,-0.006939768727145523,-9.74124311046154e-05,0.008704780742771492
1.3951532581039803,0.003374552134686848,-0.018717235017085887,0.007166872935382429,0.02032453090397077
1.397640174676617,0.0055202983421021035,-0.0259721370176611,-0.0008440194139964774,0.026565729122709585
1.4001270912492538,0.00819824164095495,-0.021381089989291002,-0.0071912314785524956,0.0240015829751242
1.4026140078218907,0.005243815307495181,-0.023114487404493733,-0.004326581392357198,0.02409349359259283
1.4051009243945274,0.003366157830769212,-0.021364559932396165,-0.0051045503720779095,0.02222232827918077
1.4075878409671643,0.005616960625605905,-0.02374056248371348,-0.01938804778401071,0.031161850885141493
1.4100747575398012,0.010839177647191778,-0.032703737629683705,-0.020971608180408552,0.04033398786000649
1.4125616741124378,0.02018581258288754,-0.02280547232860375,-0.014008795539870889,0.03352317034888077
1.4150485906850747,0.01723210059273872,-0.015860006223364476,-0.009671613236635679,0.025338216015388545
1.4175355072577116,0.015729339373816043,-0.010682897236292455,-0.015963629350704167,0.024826878026536648
1.4200224238303485,0.024403504295789913,-0.001998631267618567,-0.01143888612160815,0.02702542626049881
1.4225093404029852,0.027077133600924952,0.0008473380709417278,0.00288986797550983,0.027244090786162852
1.424996256975622,0.02451444909062711,0.0006925111876272538,0.004412965299289695,0.024918106844113826
1.427483173548259,0.029335878489115674,-0.0018679234007841217,-0.004236991725626638,0.02969907411759473
1.4299700901208956,0.028567080366271147,0.002984343539015999,-0.007162395018013967,0.02960209940875701
1.4324570066935325,0.014962816759530928,0.005943337041557584,-0.008845196701079416,0.018369720881103127
1.4349439232661694,0.010665143968334623,0.008206616265427069,-0.0035075936923725237,0.013906727145667597
1.437430839838806,0.01732909285359907,0.012238025709549571,0.004912778397589079,0.021776182493267102
1.439917756411443,0.016941410288860315,0.0007376940430185996,0.0032321702739643854,0.01726274890498342
1.4424046729840798,0.010276000813137065,-0.00181863371449964,0.007797417570841958,0.013027023530844768
1.4448915895567165,0.010274509595208037,0.003254665503998666,0.0021787647129496435,0.010995699643012056
1.4473785061293534,0.009340239572719566,0.009924598143012275,-0.011806616591242047,0.018031470237023693
1.4498654227019903,-0.006678353119918601,0.009824506007693135,-0.008284773957992542,0.014483052103219004
1.452352339274627,-0.006017411183665389,0.008096931279762742,0.0034681611828411008,0.010667599331277278
1.4548392558472638,0.005318993278376483,0.00944830119067408,0.010544247033498877,0.015124259664147443
1.4573261724199007,0.004926955750191198,0.000288639146655445,0.017612065558250123,0.018290518274489225
1.4598130889925374,-0.0017335499297356227,-0.010265038753362266,0.02393824812492973,0.026103944898379194
1.4623000055651743,-0.0020101452079572812,0.0035857200102551445,0.01916109969116775,0.019597086852996454
1.4647869221378111,-0.006969930897240628,0.015484944030026426,-0.0006805818286697018,0.016994899821736992
1.4672738387104478,-0.011619614490213315,0.025207954180050507,-0.016121366218182942,0.03209914085431994
1.4697607552830847,-0.008670559834669467,0.029038948750943927,-0.023291585682580163,0.03822220710549699
1.4722476718557216,-0.006302662657743929,0.029213820648640088,-0.014728601628274163,0.03331820192316251
1.4747345884283583,0.0003782345385165975,0.03205265840160276,0.0008695809288195022,0.03206668275590304
1.4772215050009951,0.0025353099321639982,0.03216889295620229,0.010380970434809456,0.03389734528909481
1.479708421573632,-0.009070075504874486,0.03390653952334288,0.010971057367402892,0.0367734114799128
1.4821953381462687,-0.014309032213593142,0.031903704254665044,0.02059115173096515,0.040578199537022436
1.4846822547189056,-0.02350580551828063,0.029079324972751674,0.02245674545662979,0.043616917021242964
1.4871691712915425,-0.018694330627033073,0.028687492789470692,0.021693687085438285,0.040534754217827346
1.4896560878641791,-0.019094506957732627,0.021532591403835344,0.007197084344777949,0.02966564867973177
1.492143004436816,-0.02563512329170292,0.012878714425050841,-0.016267959762657824,0.032979802095559584
1.494629921009453,-0.02379635523573198,0.009825138997226368,-0.03068197932055483,0.040052262530934774
1.4971168375820896,-0.02390787053499377,0.005840877157290425,-0.03500655602565139,0.04279206800636831
1.4996037541547265,-0.025465313688643687,0.0033085248439830295,-0.02654613031904951,0.03693407062348038
1.5020906707273634,-0.0199932523612657,0.007832805473634075,-0.012793238308347554,0.024994998059276175
1.5045775873,-0.00669858056029371,0.0032015508105822654,-0.0032918505843717583,0.008121403166036854
1.507064503872637,-0.006699031971068359,0.0062679390803572765,-0.0025798024957719434,0.009529925003989128
1.5095514204452738,-0.006699444124900755,0.010668853486645258,0.008466090939124982,0.015178329357729198
1.5120383370179107,-0.006303477691710246,0.02054452433245002,0.002995335726152959,0.021697542422331798
1.5145252535905473,0.0006656215790508124,0.026536432540471555,-0.007600206508165286,0.027611382490347232
1.5170121701631842,0.008005805821962864,0.01805996162936374,0.0042534255123367615,0.020207591877857745
1.5194990867358211,0.0031992701120365785,0.01806575661812415,0.012534917262071232,0.022220059455411872
1.5219860033084578,0.0033204416640765233,0.01819288259017071,0.009283729286442721,0.02069284753841834
1.5244729198810947,0.005472631676498918,0.020576699442828694,0.016740183733768177,0.027084756023775493
1.5269598364537316,0.008124590769924223,0.027082632702366105,0.03205964025371166,0.04274691219804557
1.5294467530263682,0.005298674480533894,0.02627756791083735,0.03560829663495113,0.04457058801274673
1.5319336695990051,0.005586557411387139,0.012733738149842022,0.04734636337347098,0.04934608227278252
1.534420586171642,0.009663008693349018,0.006335247665019139,0.05301478560044792,0.05425934566732564
1.5369075027442787,0.0003737710762666824,0.009918180167177049,0.036122221628652085,0.03746097833793851
1.5393944193169156,0.003198580074645463,0.005408511731018528,0.02242429122882328,0.023288017321222616
1.5418813358895525,0.002320847545677074,-0.0057618573345243895,0.012583429514327449,0.014033104845889769
1.5443682524621891,-0.011625362843849851,-0.004078448385988587,0.0058136686287841854,0.013622831769263209
1.546855169034826,-0.008677632974354865,-0.009694043012316023,0.0012138920527995367,0.013067108244676547
1.549342085607463,-0.007230231993033298,-0.023410228016165213,0.003771895746760734,0.024789962242132615
1.5518290021800996,-0.015877348128904067,-0.03315565441483326,-0.0014542165029389764,0.03678997620167327
1.5543159187527364,-0.018408459623324047,-0.03734023716801804,-0.011001803017055778,0.04306047337284491
1.5568028353253733,-0.013634754085008138,-0.02985404119648427,-0.01281181842386303,0.03523227193988577
1.55928975189801,-0.012030534972877538,-0.03031960846743731,-0.012786584088340547,0.03503582683483479
1.561776668470647,-0.016294837240216964,-0.03732327300551441,-0.012645792442938841,0.04264345782226403
1.5642635850432838,-0.025633223810990757,-0.02942106774451192,-0.009895653392241854,0.04025649446028418
1.5667505016159204,-0.023200592109590024,-0.023204078860916244,0.004239728502032136,0.03308582850390987
1.5692374181885573,-0.013149513800919,-0.030124780280649244,0.003970152743999478,0.033108521757527015
1.5717243347611942,-0.004296608306003757,-0.03406003600724716,-0.00036520770530223956,0.03433191332300322
1.5742112513338309,-0.013863374053254884,-0.021937874804312862,0.0050318735505552326,0.0264345085541408
1.5766981679064678,-0.015284000658296604,-0.009228692577019082,0.01616144094813876,0.024082392246704117
1.5791850844791047,-0.008795773016594288,-0.016430641656111966,0.01282650829747567,0.02262412259726821
1.5816720010517413,-0.00897514007272393,-0.027410274330128992,0.00451716098698185,0.0291938524617813
1.5841589176243782,-0.011794465474182059,-0.022329380019650458,0.0069308502442595454,0.026186777445726124
1.586645834197015,-0.011793750674513714,-0.015581082023142123,0.013929171400986817,0.02399759337730649
1.5891327507696518,-0.011612169858223664,-0.013861743300218166,0.021683807299760716,0.028234339290136353
1.5916196673422887,-0.008484340479696817,-0.016115573973674024,0.02324297762129035,0.029528490760284135
1.5941065839149255,-0.003999541233384085,-0.022618038369461413,0.01819140120370477,0.029300154735327245
1.5965935004875622,-0.008972024364567566,-0.02060023654156229,0.010439744899903403,0.024776102202359665
1.599080417060199,-0.01190792945303365,-0.01765028611100483,-0.008578385149499823,0.0229547397160568
1.601567333632836,-0.013128378735971835,-0.015673628594945477,-0.026616669034435603,0.03356283706804437
1.6040542502054729,-0.003569236789125574,-0.015669665355035445,-0.0312542566706675,0.03514408091886327
1.6065411667781095,-0.0016180055569229301,-0.015546914625509611,-0.02883620117290775,0.0328001675977353
1.6090280833507464,0.0003972177557087786,-0.013711869231013196,-0.021599489721650045,0.025587322954727456
1.6115149999233833,0.00334351254164178,-0.01370806110147127,-0.009692209525331563,0.017118088116396455
1.61400191649602,0.005187688189843165,-0.014136116409433352,0.0008069962373102868,0.015079560299396071
1.6164888330686569,0.0032173691616566025,-0.021173690214248087,0.017176851862171105,0.027453977152796915
1.6189757496412938,0.0032185045385847433,-0.02796019077284262,0.02320238795150331,0.03647577067274536
1.6214626662139304,0.0032196709963457915,-0.03200595034292597,0.013675005318829037,0.034953582207673015
1.6239495827865673,0.0029163255533006804,-0.020001548852342843,0.012488155116525235,0.02375964918595995
1.6264364993592042,-0.0014226259905375516,-0.008736480580960215,0.021944918858107343,0.02366282783902556
1.6289234159318409,0.004093773069478557,-0.008418197582566123,0.020488596496306855,0.022525710085854952
1.6314103325044778,0.017194839732820766,-0.0028877846188990475,-0.0033678539825636733,0.017757934955687036
1.6338972490771146,0.015040331699003318,0.008800825130860002,-0.024465664207424354,0.030037224001403094
1.6363841656497513,0.012543682054926397,0.015463285393223725,-0.030616411851061898,0.03652152556070477
1.6388710822223882,0.016890752850163282,0.01853204873454617,-0.02335453480526617,0.03426614448862437
1.641357998795025,0.009972315707510226,0.022772073601031284,-0.01291413534170971,0.02801409124503304
1.6438449153676618,0.005331588265035991,0.029573599498883052,0.003087827674768562,0.0302085799152703
1.6463318319402986,0.0055199559376897245,0.03195051670211413,0.019147621442424878,0.03765550209449502
1.6488187485129355,0.008456342589673094,0.025033509304230872,0.018610544822960762,0.03231932388968501
1.6513056650855722,0.010286064282439944,0.020517890311937848,0.010009785825969786,0.025039623670434535
1.653792581658209,0.009846282426143382,0.022226847784392767,0.00741105707641232,0.025414677000422155
1.656279498230846,0.003239163515146415,0.02052415611613112,0.010059658075345368,0.023085274205649785
1.6587664148034826,0.0030522651347665297,0.022354673568597327,0.006830774314595445,0.02357344333245341
1.6612533313761195,-0.0003236661103399596,0.022357476535096676,0.0005599481221416625,0.02236682942814808
1.6637402479487564,-0.008755883903736827,0.022672304624223205,0.005545829416950809,0.02492900166134231
1.666227164521393,-0.008621658417053646,0.027634605813086743,0.010027066558299325,0.030635706227694574
1.66871408109403,-0.00646286638591298,0.032093078607029035,0.005085220356939146,0.03312995325197029
1.6712009976666669,-0.0035273329094028805,0.02674860320219752,0.0028122889981165855,0.027126349185456113
1.6736879142393035,-0.0020128698715327076,0.018453916664622927,0.009787335932184504,0.020985486175783535
1.6761748308119404,-0.0064566276007258505,0.020547081994183536,-0.0006762898196530642,0.02154827107612865
1.6786617473845773,-0.0033973679036999327,0.02192756343612645,-0.016657796021505078,0.027746032422898064
1.681148663957214,-0.0005079835609199668,0.015203873314284966,-0.019038631403546447,0.024369761935133804
1.6836355805298509,-0.011865779229819906,0.013695737025294807,-0.025473605355772477,0.03126138991181449
1.6861224971024877,-0.013373495153607529,0.01801667716608657,-0.024241266152603913,0.03303165169064256
1.6886094136751246,-0.008929493391358734,0.013068605935876665,-0.006072509803585646,0.01695286667936116
1.6910963302477613,-0.011985339155955232,0.008753991797613825,0.000676456108411827,0.014857264887676046
1.6935832468203982,-0.015383611827491595,0.013841663736743115,0.0034893524732630965,0.020986251417122494
1.696070163393035,-0.01121169768823671,0.020114168691025114,0.017234933084372628,0.02876325547649691
1.6985570799656717,-0.003629690879420111,0.014764993779479152,0.01140264837877858,0.01900526472423537
1.7010439965383086,-0.0030476203762946907,0.006480996079690993,-0.006715896969197388,0.009818073754247892
1.7035309131109455,0.005374469323839337,0.009086268089491423,-0.011002778567045013,0.015248158069171019
1.7060178296835822,0.005240933503344536,0.018155894100288172,-0.005241809710346601,0.019610722669163468
1.708504746256219,0.003278675747139581,0.014769662182166243,0.011680255455708277,0.019113372364415338
1.710991662828856,0.0030866849398440976,0.006489252589561456,0.024103496183711215,0.025151869738991008
1.7134785794014926,0.0006138925862683164,0.008902724701778109,0.013950948548144382,0.016560928011923038
1.7159654959741295,0.0060283559848295365,0.014908767713420978,0.00328065070338468,0.01641265059794402
1.7184524125467664,0.015424038924783834,0.008000248337367122,0.010879356810665541,0.020500374504544224
1.720939329119403,0.016804036840576075,0.001214993917077134,0.010250573370596427,0.01972120987120093
1.72342624569204,0.00819636935039425,-0.0015881638244361618,9.735113374986781e-05,0.00834938393563096
1.7259131622646768,0.005394391520685771,-0.00158658868632644,-0.010967429037329168,0.012324821427788584
1.7284000788373135,0.005396724419057364,-0.0018498542071956336,-0.008462160832968024,0.010205623989063458
1.7308869954099504,0.005595663869427225,-0.005830178614908643,0.0009558521656227725,0.00813732696798384
1.7333739119825873,0.008066907796683842,-0.008632172927994564,0.0006564695362545336,0.01183302003340783
1.735860828555224,0.0028506343709499005,-0.007379599362944411,-0.0037462016821798727,0.008753206847663193
1.7383477451278608,-0.003337314249122425,0.010617927829926987,-0.0007904040698338832,0.01115808211085326
1.7408346617004977,0.0009709070651398033,0.012957498818328528,0.0007307812083947596,0.013014356585350906
1.7433215782731344,0.01036119034692451,0.006373241811107544,-0.004332355189857751,0.012912853212173458
1.7458084948457713,0.00989814391006405,0.006513127568270605,-0.011685061149671938,0.016641356244503542
1.7482954114184082,0.0031178815956686146,0.00813854492394217,-0.021945453660169534,0.023612709193870204
1.7507823279910448,0.0006561423507042141,0.003049248534417792,-0.008554441808399815,0.009105323391419735
1.7532692445636817,0.005421301814448998,-0.0015722255411452224,-0.0027718165375514303,0.006288511225514428
1.7557561611363186,0.00495587808375797,-0.0015711855116524731,0.012781796589333538,0.013798683833764643
1.7582430777089553,-0.0017531289501186986,-0.0009023784525554746,0.033635705354573275,0.03369344777085079
1.7607299942815922,-0.00331118626571969,0.009140106308913154,0.02433015890733259,0.026200422330194987
1.763216910854229,-0.00012819160775967564,0.018051876317827897,0.010994181350108434,0.021136667079781707
1.7657038274268657,-0.007036156235181834,0.012962101413848792,0.00626004128444535,0.016022224705444288
1.7681907439995026,-0.013743199115527238,0.006052700630044594,0.006285300573681596,0.01627930312229283
1.7706776605721395,-0.015299096314497995,0.0015647339761093448,0.006310559353337908,0.016623293891653294
1.7731645771447762,-0.0114564545814968,0.0027817385761208513,0.0068082816872721,0.013614004576796004
1.775651493717413,-0.008654751638469405,-0.005946629364534495,0.013078480048113406,0.01677241089085386
1.77813841029005,-0.008853511524389068,-0.00975773881070019,0.007680226157637193,0.015250705126084806
1.7806253268626868,-0.011911775752249776,0.00042705055080416443,-0.0026806456150065827,0.012217145110789257
1.7831122434353235,-0.016092214039239883,-0.014168894595478765,0.009345439586711635,0.02338918912257057
1.7855991600079604,-0.02344115227847754,-0.021620771111802828,0.01975252009903805,0.03751143044292823
1.7880860765805973,-0.020032927960449975,-0.008409012823857864,0.007635072680610477,0.023028765363748635
1.790572993153234,-0.011637893072828587,-0.0062812231432132215,-0.0058225483642377895,0.0144497885383599
1.7930599097258708,-0.011899326491098705,-0.015042993072055477,-0.011358139151745661,0.022291095453074755
1.7955468262985077,-0.01573560199708901,-0.008264479742395192,-0.02535439288815411,0.030963785852994977
1.7980337428711444,-0.018193112168773617,-0.004192451628977967,-0.03945456736433428,0.04364892744333691
1.8005206594437813,-0.013239414681240236,-0.014172026365420809,-0.04022317132305098,0.044654584800303904
1.8030075760164181,-0.008623283712324348,-0.022763779112771942,-0.023311131078077807,0.03370399818445336
1.8054944925890548,-0.008620311105035805,-0.025354732849630857,-0.009335281273259,0.028360530987176773
1.8079814091616917,-0.008136143327847956,-0.023245057246777723,0.0051940513761135065,0.025169578549410893
1.8104683257343286,-0.0007435673209676974,-0.03294763165580328,0.02637980621343239,0.042213664848548126
1.8129552423069653,0.010921352154419028,-0.03722016040732434,0.035128222528623354,0.05233171401404954
1.8154421588796021,0.016525233380146553,-0.03240331767341198,0.03929205612007891,0.05354366450529693
1.817929075452239,0.002715589223274306,-0.029125273326847445,0.031922256399740334,0.04329764918380555
1.8204159920248757,-0.006295861714217588,-0.022218638436562355,0.018341222053642525,0.02949078152779712
1.8229029085975126,-0.003705431217637334,-0.018156043971895297,0.011589219831886766,0.02185594128674934
1.8253898251701495,-0.005814079138981687,-0.025693493738054407,0.006184208863748708,0.0270592604476222
1.8278767417427861,0.0038934013112301713,-0.027033518755297248,-0.003360550839769161,0.027518412236354955
1.830363658315423,0.01011827614388039,-0.02060951844709047,-0.007876475627361046,0.024272837309494616
1.83285057488806,0.005368281653999718,-0.0201220898266552,-0.004705598818182111,0.02135086900213496
1.8353374914606966,0.0034166754157812784,-0.013560011889631518,-0.00014153989358511865,0.013984549577488308
1.8378244080333335,0.0029415021096143024,-0.014392287990995012,-0.003261476284887266,0.015047511948275258
1.8403113246059704,-0.0034768762998372837,-0.024862564782736296,-0.008462263149436211,0.026492370486433173
1.842798241178607,-0.002639225426284586,-0.015657148767654228,-0.015347774011218007,0.022083160676919015
1.845285157751244,0.008529552068790358,-0.017820445320468892,-0.021047238990355766,0.02886707118900668
1.8477720743238808,0.00832348331265742,-0.019910823343911144,-0.009020182818291644,0.023389847343749964
1.8502589908965175,0.005043775079447865,-0.009724722394495178,0.0025135305296188903,0.0112395608644369
1.8527459074691544,-0.0013743367283749475,0.0014367796660246235,0.007143552730346059,0.007415084818321151
1.8552328240417912,0.0007996080036937192,0.0014361875564268267,0.007315735404020529,0.00749813257807874
1.857719740614428,0.005546014734536198,0.0017823112566022203,0.009504078249463532,0.011147305334610216
1.8602066571870648,0.0051913471611325646,0.006879815341819029,0.011613043353881025,0.014461836689163928
1.8626935737597017,-0.00017964206160248075,0.014066590837557236,0.0026416943480320754,0.01431362281499588
1.8651804903323383,-0.008755026174040559,0.022433590301431217,0.0074173525107550375,0.02519788831210679
1.8676674069049752,-0.01083212833201419,0.021935806525744894,0.009743740554354119,0.02633353550373937
1.8701543234776121,-0.0016248195630536033,0.015879384984328393,0.014231980298122338,0.021385606591797626
1.872641240050249,-0.003433803064845531,0.022642980709851823,0.012084419145503844,0.02589457018371002
1.8751281566228857,-0.0032925087744574144,0.024931544144006335,0.007158276594294577,0.026146958355320053
1.8776150731955226,-0.0019765285341903915,0.018528104833023917,0.004607945505206601,0.019194543379016517
1.8801019897681595,-0.00816186676847841,0.020478337282757497,0.007569736100309754,0.023308351971795444
1.8825889063407961,-0.0032816709078498096,0.020477338506309284,0.009183996852934584,0.022681193849621698
1.885075822913433,-0.0019676396248070604,0.020476303680842634,0.0034795694246039233,0.02086283828973994
1.88756273948607,-0.008363779656666015,0.02032587088313953,-0.009806267287746806,0.02406775260430547
1.8900496560587066,-0.006195849861192593,0.018662778866659124,-0.013673039706890933,0.023950780474850393
1.8925365726313435,-0.0036201335785459587,0.022925886076021307,-0.00408960085631449,0.02356748723689464
1.8950234892039803,-0.0064026420441455345,0.029685911073460858,0.001314017789093569,0.030396937085123237
1.897510405776617,-0.006399114592358202,0.03225572482785877,0.009332050486213106,0.03418285561526284
1.899997322349254,-0.006180673891571731,0.028964171311605114,0.0036226929741918212,0.02983702153210377
1.9024842389218908,-0.002746749822713057,0.022418089489662396,-0.008582658483799577,0.024161485831890032
1.9049711554945274,0.005826926831214219,0.022772112295221802,0.0001903485832261964,0.023506560940844842
1.9074580720671643,0.008032435911343172,0.027516288239984643,-0.00866213589371867,0.02994492850913159
1.9099449886398012,0.0005187119585151612,0.02881590046200877,-0.026177348799047095,0.038934287866600005
1.9124319052124379,2.515528498459041e-05,0.020603087125345088,-0.02528757475545973,0.032618235220439
1.9149188217850748,-0.0061576792810497105,0.02276822618886465,-0.01341278521684508,0.027133225852979385
1.9174057383577117,-0.003088856686532915,0.025994808194135022,-0.00441835281870695,0.026547936460493193
1.9198926549303483,0.0007502192595139068,0.008306095066542785,-0.007317940976056647,0.01109532804025374
1.9223795715029852,0.003906216422429276,0.006649871469808222,-0.00910195861103702,0.011930002844126085
1.924866488075622,0.008422902417707268,0.01040491193257731,-0.008717857765715209,0.01597524714945436
1.9273534046482588,0.005131908862549883,0.010621255103943295,-0.003447282696152243,0.012289479506624769
1.9298403212208957,-0.0014022351170882574,0.013183505412809104,0.005294650221998154,0.01427600781964158
1.9323272377935325,-0.0013985536072341764,0.010399940376215167,0.0104093736815134,0.01478072300202267
1.9348141543661692,-0.0010341521062796621,0.009884474333545779,0.015165968784694783,0.018132261651757194
1.937301070938806,0.003558825907338803,0.0029849642698498435,0.016714410273159785,0.017347817277990205
1.939787987511443,0.003716011199671687,-0.0013861660025229483,0.012027640277210594,0.01266468815489013
1.9422749040840797,0.005885733132186544,0.0015354186854539265,-0.002004063918528587,0.006404345183741085
1.9447618206567165,0.008669998009416702,0.003198158819093244,-0.004145061281631612,0.010128110304687393
1.9472487372293534,0.008080031539708377,0.0013890489911769777,-0.007406250076945398,0.011048479849500817
1.94973565380199,0.0004342864993508444,0.000869323711497838,-0.01443626432785905,0.014468934177150247
1.952222570374627,-0.0010048857600948313,-0.005885387032455558,-0.0233454506532631,0.024096838840739668
1.9547094869472639,0.0033641862845110726,-0.009031181672329414,-0.029721329027307064,0.03124479782147672
1.9571964035199005,-0.0002961831744504595,-0.01428242455173967,-0.014029994856507244,0.020022890181554294
1.9596833200925374,-0.012071713369870896,-0.022986142147152222,0.008889526295883243,0.02744289839391253
1.9621702366651743,-0.0206252385248219,-0.027728021726908025,0.016962048444295164,0.03849616527032656
1.9646571532378112,-0.023177959762576195,-0.030262924702556315,0.012997596018935909,0.04027406029418505
1.9671440698104479,-0.02001854886647847,-0.03814904279814657,0.008677904565994154,0.04394767107357234
1.9696309863830848,-0.015514713892914145,-0.04482402129148033,0.013046626418143248,0.04919465105895822
1.9721179029557216,-0.01866710620720824,-0.046998959992412104,0.008127791353818026,0.051219372182903074
1.9746048195283583,-0.022637708212154717,-0.05158367704516209,0.005085504165448285,0.05656150566608912
1.9770917361009952,-0.012583207431442922,-0.051217763487004575,0.0006074044125607969,0.05274433946874165
1.979578652673632,-0.0032768595929051347,-0.04649287698493598,-0.010854302812093763,0.04785542089110314
1.9820655692462688,-0.00349676237297325,-0.04469071130837321,-0.016959078247561266,0.04792804355852953
1.9845524858189056,-0.006425994673217694,-0.043942536826854894,-0.03480521389814584,0.05642377924966924
1.9870394023915425,-0.008208163888916542,-0.03411786219611068,-0.03934243326358633,0.052718398404730166
1.9895263189641792,-0.0060367690669062,-0.027979678274191233,-0.03714987879626008,0.046897958075711774
1.992013235536816,-0.0031113349428091297,-0.03194670202814853,-0.03383198062272008,0.046635556053914076
1.994500152109453,-0.0005495865880973394,-0.021977296465370166,-0.025848742366887834,0.033933185634336345
1.9969870686820896,0.009043102140067094,-0.014556262407531495,-0.0056448003662339374,0.018042345822182754
1.9994739852547265,0.012507356087697707,-0.025804398289266395,0.003302785286523502,0.028865365371400366
2.0019609018273634,0.01056111723758757,-0.026864338971740676,-0.0007294806076423299,0.028874938054506374
2.0044478184,0.008377337460553136,-0.017554363037552534,0.006806632500333976,0.020607418338471715
2.0069347349726367,0.0038244880984434904,-0.015468009266203175,0.02123341319317973,0.02654701218040897
2.0094216515452734,0.006144076337348814,-0.012760613627220252,0.027401076153500625,0.030844803590755924
2.0119085681179105,0.010576138734022744,-0.0014437434874379207,0.022850715793710563,0.025220910333763707
2.014395484690547,0.008550328382617822,0.0010992617502778579,0.02196650240707143,0.023597536308820433
2.016882401263184,0.005781591280299869,-0.0007662195627862189,0.009603806214823152,0.011235968314422732
2.019369317835821,0.00653770237884177,0.010925164914932672,-0.0064711423524403955,0.014282032914061533
2.0218562344084576,0.015689454990813978,0.018268433614009538,-0.009136791692750279,0.025756079419332473
2.0243431509810943,0.014779979626919126,0.018802251295544803,0.002659678036780022,0.024063381699426428
2.0268300675537314,0.003697339896619134,0.025312596189287273,0.011228748773216779,0.02793711952161621
2.029316984126368,0.0038616016720876,0.025618881768748825,0.014551212462540875,0.029714926462722495
2.0318039006990047,0.006034574673333237,0.029356868910293876,0.02057183832608267,0.03635164887345137
2.034290817271642,0.009497559366665964,0.029193351850870908,0.015106778129204912,0.03421505767432106
2.0367777338442785,0.01804284910563081,0.02802025877331049,0.003509763394166754,0.03351115850959019
2.039264650416915,0.020046548464078495,0.03821833977595723,-0.002975340116377012,0.04325919843641679
2.0417515669895523,0.009700598317005094,0.04944487045653023,-0.002029500507603643,0.05042832234450499
2.044238483562189,-0.0034052958799903887,0.05048156065514897,0.011460153496754444,0.05187792521274282
2.0467254001348256,-0.005248094663027558,0.04156976907779697,0.040691144355403,0.058406826893144165
2.0492123167074627,0.005440685612954632,0.044717004330958154,0.04645003286507965,0.0647056186852496
2.0516992332800994,0.00020512848364839797,0.048508043224892994,0.037198514081346445,0.06112938561005681
2.054186149852736,-0.0059272395937940425,0.03907927508183828,0.036910682215198776,0.054080683905768215
2.056673066425373,-0.003154808602320869,0.036894181904006285,0.031888331410337756,0.04886715825397172
2.05915998299801,-0.0033830340514076074,0.031777680558037424,0.015727384287295365,0.03561764334654832
2.0616468995706465,-0.006693178012007528,0.025421316603922772,0.008864684832126102,0.02774210891317074
2.0641338161432836,-0.013576728721680587,0.02651892814572543,0.0032406417160650847,0.02996803082473315
2.0666207327159203,-0.01760261596611734,0.01704828271047809,-0.010534490559678034,0.026673423544399787
2.069107649288557,-0.011934725287992665,0.003607191608464344,-0.020644003999429117,0.02411689034947235
2.071594565861194,-0.02046433579942497,0.00791019615727473,-0.009015197570320765,0.023719907887470977
2.0740814824338307,-0.022829332253319845,0.002502691610637431,-0.003562807687405467,0.023240814853353574
2.0765683990064674,-0.01852043606842324,-0.005799458689589532,-0.01514119531271696,0.024614956200542996
2.0790553155791045,-0.02298427278395243,-0.005638756839573933,-0.02226344660773627,0.03249205178129726
2.081542232151741,-0.01927638139782728,-0.004104990445587209,-0.03165665203936818,0.03729039346392711
2.084029148724378,-0.00804621433244157,-0.008962298230998922,-0.03342881188712177,0.03553237705036814
2.086516065297015,-0.006811733873993697,-0.010610321139090662,-0.03309855486892843,0.03541882222005996
2.0890029818696516,-0.014949488950671164,-0.00841621949937732,-0.029079456717893137,0.033762920098175137
2.0914898984422883,-0.012052633852451144,-0.003331151234981178,-0.024119148612980368,0.027167920073988012
2.0939768150149254,0.0019851746928918335,0.0006720991890070138,-0.02117658185631832,0.021280043585446728
2.096463731587562,0.015419981323049115,-0.005827031089429724,-0.019910699183077085,0.025848908241536055
2.098950648160199,0.010709856086896674,-0.005830580771760907,-0.026380764519851496,0.02906271539601765
2.101437564732836,0.00907149796431661,-0.006224756261951736,-0.026356095718778505,0.028560172397496527
2.1039244813054725,0.011819637262798777,-0.010787793164559467,-0.026165546129014672,0.030671095686575202
2.1064113978781096,0.022721524986967112,-0.010791409561472953,-0.02325802899169993,0.03425869423424622
2.1088983144507463,0.019575280838093012,-0.01079504788314889,-0.011635538825778724,0.025201397629018372
2.111385231023383,0.004392651538536185,-0.010644125012983174,-0.005566739822741695,0.012789893552532664
2.11387214759602,0.011280686018689368,-0.00885236467449868,-0.008823100203805723,0.016836428795589713
2.1163590641686567,0.015293846105087328,-0.009249213755037733,-0.0036119404139736133,0.018234467289355343
2.1188459807412934,0.00854010995489507,-0.013570905609526118,0.01602589178205882,0.022670072000649355
2.1213328973139305,0.0038499532494001842,-0.01041937704512641,0.029046093964257835,0.031097606541526147
2.123819813886567,0.004260607104021763,-0.0062619371237748744,0.030554651490476203,0.03147937987224987
2.126306730459204,0.0091138052977211,-0.011216468597130103,0.02675010722644977,0.03040458602615295
2.128793647031841,0.010348599183907292,-0.015379085692936112,0.024014918456384038,0.030336876739153845
2.1312805636044776,0.003314175333572922,-0.011068717022278296,0.02555133527751785,0.028042307129140867
2.1337674801771143,-0.003438233061893725,-0.013832385552089654,0.043528499209013916,0.04580269184271469
2.1362543967497514,-0.0077165653701388726,-0.01343911882824056,0.04875023633337783,0.05115408916744964
2.138741313322388,-0.0036720725329606463,-0.008649456262190824,0.03321734029361778,0.0345208474186379
2.1412282298950247,-0.01143106925547488,-0.0046045428203354,0.023570995971972764,0.026598176817566304
2.143715146467662,-0.01501364314909881,0.010791348300128956,0.015748292373190864,0.02428726809286461
2.1462020630402985,-0.015661397371179886,0.017856659301676903,-0.00022408345874325164,0.023752681162989724
2.148688979612935,-0.022694274178566287,0.014694900595367155,-0.0040790311671834445,0.02734243367483071
2.1511758961855723,-0.01817102802488657,0.010382156999410252,0.005753815453743982,0.021704419727727336
2.153662812758209,-0.019685434853461303,0.013705690091427414,0.011847678655792393,0.026753126467443752
2.1561497293308456,-0.014993461364209537,0.020012079703239927,0.007596806831697833,0.026134243661659742
2.1586366459034827,-0.015961535043213515,0.01743401173658743,0.012551586698879902,0.02676299114125139
2.1611235624761194,-0.027398876495988822,0.0105252069140227,0.014675695626191754,0.03281546062358509
2.163610479048756,-0.032483078239923024,0.0158854863526825,0.007671086310750752,0.03696409898522092
2.166097395621393,-0.03718575030908622,0.024140913248971607,0.011809123056830018,0.04588048720224571
2.16858431219403,-0.03824104533831196,0.012293932428265375,0.00478208011299408,0.04045227574963712
2.1710712287666665,-0.029566228168186326,0.0024955964576713896,-0.0022313738695860508,0.02975514878333946
2.1735581453393036,-0.02485632204613053,-0.003687841213937837,-0.008960778337707254,0.026678314543795618
2.1760450619119402,-0.023061228187071237,-0.0014971163301829016,-0.013449651470612167,0.026738637352774902
2.178531978484577,-0.023057211853472537,0.0020642370206109817,-0.01191346680097638,0.026035106762814356
2.181018895057214,-0.02305319795801275,-0.009364183926863667,-0.01673210484081622,0.02998501641005922
2.1835058116298507,-0.022803578543003078,-0.014490591512915874,-0.019075728714055273,0.03307361278622783
2.1859927282024874,-0.018889889033035567,-0.020967679890664837,-0.02592949785505283,0.03832506186156752
2.1884796447751245,-0.0059411953886560065,-0.020725689957150628,-0.0300437717811306,0.03697945713072031
2.190966561347761,-0.006109693008831241,-0.01838280581770224,-0.02473606892477953,0.03141860920290636
2.193453477920398,-0.007293225668439485,-0.02293052941733098,-0.01562501434917607,0.028690440802152623
2.195940394493035,0.001390340497656628,-0.022774429597144152,-0.005390124283625397,0.02344485295256995
2.1984273110656716,0.005654423744117731,-0.021397173284717574,0.006055128723168934,0.022945067363344552
2.2009142276383082,0.0012262806293786843,-0.02553517469724964,0.010374268427099764,0.027589388474530685
2.2034011442109454,0.004725986266222892,-0.020167901613632022,0.007075893474070227,0.02188943741035978
2.205888060783582,0.013408296407730336,-0.01153510709948824,0.00034845012836548506,0.01769074689904799
2.2083749773562187,0.018339138139110034,-0.017671223068739916,-0.005299696879836446,0.026013129366700083
2.210861893928856,0.02125631196527744,-0.013712383896971048,-0.01702777791916077,0.030492712102523235
2.2133488105014925,0.02321042599610068,-0.011214430266131004,-0.025668367146545634,0.03637791078503883
2.215835727074129,0.02484077540141899,-0.013558885012163291,-0.031180360037083688,0.04210845921378476
2.2183226436467662,0.023056604282816195,-0.008600354908054886,-0.0413243315982843,0.048096501823353434
2.220809560219403,0.023222693998838695,-0.003928905635000923,-0.031337005236579785,0.03920124632266007
2.2232964767920396,0.025264488473234425,-0.0043582837595108614,-0.022486525285250636,0.03410180104549945
2.2257833933646767,0.027768351578965234,-0.009613206253677564,-0.014886744268402197,0.0329410115024049
2.2282703099373133,0.02502245220391003,-0.016531092526952396,6.460978442923704e-05,0.029990070170906023
2.23075722650995,0.025026397235062003,-0.02258297535580267,0.014014176321527572,0.03650627990440513
2.233244143082587,0.02503033785886316,-0.017047066558365742,0.024445044915601954,0.038918896599209836
2.235731059655224,0.025034273987394273,-0.006307251760870436,0.01716683881778458,0.031003171673987234
2.2382179762278605,0.02471100804541354,-0.008632699842001657,0.008662228737943423,0.027571572894759575
2.2407048928004976,0.02130585924907924,-0.002957620200155109,0.016106214269424157,0.02687186807206643
2.2431918093731342,0.02268001221127669,0.009038884528846491,0.01570159086169909,0.029027992404189316
2.245678725945771,0.018149959309081476,0.021198816810396703,0.012063825908690262,0.0304030714342689
2.248165642518408,0.017976931054708323,0.03397107887849149,0.023255720747229702,0.04492251994031009
2.2506525590910447,0.01605778820156023,0.03421940940504076,0.02419081270382506,0.044877789174908145
2.2531394756636813,0.016061690446210197,0.036961821811709594,0.012795958437331834,0.04228345685915917
2.2556263922363184,0.01564742787269613,0.036108165442069406,0.00798531606018038,0.04015478655408416
2.258113308808955,0.011284499771679557,0.027499012813434476,0.0068202679361579754,0.03049674893380365
2.2606002253815918,0.012057148918938387,0.03352860149500314,0.012281785772389142,0.03768798508839447
2.263087141954229,6.0020414013095547e-05,0.02823013105672212,0.00030447308538050777,0.02823183674133736
2.2655740585268656,-0.010486252985195899,0.019810369155072394,-0.010234698242589602,0.024640642764478367
2.268060975099502,-0.006413542733739286,0.01746354554635632,-0.005681223698283944,0.019452127291304275
2.2705478916721393,-0.01388166213455344,0.013349998244271521,-0.006512151001221156,0.020330546165872012
2.273034808244776,-0.02443587576933648,0.017031493663838493,-0.016015524973205686,0.033818350657641355
2.2755217248174127,-0.019903445690546362,0.007368861184458009,-0.018537069336733936,0.028179251322688153
2.2780086413900498,-0.020321631385185945,0.0016820079550701195,-0.007791398023329066,0.02182896552918231
2.2804955579626864,-0.02365444033667108,0.00914136299709467,-0.011536952608327766,0.027860336332725492
2.2829824745353235,-0.010455937117445524,4.595329628198641e-05,-0.022065455539706846,0.02441747449848558
2.28546939110796,-0.006224364995201959,-0.009740014275742226,-0.01665554970723271,0.02027357723085044
2.287956307680597,-0.011051211139089578,-0.01563064008677184,-0.006413663319655427,0.020188641716094472
2.290443224253234,-0.012225811105186168,-0.010504809501313606,0.005610936720909621,0.01706763283893329
2.2929301408258707,-0.005184188790831268,-0.005274847098984292,0.0167729431433834,0.01833116054776172
2.2954170573985073,0.0013849649160408983,-0.017820890443054793,0.018746920169867565,0.02590268866078217
2.2979039739711444,0.0043116970370280505,-0.012832676939272147,0.019352437535438582,0.023617475888203968
2.300390890543781,0.005627529992792035,0.0006128565540808317,0.006019151915928944,0.008262861293927476
2.3028778071164178,-0.00038465116294805757,-0.0023017777377623005,-0.00021859448898098321,0.0023439114364302003
2.305364723689055,0.0045823550696257875,-0.003661422826577443,0.0015426290112241503,0.0060649566664056145
2.3078516402616915,0.009582853499972899,0.00206125149276426,8.767191253689077e-05,0.009802424459418884
2.310338556834328,0.013149828945145714,0.01506131153175394,0.005107489034346102,0.020636074010797256
2.3128254734069653,0.012984741326555138,0.017368302679432457,0.00791479699230102,0.02308474510821523
2.315312389979602,0.012247133471019356,0.013270856044997892,-0.0013220936977198505,0.018106789615212584
2.3177993065522386,0.02364031380605025,0.017357819053260393,-0.012076889394691648,0.03171765402084264
2.3202862231248758,0.02773487868790353,0.011959146418174527,-0.009705696432920519,0.031724520833766236
2.3227731396975124,0.022605749485815396,0.0027770624214000783,-0.0036893063304859197,0.023072558737772433
2.325260056270149,0.015571923873577309,0.002341409374833958,0.012855401451085768,0.020328019024332532
2.327746972842786,0.008831866896158114,-0.002182912025639805,0.023573452253675242,0.025268055503727287
2.330233889415423,0.003918004097585359,-0.0023579786983400908,0.02111946676209442,0.021608856887066753
2.3327208059880595,0.0014452595615573882,-0.005020092148622091,0.02449664122161721,0.025047465570823046
2.3352077225606966,0.003925027375669798,-0.014368041060712322,0.030954159073353082,0.034351221343069005
2.3376946391333333,0.0011907830309391132,-0.015719961876101696,0.030806894026012444,0.03460635613789503
2.34018155570597,0.000590644841657717,-0.011207943007653043,0.029654179117837742,0.03170705263730105
2.342668472278607,-0.005438921094062299,-0.011212960652218218,0.03597342804364878,0.038070984679506335
2.3451553888512437,-0.0023560095362935574,-0.011046884722763384,0.03539120692506437,0.03714999287517904
2.3476423054238804,0.00041514118761587504,-0.009272993866098922,0.029119956821910264,0.030563583604614846
2.3501292219965175,-0.008661666906706778,-0.00882946997306533,0.028087656847519682,0.03069039720811741
2.352616138569154,-0.01813620065567767,-0.004183069714538412,0.015845961405458908,0.024444106433309947
2.355103055141791,-0.02251934042879078,-0.004016320863653888,0.0011326249129375299,0.02290271524996543
2.357589971714428,-0.01978006611333094,-0.0024150965376219524,-0.011466843890902467,0.022990698457247962
2.3600768882870646,-0.01932604474059485,-0.004198254615478625,-0.029874453541159696,0.03582742415405789
2.3625638048597013,-0.015561137032690686,-0.0035934481811046304,-0.040791699855484254,0.04380667338066628
2.3650507214323384,-0.025515366458304545,0.002691660315574662,-0.04014500406776733,0.04764347082609607
2.367537638004975,-0.03354283312660833,0.002686572054803271,-0.033083637340460825,0.04718968513605783
2.3700245545776117,-0.03130974842968037,0.0018832690174832578,-0.02677235132636646,0.04123840254501235
2.372511471150249,-0.025859772073355103,-0.007029247303287356,-0.026749395016160804,0.0378638120514464
2.3749983877228855,-0.018108073005027592,-0.014278621983446982,-0.026459906560397428,0.035098547105066144
2.377485304295522,-0.023098135908194872,-0.015350686339972608,-0.023516575481814073,0.03636202381514981
2.3799722208681593,-0.026474222436459804,-0.026649612406626222,-0.020965942605926102,0.043019263643088376
2.382459137440796,-0.024694322569682847,-0.03034407703280184,-0.015272587116205827,0.041997910607198735
2.3849460540134326,-0.02451689850001937,-0.029988036049803934,-0.021093307442846765,0.04410542185562957
2.3874329705860697,-0.022014107360315283,-0.025407078798138194,-0.015490965869217277,0.037015005058591385
2.3899198871587064,-0.014285031013036353,-0.01625940641904844,-0.005786797737176386,0.02240351392514562
2.392406803731343,-0.009830994734179366,-0.015821635479024376,-0.01919088805568059,0.026744397377025515
2.39489372030398,-0.00023355562066029734,-0.009802119514967789,-0.025643902808184293,0.02745443218224075
2.397380636876617,0.004007786308765415,0.006256976567720507,-0.01754681726383822,0.019055259194150628
2.3998675534492535,0.001737627126823904,0.012844866858647386,-0.0288925775329556,0.03166687526653211
2.4023544700218906,0.006383657340515714,0.015248181753924506,-0.03185279273514752,0.03588674592199888
2.4048413865945273,0.005928615950021143,0.02273848471276363,-0.016403201674119572,0.028657498133599687
2.407328303167164,0.002019436427625698,0.03409980341384067,-0.01655597936626485,0.0379601787288204
2.409815219739801,0.00912378719437179,0.03859923270106558,-0.01687541334804621,0.0431036406066426
2.4123021363124377,0.006843896687592554,0.038418161919647975,-0.0016544507050220147,0.03905805031347671
2.4147890528850744,0.011526823065824865,0.03619204410137833,0.006996273660103469,0.03862226755841769
2.4172759694577115,0.012220016051766924,0.03077562519167154,0.021431083862434974,0.03944311414889055
2.419762886030348,0.0015788666635923043,0.021452280028232185,0.03750735472121569,0.04323765484544916
2.422249802602985,0.004039297098849759,0.019673372689091195,0.02443381613117701,0.031628608643897396
2.424736719175622,0.0004988416256840322,0.01947788100252712,0.021999592917175903,0.02938739151128555
2.4272236357482586,-0.007682249903024241,0.017562980517324966,0.024940897702839138,0.031456694461559985
2.4297105523208953,-0.007038956879047875,0.01755777523306934,0.026872829964585065,0.03286291793778482
2.4321974688935324,-0.0001755428293191974,0.01710253859056232,0.026704302817146086,0.03171194460256947
2.434684385466169,0.0037000239451686623,0.01232437760304661,0.025281514338844957,0.028367859062018084
2.4371713020388057,-0.0025688647266243203,0.0098652678488107,0.02857333553505015,0.03033740396459513
2.439658218611443,-0.002387842356664116,0.012586879802844564,0.013226047354258696,0.01841357279043448
2.4421451351840795,-0.0012557568248694473,0.012129846421194301,-0.0034226125750382863,0.012665874476078491
2.444632051756716,-0.008111070393157838,0.0074345847783354735,0.0043766401770621854,0.011841346755690168
2.4471189683293533,-0.012783928763758001,0.006165724306727682,0.016656949632061213,0.021883760232383188
2.44960588490199,-0.01437397508512861,0.012565991292578182,0.002405986633936763,0.01924328632525461
2.4520928014746266,-0.0121454868972517,0.011007460455346507,-0.003977241985898772,0.016866994144237018
2.4545797180472637,-0.007645856582685129,-0.005495006972528138,-0.004408966485865307,0.010396788445698307
2.4570666346199004,-0.008744077660451377,-0.01622068115060271,-0.008249187163107408,0.02018956363999725
2.459553551192537,-0.020273212413027708,-0.015557175636013554,-0.0010374229477427832,0.02557547852310916
2.462040467765174,-0.02570817920389501,-0.027288203366035102,0.0074627692068336415,0.03822629258978869
2.464527384337811,-0.017256769006115502,-0.03500977903406044,0.0008076126277796192,0.03904014526997454
2.467014300910448,-0.015276142355706068,-0.03125328069774236,-0.0020741214424120358,0.0348486737107963
2.4695012174830846,-0.022626508897608977,-0.038849474743865464,-0.00427910631901085,0.04516139218023751
2.4719881340557213,-0.022623323054641653,-0.04280833082468405,-0.00847315051940889,0.04915447297810072
2.4744750506283584,-0.02298064277944767,-0.04571672894000001,-0.006657079407963451,0.051598894889076305
2.476961967200995,-0.02587864377294613,-0.04703357302483058,-0.01640913007972422,0.05613484430353775
2.4794488837736317,-0.018961175774222183,-0.042352545393672614,-0.022131922631258405,0.051410954935889465
2.481935800346269,-0.012380027784196002,-0.04027154787774734,-0.015713142160485916,0.04496627061434827
2.4844227169189055,-0.009675117885338813,-0.03868835713274832,-0.01615053887991813,0.043026001322898084
2.486909633491542,-9.488213726438488e-05,-0.040462693981671904,-0.02034050009821442,0.045287686528678636
2.4893965500641793,0.004119813014132334,-0.04046793515773173,-0.016955740956326792,0.044069533541664034
2.491883466636816,0.0007594870608401694,-0.03983088629597065,-0.009837683021563848,0.04103481851977527
2.4943703832094526,-0.0050340734010090316,-0.03310329317860239,-0.0013744092189647006,0.03351207118302934
2.4968572997820897,0.0001152311455883126,-0.029140889968409578,0.0018435221230337362,0.029199371914237854
2.4993442163547264,0.006315094679424593,-0.03469918304877195,0.007790563283263552,0.03611933832911137
2.501831132927363,0.006010552210731435,-0.025423655200432993,0.021581418109359873,0.03388578742244953
2.5043180495,0.022358666126583437,-0.014268685499475353,0.03248274377192217,0.04193607015202207
2.506804966072637,0.029397340235242486,-0.011835320285995543,0.032321849543667014,0.04526566443897794
2.5092918826452735,0.01880411323977993,-0.014559659200129804,0.029817068807815872,0.038139689865655926
2.5117787992179106,0.02236968483954538,-0.01410098815000893,0.022132030859133067,0.03448285743056827
2.5142657157905473,0.03033207210244876,-0.009141611855274512,0.018801630192490038,0.03683890556511959
2.516752632363184,0.027502328331013792,-0.0035957040003551377,0.0201254290177193,0.034268645202755126
2.519239548935821,0.018337719410577713,0.006215400958565542,0.014534064004841696,0.02421037337080226
2.5217264655084577,0.015972432810497428,0.013715006357519766,0.004149149002083519,0.02145775959214179
2.5242133820810944,0.011957475666873996,0.006794589849758115,0.008470703479817487,0.016152414463271793
2.5267002986537315,0.016642012692849262,0.0017188356472521704,0.005778023681054734,0.017700184747907296
2.529187215226368,0.018065670350546292,0.01501376027010215,-0.004619318366524183,0.02393991530548955
2.531674131799005,0.013081591526235892,0.020543424303047786,-0.0186474957353866,0.03067392078224762
2.534161048371642,0.009737049049922675,0.011721796388032946,-0.032876370137332245,0.03623625736979433
2.5366479649442786,0.01217290388789316,0.0050488205707655,-0.03877089863503258,0.04094939265956994
2.5391348815169152,0.018359705450783692,0.0018587276890325022,-0.0329323980779197,0.03775018537734724
2.5416217980895524,0.01646146335436871,-0.00301165854502905,-0.01920801273204198,0.025475431617017937
2.544108714662189,0.015040352838391668,-0.006967789414672687,-0.008601916708389723,0.018674990599425085
2.5465956312348257,0.0008117550553796704,-0.009688222214084163,0.008690730849249206,0.013040299023929633
2.549082547807463,-0.004959449559503115,-0.009023293387714126,0.02553206572648392,0.027530026221482536
2.5515694643800995,-0.00047714654136399304,-0.001506802300261345,0.021039741458151795,0.021099024684090965
2.554056380952736,-0.0006601307847650117,0.009346287809512521,0.003473162175712474,0.009992583448239832
2.5565432975253732,-0.00204961774088952,0.009155155551490601,-0.0003478226865123446,0.009388225960052884
2.55903021409801,0.0014813095073628046,0.007858281833158287,0.005855253194658516,0.009911148329003444
2.5615171306706466,0.0017705810877876038,0.013863423511358608,-0.00641027406387451,0.015375990453226225
2.5640040472432837,0.005160556856504961,0.029135131823579297,-0.020444642660825352,0.035964853217765304
2.5664909638159203,0.010864979514377704,0.03584658540821284,-0.02540980295566264,0.04526238561456683
2.568977880388557,0.003343288915030329,0.030689975862000285,-0.0294037499350015,0.042633703913917985
2.571464796961194,-0.00816607816387327,0.023159937311753698,-0.03198247592012926,0.04032302437621088
2.573951713533831,-0.014690150462844609,0.012016829212388558,-0.01018059794493631,0.021537160431616097
2.5764386301064675,-0.017601180440563247,0.00795962820132301,0.018927832152542123,0.02704477886763673
2.5789255466791046,-0.01949674740766838,-0.005621622937800552,0.046948489505599156,0.05114573756228942
2.5814124632517412,-0.01881573740604403,-0.014422001779351934,0.06418777444775081,0.068425846710232
2.583899379824378,-0.012441334224814415,-0.012192949582433776,0.06284976707875778,0.06521923058935467
2.586386296397015,-0.012626680833621617,-0.01571643768015507,0.049362446523860015,0.053320639615905635
2.5888732129696517,-0.01438603101840874,-0.005618494795665008,0.0418089331653988,0.044570306984138185
2.5913601295422883,-0.014875831916724813,0.006087718348675164,0.03605543944106948,0.03947588381779531
2.5938470461149254,-0.01879959959298627,0.015373017346746565,0.014450641420763688,0.028259080747106258
2.596333962687562,-0.011746464095516385,0.026889969248484302,-0.0038990885329965863,0.029601566788260255
2.598820879260199,-0.005085015163556417,0.03441522290063137,-0.015197756891002001,0.03796362418199479
2.601307795832836,-0.0023728918403368437,0.04505919776400269,-0.019356851741314074,0.04909836685834525
2.6037947124054726,-0.0010171614169268706,0.042318201124873944,-0.016918024549747557,0.04558601011778973
2.606281628978109,0.012063111856843278,0.0339227338015089,-0.020481172502682554,0.04142160020235079
2.6087685455507463,0.015076741406485072,0.04028281094030506,-0.028207368249640652,0.05143606334335101
2.611255462123383,0.0013476568994675864,0.0389058923096548,-0.023688809834157,0.045570213373298925
2.6137423786960197,0.0007582192691478751,0.025296310422656454,-0.014114520414567622,0.028977541372462067
2.6162292952686568,0.011109807227499768,0.01570507198248805,-0.007578224607934558,0.02067623251019494
2.6187162118412934,0.005269295898163828,0.0009916355950769784,0.014233423132587575,0.015209837424742873
2.62120312841393,-0.007935915953378503,-0.010033156279797062,0.040308856272142535,0.04229003287918045
2.623690044986567,-0.011916361225563055,-0.012090944843105245,0.03726158616007247,0.0409465067523668
2.626176961559204,-0.007242229571523873,-0.014509360851470365,0.0254869564892104,0.03020854833598827
2.6286638781318405,-0.00672586357829974,-0.0118079584512234,0.01569353081143987,0.02075938421508041
2.6311507947044777,-0.01944266824585339,-0.012107032126050132,0.00612402614930474,0.023708675030395393
2.6336377112771143,-0.019234253758095954,-0.014523620445459073,-0.009253765390477398,0.02581713079287825
2.636124627849751,-0.017337802131341284,-0.012117754720882612,-0.026415908533573784,0.03384138865169619
2.638611544422388,-0.016155944178115944,-0.014533083970687422,-0.026396005023899605,0.034190263865714506
2.6410984609950248,-0.005332950884695209,-0.011346241737934637,-0.028043437860779008,0.030718267753335228
2.643585377567662,-0.005537272272621685,-0.006681426340740426,-0.04419187204573838,0.045035812383866225
2.6460722941402985,-0.007221147975423725,-0.0043051961044904274,-0.05209372686099023,0.05276775596752756
2.648559210712935,-0.0058288769982246524,0.0008473023873283303,-0.04864400600343721,0.04899931681624184
2.6510461272855723,-0.00991993350411402,0.007685622500419598,-0.03146581582295305,0.03387582381801219
2.653533043858209,-0.004639412844448243,0.012630997893396945,-0.01309169467959137,0.018773884225377294
2.6560199604308457,0.0015812521021018044,0.01729463099206141,-0.0008783285150393283,0.01738896432632788
2.6585068770034828,0.001390512753370099,0.018974123281593425,0.014088607930274222,0.023673608796197003
2.6609937935761194,0.00012624432814289932,0.015591041426302077,0.03573222886939931,0.03898574983711598
2.663480710148756,0.005093832110608654,0.0018786477266785617,0.03436854489309127,0.034794731223569644
2.665967626721393,0.009184402988537177,0.0003105071004076976,0.022014457096732443,0.02385552334741637
2.66845454329403,0.0036089880237137884,0.002062095367985961,0.024595505324374045,0.024944256132891408
2.6709414598666665,-0.004320668745528833,0.002564240135086937,0.03329674593007148,0.03367368104931078
2.6734283764393036,0.0048062032121864995,0.006644705993926081,0.04517780846570396,0.04591607653999176
2.6759152930119403,0.005803252360205846,0.0013601624939849621,0.037354602712467155,0.037827161191034894
2.678402209584577,-0.0019093641753594737,-0.004169614242251374,0.023673757326061917,0.024113857850136755
2.680889126157214,0.0019032782859383923,0.003040301111718602,0.020934464427408983,0.021239531537821026
2.6833760427298508,0.0051154326720996846,0.012786717126013425,0.010019174002060538,0.017030902323923878
2.6858629593024874,0.008898788347531217,0.019817338896801928,-0.008383135182397083,0.023285023308796574
2.6883498758751245,0.002421152048672548,0.027734120694308473,-0.022751306894011947,0.03595365618841533
2.690836792447761,0.010613889957302725,0.042817525020673486,-0.04008924659185631,0.05960824440649459
2.693323709020398,0.01850436829749169,0.03921123629158885,-0.059267661400177474,0.07343424531817642
2.695810625593035,0.016616940094725474,0.03231171084328821,-0.061450928457599474,0.0713889764882014
2.6982975421656716,0.01612189062138847,0.04239526547283212,-0.05556253604178707,0.07172495592968191
2.7007844587383083,0.01167119655919202,0.035249509637778065,-0.04115622778697414,0.05543085642925253
2.7032713753109454,0.011869396630142304,0.028395290715439003,-0.024186433301766286,0.039142798405820696
2.705758291883582,0.014138724124889812,0.030786813102875676,-0.006505668092465555,0.03449717522117518
2.7082452084562187,0.01851576257534071,0.028386372276486327,0.016821198182711328,0.03783612431351433
2.710732125028856,0.015933570401748143,0.031275863546301075,0.032609178129908045,0.04791050829016931
2.7132190416014925,0.009928373217450437,0.032116073253736666,0.036135100557020294,0.049353421849455736
2.715705958174129,0.011183600015610251,0.0240195620242436,0.03595686428977096,0.0446643969924441
2.7181928747467663,0.006735676852527517,0.024424151173330078,0.03281228413434256,0.04145545191301362
2.720679791319403,0.0074355939420862605,0.027346982756080163,0.01877357520495515,0.033994009017899646
2.7231667078920396,0.013244620053141754,0.020291379018132272,0.005613768216884196,0.024873166593791036
2.7256536244646767,0.009224622989463582,0.01344886988288474,0.008327892023736183,0.018311732741155683
2.7281405410373134,0.005161005929350648,0.008082887233328506,0.007326950380230457,0.012068688831180325
2.73062745760995,0.009943707443706096,-0.002248904318060685,-0.0011818812180184324,0.010263124844379159
2.733114374182587,0.01149936398392748,-0.023481553451441428,0.0025828435796064753,0.026273366847141304
2.735601290755224,0.009230592725468001,-0.03652196573016431,-0.004619784311385544,0.03795260504817137
2.7380882073278605,0.004651428457213447,-0.04097305161668885,-0.014347771759556593,0.04366102724330651
2.7405751239004976,0.004148684351592435,-0.04119183724802289,-0.022189983830291027,0.04697205999427033
2.7430620404731343,-0.0007996863706193347,-0.04358734227568073,-0.03634651571588243,0.05675883287765515
2.745548957045771,-0.004737555309808794,-0.04834310164671951,-0.04151363284059428,0.0638974304550834
2.748035873618408,-0.00029094996532175177,-0.051455342880442956,-0.032084719588498345,0.06063964209903321
2.7505227901910447,-0.0004885963550098626,-0.054681820272841186,-0.028316164582374626,0.06158039762299007
2.7530097067636814,-0.002037434895255208,-0.05023646960991224,-0.03504719040593329,0.06128751565506455
2.7554966233363185,0.00022212129829501936,-0.043413198264585784,-0.029743846160190657,0.05262557843703458
2.757983539908955,0.0053896723440644,-0.04457148561420743,-0.02322551929228922,0.050547904449446485
2.760470456481592,0.011718311578391982,-0.030391049232334044,-0.01959111156071458,0.03800981915077723
2.762957373054229,0.011720122588530724,-0.02457816251334899,-0.009430898121804532,0.028816474201516014
2.7654442896268656,0.011521280312629778,-0.027789223751799597,0.010055897728923568,0.03171910994817388
2.7679312061995023,0.009773682644157233,-0.015793024462406713,0.02402502186875921,0.030366859730522607
2.7704181227721394,0.009250057326729677,-0.005249466377963419,0.03810231490661309,0.03955890366332039
2.772905039344776,0.004677208063444294,-0.006921025178944884,0.05126493779943431,0.05194103110620934
2.7753919559174127,0.005205403000385411,-0.003803507518263416,0.047880548946832135,0.048312626271896
2.77787887249005,0.008943895295832172,0.007464747628049828,0.0407801045470908,0.042411468343891846
2.7803657890626865,0.001279279981761694,0.011898890891409497,0.032417740332272516,0.034556186855150155
2.782852705635323,-0.0020139514360923982,0.01209626136501285,0.029016333145403195,0.031501160750084516
2.7853396222079603,-0.0007768917795895058,0.013839928211847319,0.022915388930236702,0.02678175168972888
2.787826538780597,-0.005212444134844674,0.014146468966236725,0.025210015986697698,0.029374088311318342
2.7903134553532336,-0.004697241281817255,0.017048866976362653,0.02855418409015087,0.033586743960847744
2.7928003719258707,-5.653612843858902e-05,0.0187083906536758,0.01656994891387953,0.02499140420610535
2.7952872884985074,0.002534512730969385,0.017243091101879937,0.0048985110268553456,0.01810368348738456
2.797774205071144,0.0087489140740723,0.02211576797442838,-0.004193715680589349,0.0241503197035541
2.800261121643781,-0.000769488664313811,0.03266013054253003,-0.013384642160524152,0.035304743103794015
2.802748038216418,-0.004889841289751451,0.02943897085914937,-0.01314356426772001,0.03260853929179426
2.8052349547890545,-0.0022009287025334112,0.016804472303713958,0.00433547645822685,0.017493734097663773
2.8077218713616916,-0.0014790713749264217,0.017535997296104444,0.008387914826318621,0.019495024196822246
2.8102087879343283,0.004388864281501537,0.022592178553302755,0.005091546255432178,0.023571009837021376
2.812695704506965,0.00098264842520146,0.011104481969147706,0.015541903143589053,0.019126574995418828
2.815182621079602,-0.005194644862159259,0.006262690432120355,0.012668274302120253,0.015056254530469715
2.8176695376522387,-0.004156073812108141,0.018144193480401416,0.010939263679913935,0.0215905580392128
2.8201564542248754,0.004708409933310342,0.010774892651959078,0.010751930663511544,0.015933343928827278
2.8226433707975125,0.00419037845976955,0.001254407316035433,0.007968305885874827,0.009089923434303022
2.825130287370149,0.0002813076810529447,-0.004125564276979965,-0.0012143871433085707,0.004309773862831524
2.8276172039427863,0.004397696404582763,-0.011443872481979867,-0.0034779650163869746,0.012743554908498171
2.830104120515423,0.001304307067731325,-0.00493385964903581,-0.009602921091525829,0.010874754316920877
2.8325910370880596,-0.0014579040584968839,-0.004661242092325324,-0.022693057439498787,0.023212658573275022
2.8350779536606967,0.004717367796634675,-0.017147282872025382,-0.01999170371543002,0.026757262308904465
2.8375648702333334,0.003991260291817289,-0.0169458920968224,-0.021018813120564417,0.027292561672942982
2.84005178680597,-0.0019738946359919574,-0.015633138352504794,-0.029858245919696103,0.03376101485713371
2.842538703378607,-0.001496484240483209,-0.019037985856051876,-0.029112343724127854,0.034816848330212376
2.845025619951244,-0.012226848203262475,-0.01790962530374074,-0.023131263301857885,0.03170655827184481
2.8475125365238805,-0.011701578634804255,-0.025488316117913357,-0.024652269910182767,0.03734053578616263
2.8499994530965176,-0.007591739266217146,-0.035698407918575814,-0.021303419950761793,0.042259277497441614
2.8524863696691543,-0.009207952884927373,-0.030847594382995336,-0.007334591012272185,0.03301752111934134
2.854973286241791,-0.00042806016460927854,-0.026912748002070774,-0.0025515364663153406,0.027036818948730394
2.857460202814428,-0.0032368427850666404,-0.02348646788565878,0.0002744535942884596,0.0237100537691237
2.8599471193870647,-0.012744523378807382,-0.015914017451959417,0.009273803793787394,0.022398264763590556
2.8624340359597014,-0.016433796226987263,-0.004666992741093168,0.008748086214481532,0.01919321474093277
2.8649209525323385,-0.00940434905581733,-0.0015237293683627584,0.0031540984227902413,0.010035530340361259
2.867407869104975,-0.002707871986846966,-0.0115004403031711,-0.005149393493748988,0.012888326160421962
2.869894785677612,-0.007039470549515037,-0.0028707292025642595,-0.0014623266169540017,0.007741681400483806
2.872381702250249,-0.005386057229896712,0.016370730906932085,-0.010080144366094501,0.019965464015449547
2.8748686188228856,-0.008541589977045239,0.012950207479308862,-0.02930796654131207,0.03316057200772892
2.8773555353955222,-0.01925953623717458,0.008065200575440468,-0.02619503349177954,0.03349861155374321
2.8798424519681594,-0.018504139454430968,0.018778685792622873,-0.02086696785683806,0.033622500867505345
