Time (s),Acceleration x (m/s^2),Acceleration y (m/s^2),Acceleration z (m/s^2),Absolute acceleration (m/s^2)
0.0,0.93852705078125,3.5817256835937497,9.552864624023437,10.245331347617885
0.002486943546381497,0.967257470703125,3.5817256835937497,9.567229833984374,10.261395255199304
0.004973887092762994,0.9193734375,3.418919970703125,9.481038574218749,10.120491773104561
0.007460830639144491,0.8667010009765624,3.323151904296875,9.442731347656249,10.047869650236098
0.009947774185525988,0.7278373046875,3.2034418212890623,9.4618849609375,10.015939978778515
0.012434717731907486,0.5746083984375,2.9927520751953125,9.418789331054686,9.89951171815713
0.014921661278288981,0.3399766357421875,2.786850732421875,9.428366137695312,9.837489981905472
0.01740860482467048,0.1005564697265625,2.6096798095703124,9.361328491210937,9.718796809916363
0.019895548371051976,-0.0526724365234375,2.403778466796875,9.34696328125,9.651251104599933
0.022382491917433474,-0.32082302246093747,2.2744915771484373,9.356540087890625,9.634369816576715
0.02486943546381497,-0.59376201171875,2.0638018310546875,9.318232861328125,9.56249418208243
0.027356379010196465,-0.7996633544921875,1.9201497314453124,9.375693701171874,9.603648725868787
0.029843322556577963,-1.0678139404296874,1.7525556152343749,9.313444458007812,9.536871891152881
0.032330266102959464,-1.2832920898437499,1.66636435546875,9.323021264648437,9.557318361031994
0.03481720964934096,-1.3646949462890625,1.7908628417968748,9.289502441406249,9.558474649411815
0.03730415319572245,-1.6519991455078125,1.47482822265625,9.323021264648437,9.582428969952707
0.03979109674210395,-1.8435352783203125,1.39821376953125,9.337386474609374,9.61979262998618
0.04227804028848545,-1.915361328125,1.426944189453125,9.337386474609374,9.638027023893889
0.04476498383486695,-1.9823989746093749,1.4221557861328125,9.351751684570312,9.664765509024365
0.04725192738124844,-1.9776105712890624,1.5275006591796874,9.423577734375,9.749257364090708
0.04973887092762994,-1.9536685546875,1.618480322265625,9.457096557617186,9.791474591461219
0.05222581447401144,-1.9105729248046874,1.7094599853515624,9.447519750976562,9.789186472205296
0.05471275802039293,-1.8291700683593748,1.8722656982421875,9.5001921875,9.854181527820165
0.05719970156677443,-1.6998831787109374,1.9919757812499999,9.481038574218749,9.836038978174845
0.059686645113155926,-1.5131354492187499,2.1883003173828124,9.528922607421874,9.893361573548995
0.062173588659537427,-1.2880804931640624,2.6575638427734374,9.490615380859374,9.939495824371125
0.06466053220591893,-1.0582371337890624,2.5761609863281247,9.528922607421874,9.92757963035527
0.06714747575230041,-0.842758984375,2.748543505859375,9.591171850585937,10.012757441225599
0.06963441929868192,-0.5506663818359374,2.93050283203125,9.572018237304688,10.025697653925187
0.07212136284506342,-0.3016694091796875,3.1124621582031247,9.610325463867188,10.106274320447438
0.0746083063914449,-0.076614453125,3.2704794677734372,9.591171850585937,10.133729974250713
0.0770952499378264,0.181959326171875,3.375824340820312,9.591171850585937,10.169556364164952
0.0795821934842079,0.39264907226562495,3.5146880371093747,9.600748657226562,10.231401666995017
0.0820691370305894,0.5746083984375,3.6056677001953124,9.619902270507811,10.289486579509592
0.0845560805769709,0.7326257080078125,3.6104561035156246,9.572018237304688,10.256493886252784
0.0870430241233524,0.8092401611328125,3.6535517333984373,9.591171850585937,10.29533328136982
0.0895299676697339,0.8475473876953125,3.5769372802734374,9.485826977539062,10.173186832512561
0.09201691121611538,0.9193734375,3.5769372802734374,9.562441430664062,10.25085430290915
0.09450385476249688,0.9002198242187499,3.5529952636718747,9.524134204101562,10.205062636423577
0.09699079830887838,0.8858546142578124,3.414131567382812,9.457096557617186,10.093448769231284
0.09947774185525989,0.7709329345703124,3.2321722412109373,9.466673364257812,10.032904842168495
0.10196468540164137,0.63206923828125,3.0933085449218747,9.418789331054686,9.933864391004022
0.10445162894802287,0.5123591552734374,2.93050283203125,9.394847314453125,9.854618958357689
0.10693857249440437,0.296881005859375,2.7533319091796873,9.428366137695312,9.826650648119466
0.10942551604078586,0.0718260498046875,2.5713725830078125,9.394847314453125,9.74065049182866
0.11191245958716736,-0.16280571289062498,2.39420166015625,9.380482104492186,9.682569483476115
0.11439940313354886,-0.4261678955078125,2.1547814941406247,9.332598071289063,9.587600801184871
0.11688634667993036,-0.7134720947265625,1.9776105712890624,9.313444458007812,9.54778684690982
0.11937329022631185,-0.8954314208984374,1.85790048828125,9.370905297851563,9.595178880833352
0.12186023377269335,-1.149216796875,1.675941162109375,9.34696328125,9.565312363227243
0.12434717731907485,-1.3551181396484375,1.5658078857421873,9.337386474609374,9.564250398419876
0.12683412086545634,-1.5370774658203123,1.4700398193359374,9.303867651367186,9.543876438875484
0.12932106441183785,-1.714248388671875,1.4604630126953124,9.380482104492186,9.647022559433214
0.13180800795821934,-1.838746875,1.465251416015625,9.390058911132812,9.679935853971491
0.13429495150460083,-1.9632453613281249,1.4317325927734375,9.414000927734374,9.72253074221778
0.13678189505098234,-2.001552587890625,1.5083470458984374,9.394847314453125,9.723398564023245
0.13926883859736383,-2.01112939453125,1.5275006591796874,9.418789331054686,9.75148666451078
0.14175578214374532,-1.9297265380859374,1.6807295654296874,9.452308154296874,9.792590353307432
0.14424272569012683,-1.9009961181640624,1.7764976318359373,9.4618849609375,9.813103336417525
0.14672966923650832,-1.7764976318359373,1.9393033447265624,9.466673364257812,9.825209711977381
0.1492166127828898,-1.608903515625,2.1212626708984375,9.548076220703125,9.9123198777024
0.15170355632927132,-1.37906015625,2.2936451904296873,9.548076220703125,9.91606649284352
0.1541904998756528,-1.1827356201171875,2.4947581298828125,9.557653027343749,9.94843771980322
0.15667744342203432,-0.9337386474609375,2.6575638427734374,9.543287817382812,9.950319382089507
0.1591643869684158,-0.7038952880859375,2.844311572265625,9.629479077148437,10.065408297429034
0.1616513305147973,-0.469263525390625,3.0502129150390624,9.610325463867188,10.093679339308695
0.1641382740611788,-0.239420166015625,3.1938650146484373,9.581595043945311,10.102725341898966
0.1666252176075603,0.08140285644531249,3.3327287109375,9.591171850585937,10.154027996475913
0.1691121611539418,0.21068974609375,3.418919970703125,9.605537060546874,10.198026581487282
0.1715991047003233,0.43574470214843747,3.5529952636718747,9.605537060546874,10.250853184523944
0.1740860482467048,0.6081272216796875,3.6056677001953124,9.567229833984374,10.242194343902106
0.17657299179308628,0.7852981445312499,3.6104561035156246,9.591171850585937,10.278261716783122
0.1790599353394678,0.852335791015625,3.6487633300781246,9.572018237304688,10.27927445274532
0.18154687888584928,0.928950244140625,3.6679169433593746,9.548076220703125,10.270458742229005
0.18403382243223076,0.9145850341796874,3.5960908935546874,9.5384994140625,10.234808575226166
0.18652076597861228,0.9193734375,3.5146880371093747,9.485826977539062,10.15771593241257
0.18900770952499377,0.842758984375,3.31357509765625,9.471461767578125,10.069687713541397
0.19149465307137528,0.7038952880859375,3.189076611328125,9.452308154296874,10.000590365238287
0.19398159661775677,0.584185205078125,2.978386865234375,9.437942944335937,9.913971338135557
0.19646854016413826,0.40222587890625,2.920926025390625,9.414000927734374,9.864938315613019
0.19895548371051977,0.1867477294921875,2.6719290527343746,9.361328491210937,9.736968249803127
0.20144242725690126,-0.0047884033203125,2.4660277099609376,9.356540087890625,9.676061079354856
0.20392937080328274,-0.258573779296875,2.3032219970703123,9.370905297851563,9.65326670451153
0.20641631434966426,-0.55545478515625,2.1260510742187497,9.323021264648437,9.578483632059232
0.20890325789604575,-0.814028564453125,1.9393033447265624,9.327809667968749,9.561985838122984
0.21139020144242723,-1.024718310546875,1.8100164550781248,9.332598071289063,9.561568592226484
0.21387714498880875,-1.2880804931640624,1.6472107421875,9.332598071289063,9.56398668685167
0.21636408853519024,-1.455674609375,1.5658078857421873,9.394847314453125,9.635034974784398
0.21885103208157172,-1.6041151123046875,1.47482822265625,9.318232861328125,9.56962733014212
0.22133797562795324,-1.7573440185546874,1.4891934326171874,9.404424121093749,9.682414374974355
0.22382491917433472,-1.905784521484375,1.43652099609375,9.327809667968749,9.628272971639248
0.22631186272071624,-1.9632453613281249,1.4508862060546874,9.370905297851563,9.683659908990952
0.22879880626709773,-1.9776105712890624,1.5227122558593749,9.433154541015625,9.75776617779409
0.2312857498134792,-1.9823989746093749,1.618480322265625,9.409212524414063,9.751034026075583
0.23377269335986073,-1.9393033447265624,1.7238251953125,9.495403784179686,9.843534110850417
0.23625963690624222,-1.8100164550781248,1.8626888916015625,9.519345800781249,9.86730530334402
0.2387465804526237,-1.68551796875,1.9967641845703124,9.5001921875,9.853004091707152
0.24123352399900522,-1.5035586425781249,2.1595698974609374,9.528922607421874,9.885585303457075
0.2437204675453867,-1.3455413330078123,2.35589443359375,9.5384994140625,9.916838767124386
0.2462074110917682,-1.0869675537109373,2.5139117431640625,9.562441430664062,9.946936052379098
0.2486943546381497,-0.82360537109375,2.7964275390625,9.629479077148437,10.061073505633537
0.2511812981845312,-0.59376201171875,2.9975404785156248,9.591171850585937,10.066199864614852
0.2536682417309127,-0.354341845703125,3.1028853515624997,9.624690673828125,10.11870180484787
0.2561551852772942,-0.08140285644531249,3.208230224609375,9.581595043945311,10.104767745242437
0.2586421288236757,0.15322890625,3.380612744140625,9.610325463867188,10.1887377601453
0.26112907237005717,0.3591302490234375,3.5194764404296874,9.634267480468749,10.263274274602669
0.2636160159164387,0.5698199951171875,3.6152445068359373,9.586383447265625,10.26125895146649
0.2661029594628202,0.7134720947265625,3.6727053466796873,9.610325463867188,10.31291241671998
0.26858990300920166,0.8475473876953125,3.6727053466796873,9.581595043945311,10.296313161713568
0.2710768465555832,0.8858546142578124,3.687070556640625,9.543287817382812,10.26905886888644
0.2735637901019647,0.9433154541015625,3.5913024902343746,9.509768994140625,10.20896684019636
0.27605073364834615,0.9576806640625,3.5386300537109374,9.533711010742186,10.21424008664826
0.27853767719472766,0.8762778076171874,3.423708374023437,9.490615380859374,10.12726133433344
0.2810246207411092,0.814028564453125,3.323151904296875,9.428366137695312,10.029958579636167
0.28351156428749064,0.6943184814453125,3.19865341796875,9.504980590820312,10.052766677578393
0.28599850783387215,0.5267243652343749,2.9975404785156248,9.418789331054686,9.898296820163598
0.28848545138025367,0.32561142578124996,2.77727392578125,9.394847314453125,9.802164522252767
0.2909723949266351,0.1197100830078125,2.5905261962890624,9.34696328125,9.70004531219671
0.29345933847301664,-0.1292868896484375,2.398990063476562,9.3852705078125,9.687887846652094
0.29594628201939815,-0.39264907226562495,2.1691467041015624,9.318232861328125,9.575428678435292
0.2984332255657796,-0.6560112548828124,2.0063409912109376,9.318232861328125,9.554329835079043
0.30092016911216113,-0.8714894042968749,1.848323681640625,9.351751684570312,9.572411074738639
0.30340711265854264,-1.1540052001953125,1.714248388671875,9.323021264648437,9.549298458066376
0.30589405620492416,-1.350329736328125,1.6328455322265625,9.332598071289063,9.570107715650465
0.3083809997513056,-1.5466542724609373,1.4700398193359374,9.337386474609374,9.578097028385805
0.31086794329768713,-1.6711527587890624,1.47482822265625,9.370905297851563,9.63232764864517
0.31335488684406865,-1.85790048828125,1.4604630126953124,9.375693701171874,9.668938867011247
0.3158418303904501,-1.944091748046875,1.4317325927734375,9.390058911132812,9.695491596436893
0.3183287739368316,-1.9871873779296874,1.455674609375,9.356540087890625,9.675367934072916
0.32081571748321314,-1.9823989746093749,1.5418658691406248,9.418789331054686,9.747863792428712
0.3233026610295946,-1.9488801513671874,1.62805712890625,9.414000927734374,9.750493183770711
0.3257896045759761,-1.848323681640625,1.7812860351562498,9.495403784179686,9.836258099286034
0.3282765481223576,-1.714248388671875,1.9488801513671874,9.485826977539062,9.834515485282688
0.3307634916687391,-1.608903515625,2.0877438476562498,9.514557397460937,9.872894578875824
0.3332504352151206,-1.4125789794921875,2.29843359375,9.5001921875,9.87582036884115
0.3357373787615021,-1.1875240234375,2.4756045166015626,9.552864624023437,9.93962039284085
0.3382243223078836,-0.9624690673828125,2.6288334228515624,9.548076220703125,9.95001866265218
0.3407112658542651,-0.7134720947265625,2.844311572265625,9.629479077148437,10.066082557147897
0.3431982094006466,-0.49799394531249996,3.0166940917968748,9.605537060546874,10.080415836392344
0.34568515294702806,-0.22026655273437498,3.19865341796875,9.624690673828125,10.144681937321186
0.3481720964934096,0.009576806640625,3.2800562744140622,9.619902270507811,10.163728674687741
0.3506590400397911,0.1867477294921875,3.399766357421875,9.576806640625,10.1640794679817
0.35314598358617255,0.45968671875,3.5482068603515624,9.65342109375,10.295126158357577
0.35563292713255407,0.5889736083984375,3.5769372802734374,9.533711010742186,10.199657634192757
0.3581198706789356,0.737414111328125,3.6296097167968746,9.610325463867188,10.29933016216619
0.36060681422531704,0.8858546142578124,3.6727053466796873,9.567229833984374,10.286174685344017
0.36309375777169856,0.9433154541015625,3.6679169433593746,9.543287817382812,10.26731713325038
0.36558070131808007,0.93852705078125,3.5529952636718747,9.481038574218749,10.168318485105923
0.36806764486446153,0.9528922607421875,3.4715924072265625,9.5001921875,10.159409879610699
0.37055458841084304,0.8906430175781249,3.356670727539062,9.514557397460937,10.128538188083063
0.37304153195722456,0.718260498046875,3.21780703125,9.442731347656249,10.001767620647186
0.3755284755036061,0.5746083984375,3.0166940917968748,9.423577734375,9.911328638020503
0.37801541904998753,0.411802685546875,2.882618798828125,9.394847314453125,9.835762738754328
0.38050236259636905,0.19153613281249998,2.710236279296875,9.394847314453125,9.77983756724399
0.38298930614275056,-0.0383072265625,2.50912333984375,9.370905297851563,9.70108413938659
0.385476249689132,-0.2537853759765625,2.308010400390625,9.3852705078125,9.668227424413741
0.38796319323551354,-0.488417138671875,2.1739351074218747,9.366116894531249,9.627496602682001
0.39045013678189505,-0.7422025146484375,1.9488801513671874,9.337386474609374,9.567433542667622
0.3929370803282765,-0.9720458740234375,1.8243816650390623,9.380482104492186,9.60555496333423
0.395424023874658,-1.2018892333984375,1.6615759521484375,9.318232861328125,9.541217743666287
0.39791096742103954,-1.4173673828125,1.5466542724609373,9.327809667968749,9.560810788747661
0.400397910967421,-1.637633935546875,1.4939818359375,9.318232861328125,9.578271779966428
0.4028848545138025,-1.7477672119140624,1.4508862060546874,9.370905297851563,9.642283293456178
0.40537179806018403,-1.915361328125,1.426944189453125,9.332598071289063,9.63338805910564
0.4078587416065655,-1.93451494140625,1.455674609375,9.3852705078125,9.692504275558417
0.410345685152947,-1.9823989746093749,1.4987702392578124,9.375693701171874,9.69947680562262
0.4128326286993285,-1.9728221679687499,1.5514426757812498,9.452308154296874,9.77983287824753
0.41531957224571,-1.924938134765625,1.6711527587890624,9.437942944335937,9.776139595281142
0.4178065157920915,-1.8148048583984373,1.8291700683593748,9.428366137695312,9.774122356482346
0.420293459338473,-1.6998831787109374,2.0159177978515626,9.504980590820312,9.863984155544347
0.42278040288485447,-1.5179238525390624,2.1978771240234374,9.562441430664062,9.92849650195301
0.425267346431236,-1.3838485595703125,2.3032219970703123,9.528922607421874,9.900516878519479
0.4277542899776175,-1.1013327636718748,2.50912333984375,9.5384994140625,9.92429367073327
0.43024123352399896,-0.8283937744140625,2.73896669921875,9.586383447265625,10.00434517711807
0.43272817707038047,-0.5793968017578125,2.935291235351562,9.6151138671875,10.069858488042433
0.435215120616762,-0.3495534423828125,3.0885201416015624,9.591171850585937,10.082247851626752
0.43770206416314344,-0.0909796630859375,3.2561142578125,9.586383447265625,10.124687894302394
0.44018900770952496,0.143652099609375,3.323151904296875,9.634267480468749,10.19230515585026
0.4426759512559065,0.33039982910156246,3.4955344238281247,9.605537060546874,10.22713386911393
0.445162894802288,0.55545478515625,3.5960908935546874,9.605537060546874,10.271647480058855
0.44764983834866945,0.6703764648437499,3.6104561035156246,9.595960253906249,10.274592501631298
0.45013678189505096,0.8188169677734375,3.7014357666015623,9.562441430664062,10.286465577440657
0.4526237254414325,0.8762778076171874,3.6439749267578123,9.552864624023437,10.261756116176239
0.45511066898781394,0.9193734375,3.5817256835937497,9.548076220703125,10.239129157621372
0.45759761253419545,0.9193734375,3.4907460205078125,9.485826977539062,10.149456573880178
0.46008455608057697,0.8906430175781249,3.4428619873046875,9.481038574218749,10.126037531740248
0.4625714996269584,0.852335791015625,3.284844677734375,9.481038574218749,10.07009301363746
0.46505844317333994,0.6943184814453125,3.1459809814453124,9.3852705078125,9.922831097731494
0.46754538671972146,0.5123591552734374,2.96881005859375,9.370905297851563,9.843282540357277
0.4700323302661029,0.28730419921875,2.748543505859375,9.3852705078125,9.783677100727802
0.47251927381248443,0.143652099609375,2.5857377929687497,9.370905297851563,9.72216755466658
0.47500621735886595,-0.09576806640624999,2.4564509033203126,9.399635717773437,9.715784795363087
0.4774931609052474,-0.33039982910156246,2.2266075439453124,9.34696328125,9.614190958310548
0.4799801044516289,-0.603338818359375,2.0542250244140625,9.303867651367186,9.547031551996936
0.48246704799801043,-0.82360537109375,1.9201497314453124,9.356540087890625,9.586977793588982
0.4849539915443919,-1.0773907470703123,1.7477672119140624,9.294290844726563,9.51836663274128
0.4874409350907734,-1.2976572998046874,1.656787548828125,9.342174877929686,9.576277507440397
0.4899278786371549,-1.4700398193359374,1.5418658691406248,9.332598071289063,9.57265658994839
0.4924148221835364,-1.6807295654296874,1.465251416015625,9.337386474609374,9.59992707058045
0.4949017657299179,-1.8004396484374998,1.43652099609375,9.342174877929686,9.621923245885121
0.4973887092762994,-1.905784521484375,1.4221557861328125,9.366116894531249,9.663264841883624
0.49987565282268087,-1.9776105712890624,1.4987702392578124,9.409212524414063,9.730906233817569
0.5023625963690624,-1.9919757812499999,1.5466542724609373,9.409212524414063,9.741323692455696
0.5048495399154439,-1.9632453613281249,1.6711527587890624,9.447519750976562,9.792993073472326
0.5073364834618254,-1.85790048828125,1.7525556152343749,9.485826977539062,9.823653030143781
0.5098234270082069,-1.7669208251953124,1.9297265380859374,9.437942944335937,9.79390732725415
0.5123103705545884,-1.5897499023437498,2.0973206542968748,9.552864624023437,9.90874771118231
0.5147973141009698,-1.4173673828125,2.212242333984375,9.557653027343749,9.912198435928657
0.5172842576473514,-1.22583125,2.4564509033203126,9.562441430664062,9.94872350649973
0.5197712011937329,-1.0007762939453124,2.6192566162109374,9.581595043945311,9.983437383899647
0.5222581447401143,-0.7709329345703124,2.8107927490234372,9.605537060546874,10.037989623879247
0.5247450882864959,-0.5267243652343749,2.9831752685546875,9.610325463867188,10.076464100134627
0.5272320318328774,-0.26815058593749996,3.1076737548828124,9.5384994140625,10.035562364690715
0.5297189753792588,-0.01915361328125,3.35188232421875,9.591171850585937,10.160022610397275
0.5322059189256404,0.2154781494140625,3.438073583984375,9.629479077148437,10.227103602633816
0.5346928624720219,0.44532150878906246,3.5386300537109374,9.6151138671875,10.255273208559478
0.5371798060184033,0.6272808349609375,3.5769372802734374,9.576806640625,10.242225685115434
0.5396667495647849,-0.9002198242187499,10.663774194335938,10.328585961914062,14.873001168975605
0.5421536931111663,0.8092401611328125,10.28549033203125,10.199299072265624,14.507649105703411
0.5446406366575478,2.3367408203125,9.591171850585937,9.9981861328125,14.050432771809946
0.5471275802039294,3.6104561035156246,8.781931689453124,9.897629663085937,13.715713266951626
0.5496145237503108,4.659116430664063,7.9104422851562495,9.715670336914062,13.367000903600765
0.5521014672966923,5.487510205078125,6.89530078125,9.591171850585937,13.024919139181458
0.5545884108430739,6.0333881835937495,5.851428857421874,9.447519750976562,12.645023609803598
0.5570753543894553,6.306327172851562,4.821922143554687,9.303867651367186,12.230398556208451
0.5595622979358368,6.301538769531249,3.7205893798828122,9.227253198242186,11.776857721059248
0.5620492414822184,6.114791040039062,2.7198130859375,9.069235888671875,11.271161976041014
0.5645361850285998,5.702988354492187,1.8626888916015625,9.016563452148437,10.830147855176692
0.5670231285749813,5.147533569335937,0.9816226806640624,8.968679418945312,10.387391176539357
0.5695100721213628,4.448426684570312,0.296881005859375,8.86812294921875,9.925736392938186
0.5719970156677443,3.6008792968749996,-0.36391865234375,8.901641772460938,9.609266087553626
0.5744839592141258,2.7150246826171873,-0.7709329345703124,8.892064965820312,9.329229119986
0.5769709027605073,1.7860744384765623,-1.158793603515625,8.920795385742187,9.171338769754783
0.5794578463068888,0.8283937744140625,-1.4030021728515625,8.911218579101561,9.058944083448083
0.5819447898532703,-0.0430956298828125,-1.426944189453125,8.98304462890625,9.095774720058234
0.5844317333996518,-0.9002198242187499,-1.4030021728515625,9.035717065429687,9.188198611014016
0.5869186769460333,-1.6903063720703124,-1.254561669921875,9.145850341796875,9.384968784692076
0.5894056204924147,-2.3511060302734372,-0.9864110839843749,9.227253198242186,9.573030240037165
0.5918925640387963,-2.9544448486328125,-0.679953271484375,9.275137231445312,9.758035226271643
0.5943795075851778,-3.366247534179687,-0.2920926025390625,9.299079248046874,9.893928209325399
0.5968664511315592,-3.6727053466796873,0.19632453613281248,9.409212524414063,10.1025040567479
0.5993533946779408,-3.892971899414062,0.7038952880859375,9.495403784179686,10.28656365414763
0.6018403382243223,-3.9552211425781247,1.20667763671875,9.5384994140625,10.396288581879825
0.6043272817707037,-3.873818286132812,1.7525556152343749,9.634267480468749,10.530765840321592
0.6068142253170853,-3.754108203125,2.2266075439453124,9.672574707031249,10.611776996272832
0.6093011688634667,-3.4620156005859375,2.7629087158203123,9.710881933593749,10.673352075091204
0.6117881124098483,-3.0741549316406247,3.2130186279296873,9.706093530273437,10.676243200001085
0.6142750559562298,-2.6527754394531247,3.6152445068359373,9.749189160156249,10.730978504166394
0.6167619995026112,-2.1691467041015624,3.9264907226562498,9.753977563476562,10.736042340072268
0.6192489430489928,-1.6711527587890624,4.295197778320312,9.777919580078125,10.80968023637014
0.6217358865953743,-1.2018892333984375,4.486733911132812,9.777919580078125,10.825111095649014
0.6242228301417557,-0.689530078125,4.6639048339843745,9.7683427734375,10.846565381191896
0.6267097736881373,-0.201112939453125,4.759672900390624,9.715670336914062,10.820775509579716
0.6291967172345188,0.2537853759765625,4.802768530273437,9.701305126953125,10.828033696784075
0.6316836607809002,0.6607996582031249,4.802768530273437,9.696516723632811,10.840926081998578
0.6341706043272818,1.005564697265625,4.707000463867187,9.658209497070311,10.791108581444817
0.6366575478736632,1.2880804931640624,4.4819455078125,9.586383447265625,10.660475340709663
0.6391444914200447,1.4413093994140624,4.357447021484375,9.581595043945311,10.624108476292951
0.6416314349664263,1.5610194824218748,4.060566015625,9.481038574218749,10.431446239020419
0.6441183785128077,1.6328455322265625,3.83072265625,9.471461767578125,10.346458747606036
0.6466053220591892,1.5753846923828123,3.5194764404296874,9.490615380859374,10.244038834909707
0.6490922656055708,1.484405029296875,3.2417490478515623,9.394847314453125,10.048659176334695
0.6515792091519522,1.3407529296874998,2.920926025390625,9.366116894531249,9.902200409317798
0.6540661526983337,1.1061211669921875,2.6192566162109374,9.342174877929686,9.765256817281022
0.6565530962447153,0.8188169677734375,2.2936451904296873,9.342174877929686,9.654403189017717
0.6590400397910967,0.4836287353515625,1.9536685546875,9.299079248046874,9.514388705360346
0.6615269833374782,0.16280571289062498,1.7621324218749999,9.255983618164063,9.423632479680771
0.6640139268838597,-0.181959326171875,1.5322890624999999,9.279925634765624,9.407339621498641
0.6665008704302412,-0.5458779785156249,1.3263877197265623,9.236830004882812,9.347529924508033
0.6689878139766227,-0.852335791015625,1.177947216796875,9.260772021484375,9.374216467530154
0.6714747575230042,-1.1923124267578125,1.0199299072265624,9.246406811523437,9.378587572915407
0.6739617010693857,-1.455674609375,1.0199299072265624,9.270348828125,9.439206162551637
0.6764486446157671,-1.695094775390625,1.0103531005859374,9.327809667968749,9.534264150277748
0.6789355881621487,-1.9488801513671874,1.0582371337890624,9.342174877929686,9.601782705599186
0.6814225317085302,-2.0446482177734375,1.0917559570312498,9.318232861328125,9.602186264705171
0.6839094752549116,-2.1978771240234374,1.22583125,9.361328491210937,9.693698841316442
0.6863964188012932,-2.1883003173828124,1.3455413330078123,9.428366137695312,9.772063640006126
0.6888833623476747,-2.1978771240234374,1.5227122558593749,9.442731347656249,9.813994689750952
0.6913703058940561,-2.1547814941406247,1.7717092285156248,9.495403784179686,9.89670298142327
0.6938572494404377,-2.0446482177734375,1.905784521484375,9.509768994140625,9.912028414945748
0.6963441929868192,-1.8435352783203125,2.1404162841796874,9.586383447265625,9.993935750744123
0.6988311365332006,-1.6903063720703124,2.39420166015625,9.548076220703125,9.987747330470116
0.7013180800795822,-1.407790576171875,2.6767174560546874,9.595960253906249,10.061269494475074
0.7038050236259636,-1.1252747802734375,2.89219560546875,9.6151138671875,10.103536679321431
0.7062919671723451,-0.8475473876953125,3.0693665283203124,9.629479077148437,10.142298297565583
0.7087789107187267,-0.51714755859375,3.318363500976562,9.639055883789062,10.20736872326955
0.7112658542651081,-0.26815058593749996,3.4428619873046875,9.610325463867188,10.21193218356939
0.7137527978114896,0.028730419921875,3.6296097167968746,9.672574707031249,10.331195167859129
0.7162397413578712,0.2825157958984375,3.7205893798828122,9.639055883789062,10.336053349293309
0.7187266849042526,0.49320554199218747,3.754108203125,9.629479077148437,10.347146824350263
0.7212136284506341,0.699106884765625,3.912125512695312,9.600748657226562,10.39075797247948
0.7237005719970157,0.86191259765625,3.821145849609375,9.562441430664062,10.333650615579474
0.7261875155433971,1.005564697265625,3.763685009765625,9.557653027343749,10.321105396429905
0.7286744590897786,1.0582371337890624,3.7014357666015623,9.524134204101562,10.27276130859394
0.7311614026361601,1.0534487304687499,3.5960908935546874,9.514557397460937,10.225870447644631
0.7336483461825416,0.9864110839843749,3.5098996337890624,9.514557397460937,10.189170954275841
0.7361352897289231,0.9097966308593749,3.246537451171875,9.452308154296874,10.035629764751778
0.7386222332753046,0.8188169677734375,3.1651345947265623,9.447519750976562,9.997207993962155
0.7411091768216861,0.6368576416015624,2.940079638671875,9.3852705078125,9.855605432555341
0.7435961203680675,0.430956298828125,2.7341782958984373,9.394847314453125,9.794111003411633
0.7460830639144491,0.1867477294921875,2.5139117431640625,9.356540087890625,9.69017385722222
0.7485700074608306,-0.062249243164062495,2.2840683837890623,9.34696328125,9.622191326882616
0.7510569510072121,-0.33518823242187495,2.1164742675781247,9.332598071289063,9.575447834785733
0.7535438945535936,-0.5410895751953124,2.0063409912109376,9.361328491210937,9.58919460756512
0.7560308380999751,-0.852335791015625,1.7621324218749999,9.3086560546875,9.512237618843399
0.7585177816463566,-1.0917559570312498,1.637633935546875,9.337386474609374,9.542565805525578
0.7610047251927381,-1.3215993164062498,1.5418658691406248,9.289502441406249,9.508881675593555
0.7634916687391196,-1.5227122558593749,1.3934253662109375,9.337386474609374,9.562796298236332
0.7659786122855011,-1.714248388671875,1.3455413330078123,9.318232861328125,9.569670458005955
0.7684655558318826,-1.8435352783203125,1.3407529296874998,9.323021264648437,9.597654205167224
0.770952499378264,-1.9632453613281249,1.4030021728515625,9.318232861328125,9.625601856701634
0.7734394429246456,-2.001552587890625,1.43652099609375,9.409212524414063,9.726411756855674
0.7759263864710271,-2.01112939453125,1.5562310791015623,9.428366137695312,9.765274427252358
0.7784133300174085,-2.01112939453125,1.637633935546875,9.442731347656249,9.792428792307472
0.7809002735637901,-1.9201497314453124,1.7573440185546874,9.394847314453125,9.748763462747803
0.7833872171101716,-1.7717092285156248,1.9393033447265624,9.471461767578125,9.828959205733291
0.785874160656553,-1.6472107421875,2.0973206542968748,9.509768994140625,9.876627130657337
0.7883611042029346,-1.4317325927734375,2.29843359375,9.5001921875,9.878578177122673
0.790848047749316,-1.22583125,2.480392919921875,9.5384994140625,9.931665638891888
0.7933349912956975,-0.967257470703125,2.6910826660156246,9.605537060546874,10.022168186151152
0.7958219348420791,-0.7422025146484375,2.844311572265625,9.567229833984374,10.008639247627785
0.7983088783884605,-0.4836287353515625,3.1555577880859373,9.595960253906249,10.113055665927883
0.800795821934842,-0.2442085693359375,3.227383837890625,9.586383447265625,10.118023120176346
0.8032827654812236,0.0047884033203125,3.380612744140625,9.610325463867188,10.187586611956064
0.805769709027605,0.26336218261718747,3.4955344238281247,9.586383447265625,10.207196879918046
0.8082566525739865,0.45489831542968745,3.5577836669921874,9.6151138671875,10.262318050882973
0.8107435961203681,0.6943184814453125,3.6487633300781246,9.576806640625,10.271843915506038
0.8132305396667495,0.7613561279296874,3.69664736328125,9.543287817382812,10.262514664905357
0.815717483213131,0.9002198242187499,3.6918589599609373,9.552864624023437,10.280926069040607
0.8182044267595125,0.9720458740234375,3.6391865234374996,9.5384994140625,10.255316806693285
0.820691370305894,0.9337386474609375,3.4955344238281247,9.519345800781249,10.183740631260264
0.8231783138522755,0.9193734375,3.4907460205078125,9.481038574218749,10.144981406739767
0.825665257398657,0.8571241943359375,3.342305517578125,9.452308154296874,10.062395216902205
0.8281522009450385,0.7134720947265625,3.1555577880859373,9.404424121093749,9.945339633884467
0.83063914449142,0.59376201171875,3.0454245117187497,9.404424121093749,9.903047855713291
0.8331260880378015,0.411802685546875,2.839523168945312,9.375693701171874,9.80490212378455
0.835613031584183,0.21068974609375,2.6767174560546874,9.3852705078125,9.761788207775869
0.8380999751305644,-0.05746083984375,2.437297290039062,9.34696328125,9.65968127886128
0.840586918676946,-0.316034619140625,2.250549560546875,9.327809667968749,9.600671039402629
0.8430738622233275,-0.55545478515625,2.1116858642578125,9.318232861328125,9.570643179305902
0.8455608057697089,-0.7948749511718749,1.915361328125,9.299079248046874,9.527502824283669
0.8480477493160905,-1.0342951171875,1.7908628417968748,9.3086560546875,9.535619206534882
0.850534692862472,-1.3407529296874998,1.6519991455078125,9.323021264648437,9.562711179174611
0.8530216364088534,-1.455674609375,1.5897499023437498,9.332598071289063,9.578292127545982
0.855508579955235,-1.66636435546875,1.43652099609375,9.323021264648437,9.579096420773825
0.8579955235016165,-1.8100164550781248,1.4221557861328125,9.303867651367186,9.584395647188266
0.8604824670479979,-1.9297265380859374,1.39821376953125,9.370905297851563,9.669162960587768
0.8629694105943795,-1.9488801513671874,1.455674609375,9.404424121093749,9.713923793307314
0.8654563541407609,-1.9919757812499999,1.5610194824218748,9.418789331054686,9.752863261646642
0.8679432976871424,-1.9584569580078124,1.6232687255859375,9.404424121093749,9.742368708955976
0.870430241233524,-1.9393033447265624,1.7238251953125,9.433154541015625,9.78350015902006
0.8729171847799054,-1.7525556152343749,1.9105729248046874,9.4618849609375,9.810657832148745
0.8754041283262869,-1.66636435546875,2.020706201171875,9.485826977539062,9.840779296602435
0.8778910718726685,-1.5179238525390624,2.2170307373046874,9.5001921875,9.872840002334527
0.8803780154190499,-1.2689268798828124,2.379836450195312,9.524134204101562,9.898632698201538
0.8828649589654315,-1.0438719238281249,2.5330653564453125,9.567229833984374,9.951782523229731
0.885351902511813,-0.7805097412109374,2.81558115234375,9.562441430664062,9.99884887356735
0.8878388460581944,-0.55545478515625,2.9448680419921875,9.543287817382812,10.002755628750863
0.890325789604576,-0.3112462158203125,3.0885201416015624,9.595960253906249,10.08554827793162
0.8928127331509574,-0.047884033203124995,3.31357509765625,9.6151138671875,10.170176374450188
0.8952996766973389,0.1580173095703125,3.399766357421875,9.591171850585937,10.177129173919997
0.8977866202437205,0.4070142822265625,3.5625720703124997,9.600748657226562,10.248509899558313
0.9002735637901019,0.584185205078125,3.5865140869140624,9.591171850585937,10.256458117544149
0.9027605073364834,0.70868369140625,3.6391865234374996,9.548076220703125,10.24263982785643
0.905247450882865,0.8044517578125,3.6104561035156246,9.557653027343749,10.248476340273903
0.9077343944292464,0.8858546142578124,3.6152445068359373,9.552864624023437,10.25241209505001
0.9102213379756279,0.967257470703125,3.5673604736328124,9.4618849609375,10.158194464445144
0.9127082815220094,0.9193734375,3.5003228271484375,9.504980590820312,10.170652065807179
0.9151952250683909,0.8571241943359375,3.342305517578125,9.437942944335937,10.048902182720742
0.9176821686147724,0.7805097412109374,3.308786694335937,9.457096557617186,10.049574127535681
0.9201691121611539,0.6703764648437499,3.1364041748046874,9.423577734375,9.95440872519091
0.9226560557075354,0.49320554199218747,2.940079638671875,9.418789331054686,9.879317408160055
0.9251429992539169,0.2920926025390625,2.7724855224609373,9.409212524414063,9.81352507462553
0.9276299428002984,0.06703764648437499,2.5761609863281247,9.370905297851563,9.718794450693345
0.9301168863466799,-0.11013327636718749,2.4133552734375,9.370905297851563,9.67730743108301
0.9326038298930613,-0.4261678955078125,2.1547814941406247,9.332598071289063,9.587600801184871
0.9350907734394429,-0.699106884765625,2.0350714111328125,9.270348828125,9.516807945937302
0.9375777169858244,-0.9337386474609375,1.867477294921875,9.313444458007812,9.544610362985349
0.9400646605322058,-1.1444283935546875,1.695094775390625,9.3086560546875,9.53069463313147
0.9425516040785874,-1.3551181396484375,1.5849614990234373,9.3086560546875,9.539367152503415
0.9450385476249689,-1.5610194824218748,1.5083470458984374,9.337386474609374,9.586379859550178
0.9475254911713503,-1.714248388671875,1.455674609375,9.294290844726563,9.562503773218141
0.9500124347177319,-1.8291700683593748,1.4221557861328125,9.3852705078125,9.66704157039929
0.9524993782641133,-1.9584569580078124,1.4413093994140624,9.375693701171874,9.685894838341087
0.9549863218104948,-1.9919757812499999,1.4891934326171874,9.375693701171874,9.699963761325641
0.9574732653568764,-1.9488801513671874,1.5753846923828123,9.409212524414063,9.737209615848759
0.9599602089032578,-1.944091748046875,1.6903063720703124,9.442731347656249,9.787839580841906
0.9624471524496393,-1.8626888916015625,1.7525556152343749,9.471461767578125,9.810690551947888
0.9649340959960209,-1.7381904052734374,1.9297265380859374,9.481038574218749,9.830322621491202
0.9674210395424023,-1.5610194824218748,2.1308394775390624,9.552864624023437,9.911330951414046
0.9699079830887838,-1.37906015625,2.2457611572265623,9.543287817382812,9.900484455584538
0.9723949266351654,-1.2210428466796874,2.4947581298828125,9.557653027343749,9.953064611019922
0.9748818701815468,-0.9145850341796874,2.6862942626953124,9.572018237304688,9.983795660260117
0.9773688137279283,-0.6751648681640625,2.829946362304687,9.572018237304688,10.004397890328937
0.9798557572743098,-0.45489831542968745,3.0166940917968748,9.567229833984374,10.041875443219938
0.9823427008206913,-0.19632453613281248,3.208230224609375,9.629479077148437,10.151756094135852
0.9848296443670728,0.033518823242187495,3.323151904296875,9.524134204101562,10.087298668537617
0.9873165879134543,0.296881005859375,3.4332851806640625,9.600748657226562,10.200488235503494
0.9898035314598358,0.4740519287109375,3.5769372802734374,9.572018237304688,10.229503344415996
0.9922904750062173,0.6512228515624999,3.6583401367187496,9.591171850585937,10.285821368553735
0.9947774185525988,0.7565677246093749,3.6008792968749996,9.586383447265625,10.268275124410719
0.9972643620989803,0.8667010009765624,3.6391865234374996,9.605537060546874,10.30830691234028
0.9997513056453617,0.9528922607421875,3.6487633300781246,9.576806640625,10.29255570455775
1.0022382491917432,0.9145850341796874,3.5769372802734374,9.548076220703125,10.237026209212901
1.0047251927381249,0.9097966308593749,3.4715924072265625,9.509768994140625,10.164417842324006
1.0072121362845063,0.833182177734375,3.356670727539062,9.452308154296874,10.06516568955519
1.0096990798308878,0.7900865478515624,3.21780703125,9.466673364257812,10.029776838444924
1.0121860233772693,0.5506663818359374,3.0262708984374997,9.437942944335937,9.926546027463656
1.0146729669236507,0.38786066894531246,2.829946362304687,9.370905297851563,9.796575851456401
1.0171599104700322,0.17238251953125,2.6240450195312497,9.3852705078125,9.746724090810297
1.0196468540164139,-0.062249243164062495,2.418143676757812,9.327809667968749,9.636354446136233
1.0221337975627953,-0.277727392578125,2.29843359375,9.323021264648437,9.606177959550495
1.0246207411091768,-0.5410895751953124,2.1164742675781247,9.34696328125,9.598852214444245
1.0271076846555582,-0.7565677246093749,1.9584569580078124,9.289502441406249,9.523801971228847
1.0295946282019397,-1.0438719238281249,1.8100164550781248,9.356540087890625,9.58700529765758
1.0320815717483212,-1.2593500732421874,1.6519991455078125,9.289502441406249,9.51892427707177
1.0345685152947028,-1.4317325927734375,1.5418658691406248,9.366116894531249,9.599549690358096
1.0370554588410843,-1.6472107421875,1.465251416015625,9.279925634765624,9.538201336105978
1.0395424023874658,-1.7956512451171873,1.4413093994140624,9.327809667968749,9.607797322007864
1.0420293459338472,-1.9009961181640624,1.4700398193359374,9.375693701171874,9.67876209491183
1.0445162894802287,-1.9632453613281249,1.4891934326171874,9.356540087890625,9.675581214833084
1.0470032330266101,-1.9823989746093749,1.5370774658203123,9.433154541015625,9.760989572023352
1.0494901765729918,-2.01112939453125,1.5658078857421873,9.3852705078125,9.725209420954139
1.0519771201193733,-1.9105729248046874,1.7190367919921874,9.452308154296874,9.795483951138234
1.0544640636657547,-1.8626888916015625,1.8722656982421875,9.4618849609375,9.823556166975653
1.0569510072121362,-1.6711527587890624,2.020706201171875,9.476250170898437,9.832360977716156
1.0594379507585177,-1.4987702392578124,2.1883003173828124,9.509768994140625,9.87272388103005
1.0619248943048991,-1.2976572998046874,2.370259643554687,9.5001921875,9.877028745783644
1.0644118378512808,-1.0869675537109373,2.6001030029296874,9.543287817382812,9.950697284817355
1.0668987813976623,-0.8379705810546875,2.7724855224609373,9.6151138671875,10.041876584879441
1.0693857249440437,-0.5985504150390625,2.901772412109375,9.581595043945311,10.02923273820983
1.0718726684904252,-0.3591302490234375,3.1028853515624997,9.595960253906249,10.091547217114591
1.0743596120368066,-0.105344873046875,3.2513258544921873,9.605537060546874,10.14142788644213
1.076846555583188,0.16280571289062498,3.404554760742187,9.600748657226562,10.187829680470701
1.0793334991295698,0.33039982910156246,3.4955344238281247,9.572018237304688,10.195658786490029
1.0818204426759512,0.5458779785156249,3.6200329101562496,9.562441430664062,10.239282550692856
1.0843073862223327,0.7278373046875,3.6487633300781246,9.576806640625,10.27416402501618
1.0867943297687142,0.8044517578125,3.6535517333984373,9.605537060546874,10.308342501139833
1.0892812733150956,0.8475473876953125,3.5721488769531247,9.514557397460937,10.198303125671705
1.0917682168614773,0.948103857421875,3.6200329101562496,9.5384994140625,10.24629251325294
1.0942551604078588,0.9050082275390624,3.5194764404296874,9.490615380859374,10.162555515915155
1.0967421039542402,0.9097966308593749,3.399766357421875,9.437942944335937,10.072780560258481
1.0992290475006217,0.7948749511718749,3.284844677734375,9.457096557617186,10.042843523869879
1.1017159910470031,0.6751648681640625,3.1124621582031247,9.418789331054686,9.94267875113337
1.1042029345933846,0.5410895751953124,3.0310593017578125,9.428366137695312,9.918376200043896
1.1066898781397663,0.3399766357421875,2.7629087158203123,9.414000927734374,9.816957886850187
1.1091768216861477,0.0909796630859375,2.5522189697265625,9.380482104492186,9.721910485147736
1.1116637652325292,-0.13407529296874998,2.427720483398437,9.366116894531249,9.676566984820633
1.1141507087789106,-0.411802685546875,2.2026655273437497,9.303867651367186,9.569914845563094
1.116637652325292,-0.612915625,2.0446482177734375,9.3086560546875,9.550252847034129
1.1191245958716736,-0.928950244140625,1.886630908203125,9.303867651367186,9.538567922598919
1.1216115394180552,-1.13006318359375,1.7429788085937499,9.294290844726563,9.523594921692592
1.1240984829644367,-1.3742717529296875,1.608903515625,9.284714038085937,9.522767882423734
1.1265854265108182,-1.5418658691406248,1.5035586425781249,9.284714038085937,9.531209457310348
1.1290723700571996,-1.7429788085937499,1.4604630126953124,9.34696328125,9.619597180739625
1.131559313603581,-1.8195932617187498,1.4508862060546874,9.375693701171874,9.660208217176585
1.1340462571499625,-1.944091748046875,1.4604630126953124,9.34696328125,9.658062306555637
1.1365332006963442,-1.9967641845703124,1.4987702392578124,9.3852705078125,9.711677607070921
1.1390201442427257,-1.9776105712890624,1.5227122558593749,9.418789331054686,9.74387954813729
1.1415070877891071,-1.9393033447265624,1.6472107421875,9.433154541015625,9.770291975510723
1.1439940313354886,-1.8531120849609375,1.7669208251953124,9.428366137695312,9.769857810038832
1.14648097488187,-1.7669208251953124,1.867477294921875,9.4618849609375,9.804934862790923
1.1489679184282515,-1.5849614990234373,2.1116858642578125,9.509768994140625,9.869499808227937
1.1514548619746332,-1.39821376953125,2.2744915771484373,9.481038574218749,9.849792186927086
1.1539418055210147,-1.2018892333984375,2.4899697265625,9.548076220703125,9.940334324604645
1.1564287490673961,-0.9816226806640624,2.6671406494140624,9.562441430664062,9.975846252114732
1.1589156926137776,-0.7326257080078125,2.839523168945312,9.557653027343749,9.997417848930008
1.161402636160159,-0.4644751220703125,2.9975404785156248,9.581595043945311,10.05027112298565
1.1638895797065405,-0.2059013427734375,3.1938650146484373,9.591171850585937,10.11107049536414
1.1663765232529222,0.01915361328125,3.342305517578125,9.576806640625,10.143303133873797
1.1688634667993036,0.239420166015625,3.423708374023437,9.572018237304688,10.16870857983189
1.171350410345685,0.4070142822265625,3.5290532470703124,9.586383447265625,10.22343509025231
1.1738373538920666,0.622492431640625,3.6343981201171873,9.605537060546874,10.288959555975556
1.176324297438448,0.7661445312499999,3.6248213134765623,9.581595043945311,10.27293875108557
1.1788112409848295,0.8858546142578124,3.6727053466796873,9.5384994140625,10.259457784561622
1.1812981845312112,0.93852705078125,3.6200329101562496,9.509768994140625,10.21866809410996
1.1837851280775926,0.9576806640625,3.5434184570312497,9.519345800781249,10.202495336475314
1.186272071623974,0.9337386474609375,3.4715924072265625,9.485826977539062,10.144197117144518
1.1887590151703555,0.8379705810546875,3.323151904296875,9.490615380859374,10.090456559598758
1.191245958716737,0.7517793212890624,3.1794998046874996,9.447519750976562,9.996500417697083
1.1937329022631185,0.5889736083984375,3.0597897216796874,9.442731347656249,9.943559642114916
1.1962198458095001,0.430956298828125,2.906560815429687,9.409212524414063,9.85733734001639
1.1987067893558816,0.26336218261718747,2.7198130859375,9.366116894531249,9.7565818063343
1.201193732902263,-0.0430956298828125,2.4660277099609376,9.323021264648437,9.643747995499318
1.2036806764486445,-0.22026655273437498,2.3511060302734372,9.318232861328125,9.612787346954937
1.206167619995026,-0.4644751220703125,2.1212626708984375,9.303867651367186,9.55392305454289
1.2086545635414074,-0.7709329345703124,1.9584569580078124,9.294290844726563,9.529623998476666
1.2111415070877891,-0.9624690673828125,1.7956512451171873,9.327809667968749,9.547708798534385
1.2136284506341706,-1.24498486328125,1.695094775390625,9.3086560546875,9.54329142129833
1.216115394180552,-1.426944189453125,1.5705962890624998,9.299079248046874,9.538124411250198
1.2186023377269335,-1.6041151123046875,1.5466542724609373,9.303867651367186,9.566988972827486
1.221089281273315,-1.7717092285156248,1.43652099609375,9.284714038085937,9.560777213786318
1.2235762248196966,-1.9105729248046874,1.4125789794921875,9.323021264648437,9.621039121393638
1.226063168366078,-1.924938134765625,1.4939818359375,9.351751684570312,9.663986140234774
1.2285501119124596,-1.9728221679687499,1.4987702392578124,9.375693701171874,9.697524009493753
1.231037055458841,-1.9680337646484374,1.6519991455078125,9.418789331054686,9.762983690365585
1.2335239990052225,-1.9536685546875,1.714248388671875,9.447519750976562,9.798525287242521
1.236010942551604,-1.8052280517578123,1.8243816650390623,9.452308154296874,9.794556969172787
1.2384978860979856,-1.6903063720703124,2.0446482177734375,9.495403784179686,9.859027081336144
1.240984829644367,-1.484405029296875,2.1691467041015624,9.495403784179686,9.852479319416531
1.2434717731907485,-1.3311761230468748,2.375048046875,9.543287817382812,9.924073027791666
1.24595871673713,-1.0917559570312498,2.5522189697265625,9.548076220703125,9.943415522621079
1.2484456602835114,-0.8906430175781249,2.7150246826171873,9.533711010742186,9.952700620853017
1.250932603829893,-0.6081272216796875,2.901772412109375,9.5384994140625,9.9886472017735
1.2534195473762746,-0.39264907226562495,3.0885201416015624,9.533711010742186,10.029196158983849
1.255906490922656,-0.086191259765625,3.265691064453125,9.605537060546874,10.145861682639305
1.2583934344690375,0.105344873046875,3.423708374023437,9.639055883789062,10.229578432342361
1.260880378015419,0.3447650390625,3.5098996337890624,9.581595043945311,10.210054943906506
1.2633673215618004,0.55545478515625,3.6104561035156246,9.543287817382812,10.218525610829253
1.2658542651081819,0.679953271484375,3.6391865234374996,9.576806640625,10.267484620669784
1.2683412086545636,0.82360537109375,3.6152445068359373,9.552864624023437,10.247221144116113
1.270828152200945,0.9433154541015625,3.6056677001953124,9.552864624023437,10.254165306600875
1.2733150957473265,0.9911994873046874,3.6391865234374996,9.524134204101562,10.243792623522769
1.275802039293708,0.9720458740234375,3.5338416503906247,9.509768994140625,10.191595376248015
1.2782889828400894,0.9097966308593749,3.42849677734375,9.452308154296874,10.095962039625878
1.2807759263864709,0.814028564453125,3.3327287109375,9.433154541015625,10.037635566164795
1.2832628699328525,0.6607996582031249,3.21780703125,9.418789331054686,9.97519577459174
1.285749813479234,0.5363011718749999,2.96881005859375,9.394847314453125,9.867350615684487
1.2882367570256155,0.33518823242187495,2.829946362304687,9.370905297851563,9.794631880064616
1.290723700571997,0.11013327636718749,2.528276953125,9.361328491210937,9.69735968244058
1.2932106441183784,-0.11013327636718749,2.422932080078125,9.313444458007812,9.62408317065223
1.2956975876647598,-0.3447650390625,2.231395947265625,9.34696328125,9.615805394592227
1.2981845312111415,-0.5985504150390625,2.0302830078125,9.361328491210937,9.597644649158108
1.300671474757523,-0.842758984375,1.8722656982421875,9.3086560546875,9.532402587754534
1.3031584183039044,-1.0821791503906248,1.7669208251953124,9.313444458007812,9.541140843130107
1.305645361850286,-1.3072341064453123,1.6519991455078125,9.323021264648437,9.558069244721937
1.3081323053966674,-1.4987702392578124,1.4987702392578124,9.260772021484375,9.500238044074349
1.3106192489430488,-1.6998831787109374,1.4604630126953124,9.294290844726563,9.560669293469127
1.3131061924894305,-1.838746875,1.4413093994140624,9.303867651367186,9.592722039615156
1.315593136035812,-1.9632453613281249,1.3934253662109375,9.313444458007812,9.619574536972667
1.3180800795821934,-1.9776105712890624,1.4987702392578124,9.380482104492186,9.70312837771702
1.3205670231285749,-2.0254946044921875,1.5658078857421873,9.380482104492186,9.723570704251475
1.3230539666749563,-1.9536685546875,1.6424223388671875,9.390058911132812,9.730754252129145
1.3255409102213378,-1.867477294921875,1.7190367919921874,9.457096557617186,9.79179422983175
1.3280278537677195,-1.7621324218749999,1.915361328125,9.471461767578125,9.82254079676913
1.330514797314101,-1.62805712890625,2.0973206542968748,9.466673364257812,9.83194937575815
1.3330017408604824,-1.455674609375,2.2457611572265623,9.466673364257812,9.83769974786967
1.3354886844068639,-1.235408056640625,2.437297290039062,9.5384994140625,9.922178300076801
1.3379756279532453,-0.9959878906249999,2.6048914062499997,9.528922607421874,9.928636219283211
1.3404625714996268,-0.7613561279296874,2.806004345703125,9.5384994140625,9.971774897866055
1.3429495150460085,-0.51714755859375,2.959233251953125,9.514557397460937,9.97754005285888
1.34543645859239,-0.22505495605468748,3.189076611328125,9.557653027343749,10.078173979310835
1.3479234021387714,0.009576806640625,3.31357509765625,9.552864624023437,10.11123603561659
1.3504103456851528,0.2059013427734375,3.423708374023437,9.591171850585937,10.186007650732753
1.3528972892315343,0.44532150878906246,3.5290532470703124,9.586383447265625,10.22503181730287
1.3553842327779158,0.6081272216796875,3.5865140869140624,9.586383447265625,10.253372596925816
1.3578711763242974,0.7613561279296874,3.6583401367187496,9.533711010742186,10.239861392900309
1.360358119870679,0.852335791015625,3.6679169433593746,9.5384994140625,10.25490429385373
1.3628450634170604,0.928950244140625,3.6008792968749996,9.519345800781249,10.219942501873653
1.3653320069634418,0.9337386474609375,3.5721488769531247,9.476250170898437,10.170124520492967
1.3678189505098233,0.9337386474609375,3.5194764404296874,9.495403784179686,10.169625130805743
1.370305894056205,0.8667010009765624,3.385401147460937,9.442731347656249,10.068628846984758
1.3727928376025864,0.7517793212890624,3.2130186279296873,9.452308154296874,10.0117326320237
1.3752797811489679,0.6560112548828124,3.0645781249999997,9.404424121093749,9.9128796472151
1.3777667246953493,0.469263525390625,2.959233251953125,9.394847314453125,9.8610560163511
1.3802536682417308,0.28730419921875,2.7246014892578123,9.394847314453125,9.786171521082272
1.3827406117881123,0.0526724365234375,2.5330653564453125,9.351751684570312,9.68888301381828
1.385227555334494,-0.2154781494140625,2.3367408203125,9.361328491210937,9.650971951806062
1.3877144988808754,-0.430956298828125,2.1883003173828124,9.318232861328125,9.5814323182128
1.3902014424272569,-0.7230489013671875,1.9536685546875,9.3086560546875,9.538904448615328
1.3926883859736383,-0.93852705078125,1.8148048583984373,9.303867651367186,9.525560507039547
1.3951753295200198,-1.177947216796875,1.68551796875,9.299079248046874,9.523728541385179
1.3976622730664012,-1.37906015625,1.5897499023437498,9.294290844726563,9.529583095441597
1.400149216612783,-1.5897499023437498,1.5131354492187499,9.375693701171874,9.629149288378406
1.4026361601591644,-1.714248388671875,1.5418658691406248,9.323021264648437,9.603891055065745
1.4051231037055458,-1.8339584716796873,1.484405029296875,9.356540087890625,9.649440625401654
1.4076100472519273,-1.9536685546875,1.4700398193359374,9.351751684570312,9.666079735956643
1.4100969907983087,-2.0063409912109376,1.4604630126953124,9.332598071289063,9.65690132209565
1.4125839343446902,-1.9680337646484374,1.599326708984375,9.3852705078125,9.721846806326573
1.4150708778910719,-1.915361328125,1.70467158203125,9.437942944335937,9.780045053086523
1.4175578214374533,-1.8195932617187498,1.8339584716796873,9.481038574218749,9.826719481076168
1.4200447649838348,-1.6903063720703124,1.9488801513671874,9.509768994140625,9.853475315733677
1.4225317085302163,-1.5562310791015623,2.1404162841796874,9.548076220703125,9.908026875089694
1.4250186520765977,-1.3311761230468748,2.3127988037109373,9.524134204101562,9.890915049415506
1.4275055956229792,-1.1109095703125,2.528276953125,9.528922607421874,9.921021645140717
1.4299925391693609,-0.9097966308593749,2.6719290527343746,9.524134204101562,9.933582793237614
1.4324794827157423,-0.6081272216796875,2.8730419921875,9.572018237304688,10.012378445799685
1.4349664262621238,-0.354341845703125,3.0933085449218747,9.619902270507811,10.11121335902988
1.4374533698085052,-0.1484405029296875,3.23696064453125,9.610325463867188,10.141908317403006
1.4399403133548867,0.12449848632812499,3.394977954101562,9.567229833984374,10.15250027718366
1.4424272569012682,0.33518823242187495,3.5003228271484375,9.586383447265625,10.210943082958542
1.4449142004476498,0.5027823486328125,3.5769372802734374,9.557653027343749,10.217436165114993
1.4474011439940313,0.6751648681640625,3.6487633300781246,9.595960253906249,10.288429162543439
1.4498880875404128,0.82360537109375,3.6439749267578123,9.528922607421874,10.23509868698733
1.4523750310867942,0.8858546142578124,3.6727053466796873,9.548076220703125,10.268362210084327
1.4548619746331757,0.948103857421875,3.6104561035156246,9.5384994140625,10.24291292904231
1.4573489181795571,0.9337386474609375,3.5146880371093747,9.509768994140625,10.18138527813776
1.4598358617259388,0.9193734375,3.4620156005859375,9.5001921875,10.153051321436182
1.4623228052723203,0.8188169677734375,3.21780703125,9.437942944335937,10.004974279707875
1.4648097488187017,0.6943184814453125,3.1651345947265623,9.4618849609375,10.00137101453729
1.4672966923650832,0.5410895751953124,3.0023288818359375,9.423577734375,9.90507819044855
1.4697836359114647,0.38307226562499996,2.825157958984375,9.342174877929686,9.767522372829477
1.4722705794578461,0.16280571289062498,2.6240450195312497,9.390058911132812,9.751170407659856
1.4747575230042278,-0.0526724365234375,2.427720483398437,9.303867651367186,9.61553713555506
1.4772444665506093,-0.354341845703125,2.269703173828125,9.327809667968749,9.606515697314663
1.4797314100969907,-0.603338818359375,2.0254946044921875,9.313444458007812,9.550230038850513
1.4822183536433722,-0.8188169677734375,1.9488801513671874,9.318232861328125,9.555001764994186
1.4847052971897536,-1.0582371337890624,1.7621324218749999,9.332598071289063,9.556273502981247
1.487192240736135,-1.254561669921875,1.675941162109375,9.370905297851563,9.601904491495016
1.4896791842825168,-1.4796166259765624,1.5083470458984374,9.289502441406249,9.52676397207517
1.4921661278288982,-1.6472107421875,1.47482822265625,9.327809667968749,9.586263856027152
1.4946530713752797,-1.8243816650390623,1.4700398193359374,9.375693701171874,9.664006307342618
1.4971400149216612,-1.9105729248046874,1.4317325927734375,9.380482104492186,9.679545011564574
1.4996269584680426,-1.944091748046875,1.43652099609375,9.3852705078125,9.691562712063376
1.5021139020144243,-1.9728221679687499,1.5418658691406248,9.375693701171874,9.704277924866108
1.5046008455608058,-1.9776105712890624,1.5418658691406248,9.380482104492186,9.709878394850946
1.5070877891071872,-1.9297265380859374,1.714248388671875,9.433154541015625,9.779923141034441
1.5095747326535687,-1.8052280517578123,1.9105729248046874,9.504980590820312,9.861733785279386
1.5120616761999501,-1.62805712890625,2.0638018310546875,9.452308154296874,9.811013069843211
1.5145486197463316,-1.4508862060546874,2.1930887207031247,9.4618849609375,9.820487560900949
1.5170355632927133,-1.2737152832031249,2.398990063476562,9.519345800781249,9.899265044546292
1.5195225068390947,-1.0199299072265624,2.5761609863281247,9.543287817382812,9.937364077487626
1.5220094503854762,-0.7900865478515624,2.7916391357421872,9.552864624023437,9.983722168721535
1.5244963939318577,-0.5602431884765625,2.9448680419921875,9.576806640625,10.035006011303649
1.5269833374782391,-0.2537853759765625,3.1172505615234374,9.562441430664062,10.060911698015161
1.5294702810246206,-0.0383072265625,3.318363500976562,9.600748657226562,10.158118848854741
1.5319572245710023,0.1771709228515625,3.423708374023437,9.6151138671875,10.208015637000349
1.5344441681173837,0.4165910888671875,3.5098996337890624,9.600748657226562,10.230704685105215
1.5369311116637652,0.5985504150390625,3.5960908935546874,9.600748657226562,10.269591379080671
1.5394180552101466,0.7422025146484375,3.6439749267578123,9.586383447265625,10.282420213043155
1.541904998756528,0.8475473876953125,3.6248213134765623,9.552864624023437,10.252555225598229
1.5443919423029095,0.9624690673828125,3.5913024902343746,9.548076220703125,10.246441323620061
1.5468788858492912,0.9576806640625,3.5673604736328124,9.495403784179686,10.188518343104203
1.5493658293956727,0.9624690673828125,3.5194764404296874,9.476250170898437,10.154426543230347
1.5518527729420541,0.8954314208984374,3.418919970703125,9.495403784179686,10.13180656251484
1.5543397164884356,0.7517793212890624,3.2513258544921873,9.409212524414063,9.983464944076163
1.556826660034817,0.6560112548828124,3.0741549316406247,9.428366137695312,9.938554589914114
1.5593136035811985,0.469263525390625,2.887407202148437,9.394847314453125,9.839740071219758
1.5618005471275802,0.28730419921875,2.7533319091796873,9.366116894531249,9.7666537763463
1.5642874906739617,0.028730419921875,2.5474305664062498,9.3852705078125,9.724892309558232
1.5667744342203431,-0.19153613281249998,2.360682836914062,9.332598071289063,9.628442049828296
1.5692613777667246,-0.38786066894531246,2.1739351074218747,9.332598071289063,9.590298040729724
1.571748321313106,-0.7230489013671875,2.020706201171875,9.303867651367186,9.548193888866079
1.5742352648594875,-0.9002198242187499,1.8339584716796873,9.313444458007812,9.534885792717109
1.5767222084058692,-1.177947216796875,1.675941162109375,9.294290844726563,9.517362067862082
1.5792091519522506,-1.3838485595703125,1.5849614990234373,9.275137231445312,9.510799674651677
1.581696095498632,-1.5610194824218748,1.465251416015625,9.303867651367186,9.547025547823427
1.5841830390450136,-1.7621324218749999,1.4700398193359374,9.356540087890625,9.633845035029399
1.586669982591395,-1.838746875,1.43652099609375,9.327809667968749,9.615228330330575
1.5891569261377765,-1.9393033447265624,1.4508862060546874,9.370905297851563,9.678834348571623
1.5916438696841582,-1.9632453613281249,1.4508862060546874,9.390058911132812,9.702196116665592
1.5941308132305396,-1.9632453613281249,1.5610194824218748,9.380482104492186,9.710023619228494
1.596617756776921,-1.924938134765625,1.68551796875,9.399635717773437,9.741637915283869
1.5991047003233025,-1.838746875,1.8148048583984373,9.471461767578125,9.817489228875322
1.601591643869684,-1.714248388671875,1.9105729248046874,9.466673364257812,9.808508603483466
1.6040785874160655,-1.5897499023437498,2.0973206542968748,9.452308154296874,9.811839181454689
1.6065655309624471,-1.350329736328125,2.288856787109375,9.5384994140625,9.901778974546913
1.6090524745088286,-1.16837041015625,2.442085693359375,9.514557397460937,9.892202708124104
1.61153941805521,-0.93852705078125,2.7150246826171873,9.5384994140625,9.961684753310525
1.6140263616015915,-0.6368576416015624,2.877830395507812,9.581595043945311,10.024692465464081
1.616513305147973,-0.4165910888671875,3.1076737548828124,9.562441430664062,10.063372715794221
1.6190002486943544,-0.22026655273437498,3.1938650146484373,9.548076220703125,10.070503989493536
1.6214871922407361,0.086191259765625,3.356670727539062,9.576806640625,10.148393603831924
1.6239741357871176,0.296881005859375,3.4811692138671875,9.581595043945311,10.198707810961844
1.626461079333499,0.49799394531249996,3.5482068603515624,9.6151138671875,10.261003097767546
1.6289480228798805,0.6943184814453125,3.5960908935546874,9.572018237304688,10.248779488489204
1.631434966426262,0.7852981445312499,3.6152445068359373,9.476250170898437,10.172807052208565
1.6339219099726436,0.8906430175781249,3.6391865234374996,9.572018237304688,10.279127233010755
1.636408853519025,0.9720458740234375,3.6343981201171873,9.548076220703125,10.262528070269713
1.6388957970654066,0.97683427734375,3.5625720703124997,9.5384994140625,10.228836494618292
1.641382740611788,0.9002198242187499,3.423708374023437,9.457096557617186,10.097962668893636
1.6438696841581695,0.8379705810546875,3.318363500976562,9.490615380859374,10.08888057847505
1.646356627704551,0.7565677246093749,3.2130186279296873,9.437942944335937,9.998532414603869
1.6488435712509326,0.5793968017578125,3.0262708984374997,9.418789331054686,9.909975210231682
1.651330514797314,0.4070142822265625,2.89219560546875,9.414000927734374,9.856666247449631
1.6538174583436955,0.17238251953125,2.6192566162109374,9.380482104492186,9.740824681067968
1.656304401890077,-0.028730419921875,2.4851813232421875,9.370905297851563,9.694886164763522
1.6587913454364585,-0.3112462158203125,2.29843359375,9.366116894531249,9.649031913812117
1.66127828898284,-0.5506663818359374,2.0925322509765625,9.327809667968749,9.575487344637482
1.6637652325292216,-0.7996633544921875,1.8914193115234375,9.323021264648437,9.546499567569699
1.666252176075603,-1.0630255371093749,1.7477672119140624,9.342174877929686,9.563521577818971
1.6687391196219845,-1.254561669921875,1.6615759521484375,9.3086560546875,9.538649651437325
1.671226063168366,-1.4987702392578124,1.5514426757812498,9.323021264648437,9.569326627689492
1.6737130067147474,-1.62805712890625,1.4796166259765624,9.318232861328125,9.574408547413467
1.676199950261129,-1.7717092285156248,1.4173673828125,9.351751684570312,9.623052709932116
1.6786868938075106,-1.89620771484375,1.446097802734375,9.404424121093749,9.702061409943562
1.681173837353892,-1.9632453613281249,1.465251416015625,9.370905297851563,9.68582263735067
1.6836607809002735,-2.020706201171875,1.5227122558593749,9.327809667968749,9.664881756516738
1.686147724446655,-1.9393033447265624,1.6041151123046875,9.394847314453125,9.726111186814544
1.6886346679930364,-1.8914193115234375,1.6998831787109374,9.423577734375,9.760680670377269
1.6911216115394179,-1.8100164550781248,1.8291700683593748,9.442731347656249,9.787093440375719
1.6936085550857995,-1.618480322265625,2.059013427734375,9.476250170898437,9.831496943528192
1.696095498632181,-1.4700398193359374,2.1930887207031247,9.471461767578125,9.832560359438565
1.6985824421785625,-1.2832920898437499,2.389413256835937,9.504980590820312,9.884371013457038
1.701069385724944,-1.0390835205078124,2.5570073730468748,9.557653027343749,9.948201478634221
1.7035563292713254,-0.7805097412109374,2.81558115234375,9.600748657226562,10.035490394634243
1.7060432728177068,-0.5602431884765625,2.925714428710937,9.572018237304688,10.024829698498388
1.7085302163640885,-0.3064578125,3.1220389648437497,9.572018237304688,10.07296266369227
1.71101715991047,-0.023942016601562498,3.308786694335937,9.586383447265625,10.141370233197378
1.7135041034568514,0.1484405029296875,3.418919970703125,9.567229833984374,10.16085306680809
1.715991047003233,0.39743747558593745,3.5098996337890624,9.591171850585937,10.220955408069482
1.7184779905496144,0.5698199951171875,3.5577836669921874,9.572018237304688,10.227710036134447
1.7209649340959958,0.7565677246093749,3.6391865234374996,9.567229833984374,10.263915430797859
1.7234518776423775,0.8283937744140625,3.6535517333984373,9.562441430664062,10.27010041961554
1.725938821188759,0.928950244140625,3.6056677001953124,9.528922607421874,10.230550042815702
1.7284257647351404,0.967257470703125,3.5817256835937497,9.490615380859374,10.190001285306623
1.7309127082815219,0.9576806640625,3.5051112304687497,9.504980590820312,10.175834758099612
1.7333996518279033,0.9002198242187499,3.423708374023437,9.471461767578125,10.11141744647944
1.7358865953742848,0.8379705810546875,3.27526787109375,9.423577734375,10.011662780874133
1.7383735389206665,0.6943184814453125,3.0980969482421874,9.414000927734374,9.934973393108194
1.740860482467048,0.5315127685546874,2.906560815429687,9.356540087890625,9.812005096474026
1.7433474260134294,0.3064578125,2.7533319091796873,9.399635717773437,9.799382869333737
1.7458343695598109,0.09576806640624999,2.499546533203125,9.327809667968749,9.657377366347564
1.7483213131061923,-0.17238251953125,2.308010400390625,9.323021264648437,9.606006102560947
1.7508082566525738,-0.38786066894531246,2.2074539306640624,9.34696328125,9.611920273054427
1.7532952001989555,-0.6607996582031249,2.0302830078125,9.318232861328125,9.559715944421615
1.755782143745337,-0.8954314208984374,1.8339584716796873,9.3086560546875,9.529757533633694
1.7582690872917184,-1.139639990234375,1.6711527587890624,9.318232861328125,9.535250102041637
1.7607560308380998,-1.3455413330078123,1.618480322265625,9.303867651367186,9.5389681468464
1.7632429743844813,-1.5275006591796874,1.4796166259765624,9.327809667968749,9.56716033238243
1.765729917930863,-1.6903063720703124,1.43652099609375,9.356540087890625,9.615901966013588
1.7682168614772444,-1.8004396484374998,1.4317325927734375,9.3852705078125,9.663060780606246
1.770703805023626,-1.9584569580078124,1.4221557861328125,9.294290844726563,9.604265877346808
1.7731907485700074,-1.9488801513671874,1.4508862060546874,9.337386474609374,9.648315438641651
1.7756776921163888,-1.9632453613281249,1.5849614990234373,9.399635717773437,9.73239882706238
1.7781646356627703,-1.9297265380859374,1.6998831787109374,9.414000927734374,9.758937483171065
1.780651579209152,-1.867477294921875,1.8052280517578123,9.457096557617186,9.807292953001703
1.7831385227555334,-1.695094775390625,1.915361328125,9.433154541015625,9.773758740091607
1.7856254663019149,-1.5945383056640625,2.1068974609374997,9.524134204101562,9.883860665593794
1.7881124098482963,-1.3551181396484375,2.3032219970703123,9.557653027343749,9.924208186615491
1.7905993533946778,-1.1731588134765625,2.418143676757812,9.490615380859374,9.863848171504165
1.7930862969410593,-0.9576806640625,2.6001030029296874,9.509768994140625,9.905220552924684
1.795573240487441,-0.699106884765625,2.85388837890625,9.576806640625,10.01741756878997
1.7980601840338224,-0.39264907226562495,3.0071172851562498,9.591171850585937,10.0592000242618
1.8005471275802039,-0.1484405029296875,3.189076611328125,9.581595043945311,10.099465718640143
1.8030340711265853,0.09576806640624999,3.337517114257812,9.629479077148437,10.1919114648699
1.8055210146729668,0.258573779296875,3.4811692138671875,9.619902270507811,10.233665970171096
1.8080079582193482,0.469263525390625,3.5338416503906247,9.552864624023437,10.196345795980834
1.81049490176573,0.6512228515624999,3.5721488769531247,9.528922607421874,10.197289093663588
1.8129818453121114,0.7709329345703124,3.6583401367187496,9.519345800781249,10.227205611523813
1.8154687888584928,0.9241618408203125,3.67749375,9.591171850585937,10.313516027853426
1.8179557324048743,0.9624690673828125,3.6535517333984373,9.504980590820312,10.228364630094017
1.8204426759512558,1.0007762939453124,3.6343981201171873,9.524134204101562,10.243023734414148
1.8229296194976372,0.93852705078125,3.42849677734375,9.485826977539062,10.12997219271171
1.825416563044019,0.8714894042968749,3.27526787109375,9.466673364257812,10.05508716992394
1.8279035065904004,0.7805097412109374,3.1747114013671873,9.428366137695312,9.979081919923074
1.8303904501367818,0.6272808349609375,3.0071172851562498,9.433154541015625,9.920717726418713
1.8328773936831633,0.43574470214843747,2.906560815429687,9.399635717773437,9.848407020736088
1.8353643372295447,0.21068974609375,2.6623522460937497,9.370905297851563,9.744043090662723
1.8378512807759262,0.028730419921875,2.518700146484375,9.351751684570312,9.68503667699782
1.8403382243223079,-0.2537853759765625,2.2601263671875,9.313444458007812,9.587117704769883
1.8428251678686893,-0.5698199951171875,2.1164742675781247,9.299079248046874,9.553901455092142
1.8453121114150708,-0.7661445312499999,1.9967641845703124,9.313444458007812,9.555851208759137
1.8477990549614522,-1.0007762939453124,1.7860744384765623,9.323021264648437,9.545173680525107
1.8502859985078337,-1.2401964599609374,1.675941162109375,9.318232861328125,9.548629728714351
1.8527729420542152,-1.4317325927734375,1.5370774658203123,9.3086560546875,9.542721985765517
1.8552598856005968,-1.5945383056640625,1.5131354492187499,9.323021264648437,9.578666754668907
1.8577468291469783,-1.7764976318359373,1.4508862060546874,9.342174877929686,9.619628166860661
1.8602337726933598,-1.8531120849609375,1.4125789794921875,9.34696328125,9.633022700781268
1.8627207162397412,-1.9201497314453124,1.4413093994140624,9.409212524414063,9.710696581893561
1.8652076597861227,-1.93451494140625,1.5131354492187499,9.390058911132812,9.705932891832251
1.8676946033325041,-1.944091748046875,1.599326708984375,9.437942944335937,9.76791204236787
1.8701815468788858,-1.9105729248046874,1.675941162109375,9.428366137695312,9.764894044806061
1.8726684904252673,-1.7812860351562498,1.848323681640625,9.481038574218749,9.822391400111284
1.8751554339716487,-1.6232687255859375,2.0302830078125,9.5001921875,9.849401100915404
1.8776423775180302,-1.484405029296875,2.1787235107421874,9.471461767578125,9.831524929631048
1.8801293210644117,-1.3024457031249999,2.384624853515625,9.567229833984374,9.945586317451268
1.8826162646107931,-1.0821791503906248,2.5522189697265625,9.504980590820312,9.900989314954497
1.8851032081571748,-0.7757213378906249,2.7533319091796873,9.624690673828125,10.040779390218669
1.8875901517035563,-0.5746083984375,2.906560815429687,9.576806640625,10.02464443345824
1.8900770952499377,-0.2920926025390625,3.1220389648437497,9.610325463867188,10.108946577557662
1.8925640387963192,-0.06703764648437499,3.2704794677734372,9.639055883789062,10.178994465367506
1.8950509823427006,0.1867477294921875,3.3710359375,9.595960253906249,10.172571513680081
1.897537925889082,0.3447650390625,3.4955344238281247,9.5384994140625,10.164673871423414
1.9000248694354638,0.5889736083984375,3.5769372802734374,9.600748657226562,10.262345979240685
1.9025118129818452,0.7326257080078125,3.6583401367187496,9.586383447265625,10.286833360270286
1.9049987565282267,0.8762778076171874,3.6391865234374996,9.543287817382812,10.251140605508184
1.9074857000746082,0.9002198242187499,3.5865140869140624,9.524134204101562,10.216780870963552
1.9099726436209896,0.9720458740234375,3.5865140869140624,9.5001921875,10.201059164433614
1.9124595871673713,0.9720458740234375,3.5338416503906247,9.509768994140625,10.191595376248015
1.9149465307137528,0.9193734375,3.399766357421875,9.5001921875,10.131994394100017
1.9174334742601342,0.833182177734375,3.2513258544921873,9.428366137695312,10.007966845459828
1.9199204178065157,0.689530078125,3.0885201416015624,9.433154541015625,9.949814721310206
1.9224073613528971,0.5746083984375,2.940079638671875,9.3852705078125,9.851778803754323
1.9248943048992786,0.316034619140625,2.786850732421875,9.399635717773437,9.809157278387266
1.9273812484456603,0.11013327636718749,2.5617957763671875,9.390058911132812,9.73386528019167
1.9298681919920417,-0.1149216796875,2.39420166015625,9.342174877929686,9.64477267911368
1.9323551355384232,-0.3687070556640625,2.1212626708984375,9.303867651367186,9.54974625244045
1.9348420790848047,-0.6272808349609375,2.020706201171875,9.323021264648437,9.56009729544897
1.9373290226311861,-0.8571241943359375,1.8770541015625,9.265560424804686,9.492555186587825
1.9398159661775676,-1.1013327636718748,1.68551796875,9.275137231445312,9.49115774505193
1.9423029097239493,-1.3263877197265623,1.5945383056640625,9.323021264648437,9.550946669956774
1.9447898532703307,-1.5083470458984374,1.4891934326171874,9.313444458007812,9.551599633727177
1.9472767968167122,-1.6519991455078125,1.4987702392578124,9.337386474609374,9.600114560934236
1.9497637403630936,-1.8100164550781248,1.39821376953125,9.361328491210937,9.636681609004109
1.952250683909475,-1.85790048828125,1.4317325927734375,9.390058911132812,9.67857731260696
1.9547376274558566,-1.944091748046875,1.465251416015625,9.361328491210937,9.672689675437613
1.9572245710022382,-1.9105729248046874,1.5705962890624998,9.433154541015625,9.751998061879286
1.9597115145486197,-1.93451494140625,1.6328455322265625,9.390058911132812,9.725314336574474
1.9621984580950012,-1.8339584716796873,1.7525556152343749,9.423577734375,9.759030288719442
1.9646854016413826,-1.7525556152343749,1.9584569580078124,9.466673364257812,9.824709126809152
1.967172345187764,-1.5705962890624998,2.0446482177734375,9.485826977539062,9.829968081609872
1.9696592887341455,-1.4221557861328125,2.250549560546875,9.490615380859374,9.85694073797308
1.9721462322805272,-1.1635820068359375,2.398990063476562,9.514557397460937,9.8810869281102
1.9746331758269087,-0.9241618408203125,2.6767174560546874,9.567229833984374,9.977513625340581
1.9771201193732901,-0.70868369140625,2.81558115234375,9.6151138671875,10.0439108159561
1.9796070629196716,-0.45489831542968745,2.9927520751953125,9.552864624023437,10.021013920052454
1.982094006466053,-0.2154781494140625,3.1651345947265623,9.605537060546874,10.115871196152572
1.9845809500124345,0.047884033203124995,3.327940307617187,9.572018237304688,10.134150813313985
1.9870678935588162,0.2442085693359375,3.438073583984375,9.576806640625,10.178173373751665
1.9895548371051976,0.44532150878906246,3.5242648437499997,9.581595043945311,10.218890229434884
1.992041780651579,0.6416460449218749,3.6343981201171873,9.624690673828125,10.308017748789014
1.9945287241979606,0.8092401611328125,3.6487633300781246,9.600748657226562,10.302558820824597
1.997015667744342,0.8954314208984374,3.6296097167968746,9.533711010742186,10.24048386367291
1.9995026112907235,0.93852705078125,3.6200329101562496,9.495403784179686,10.205300795188567
2.001989554837105,0.9576806640625,3.5290532470703124,9.471461767578125,10.152830003977751
2.0044764983834864,0.9433154541015625,3.4524387939453125,9.509768994140625,10.160948971124881
2.006963441929868,0.8714894042968749,3.3327287109375,9.428366137695312,10.037961071300709
2.0094503854762498,0.74699091796875,3.1364041748046874,9.447519750976562,9.982517519361151
2.011937329022631,0.622492431640625,3.0310593017578125,9.428366137695312,9.923149970884348
2.0144242725690127,0.469263525390625,2.91134921875,9.404424121093749,9.855929970286326
2.016911216115394,0.229843359375,2.6767174560546874,9.428366137695312,9.803659129928798
2.0193981596617756,0.0047884033203125,2.4516625,9.289502441406249,9.607576570166135
2.021885103208157,-0.27293898925781246,2.308010400390625,9.332598071289063,9.617629357611817
2.0243720467545385,-0.5027823486328125,2.0973206542968748,9.380482104492186,9.625226674200206
2.02685899030092,-0.7326257080078125,1.9871873779296874,9.3086560546875,9.54655600976118
2.0293459338473014,-0.9433154541015625,1.7812860351562498,9.299079248046874,9.515024899938282
2.031832877393683,-1.22583125,1.6424223388671875,9.327809667968749,9.550300864084743
2.0343198209400644,-1.426944189453125,1.5753846923828123,9.303867651367186,9.543582132667215
2.036806764486446,-1.6041151123046875,1.4604630126953124,9.361328491210937,9.609402095101078
2.0392937080328277,-1.7429788085937499,1.4413093994140624,9.332598071289063,9.60274620472053
2.041780651579209,-1.8770541015625,1.388636962890625,9.370905297851563,9.657407044139807
2.0442675951255906,-1.9728221679687499,1.4173673828125,9.375693701171874,9.68527696983848
2.046754538671972,-2.0063409912109376,1.484405029296875,9.361328491210937,9.688309118952223
2.0492414822183536,-1.9584569580078124,1.5705962890624998,9.356540087890625,9.687474840013284
2.0517284257647352,-1.8914193115234375,1.66636435546875,9.418789331054686,9.75027331103955
2.0542153693111165,-1.8052280517578123,1.8291700683593748,9.466673364257812,9.809312720235983
2.056702312857498,-1.656787548828125,1.9201497314453124,9.485826977539062,9.81900368779487
2.0591892564038794,-1.5035586425781249,2.1356278808593747,9.504980590820312,9.857294307721876
2.061676199950261,-1.2832920898437499,2.31758720703125,9.557653027343749,9.918002845388964
2.0641631434966423,-1.0582371337890624,2.5426421630859375,9.524134204101562,9.914334437498551
2.066650087043024,-0.7948749511718749,2.7341782958984373,9.576806640625,9.991135199449642
2.0691370305894057,-0.5889736083984375,2.91134921875,9.600748657226562,10.049737258463216
2.071623974135787,-0.3399766357421875,3.0406361083984375,9.605537060546874,10.081041329053583
2.0741109176821686,-0.11013327636718749,3.1938650146484373,9.581595043945311,10.100488436531968
2.07659786122855,0.13407529296874998,3.3710359375,9.605537060546874,10.180776085232434
2.0790848047749315,0.3495534423828125,3.4763808105468748,9.581595043945311,10.198743782210512
2.081571748321313,0.5698199951171875,3.5769372802734374,9.610325463867188,10.270225443255828
2.0840586918676944,0.70868369140625,3.6200329101562496,9.586383447265625,10.271592789976046
2.086545635414076,0.852335791015625,3.6583401367187496,9.567229833984374,10.278220446792055
2.0890325789604574,0.9002198242187499,3.6296097167968746,9.552864624023437,10.25873700574789
2.091519522506839,0.9433154541015625,3.5960908935546874,9.528922607421874,10.22849352636494
2.0940064660532203,0.9624690673828125,3.5098996337890624,9.528922607421874,10.20029941732972
2.096493409599602,0.9576806640625,3.414131567382812,9.481038574218749,10.122427527996576
2.0989803531459836,0.852335791015625,3.246537451171875,9.471461767578125,10.048635217640351
2.101467296692365,0.6847416748046875,3.0789433349609374,9.457096557617186,9.969224569704984
2.1039542402387466,0.507570751953125,2.9735984619140625,9.442731347656249,9.912875021150318
2.106441183785128,-2.7437551025390623,10.079588989257813,10.199299072265624,14.599726292660247
2.1089281273315095,-1.2785036865234374,9.581595043945311,10.103531005859374,13.982949404505943
2.111415070877891,0.086191259765625,8.920795385742187,9.95987890625,13.37113335041958
2.1139020144242724,1.2306196533203124,8.092401611328125,9.777919580078125,12.751827315512056
2.116388957970654,2.24097275390625,7.196970190429687,9.629479077148437,12.228867735932187
2.1188759015170353,3.0358477050781247,6.186617089843749,9.543287817382812,11.771361207191887
2.121362845063417,3.6296097167968746,5.123591552734375,9.423577734375,11.32382772790745
2.1238497886097982,3.9743747558593747,4.11802685546875,9.284714038085937,10.9068654824108
2.12633673215618,4.170699291992188,3.1076737548828124,9.222464794921875,10.588022744808633
2.1288236757025616,4.165910888671875,2.1452046874999997,9.074024291992187,10.212474408060524
2.131310619248943,4.046200805664062,1.407790576171875,9.050082275390624,10.012871938532639
2.1337975627953245,3.7110125732421873,0.63206923828125,9.011775048828124,9.766433093582538
2.1362845063417057,3.347093920898437,0.062249243164062495,8.939948999023438,9.546182524377476
2.1387714498880874,2.825157958984375,-0.430956298828125,8.992621435546875,9.435808450141913
2.141258393434469,2.288856787109375,-0.7422025146484375,8.987833032226561,9.304346972239912
2.1437453369808503,1.70467158203125,-0.9528922607421875,9.0021982421875,9.211594978873691
2.146232280527232,1.1348515869140625,-0.9624690673828125,9.045293872070312,9.166873843470459
2.1487192240736133,0.5889736083984375,-0.9097966308593749,9.107543115234375,9.171802517322645
2.151206167619995,0.0526724365234375,-0.718260498046875,9.160215551757812,9.188483089351013
2.153693111166376,-0.45010991210937495,-0.4165910888671875,9.241618408203124,9.26194676464627
2.156180054712758,-0.9145850341796874,-0.11013327636718749,9.270348828125,9.316005716959785
2.1586669982591395,-1.20667763671875,0.3112462158203125,9.366116894531249,9.448655502654507
2.161153941805521,-1.4796166259765624,0.842758984375,9.437942944335937,9.590321949035472
2.1636408853519025,-1.714248388671875,1.2976572998046874,9.519345800781249,9.759124268122223
2.1661278288982837,-1.8052280517578123,1.867477294921875,9.572018237304688,9.918157737261268
2.1686147724446654,-1.8339584716796873,2.3127988037109373,9.605537060546874,10.048820040374487
2.171101715991047,-1.8148048583984373,2.7581203125,9.677363110351562,10.225072180766498
2.1735886595374283,-1.6903063720703124,3.19865341796875,9.65342109375,10.309076492732125
2.17607560308381,-1.6232687255859375,3.6056677001953124,9.710881933593749,10.485087927523288
2.178562546630191,-1.3934253662109375,3.8690298828125,9.682151513671874,10.519272047960103
2.181049490176573,-1.2497732666015624,4.027047192382812,9.658209497070311,10.538503356591455
2.1835364337229546,-1.0199299072265624,4.290409374999999,9.677363110351562,10.634812005406411
2.186023377269336,-0.8092401611328125,4.3622354248046875,9.686939916992188,10.654612733235677
2.1885103208157175,-0.612915625,4.4196962646484375,9.658209497070311,10.639097298380895
2.1909972643620987,-0.469263525390625,4.314351391601562,9.557653027343749,10.496788441117097
2.1934842079084804,-0.2920926025390625,4.199429711914062,9.576806640625,10.46115449774468
2.1959711514548617,-0.1867477294921875,4.046200805664062,9.5384994140625,10.36289470883004
2.1984580950012433,-0.105344873046875,3.854664672851562,9.519345800781249,10.270709895487201
2.200945038547625,-0.076614453125,3.5960908935546874,9.447519750976562,10.10907359426307
2.2034319820940063,-0.06703764648437499,3.327940307617187,9.414000927734374,9.985143674704586
2.205918925640388,-0.086191259765625,2.9735984619140625,9.414000927734374,9.872848130774692
2.208405869186769,-0.19153613281249998,2.748543505859375,9.380482104492186,9.776738822658231
2.210892812733151,-0.229843359375,2.418143676757812,9.337386474609374,9.648162155950255
2.2133797562795325,-0.36391865234375,2.1739351074218747,9.34696328125,9.60334073215362
2.2158666998259138,-0.4836287353515625,1.9201497314453124,9.323021264648437,9.530980917298816
2.2183536433722955,-0.622492431640625,1.6903063720703124,9.327809667968749,9.500140296898916
2.2208405869186767,-0.7805097412109374,1.455674609375,9.318232861328125,9.463490248446371
2.2233275304650584,-0.9050082275390624,1.3551181396484375,9.303867651367186,9.445493017226491
2.2258144740114396,-1.005564697265625,1.2785036865234374,9.351751684570312,9.492154213175457
2.2283014175578213,-4.209006518554688,8.494627490234375,10.13226142578125,13.875775786292316
2.230788361104203,-2.6001030029296874,8.2360537109375,10.060435375976562,13.259165747115917
2.233275304650584,-1.0630255371093749,7.809885815429687,9.931148486328125,12.678803176960114
2.235762248196966,0.3447650390625,7.240065820312499,9.868899243164062,12.244696332957435
2.238249191743347,1.5562310791015623,6.56968935546875,9.6917283203125,11.811531282338812
2.240736135289729,2.6431986328124997,5.9376201171875,9.639055883789062,11.625542137867813
2.2432230788361105,3.5913024902343746,5.257666845703125,9.533711010742186,11.46438658948294
2.2457100223824917,4.285620971679688,4.496310717773437,9.4618849609375,11.318596388142845
2.2481969659288734,4.80755693359375,3.859453076171875,9.34696328125,11.197039979296031
2.2506839094752547,5.0948611328124995,3.2800562744140622,9.337386474609374,11.131179870174797
2.2531708530216363,5.267243652343749,2.6767174560546874,9.299079248046874,11.017329390290525
2.2556577965680176,5.286397265624999,2.1499930908203124,9.212887988281249,10.837240028032943
2.2581447401143993,5.109226342773437,1.714248388671875,9.217676391601563,10.677471583668249
2.260631683660781,4.797980126953124,1.3838485595703125,9.193734375,10.462332526378551
2.263118627207162,4.3622354248046875,1.0821791503906248,9.179369165039063,10.220617783824569
2.265605570753544,3.873818286132812,0.8762778076171874,9.179369165039063,10.001757304502508
2.268092514299925,3.35188232421875,0.7038952880859375,9.188945971679686,9.80649334688236
2.2705794578463068,2.6575638427734374,0.70868369140625,9.141061938476563,9.54588348535361
2.2730664013926885,2.0446482177734375,0.7326257080078125,9.212887988281249,9.465444091382874
2.2755533449390697,1.4317325927734375,0.7709329345703124,9.255983618164063,9.397735288171106
2.2780402884854514,0.74699091796875,0.8858546142578124,9.294290844726563,9.366246640757312
2.2805272320318326,0.1388636962890625,0.9911994873046874,9.279925634765624,9.333744122085214
2.2830141755782143,-0.488417138671875,1.1635820068359375,9.303867651367186,9.389058933787641
2.2855011191245955,-1.01514150390625,1.3215993164062498,9.332598071289063,9.480217496782805
2.287988062670977,-1.5275006591796874,1.5275006591796874,9.370905297851563,9.616672118196151
2.290475006217359,-1.93451494140625,1.70467158203125,9.414000927734374,9.760720604980587
2.29296194976374,-2.31758720703125,1.8243816650390623,9.404424121093749,9.856103285342313
2.295448893310122,-2.6384102294921874,2.01112939453125,9.457096557617186,10.022101839471175
2.297935836856503,-2.858676782226562,2.1356278808593747,9.418789331054686,10.072066910695872
2.3004227804028847,-3.0262708984374997,2.1787235107421874,9.471461767578125,10.17908344113971
2.3029097239492664,-3.0645781249999997,2.346317626953125,9.495403784179686,10.249855536318224
2.3053966674956476,-3.1268273681640624,2.39420166015625,9.481038574218749,10.266418237419447
2.3078836110420293,-3.0933085449218747,2.4899697265625,9.5001921875,10.296706201146096
2.3103705545884106,-3.0262708984374997,2.50912333984375,9.509768994140625,10.290273164848287
2.3128574981347922,-2.844311572265625,2.528276953125,9.457096557617186,10.194065330962031
2.315344441681174,-2.7198130859375,2.5713725830078125,9.495403784179686,10.206470163954581
2.317831385227555,-2.47081611328125,2.6144682128906247,9.509768994140625,10.167402943907758
2.320318328773937,-2.1930887207031247,2.6192566162109374,9.5384994140625,10.131787326553528
2.322805272320318,-1.89620771484375,2.6336218261718747,9.476250170898437,10.016530583119811
2.3252922158666998,-1.637633935546875,2.6910826660156246,9.524134204101562,10.031595245020695
2.327779159413081,-1.37906015625,2.6384102294921874,9.490615380859374,9.94659719507379
2.3302661029594627,-1.0103531005859374,2.7246014892578123,9.528922607421874,9.962160042950787
2.3327530465058444,-0.7038952880859375,2.7916391357421872,9.504980590820312,9.93143361618391
2.3352399900522256,-0.39743747558593745,2.844311572265625,9.519345800781249,9.943138807337242
2.3377269335986073,-0.1197100830078125,2.85388837890625,9.504980590820312,9.924901279866754
2.3402138771449885,0.143652099609375,2.887407202148437,9.519345800781249,9.948653212952618
2.34270082069137,0.43574470214843747,2.9448680419921875,9.533711010742186,9.987680755137507
2.345187764237752,0.6655880615234374,3.0502129150390624,9.5384994140625,10.036422538274495
2.347674707784133,0.8379705810546875,3.0406361083984375,9.533711010742186,10.041877726538813
2.350161651330515,1.0199299072265624,3.1507693847656246,9.5384994140625,10.097057779556488
2.352648594876896,1.1109095703125,3.1220389648437497,9.495403784179686,10.057034373811618
2.3551355384232777,1.177947216796875,3.1651345947265623,9.528922607421874,10.109698447853432
2.357622481969659,1.2210428466796874,3.1842882080078123,9.442731347656249,10.039711765239838
2.3601094255160406,1.22583125,3.1555577880859373,9.457096557617186,10.04474402399191
2.3625963690624223,1.1875240234375,3.1842882080078123,9.485826977539062,10.07625020261539
2.3650833126088036,1.1156979736328125,3.1028853515624997,9.514557397460937,10.069730976688907
2.3675702561551852,0.9433154541015625,3.0310593017578125,9.4618849609375,9.980201979455858
2.3700571997015665,0.82360537109375,3.0071172851562498,9.394847314453125,9.898698714268814
2.372544143247948,0.6416460449218749,2.8730419921875,9.414000927734374,9.863543653435121
2.37503108679433,0.40222587890625,2.7533319091796873,9.390058911132812,9.79366267615511
2.377518030340711,0.21068974609375,2.6862942626953124,9.399635717773437,9.778226764692102
2.3800049738870928,-0.028730419921875,2.5617957763671875,9.414000927734374,9.75638439711276
2.382491917433474,-0.3399766357421875,2.398990063476562,9.380482104492186,9.688352901820206
2.3849788609798557,-0.5506663818359374,2.250549560546875,9.327809667968749,9.611255900787018
2.387465804526237,-0.842758984375,2.1404162841796874,9.361328491210937,9.63981823976386
2.3899527480726186,-1.0486603271484374,2.0254946044921875,9.370905297851563,9.644489772707756
2.3924396916190003,-1.3120225097656248,1.886630908203125,9.327809667968749,9.606706639206294
2.3949266351653815,-1.4700398193359374,1.8052280517578123,9.361328491210937,9.64646756640192
2.397413578711763,-1.695094775390625,1.7334020019531249,9.332598071289063,9.64237603281266
2.3999005222581444,-1.8148048583984373,1.608903515625,9.337386474609374,9.647221018141709
2.402387465804526,-1.924938134765625,1.618480322265625,9.342174877929686,9.674765983012538
2.404874409350908,-2.0302830078125,1.618480322265625,9.332598071289063,9.687048797523502
2.407361352897289,-2.0446482177734375,1.675941162109375,9.452308154296874,9.815064674116202
2.4098482964436707,-2.0781670410156248,1.675941162109375,9.394847314453125,9.766816937523876
2.412335239990052,-1.9823989746093749,1.7621324218749999,9.428366137695312,9.794340426654312
2.4148221835364336,-1.9393033447265624,1.8148048583984373,9.423577734375,9.790721702343625
2.417309127082815,-1.7956512451171873,1.9488801513671874,9.457096557617186,9.821363069278048
2.4197960706291965,-1.6472107421875,2.0877438476562498,9.504980590820312,9.869986506296513
2.4222830141755782,-1.4604630126953124,2.221819140625,9.485826977539062,9.851413398741652
2.4247699577219595,-1.1731588134765625,2.384624853515625,9.5384994140625,9.901803288578945
2.427256901268341,-0.9864110839843749,2.5378537597656248,9.519345800781249,9.90109352583922
2.4297438448147224,-0.7565677246093749,2.6958710693359373,9.557653027343749,9.959359765341155
2.432230788361104,-0.5123591552734374,2.877830395507812,9.519345800781249,9.95803013472809
2.4347177319074857,-0.26336218261718747,3.0214824951171875,9.595960253906249,10.063854594641208
2.437204675453867,-0.0383072265625,3.189076611328125,9.591171850585937,10.107534543299817
2.4396916190002487,0.19153613281249998,3.303998291015625,9.557653027343749,10.114436325782078
2.44217856254663,0.45010991210937495,3.423708374023437,9.605537060546874,10.207385570501234
2.4446655060930116,0.6081272216796875,3.4955344238281247,9.610325463867188,10.244361139054467
2.4471524496393933,0.7661445312499999,3.5338416503906247,9.581595043945311,10.241190254992686
2.4496393931857745,0.8283937744140625,3.5146880371093747,9.557653027343749,10.217044564588178
2.452126336732156,0.9624690673828125,3.5482068603515624,9.514557397460937,10.200143190126955
2.4546132802785374,0.9959878906249999,3.5051112304687497,9.476250170898437,10.152689984318563
2.457100223824919,1.01514150390625,3.4428619873046875,9.495403784179686,10.151182392273057
2.4595871673713003,0.9002198242187499,3.327940307617187,9.490615380859374,10.097393858337117
2.462074110917682,0.86191259765625,3.246537451171875,9.442731347656249,10.02237866236704
2.4645610544640637,0.7134720947265625,3.1124621582031247,9.399635717773437,9.927215860604731
2.467047998010445,0.55545478515625,2.9640216552734375,9.414000927734374,9.8852095505693
2.4695349415568266,0.354341845703125,2.7533319091796873,9.394847314453125,9.796404994058303
2.472021885103208,0.17238251953125,2.6431986328124997,9.375693701171874,9.742681721360693
2.4745088286495895,-0.11013327636718749,2.446874096679687,9.375693701171874,9.690353686102451
2.4769957721959712,-0.33518823242187495,2.1978771240234374,9.356540087890625,9.617060747430264
2.4794827157423525,-2.7150246826171873,9.208099584960937,10.09395419921875,13.930124492254338
2.481969659288734,-1.2880804931640624,8.628702783203124,10.026916552734374,13.291076654403348
2.4844566028351154,-0.06703764648437499,7.924807495117187,9.82580361328125,12.623529004501181
2.486943546381497,1.0199299072265624,7.096413720703125,9.715670336914062,12.074501845071314
2.4894304899278783,1.9680337646484374,6.205770703124999,9.600748657226562,11.59996214208471
2.49191743347426,2.7246014892578123,5.310339282226562,9.490615380859374,11.211375333786169
2.4944043770206417,3.2704794677734372,4.314351391601562,9.361328491210937,10.814071157510458
2.496891320567023,3.6152445068359373,3.4428619873046875,9.270348828125,10.5291338154168
2.4993782641134046,3.8690298828125,2.6144682128906247,9.208099584960937,10.324433845827548
2.501865207659786,3.873818286132812,1.7477672119140624,9.121908325195312,10.063318033048859
2.5043521512061675,3.787627026367187,1.1540052001953125,9.102754711914063,9.926630336535084
2.506839094752549,3.5865140869140624,0.59376201171875,9.02135185546875,9.726275028106224
2.5093260382989304,3.284844677734375,0.12449848632812499,9.030928662109375,9.610586711020638
2.511812981845312,2.863465185546875,-0.16280571289062498,9.045293872070312,9.489113752142586
2.5142999253916933,2.4133552734375,-0.33039982910156246,9.045293872070312,9.367539108806094
2.516786868938075,1.9393033447265624,-0.45968671875,9.069235888671875,9.28564747051258
2.5192738124844563,1.4317325927734375,-0.3495534423828125,9.150638745117186,9.268561661332964
2.521760756030838,0.967257470703125,-0.2920926025390625,9.145850341796875,9.20149355146408
2.5242476995772196,0.507570751953125,0.0143652099609375,9.265560424804686,9.279463584345933
2.526734643123601,0.076614453125,0.296881005859375,9.255983618164063,9.261060460108725
2.5292215866699825,-0.2920926025390625,0.6560112548828124,9.318232861328125,9.345861785460253
2.5317085302163638,-0.603338818359375,1.1540052001953125,9.433154541015625,9.522612578830497
2.5341954737627455,-0.9528922607421875,1.1635820068359375,9.629479077148437,9.746219474465686
2.536682417309127,-1.0965443603515623,1.9393033447265624,9.548076220703125,9.80454315679435
2.5391693608555084,-1.22583125,2.379836450195312,9.567229833984374,9.934695288705912
2.54165630440189,-1.3455413330078123,2.729389892578125,9.562441430664062,10.034955743769906
2.5441432479482713,-1.3934253662109375,3.0837317382812497,9.605537060546874,10.184172912240967
2.546630191494653,-1.3838485595703125,3.380612744140625,9.634267480468749,10.30352800000507
2.549117135041034,-1.3934253662109375,3.5673604736328124,9.591171850585937,10.327549199471765
2.551604078587416,-1.3072341064453123,3.7397429931640622,9.629479077148437,10.412560009969358
2.5540910221337976,-1.2641384765625,3.8690298828125,9.6151138671875,10.441161477584917
2.556577965680179,-1.1923124267578125,3.897760302734375,9.576806640625,10.408139590363504
2.5590649092265605,-1.120486376953125,3.907337109375,9.548076220703125,10.37730853948137
2.5615518527729417,-1.0486603271484374,3.840299462890625,9.576806640625,10.371249388493759
2.5640387963193234,-0.9864110839843749,3.7014357666015623,9.543287817382812,10.28338348629923
2.566525739865705,-0.9097966308593749,3.5194764404296874,9.485826977539062,10.158511592357936
2.5690126834120863,-0.93852705078125,3.308786694335937,9.485826977539062,10.09008502746486
2.571499626958468,-0.8906430175781249,3.1268273681640624,9.442731347656249,9.986764725328742
2.5739865705048492,-0.8762778076171874,2.8730419921875,9.437942944335937,9.90439297006816
2.576473514051231,-0.8475473876953125,2.710236279296875,9.342174877929686,9.764217772757153
2.5789604575976126,-0.8762778076171874,2.35589443359375,9.356540087890625,9.688289002433025
2.581447401143994,-0.9145850341796874,2.1595698974609374,9.332598071289063,9.622764399432901
2.5839343446903755,-0.948103857421875,1.9967641845703124,9.318232861328125,9.57681741452641
2.5864212882367568,-0.9864110839843749,1.8291700683593748,9.351751684570312,9.579881499029762
2.5889082317831384,-0.9433154541015625,1.7094599853515624,9.366116894531249,9.56745750810991
2.5913951753295197,-1.0199299072265624,1.618480322265625,9.327809667968749,9.521962443271212
2.5938821188759014,-1.024718310546875,1.5370774658203123,9.366116894531249,9.54655961244292
2.596369062422283,-0.9911994873046874,1.5179238525390624,9.390058911132812,9.563460440671296
2.5988560059686643,-1.01514150390625,1.5370774658203123,9.337386474609374,9.517347612917357
2.601342949515046,-0.948103857421875,1.66636435546875,9.418789331054686,9.611933393049735
2.603829893061427,-0.8906430175781249,1.714248388671875,9.423577734375,9.619548317807498
2.606316836607809,-0.8188169677734375,1.7812860351562498,9.433154541015625,9.63472084496692
2.6088037801541906,-3.8690298828125,9.279925634765624,10.333374365234375,14.417525369943316
2.611290723700572,-2.0159177978515626,9.203311181640624,10.228029492187499,13.9060220252545
2.6137776672469535,-0.32561142578124996,8.920795385742187,10.146626635742187,13.514460595970199
2.6162646107933347,1.254561669921875,8.451531860351562,10.031704956054687,13.177155235311865
2.6187515543397164,2.6671406494140624,7.934384301757812,9.969455712890625,13.017608870411847
2.6212384978860976,3.845087866210937,7.287949853515625,9.797073193359374,12.80162321435379
2.6237254414324793,4.797980126953124,6.507440112304687,9.629479077148437,12.57355388945817
2.626212384978861,5.5258174316406246,5.736507177734374,9.524134204101562,12.415768410604262
2.6286993285252422,6.042964990234375,5.027823486328125,9.414000927734374,12.264576973962646
2.631186272071624,6.339845996093749,4.242525341796875,9.356540087890625,12.072179212813191
2.633673215618005,6.37815322265625,3.5338416503906247,9.251195214843749,11.77936705620738
2.636160159164387,6.2201359130859375,2.77727392578125,9.193734375,11.442381438937547
2.6386471027107685,5.904101293945312,2.1308394775390624,9.145850341796875,11.092586147637153
2.6411340462571498,5.42047255859375,1.5562310791015623,9.131485131835937,10.73253924488377
2.6436209898035314,4.7931917236328125,1.0486603271484374,9.083601098632812,10.324058518834557
2.6461079333499127,4.007893579101562,0.5889736083984375,9.016563452148437,9.88476187570608
2.6485948768962944,3.2130186279296873,0.3064578125,9.045293872070312,9.603892248790498
2.6510818204426756,2.408566870117187,0.0430956298828125,9.054870678710937,9.369831087555431
2.6535687639890573,1.5179238525390624,-0.11013327636718749,9.0788126953125,9.205490867804814
2.656055707535439,0.612915625,-0.181959326171875,9.064447485351561,9.08696775467187
2.65854265108182,-0.26815058593749996,-0.24899697265624998,9.09796630859375,9.105322354614227
2.661029594628202,-1.0295067138671874,-0.16280571289062498,9.13627353515625,9.195536084603436
2.663516538174583,-1.7908628417968748,-0.033518823242187495,9.188945971679686,9.361893040410612
2.666003481720965,-2.43250888671875,0.1005564697265625,9.212887988281249,9.529140369004251
2.6684904252673465,-2.987963671875,0.316034619140625,9.260772021484375,9.73600037072965
2.6709773688137277,-3.4524387939453125,0.5267243652343749,9.327809667968749,9.960160911587794
2.6734643123601094,-3.7301661865234372,0.833182177734375,9.399635717773437,10.146993837941322
2.6759512559064906,-4.00310517578125,1.1013327636718748,9.394847314453125,10.27136509752189
2.6784381994528723,-4.074931225585937,1.4125789794921875,9.471461767578125,10.407162527858045
2.6809251429992536,-4.089296435546875,1.695094775390625,9.5001921875,10.480903741317778
2.6834120865456352,-4.0222587890625,2.039859814453125,9.548076220703125,10.559609526169409
2.685899030092017,-3.816357446289062,2.3127988037109373,9.586383447265625,10.574136847152163
2.688385973638398,-3.5865140869140624,2.6048914062499997,9.595960253906249,10.570288346518112
2.69087291718478,-3.208230224609375,2.825157958984375,9.6151138671875,10.522579215491383
2.693359860731161,-2.8012159423828122,3.0741549316406247,9.605537060546874,10.46726236993845
2.6958468042775428,-2.327164013671875,3.318363500976562,9.634267480468749,10.452097328113648
2.6983337478239244,-1.85790048828125,3.4572271972656248,9.658209497070311,10.425220611918387
2.7008206913703057,-1.3742717529296875,3.6583401367187496,9.686939916992188,10.44551963103054
2.7033076349166874,-0.9193734375,3.754108203125,9.677363110351562,10.420649340993307
2.7057945784630686,-0.4261678955078125,3.83072265625,9.65342109375,10.394450151764934
2.7082815220094503,0.05746083984375,3.912125512695312,9.658209497070311,10.420606434584133
2.7107684655558315,0.43574470214843747,3.9504327392578125,9.591171850585937,10.382021466955386
2.713255409102213,0.842758984375,3.9791631591796874,9.619902270507811,10.444448374482924
2.715742352648595,1.16837041015625,3.9360675292968748,9.572018237304688,10.41543326731094
2.718229296194976,1.3934253662109375,3.84987626953125,9.562441430664062,10.402089581270703
2.720716239741358,1.599326708984375,3.749319799804687,9.476250170898437,10.31574341406042
2.723203183287739,1.7812860351562498,3.7301661865234372,9.519345800781249,10.378105038636729
2.7256901268341207,1.7764976318359373,3.5721488769531247,9.447519750976562,10.255331339363366
2.7281770703805024,1.8243816650390623,3.418919970703125,9.471461767578125,10.233570747324586
2.7306640139268836,1.7621324218749999,3.2225954345703123,9.466673364257812,10.154217675069054
2.7331509574732653,1.5945383056640625,3.0214824951171875,9.4618849609375,10.059780111441047
2.7356379010196465,1.39821376953125,2.849099975585937,9.409212524414063,9.930037902534966
2.7381248445660282,1.2114660400390624,2.6527754394531247,9.404424121093749,9.846220622540589
2.74061178811241,0.9097966308593749,2.480392919921875,9.34696328125,9.713176696002055
2.743098731658791,0.6081272216796875,2.2553379638671873,9.337386474609374,9.625131387426695
2.745585675205173,0.2825157958984375,2.1068974609374997,9.327809667968749,9.566967402875807
2.748072618751554,-0.06703764648437499,1.944091748046875,9.318232861328125,9.519109749803574
2.7505595622979357,-0.4070142822265625,1.7717092285156248,9.318232861328125,9.49389687506027
2.753046505844317,-0.7613561279296874,1.675941162109375,9.294290844726563,9.474823704890587
2.7555334493906987,-1.0438719238281249,1.5897499023437498,9.318232861328125,9.510333169941731
2.7580203929370803,-1.3407529296874998,1.4796166259765624,9.323021264648437,9.534443312507491
2.7605073364834616,-1.6136919189453125,1.39821376953125,9.361328491210937,9.601743303949227
2.7629942800298433,-1.8531120849609375,1.350329736328125,9.318232861328125,9.596190830437648
2.7654812235762245,-2.020706201171875,1.3455413330078123,9.394847314453125,9.703447381841878
2.767968167122606,-2.1499930908203124,1.3646949462890625,9.3852705078125,9.724616449599289
2.770455110668988,-2.2840683837890623,1.4125789794921875,9.370905297851563,9.748138994517387
2.772942054215369,-2.3127988037109373,1.5370774658203123,9.418789331054686,9.819635324449116
2.775428997761751,-2.2744915771484373,1.6328455322265625,9.423577734375,9.8307331253798
2.777915941308132,-2.250549560546875,1.7860744384765623,9.457096557617186,9.88391170156593
2.7804028848545137,-2.0925322509765625,1.9105729248046874,9.490615380859374,9.90458279938021
2.782889828400895,-1.9536685546875,2.1116858642578125,9.5384994140625,9.962881565237623
2.7853767719472766,-1.7525556152343749,2.2649147705078123,9.509768994140625,9.931616002648934
2.7878637154936583,-1.5275006591796874,2.499546533203125,9.5384994140625,9.978174292299808
2.7903506590400395,-1.2785036865234374,2.5905261962890624,9.543287817382812,9.970944790516146
2.792837602586421,-1.0103531005859374,2.77727392578125,9.581595043945311,10.027014881451278
2.7953245461328025,-0.6847416748046875,3.0023288818359375,9.576806640625,10.059725409166974
2.797811489679184,-0.44532150878906246,3.0885201416015624,9.557653027343749,10.054153335928483
2.800298433225566,-0.1484405029296875,3.2800562744140622,9.605537060546874,10.151214014479873
2.802785376771947,0.1388636962890625,3.4572271972656248,9.667786303710937,10.268290755227033
2.8052723203183287,0.39264907226562495,3.4715924072265625,9.581595043945311,10.198680832442083
2.80775926386471,0.6081272216796875,3.6104561035156246,9.567229833984374,10.243881036474495
2.8102462074110917,0.7661445312499999,3.6343981201171873,9.562441430664062,10.258465443386559
2.812733150957473,0.9337386474609375,3.6248213134765623,9.552864624023437,10.260039958075922
2.8152200945038546,1.0534487304687499,3.5769372802734374,9.543287817382812,10.245905372398447
2.8177070380502363,1.120486376953125,3.6008792968749996,9.586383447265625,10.301483826595511
2.8201939815966175,1.1061211669921875,3.5003228271484375,9.5384994140625,10.220505613833165
2.822680925142999,1.0821791503906248,3.438073583984375,9.514557397460937,10.174392569191046
2.8251678686893804,1.0007762939453124,3.2704794677734372,9.457096557617186,10.05655330815411
2.827654812235762,0.8714894042968749,3.0980969482421874,9.452308154296874,9.985180415310303
2.8301417557821438,0.74699091796875,2.920926025390625,9.442731347656249,9.912364984267985
2.832628699328525,0.51714755859375,2.8012159423828122,9.390058911132812,9.81261732198723
2.8351156428749067,0.2825157958984375,2.6144682128906247,9.380482104492186,9.742109818917347
2.837602586421288,0.05746083984375,2.389413256835937,9.356540087890625,9.656989172426528
2.8400895299676696,-0.21068974609375,2.2266075439453124,9.366116894531249,9.62945050383909
2.842576473514051,-0.49320554199218747,2.0350714111328125,9.351751684570312,9.583320245349498
2.8450634170604325,-0.7230489013671875,1.867477294921875,9.356540087890625,9.568443634004504
2.847550360606814,-1.024718310546875,1.7334020019531249,9.323021264648437,9.538000609007744
2.8500373041531954,-1.2593500732421874,1.6041151123046875,9.275137231445312,9.4967004039636
2.852524247699577,-1.4508862060546874,1.5131354492187499,9.327809667968749,9.56047503382826
2.8550111912459584,-1.66636435546875,1.465251416015625,9.337386474609374,9.597422469263853
2.85749813479234,-1.8291700683593748,1.4030021728515625,9.318232861328125,9.599153186294267
2.8599850783387217,-1.9201497314453124,1.426944189453125,9.370905297851563,9.67145339710046
2.862472021885103,-1.9871873779296874,1.4700398193359374,9.366116894531249,9.686799080576616
2.8649589654314846,-2.0302830078125,1.4508862060546874,9.380482104492186,9.70672778991098
2.867445908977866,-2.0159177978515626,1.599326708984375,9.433154541015625,9.777841023684584
2.8699328525242476,-1.9105729248046874,1.70467158203125,9.457096557617186,9.797595082655564
2.8724197960706292,-1.8243816650390623,1.9105729248046874,9.490615380859374,9.851418053667805
2.8749067396170105,-1.6998831787109374,2.0063409912109376,9.504980590820312,9.862031384362378
2.877393683163392,-1.4939818359375,2.1787235107421874,9.504980590820312,9.865266032613757
2.8798806267097734,-1.2593500732421874,2.35589443359375,9.562441430664062,9.928569247585157
2.882367570256155,-1.0773907470703123,2.5617957763671875,9.528922607421874,9.925922349077752
2.8848545138025363,-0.7805097412109374,2.767697119140625,9.572018237304688,9.994642361521398
2.887341457348918,-0.6081272216796875,2.863465185546875,9.581595043945311,10.018793099607567
2.8898284008952997,-0.3399766357421875,3.0789433349609374,9.572018237304688,10.060765841030419
2.892315344441681,-0.05746083984375,3.2609026611328122,9.619902270507811,10.157721575610347
2.8948022879880626,0.1867477294921875,3.366247534179687,9.567229833984374,10.14388406243496
2.897289231534444,0.38786066894531246,3.4955344238281247,9.600748657226562,10.224655083958567
2.8997761750808255,0.5410895751953124,3.5529952636718747,9.557653027343749,10.211037394072795
2.902263118627207,0.7422025146484375,3.6391865234374996,9.524134204101562,10.222703921314404
2.9047500621735884,0.9002198242187499,3.6152445068359373,9.591171850585937,10.28936178990689
2.90723700571997,0.9720458740234375,3.6152445068359373,9.562441430664062,10.269135900371266
2.9097239492663514,0.9576806640625,3.5242648437499997,9.543287817382812,10.21821595527412
2.912210892812733,0.9528922607421875,3.5386300537109374,9.533711010742186,10.213792241569996
2.9146978363591143,0.9097966308593749,3.404554760742187,9.495403784179686,10.128248419792499
2.917184779905496,0.8762778076171874,3.2704794677734372,9.4618849609375,10.0494360916056
2.9196717234518776,0.7230489013671875,3.1220389648437497,9.409212524414063,9.939980248539802
2.922158666998259,0.5746083984375,2.9927520751953125,9.433154541015625,9.913180336795275
2.9246456105446406,0.3399766357421875,2.7533319091796873,9.366116894531249,9.768345120693747
2.927132554091022,0.143652099609375,2.5809493896484375,9.390058911132812,9.739360452934964
2.9296194976374035,-0.05746083984375,2.4133552734375,9.342174877929686,9.649031913812115
2.932106441183785,-0.32082302246093747,2.1978771240234374,9.337386474609374,9.59793610315596
2.9345933847301664,-0.5889736083984375,2.0302830078125,9.356540087890625,9.592381425876807
2.937080328276548,-0.8283937744140625,1.838746875,9.284714038085937,9.501217873769674
2.9395672718229293,-1.0630255371093749,1.7381904052734374,9.356540087890625,9.57581179816289
2.942054215369311,-1.2976572998046874,1.608903515625,9.332598071289063,9.558758902208758
2.9445411589156922,-1.5275006591796874,1.455674609375,9.327809667968749,9.563486813606463
2.947028102462074,-1.656787548828125,1.484405029296875,9.3852705078125,9.64529448890851
2.9495150460084556,-1.8052280517578123,1.407790576171875,9.313444458007812,9.590671003512114
2.952001989554837,-1.886630908203125,1.3742717529296875,9.332598071289063,9.620051236605557
2.9544889331012185,-1.944091748046875,1.4413093994140624,9.380482104492186,9.687636967927805
2.9569758766475998,-1.9680337646484374,1.4939818359375,9.351751684570312,9.672662415011244
2.9594628201939814,-1.9201497314453124,1.618480322265625,9.437942944335937,9.76633096742431
2.961949763740363,-1.85790048828125,1.7381904052734374,9.457096557617186,9.79335363445205
2.9644367072867444,-1.7477672119140624,1.8770541015625,9.452308154296874,9.794087592574494
2.966923650833126,-1.5418658691406248,2.0973206542968748,9.548076220703125,9.896558179575237
2.9694105943795073,-1.3838485595703125,2.231395947265625,9.519345800781249,9.874821982403018
2.971897537925889,-1.197100830078125,2.408566870117187,9.557653027343749,9.92889601900901
2.97438448147227,-0.9864110839843749,2.5713725830078125,9.519345800781249,9.909738052143613
2.976871425018652,-0.7278373046875,2.77727392578125,9.557653027343749,9.979565571306814
2.9793583685650336,-0.469263525390625,2.9448680419921875,9.595960253906249,10.048627231396209
2.981845312111415,-0.2442085693359375,3.1028853515624997,9.567229833984374,10.060786352296669
2.9843322556577965,0.01915361328125,3.308786694335937,9.600748657226562,10.154940227729256
2.9868191992041777,0.2154781494140625,3.414131567382812,9.600748657226562,10.192011576303884
2.9893061427505594,0.44532150878906246,3.5098996337890624,9.624690673828125,10.254383318968374
2.991793086296941,0.6177040283203125,3.6008792968749996,9.6151138671875,10.285830285215068
2.9942800298433223,0.7805097412109374,3.5913024902343746,9.595960253906249,10.27565580520471
2.996766973389704,0.9050082275390624,3.6487633300781246,9.562441430664062,10.274862521986208
2.9992539169360852,0.97683427734375,3.5913024902343746,9.557653027343749,10.256724144328462
3.001740860482467,0.9720458740234375,3.5003228271484375,9.485826977539062,10.157659500262366
3.0042278040288486,0.967257470703125,3.4668040039062498,9.509768994140625,10.168088480046277
3.00671474757523,0.8906430175781249,3.342305517578125,9.485826977539062,10.09678981683791
3.0092016911216115,0.842758984375,3.208230224609375,9.481038574218749,10.044554560838712
3.0116886346679927,0.6655880615234374,3.0502129150390624,9.399635717773437,9.904542287332402
3.0141755782143744,0.507570751953125,2.882618798828125,9.394847314453125,9.840237561638574
3.0166625217607557,0.258573779296875,2.6815058593749996,9.356540087890625,9.736640924338673
3.0191494653071373,0.0383072265625,2.47081611328125,9.356540087890625,9.677357187040348
3.021636408853519,-0.181959326171875,2.29843359375,9.342174877929686,9.622480845971063
3.0241233523999003,-0.44053310546874996,2.1021090576171875,9.318232861328125,9.5625517287524
3.026610295946282,-0.7038952880859375,1.9488801513671874,9.361328491210937,9.58791288765914
3.029097239492663,-0.967257470703125,1.7860744384765623,9.3086560546875,9.52768211365601
3.031584183039045,-1.177947216796875,1.6472107421875,9.342174877929686,9.55913669347593
3.0340711265854265,-1.43652099609375,1.5035586425781249,9.327809667968749,9.55679414687482
3.036558070131808,-1.5514426757812498,1.5275006591796874,9.34696328125,9.59718475497192
3.0390450136781895,-1.7190367919921874,1.3838485595703125,9.332598071289063,9.589969295481398
3.0415319572245707,-1.8339584716796873,1.4030021728515625,9.351751684570312,9.632604961418046
3.0440189007709524,-1.89620771484375,1.47482822265625,9.3852705078125,9.687828677727092
3.0465058443173336,-1.9632453613281249,1.4939818359375,9.3852705078125,9.704103079610329
3.0489927878637153,-1.9297265380859374,1.5514426757812498,9.433154541015625,9.752703393557713
3.051479731410097,-1.9009961181640624,1.6472107421875,9.437942944335937,9.767387393310107
3.0539666749564782,-1.8195932617187498,1.8195932617187498,9.437942944335937,9.782464224147464
3.05645361850286,-1.675941162109375,1.9393033447265624,9.504980590820312,9.84450772124188
3.058940562049241,-1.4987702392578124,2.1308394775390624,9.504980590820312,9.855528658625811
3.061427505595623,-1.2785036865234374,2.3415292236328122,9.519345800781249,9.886115276307075
3.0639144491420045,-1.0773907470703123,2.4899697265625,9.548076220703125,9.926050552834543
3.0664013926883857,-2.6240450195312497,9.749189160156249,10.290278735351562,14.416037527568502
3.0688883362347674,-0.7278373046875,9.447519750976562,10.199299072265624,13.921604726205432
3.0713752797811487,0.9864110839843749,9.02135185546875,10.0748005859375,13.559476500705447
3.0738622233275303,2.50912333984375,8.508992700195313,9.94072529296875,13.323538421034947
3.0763491668739116,3.840299462890625,7.766790185546874,9.816226806640625,13.093098887215175
3.0788361104202933,4.917690209960937,7.043741284179687,9.6917283203125,12.950967767481714
3.081323053966675,5.7843912109375,6.2201359130859375,9.586383447265625,12.8081232058581
3.083809997513056,6.330269189453125,5.348646508789062,9.418789331054686,12.545673355771324
3.086296941059438,6.660669018554687,4.534617944335937,9.375693701171874,12.362479688720288
3.088783884605819,6.794744311523437,3.7014357666015623,9.236830004882812,12.049406853964257
3.091270828152201,6.6702458251953125,2.896984008789062,9.188945971679686,11.718422410297531
3.0937577716985825,6.358999609374999,2.1835119140624997,9.13627353515625,11.343548581466063
3.0962447152449637,5.832275244140624,1.5466542724609373,9.064447485351561,10.889067093954077
3.0987316587913454,5.228936425781249,0.97683427734375,9.006986645507812,10.46048707195854
3.1012186023377266,4.434061474609375,0.5027823486328125,9.011775048828124,10.056131501794958
3.1037055458841083,3.5625720703124997,0.1197100830078125,8.968679418945312,9.65108598966757
3.1061924894304895,2.6958710693359373,-0.19632453613281248,8.973467822265624,9.371733505771855
3.108679432976871,0.086191259765625,6.698976245117187,9.763554370117188,11.841060155414244
3.111166376523253,0.6943184814453125,6.191405493164062,9.677363110351562,11.509428174503368
3.113653320069634,1.2641384765625,5.5258174316406246,9.576806640625,11.12869847770476
3.116140263616016,1.6807295654296874,4.817133740234374,9.433154541015625,10.72445961053971
3.118627207162397,1.9680337646484374,4.0988732421875,9.3852705078125,10.428673034434057
3.1211141507087787,2.1356278808593747,3.42849677734375,9.313444458007812,10.151637516684527
3.1236010942551604,2.1691467041015624,2.767697119140625,9.236830004882812,9.883540524848238
3.1260880378015417,2.1356278808593747,2.0781670410156248,9.203311181640624,9.67370773808982
3.1285749813479233,1.93451494140625,1.5705962890624998,9.169792358398437,9.50232669707179
3.1310619248943046,-0.05746083984375,8.130708837890625,9.854534033203125,12.775897971032286
3.1335488684406863,1.2641384765625,7.287949853515625,9.758765966796874,12.245234679253684
3.136035811987068,2.39420166015625,6.368576416015625,9.639055883789062,11.798405209473605
3.138522755533449,3.337517114257812,5.382165332031249,9.490615380859374,11.40957950393823
3.141009699079831,4.046200805664062,4.458003491210937,9.356540087890625,11.126112461399522
3.143496642626212,4.5968671875,3.5865140869140624,9.284714038085937,10.963584541753542
3.1459835861725938,4.8650177734375,2.7581203125,9.217676391601563,10.781520470433504
3.148470529718975,5.05655390625,2.0063409912109376,9.169792358398437,10.662046401885886
3.1509574732653567,4.946420629882812,1.3072341064453123,9.121908325195312,10.458735561723113
3.1534444168117384,4.8314989501953125,0.842758984375,9.112331518554686,10.348343370584894
3.1559313603581196,4.4819455078125,0.44053310546874996,9.045293872070312,10.10441716202015
3.1584183039045013,4.103661645507812,0.1867477294921875,9.069235888671875,9.956201746632916
3.1609052474508825,3.6391865234374996,-0.028730419921875,9.088389501953124,9.78996055807222
3.163392190997264,3.1172505615234374,-0.1292868896484375,9.121908325195312,9.64070420957
3.165879134543646,2.5139117431640625,-0.08140285644531249,9.227253198242186,9.563920757823452
3.168366078090027,1.8914193115234375,0.076614453125,9.141061938476563,9.33500670323789
3.170853021636409,1.2737152832031249,0.229843359375,9.241618408203124,9.331810617203548
3.17333996518279,0.8044517578125,0.5698199951171875,9.3086560546875,9.360711244448963
3.1758269087291717,0.258573779296875,0.8379705810546875,9.375693701171874,9.41661762376741
3.178313852275553,-0.26336218261718747,1.139639990234375,9.394847314453125,9.467380577987841
3.1808007958219346,-0.6512228515624999,1.5562310791015623,9.437942944335937,9.587529055731686
3.1832877393683163,-1.0630255371093749,1.8722656982421875,9.442731347656249,9.685069821192359
3.1857746829146976,-1.3407529296874998,2.1835119140624997,9.495403784179686,9.835041216076952
3.1882616264610792,-1.6232687255859375,2.47081611328125,9.495403784179686,9.944979972113044
3.1907485700074605,-1.8243816650390623,2.729389892578125,9.548076220703125,10.096717147756236
3.193235513553842,-2.0063409912109376,2.916137622070312,9.524134204101562,10.160629662654006
3.195722457100224,-2.1068974609374997,3.1699229980468746,9.552864624023437,10.283221832157945
3.198209400646605,-2.1930887207031247,3.2609026611328122,9.581595043945311,10.356161831895815
3.2006963441929868,-2.1787235107421874,3.3327287109375,9.552864624023437,10.349451160418427
3.203183287739368,-2.1739351074218747,3.347093920898437,9.567229833984374,10.366335816617042
3.2056702312857497,-2.1643583007812497,3.303998291015625,9.543287817382812,10.328368405832649
3.208157174832131,-4.707000463867187,10.481814868164061,10.32379755859375,15.446847326497965
3.2106441183785126,-2.9735984619140625,9.993397729492187,10.17056865234375,14.565395727701826
3.2131310619248943,-1.3072341064453123,9.399635717773437,10.070012182617187,13.837165822304604
3.2156180054712755,0.19153613281249998,8.542511523437499,9.90241806640625,13.079337627728865
3.218104949017657,1.455674609375,7.666233715820312,9.753977563476562,12.491205156539674
3.2205918925640384,2.6192566162109374,6.598419775390624,9.624690673828125,11.959695619902076
3.22307883611042,0.47884033203125,12.7563064453125,10.304643945312499,16.405435959765487
3.225565779656802,2.863465185546875,11.473014355468749,9.988609326171874,15.479076443396703
3.228052723203183,4.8698061767578125,9.993397729492187,9.811438403320311,14.827249708599258
3.2305396667495647,6.545747338867187,8.398859423828124,9.591171850585937,14.33102317746313
3.233026610295946,7.829039428710937,6.76122548828125,9.423577734375,13.993278593507053
3.2355135538423276,8.75320126953125,5.2624552490234375,9.275137231445312,13.796381350739795
3.238000497388709,9.303867651367186,3.687070556640625,9.069235888671875,13.505831413436823
