Time (s),Acceleration x (m/s^2),Acceleration y (m/s^2),Acceleration z (m/s^2),Absolute acceleration (m/s^2)
0.0,0.82360537109375,1.8531120849609375,9.409212524414063,9.62526002434808
0.002486943546381497,0.8858546142578124,1.9536685546875,9.394847314453125,9.636634022368169
0.004973887092762994,0.9193734375,2.0781670410156248,9.361328491210937,9.633197646072764
0.007460830639144491,0.8714894042968749,2.1499930908203124,9.351751684570312,9.635207503849642
0.009947774185525988,0.8283937744140625,2.365471240234375,9.370905297851563,9.700286415109938
0.012434717731907486,0.718260498046875,2.461239306640625,9.394847314453125,9.738416356343288
0.014921661278288981,-3.81156904296875,-2.5378537597656248,9.236830004882812,10.30959692783271
0.01740860482467048,-2.327164013671875,-2.528276953125,9.141061938476563,9.765597271099056
0.019895548371051976,-1.01514150390625,-2.408566870117187,9.064447485351561,9.433764617345261
0.022382491917433474,0.22026655273437498,-2.1308394775390624,8.98304462890625,9.234938280151841
0.02486943546381497,1.3024457031249999,-1.656787548828125,8.930372192382812,9.175666585378137
0.027356379010196465,2.1308394775390624,-1.149216796875,8.916006982421875,9.238850395793527
0.029843322556577963,2.868253588867187,-0.612915625,8.963891015625,9.431536797013583
0.032330266102959464,3.394977954101562,0.1005564697265625,8.987833032226561,9.608180344249497
0.03481720964934096,3.6583401367187496,0.70868369140625,8.992621435546875,9.734111434201361
0.03730415319572245,3.821145849609375,1.3934253662109375,9.069235888671875,9.939508511971855
0.03979109674210395,3.825934252929687,2.0063409912109376,9.126696728515624,10.097513072784393
0.04227804028848545,3.6391865234374996,2.6048914062499997,9.188945971679686,10.220854458467382
0.04476498383486695,3.3327287109375,3.1459809814453124,9.279925634765624,10.349941873416629
0.04725192738124844,2.920926025390625,3.5817256835937497,9.303867651367186,10.388576466122592
0.04973887092762994,2.442085693359375,3.9600095458984375,9.375693701171874,10.466570140954067
0.05222581447401144,1.9201497314453124,4.266467358398438,9.457096557617186,10.551132356839416
0.05471275802039293,1.3407529296874998,4.390965844726562,9.476250170898437,10.529839351551074
0.05719970156677443,0.842758984375,4.520252734375,9.557653027343749,10.606208506316598
0.059686645113155926,0.239420166015625,4.510675927734375,9.591171850585937,10.601608218020951
0.062173588659537427,-0.2059013427734375,4.448426684570312,9.610325463867188,10.59194273268163
0.06466053220591893,-0.6703764648437499,4.338293408203125,9.667786303710937,10.617734518930856
0.06714747575230041,-1.0534487304687499,4.161122485351562,9.682151513671874,10.590975049518487
0.06963441929868192,-1.407790576171875,3.8690298828125,9.65342109375,10.494751324052986
0.07212136284506342,-1.637633935546875,3.6583401367187496,9.639055883789062,10.439190380177509
0.0746083063914449,-1.7812860351562498,3.366247534179687,9.662997900390625,10.386439756883352
0.0770952499378264,-1.8435352783203125,3.0837317382812497,9.634267480468749,10.282370040088633
0.0795821934842079,-1.8339584716796873,2.806004345703125,9.662997900390625,10.227931975081969
0.0820691370305894,-1.8148048583984373,2.5330653564453125,9.591171850585937,10.084667284623825
0.0845560805769709,-1.695094775390625,2.2840683837890623,9.567229833984374,9.98109219352582
0.0870430241233524,-1.5179238525390624,2.1164742675781247,9.567229833984374,9.915414406050212
0.0895299676697339,-1.3934253662109375,1.867477294921875,9.490615380859374,9.772455474733734
0.09201691121611538,-1.139639990234375,1.7669208251953124,9.452308154296874,9.683331965477455
0.09450385476249688,-0.9145850341796874,1.714248388671875,9.471461767578125,9.668696982401698
0.09699079830887838,-0.737414111328125,1.6328455322265625,9.423577734375,9.592381425876807
0.09947774185525989,-0.5315127685546874,1.6328455322265625,9.361328491210937,9.51751866168943
0.10196468540164137,-0.3591302490234375,1.7094599853515624,9.337386474609374,9.499369145027467
0.10445162894802287,-0.181959326171875,1.7573440185546874,9.351751684570312,9.51717535646972
0.10693857249440437,-0.08140285644531249,1.8722656982421875,9.342174877929686,9.528286137583835
0.10942551604078586,-0.009576806640625,1.9967641845703124,9.370905297851563,9.581285144765845
0.11191245958716736,0.0383072265625,2.1643583007812497,9.332598071289063,9.580360173709334
0.11439940313354886,0.028730419921875,2.3127988037109373,9.370905297851563,9.65213602498318
0.11688634667993036,-0.01915361328125,2.437297290039062,9.356540087890625,9.668796582679656
0.11937329022631185,-0.08140285644531249,2.6431986328124997,9.399635717773437,9.764541825625075
0.12186023377269335,-0.2346317626953125,2.834734765625,9.423577734375,9.843504994224201
0.12434717731907485,-0.316034619140625,2.935291235351562,9.428366137695312,9.879772292075696
0.12683412086545634,-0.44053310546874996,3.0597897216796874,9.404424121093749,9.899473501521205
0.12932106441183785,-0.5602431884765625,3.2034418212890623,9.485826977539062,10.027802619738086
0.13180800795821934,-0.7565677246093749,3.2417490478515623,9.509768994140625,10.075566382744224
0.13429495150460083,-0.9576806640625,3.23696064453125,9.485826977539062,10.068563945090244
0.13678189505098234,-1.0582371337890624,3.284844677734375,9.490615380859374,10.098606373929744
0.13926883859736383,-1.2018892333984375,3.2130186279296873,9.5384994140625,10.136616669523066
0.14175578214374532,-1.254561669921875,3.2321722412109373,9.562441430664062,10.171585348183058
0.14424272569012683,-1.3263877197265623,3.1268273681640624,9.586383447265625,10.170304880943815
0.14672966923650832,-1.37906015625,2.9927520751953125,9.543287817382812,10.096173248491198
0.1492166127828898,-1.4030021728515625,2.882618798828125,9.562441430664062,10.085543731066961
0.15170355632927132,-1.3551181396484375,2.7581203125,9.562441430664062,10.044095725624578
0.1541904998756528,-1.3024457031249999,2.5905261962890624,9.576806640625,10.006118938687854
0.15667744342203432,-1.20667763671875,2.4564509033203126,9.548076220703125,9.932571745310314
0.1591643869684158,-1.0726023437499999,2.3032219970703123,9.495403784179686,9.829445578475953
0.1616513305147973,-0.9050082275390624,2.1452046874999997,9.543287817382812,9.82320138287883
0.1641382740611788,-0.737414111328125,2.039859814453125,9.528922607421874,9.772674848394491
0.1666252176075603,-0.5746083984375,1.924938134765625,9.437942944335937,9.649369339742902
0.1691121611539418,-0.33039982910156246,1.924938134765625,9.447519750976562,9.647288754610674
0.1715991047003233,-0.1867477294921875,1.8004396484374998,9.433154541015625,9.605251804966903
0.1740860482467048,0.009576806640625,1.7669208251953124,9.442731347656249,9.606626682751044
0.17657299179308628,0.1580173095703125,1.7573440185546874,9.3852705078125,9.549687428104066
0.1790599353394678,0.32082302246093747,1.7334020019531249,9.380482104492186,9.544687235567975
0.18154687888584928,0.44053310546874996,1.8435352783203125,9.3852705078125,9.574758182024263
0.18403382243223076,0.5506663818359374,1.89620771484375,9.327809667968749,9.534509445365739
0.18652076597861228,0.565031591796875,1.9680337646484374,9.366116894531249,9.587312620361793
0.18900770952499377,0.6272808349609375,2.0781670410156248,9.356540087890625,9.605056059835217
0.19149465307137528,0.612915625,2.2457611572265623,9.3852705078125,9.669664484535739
0.19398159661775677,0.55545478515625,2.365471240234375,9.375693701171874,9.685433216171742
0.19646854016413826,0.488417138671875,2.5617957763671875,9.3852705078125,9.740875289519739
0.19895548371051977,0.38786066894531246,2.6479870361328124,9.375693701171874,9.750174543065171
0.20144242725690126,0.16759411621093748,2.8012159423828122,9.409212524414063,9.81876666762372
0.20392937080328274,-0.01915361328125,2.935291235351562,9.418789331054686,9.86559141460982
0.20641631434966426,-0.15322890625,3.0502129150390624,9.447519750976562,9.928892555057383
0.20890325789604575,-0.373495458984375,3.2034418212890623,9.452308154296874,9.987375421203156
0.21139020144242723,-0.584185205078125,3.308786694335937,9.476250170898437,10.054285605844871
0.21387714498880875,-0.8044517578125,3.375824340820312,9.495403784179686,10.109699581853874
0.21636408853519024,-1.0486603271484374,3.394977954101562,9.5384994140625,10.178827774485692
0.21885103208157172,-1.1923124267578125,3.4332851806640625,9.481038574218749,10.153775086173242
0.22133797562795324,-1.4125789794921875,3.375824340820312,9.5384994140625,10.216385878844276
0.22382491917433472,-1.5227122558593749,3.347093920898437,9.610325463867188,10.289803003503696
0.22631186272071624,-1.6903063720703124,3.27526787109375,9.581595043945311,10.266035205717825
0.22879880626709773,-1.7525556152343749,3.23696064453125,9.567229833984374,10.250914695529096
0.2312857498134792,-1.8148048583984373,3.0837317382812497,9.557653027343749,10.20547154710858
0.23377269335986073,-1.838746875,2.9640216552734375,9.600748657226562,10.214733928129982
0.23625963690624222,-1.8243816650390623,2.834734765625,9.557653027343749,10.13473339769068
0.2387465804526237,-1.7286135986328124,2.6910826660156246,9.605537060546874,10.124049244756147
0.24123352399900522,-1.6232687255859375,2.5426421630859375,9.572018237304688,10.036112975662505
0.2437204675453867,-1.5179238525390624,2.403778466796875,9.552864624023437,9.96691859425278
0.2462074110917682,-1.350329736328125,2.24097275390625,9.504980590820312,9.858499140966286
0.2486943546381497,-1.149216796875,2.1212626708984375,9.5384994140625,9.838873189407284
0.2511812981845312,-0.9145850341796874,1.9776105712890624,9.504980590820312,9.751516055890518
0.2536682417309127,-0.7326257080078125,1.8531120849609375,9.533711010742186,9.739733593061414
0.2561551852772942,-0.4740519287109375,1.7717092285156248,9.452308154296874,9.628593265130123
0.2586421288236757,-0.2825157958984375,1.68551796875,9.4618849609375,9.614991056258269
0.26112907237005717,-0.028730419921875,1.6472107421875,9.409212524414063,9.552350966950346
0.2636160159164387,0.201112939453125,1.66636435546875,9.409212524414063,9.55774538838437
0.2661029594628202,0.373495458984375,1.7286135986328124,9.442731347656249,9.606913090856512
0.26858990300920166,0.5698199951171875,1.6807295654296874,9.3852705078125,9.551588831380878
0.2710768465555832,0.6607996582031249,1.7908628417968748,9.404424121093749,9.59619919321291
0.2735637901019647,0.7757213378906249,1.848323681640625,9.356540087890625,9.568849797257593
0.27605073364834615,0.842758984375,2.001552587890625,9.375693701171874,9.62393307572483
0.27853767719472766,0.8475473876953125,2.1068974609374997,9.370905297851563,9.642158450606198
0.2810246207411092,0.8379705810546875,2.2649147705078123,9.375693701171874,9.681718132158752
0.28351156428749064,0.7565677246093749,2.389413256835937,9.351751684570312,9.681784443155486
0.28599850783387215,0.6368576416015624,2.5522189697265625,9.361328491210937,9.723881963776405
0.28848545138025367,0.5315127685546874,2.7054478759765623,9.409212524414063,9.804857692101054
0.2909723949266351,0.3591302490234375,2.877830395507812,9.399635717773437,9.836871146249424
0.29345933847301664,0.1580173095703125,3.0166940917968748,9.390058911132812,9.864006238245732
0.29594628201939815,-0.033518823242187495,3.1938650146484373,9.476250170898437,10.000060727053585
0.2984332255657796,-0.2825157958984375,3.2561142578125,9.452308154296874,10.001411134367448
0.30092016911216113,-0.5410895751953124,3.35188232421875,9.457096557617186,10.04811267571627
0.30340711265854264,-0.7948749511718749,3.380612744140625,9.5001921875,10.115039313481809
0.30589405620492416,-1.024718310546875,3.42849677734375,9.504980590820312,10.156244079387683
0.3083809997513056,-1.24498486328125,3.39018955078125,9.490615380859374,10.154563151974108
0.31086794329768713,-1.4173673828125,3.4620156005859375,9.562441430664062,10.268143378013463
0.31335488684406865,-1.5801730957031248,3.404554760742187,9.543287817382812,10.254866283705677
0.3158418303904501,-1.7477672119140624,3.35188232421875,9.595960253906249,10.313692769178283
0.3183287739368316,-1.8531120849609375,3.299209887695312,9.576806640625,10.297282928734836
0.32081571748321314,-1.9009961181640624,3.2130186279296873,9.600748657226562,10.301050903861006
0.3233026610295946,-1.9393033447265624,3.0119056884765625,9.605537060546874,10.251771337709625
0.3257896045759761,-1.905784521484375,2.887407202148437,9.600748657226562,10.205072747050151
0.3282765481223576,-1.8626888916015625,2.7533319091796873,9.605537060546874,10.16448664372886
0.3307634916687391,-1.7621324218749999,2.5857377929687497,9.595960253906249,10.093245454300536
0.3332504352151206,-1.6136919189453125,2.422932080078125,9.567229833984374,10.000324403249216
0.3357373787615021,-1.5035586425781249,2.2744915771484373,9.572018237304688,9.952765126410052
0.3382243223078836,-1.2785036865234374,2.1308394775390624,9.528922607421874,9.847609588815383
0.3407112658542651,-1.0630255371093749,2.001552587890625,9.5001921875,9.76677468021426
0.3431982094006466,-0.8283937744140625,1.85790048828125,9.504980590820312,9.720220496558426
0.34568515294702806,-0.5746083984375,1.7764976318359373,9.481038574218749,9.663136710887283
0.3481720964934096,-0.3399766357421875,1.7381904052734374,9.457096557617186,9.621515748463443
0.3506590400397911,-0.086191259765625,1.6519991455078125,9.4618849609375,9.605404578883379
0.35314598358617255,0.1484405029296875,1.6807295654296874,9.466673364257812,9.615861429979521
0.35563292713255407,0.3399766357421875,1.6807295654296874,9.452308154296874,9.606589687748052
0.3581198706789356,0.488417138671875,1.656787548828125,9.351751684570312,9.509929329556766
0.36060681422531704,0.6847416748046875,1.7094599853515624,9.337386474609374,9.517242813911524
0.36309375777169856,0.7517793212890624,1.7669208251953124,9.366116894531249,9.560927101094872
0.36558070131808007,0.8283937744140625,1.8722656982421875,9.351751684570312,9.573237417935792
0.36806764486446153,0.8858546142578124,1.9967641845703124,9.337386474609374,9.589504251138464
0.37055458841084304,0.8762778076171874,2.1739351074218747,9.351751684570312,9.641012198792584
0.37304153195722456,0.8571241943359375,2.39420166015625,9.375693701171874,9.714447789360182
0.3755284755036061,0.7134720947265625,2.4660277099609376,9.370905297851563,9.71618243949501
0.37801541904998753,0.6177040283203125,2.6575638427734374,9.437942944335937,9.824406896376003
0.38050236259636905,0.4213794921875,2.7724855224609373,9.418789331054686,9.82740195125249
0.38298930614275056,0.258573779296875,2.959233251953125,9.423577734375,9.88067503537148
0.385476249689132,0.08140285644531249,3.1364041748046874,9.447519750976562,9.954862481112533
0.38796319323551354,-0.21068974609375,3.1699229980468746,9.481038574218749,9.99914468484577
0.39045013678189505,-0.44532150878906246,3.303998291015625,9.399635717773437,9.973357888899129
0.3929370803282765,-0.6847416748046875,3.394977954101562,9.481038574218749,10.093802004986715
0.395424023874658,-0.9050082275390624,3.414131567382812,9.447519750976562,10.086176862240988
0.39791096742103954,-1.1109095703125,3.4668040039062498,9.485826977539062,10.160401740222685
0.400397910967421,-1.3359645263671873,3.4811692138671875,9.533711010742186,10.2369422166795
0.4028848545138025,-1.5227122558593749,3.447650390625,9.533711010742186,10.251662863480629
0.40537179806018403,-1.6807295654296874,3.414131567382812,9.591171850585937,10.318513638067323
0.4078587416065655,-1.7908628417968748,3.308786694335937,9.586383447265625,10.298252604434973
0.410345685152947,-1.8818425048828125,3.208230224609375,9.567229833984374,10.26479220849411
0.4128326286993285,-1.924938134765625,3.1411925781249996,9.552864624023437,10.238637612517643
0.41531957224571,-1.9105729248046874,3.0119056884765625,9.605537060546874,10.24637531026527
0.4178065157920915,-1.9105729248046874,2.834734765625,9.567229833984374,10.159620897883958
0.420293459338473,-1.8339584716796873,2.6336218261718747,9.528922607421874,10.054836331704772
0.42278040288485447,-1.66636435546875,2.5330653564453125,9.581595043945311,10.049883275509101
0.425267346431236,-1.5658078857421873,2.3367408203125,9.543287817382812,9.949193653848253
0.4277542899776175,-1.37906015625,2.2074539306640624,9.519345800781249,9.868769135277818
0.43024123352399896,-1.1635820068359375,2.0781670410156248,9.533711010742186,9.826715981106952
0.43272817707038047,-0.9337386474609375,1.944091748046875,9.504980590820312,9.746589999505312
0.435215120616762,-0.679953271484375,1.8243816650390623,9.447519750976562,9.64605278630722
0.43770206416314344,-0.45968671875,1.7381904052734374,9.442731347656249,9.612377076893612
0.44018900770952496,-0.21068974609375,1.6903063720703124,9.423577734375,9.576290676268073
0.4426759512559065,0.0430956298828125,1.62805712890625,9.433154541015625,9.572712877914032
0.445162894802288,0.181959326171875,1.6328455322265625,9.390058911132812,9.532706860227997
0.44764983834866945,0.43574470214843747,1.66636435546875,9.433154541015625,9.589110918396498
0.45013678189505096,0.5746083984375,1.656787548828125,9.380482104492186,9.542985083620584
0.4526237254414325,0.7134720947265625,1.7238251953125,9.342174877929686,9.526638818794813
0.45511066898781394,0.7996633544921875,1.89620771484375,9.3852705078125,9.608244776397287
0.45759761253419545,0.8667010009765624,1.9823989746093749,9.318232861328125,9.566114152442537
0.46008455608057697,0.8762778076171874,2.1116858642578125,9.366116894531249,9.64112159800157
0.4625714996269584,0.852335791015625,2.24097275390625,9.366116894531249,9.668121889303015
0.46505844317333994,0.7948749511718749,2.422932080078125,9.380482104492186,9.720898650092508
0.46754538671972146,0.7038952880859375,2.6048914062499997,9.404424121093749,9.783870443968206
0.4700323302661029,0.5889736083984375,2.710236279296875,9.356540087890625,9.7589504055155
0.47251927381248443,0.373495458984375,2.858676782226562,9.433154541015625,9.863870254509985
0.47500621735886595,0.15322890625,2.9975404785156248,9.418789331054686,9.88546005408144
0.4774931609052474,-0.0430956298828125,3.1316157714843746,9.437942944335937,9.944025422034336
0.4799801044516289,-0.258573779296875,3.294421484375,9.4618849609375,10.02234205812527
0.48246704799801043,-0.5410895751953124,3.3710359375,9.447519750976562,10.04551097084632
0.4849539915443919,-0.7278373046875,3.4572271972656248,9.5384994140625,10.171781461852124
0.4874409350907734,-0.9864110839843749,3.404554760742187,9.476250170898437,10.117475833771593
0.4899278786371549,-1.216254443359375,3.4572271972656248,9.514557397460937,10.19600398362433
0.4924148221835364,-1.4125789794921875,3.4620156005859375,9.514557397460937,10.222902418666738
0.4949017657299179,-1.5849614990234373,3.4428619873046875,9.557653027343749,10.281737839884235
0.4973887092762994,-1.7334020019531249,3.3710359375,9.600748657226562,10.32196398809496
0.49987565282268087,-1.8531120849609375,3.31357509765625,9.5384994140625,10.266293167414739
0.5023625963690624,-1.915361328125,3.1651345947265623,9.557653027343749,10.248678812954614
0.5048495399154439,-1.9297265380859374,3.0789433349609374,9.543287817382812,10.211663867220695
0.5073364834618254,-1.924938134765625,2.925714428710937,9.567229833984374,10.188085121224843
0.5098234270082069,-1.9009961181640624,2.710236279296875,9.557653027343749,10.114736690689725
0.5123103705545884,-1.7908628417968748,2.6192566162109374,9.576806640625,10.088752171186119
0.5147973141009698,-1.675941162109375,2.442085693359375,9.548076220703125,9.996915565759247
0.5172842576473514,-1.5083470458984374,2.24097275390625,9.548076220703125,9.92284380664017
0.5197712011937329,-1.2880804931640624,2.1595698974609374,9.519345800781249,9.845853846860658
0.5222581447401143,-1.0773907470703123,1.9776105712890624,9.485826977539062,9.749493722309628
0.5247450882864959,-0.8475473876953125,1.9009961181640624,9.4618849609375,9.6881055851843
0.5272320318328774,-0.6272808349609375,1.7764976318359373,9.490615380859374,9.675805154571506
0.5297189753792588,-0.37828386230468747,1.714248388671875,9.4618849609375,9.623357690149499
0.5322059189256404,-0.1292868896484375,1.6711527587890624,9.409212524414063,9.557339952760586
0.5346928624720219,0.086191259765625,1.675941162109375,9.457096557617186,9.604836438597346
0.5371798060184033,0.32561142578124996,1.6807295654296874,9.370905297851563,9.526003399853018
0.5396667495647849,0.4740519287109375,1.6615759521484375,9.437942944335937,9.594807288133152
0.5421536931111663,0.6368576416015624,1.7477672119140624,9.390058911132812,9.572538024852806
0.5446406366575478,0.7709329345703124,1.8100164550781248,9.342174877929686,9.547079585249056
0.5471275802039294,0.7852981445312499,1.9201497314453124,9.342174877929686,9.569738743392856
0.5496145237503108,0.842758984375,2.0254946044921875,9.361328491210937,9.614954093438481
0.5521014672966923,0.8954314208984374,2.1978771240234374,9.34696328125,9.643556598209683
0.5545884108430739,0.814028564453125,2.29843359375,9.375693701171874,9.687573063818313
0.5570753543894553,0.70868369140625,2.4516625,9.380482104492186,9.721436421695593
0.5595622979358368,0.6464344482421874,2.6479870361328124,9.414000927734374,9.800669686648218
0.5620492414822184,0.4165910888671875,2.7964275390625,9.394847314453125,9.811050462536507
0.5645361850285998,0.316034619140625,2.906560815429687,9.366116894531249,9.81183567617754
0.5670231285749813,0.1149216796875,3.0550013183593747,9.418789331054686,9.902516473625747
0.5695100721213628,-0.1388636962890625,3.208230224609375,9.471461767578125,10.001030562643948
0.5719970156677443,-0.38786066894531246,3.265691064453125,9.471461767578125,10.026153900756652
0.5744839592141258,-0.6177040283203125,3.3327287109375,9.504980590820312,10.091248434122566
0.5769709027605073,-0.928950244140625,3.438073583984375,9.476250170898437,10.12336978611533
0.5794578463068888,-1.0917559570312498,3.4811692138671875,9.519345800781249,10.194528661990288
0.5819447898532703,-1.3072341064453123,3.4715924072265625,9.552864624023437,10.247830861986621
0.5844317333996518,-1.465251416015625,3.4332851806640625,9.481038574218749,10.189430861914081
0.5869186769460333,-1.6807295654296874,3.385401147460937,9.548076220703125,10.268960624994905
0.5894056204924147,-1.8195932617187498,3.342305517578125,9.5384994140625,10.269610356921829
0.5918925640387963,-1.8818425048828125,3.2513258544921873,9.591171850585937,10.300632431688117
0.5943795075851778,-1.9297265380859374,3.1411925781249996,9.591171850585937,10.27528650657162
0.5968664511315592,-1.9584569580078124,2.9927520751953125,9.600748657226562,10.245315681773437
0.5993533946779408,-1.89620771484375,2.806004345703125,9.572018237304688,10.153462326774612
0.6018403382243223,-1.867477294921875,2.6910826660156246,9.591171850585937,10.135086325722664
0.6043272817707037,-1.7381904052734374,2.50912333984375,9.576806640625,10.051479057902492
0.6068142253170853,-1.5897499023437498,2.408566870117187,9.605537060546874,10.029697968601425
0.6093011688634667,-1.3838485595703125,2.2361843505859373,9.591171850585937,9.945156346337766
0.6117881124098483,-1.197100830078125,2.0733786376953125,9.509768994140625,9.806510882803497
0.6142750559562298,-0.9911994873046874,1.9488801513671874,9.519345800781249,9.76721837284688
0.6167619995026112,-0.7709329345703124,1.8243816650390623,9.485826977539062,9.69038799518078
0.6192489430489928,-0.488417138671875,1.7621324218749999,9.481038574218749,9.655762756996225
0.6217358865953743,-0.2825157958984375,1.6615759521484375,9.442731347656249,9.59196669738277
0.6242228301417557,-0.0143652099609375,1.66636435546875,9.418789331054686,9.565070255216298
0.6267097736881373,0.19153613281249998,1.675941162109375,9.433154541015625,9.582790275473474
0.6291967172345188,0.38786066894531246,1.62805712890625,9.375693701171874,9.523898271805045
0.6316836607809002,0.5602431884765625,1.70467158203125,9.399635717773437,9.569374549032004
0.6341706043272818,0.70868369140625,1.7573440185546874,9.361328491210937,9.551175932542169
0.6366575478736632,0.8475473876953125,1.8531120849609375,9.34696328125,9.566508430710401
0.6391444914200447,0.8283937744140625,1.9393033447265624,9.375693701171874,9.609930597384643
0.6416314349664263,0.8714894042968749,2.1212626708984375,9.366116894531249,9.642789782151874
0.6441183785128077,0.8858546142578124,2.221819140625,9.34696328125,9.648157402959658
0.6466053220591892,0.8044517578125,2.39420166015625,9.366116894531249,9.700695330859858
0.6490922656055708,0.70868369140625,2.5570073730468748,9.34696328125,9.716287452587899
0.6515792091519522,0.55545478515625,2.6815058593749996,9.370905297851563,9.762831033748249
0.6540661526983337,0.40222587890625,2.839523168945312,9.351751684570312,9.78161219096846
0.6565530962447153,0.19153613281249998,2.9640216552734375,9.418789331054686,9.87601655151976
0.6590400397910967,-0.0047884033203125,3.0789433349609374,9.409212524414063,9.900161378396676
0.6615269833374782,-0.24899697265624998,3.208230224609375,9.4618849609375,9.994098642724332
0.6640139268838597,-0.47884033203125,3.337517114257812,9.457096557617186,10.040168517093646
0.6665008704302412,-0.7948749511718749,3.404554760742187,9.528922607421874,10.15003376177284
0.6689878139766227,-0.9433154541015625,3.4620156005859375,9.490615380859374,10.14628879798184
0.6714747575230042,-1.1875240234375,3.4763808105468748,9.5384994140625,10.22146799233116
0.6739617010693857,-1.4030021728515625,3.4715924072265625,9.567229833984374,10.273862741696524
0.6764486446157671,-1.5658078857421873,3.42849677734375,9.5384994140625,10.256184259234988
0.6789355881621487,-1.7860744384765623,3.347093920898437,9.528922607421874,10.256386579752654
0.6814225317085302,-1.838746875,3.284844677734375,9.572018237304688,10.285656408924792
0.6839094752549116,-1.9009961181640624,3.2034418212890623,9.586383447265625,10.28467662795807
0.6863964188012932,-1.915361328125,3.0933085449218747,9.586383447265625,10.25358056336282
0.6888833623476747,-1.9488801513671874,2.940079638671875,9.591171850585937,10.219235763676167
0.6913703058940561,-1.915361328125,2.7916391357421872,9.610325463867188,10.189220461003787
0.6938572494404377,-1.7764976318359373,2.6671406494140624,9.634267480468749,10.15326021359116
0.6963441929868192,-1.6328455322265625,2.4851813232421875,9.567229833984374,10.018692401595366
0.6988311365332006,-1.5466542724609373,2.2936451904296873,9.552864624023437,9.945359230466305
0.7013180800795822,-1.3168109130859373,2.1164742675781247,9.519345800781249,9.840294649094313
0.7038050236259636,-5.6311623046875,-3.1555577880859373,9.361328491210937,11.371103947112651
0.7062919671723451,-3.778050219726562,-3.418919970703125,9.275137231445312,10.582572838917367
0.7087789107187267,-1.9967641845703124,-3.5625720703124997,9.121908325195312,9.994408359588926
0.7112658542651081,-0.277727392578125,-3.4715924072265625,9.069235888671875,9.714943435289538
0.7137527978114896,1.2114660400390624,-3.2561142578125,8.959102612304687,9.609133657302433
0.7162397413578712,2.6288334228515624,-2.916137622070312,8.896853369140624,9.72464002767939
0.7187266849042526,3.787627026367187,-2.308010400390625,8.892064965820312,9.936893370442666
0.7212136284506341,4.735730883789063,-1.7908628417968748,8.86812294921875,10.211657131154697
0.7237005719970157,5.482721801757812,-1.0438719238281249,8.892064965820312,10.49851067081403
0.7261875155433971,5.942408520507812,-0.28730419921875,8.9255837890625,10.726640140466532
0.7286744590897786,6.1626750732421876,0.40222587890625,8.968679418945312,10.889332405424849
0.7311614026361601,6.253654736328125,1.1875240234375,8.94473740234375,10.978467017955083
0.7336483461825416,6.066907006835937,1.924938134765625,9.030928662109375,11.04854831877829
0.7361352897289231,5.7077767578125,2.6527754394531247,9.13627353515625,11.094477326958074
0.7386222332753046,5.233724829101562,3.299209887695312,9.160215551757812,11.053787153029788
0.7411091768216861,4.5585599609375,3.9169139160156248,9.251195214843749,11.032102992906077
0.7435961203680675,3.821145849609375,4.357447021484375,9.327809667968749,10.981645293437648
0.7460830639144491,2.959233251953125,4.774038110351563,9.390058911132812,10.941741528344512
0.7485700074608306,2.1260510742187497,5.147533569335937,9.471461767578125,10.98752852248044
0.7510569510072121,1.1875240234375,5.3007624755859375,9.528922607421874,10.968530539094871
0.7535438945535936,0.3591302490234375,5.449202978515625,9.624690673828125,11.066049801248017
0.7560308380999751,-0.4836287353515625,5.492298608398437,9.619902270507811,11.087910553913867
0.7585177816463566,-1.3120225097656248,5.444414575195312,9.677363110351562,11.180984299350577
0.7610047251927381,-2.01112939453125,5.3199160888671875,9.706093530273437,11.249640005464684
0.7634916687391196,-2.6240450195312497,5.118803149414062,9.744400756835937,11.315524913003498
0.7659786122855011,-3.1411925781249996,4.879382983398437,9.730035546875,11.32912445226889
0.7684655558318826,-3.5529952636718747,4.620809204101562,9.773131176757811,11.379356134795149
0.770952499378264,-3.84987626953125,4.271255761718749,9.792284790039062,11.355792111603039
0.7734394429246456,-4.017470385742187,3.912125512695312,9.7683427734375,11.263450397936046
0.7759263864710271,-4.103661645507812,3.5338416503906247,9.725247143554688,11.131419842682515
0.7784133300174085,-4.094084838867187,3.1459809814453124,9.715670336914062,11.002407786437002
0.7809002735637901,-3.9264907226562498,2.7964275390625,9.672574707031249,10.807221559653222
0.7833872171101716,-3.725377783203125,2.384624853515625,9.610325463867188,10.579377620684589
0.785874160656553,-3.3710359375,2.068590234375,9.643844287109374,10.423371886471298
0.7883611042029346,-2.9831752685546875,1.7621324218749999,9.567229833984374,10.175280440922503
0.790848047749316,-2.5617957763671875,1.5418658691406248,9.504980590820312,9.964176031669872
0.7933349912956975,-2.1021090576171875,1.2401964599609374,9.485826977539062,9.794787552429288
0.7958219348420791,-1.5945383056640625,1.197100830078125,9.485826977539062,9.693116952426172
0.7983088783884605,-1.149216796875,0.9624690673828125,9.428366137695312,9.546786578651897
0.800795821934842,-0.6464344482421874,0.8762778076171874,9.390058911132812,9.452986123259745
0.8032827654812236,-0.1580173095703125,0.8667010009765624,9.356540087890625,9.397924372515556
0.805769709027605,0.2537853759765625,0.8667010009765624,9.323021264648437,9.366659123894724
0.8082566525739865,0.6464344482421874,0.9528922607421875,9.327809667968749,9.39861236344535
0.8107435961203681,0.967257470703125,1.0534487304687499,9.318232861328125,9.42734346994383
0.8132305396667495,1.2593500732421874,1.158793603515625,9.275137231445312,9.431698462348487
0.815717483213131,1.5179238525390624,1.3455413330078123,9.294290844726563,9.513065573583916
0.8182044267595125,1.6519991455078125,1.5035586425781249,9.318232861328125,9.582236347866047
0.820691370305894,1.7477672119140624,1.7429788085937499,9.299079248046874,9.621098701068645
0.8231783138522755,1.7669208251953124,1.9967641845703124,9.342174877929686,9.71521012953977
0.825665257398657,1.7525556152343749,2.24097275390625,9.313444458007812,9.73825742834087
0.8281522009450385,1.5514426757812498,2.39420166015625,9.342174877929686,9.768081050828293
0.83063914449142,1.3934253662109375,2.7054478759765623,9.370905297851563,9.852662003850972
0.8331260880378015,1.149216796875,2.8730419921875,9.394847314453125,9.891320720559992
0.835613031584183,0.9050082275390624,3.0933085449218747,9.361328491210937,9.90060951489138
0.8380999751305644,0.603338818359375,3.327940307617187,9.433154541015625,10.021158067583116
0.840586918676946,0.28730419921875,3.4907460205078125,9.476250170898437,10.102829741415645
0.8430738622233275,-0.047884033203124995,3.6487633300781246,9.471461767578125,10.15009136580813
0.8455608057697089,-0.373495458984375,3.6727053466796873,9.514557397460937,10.205638926152059
0.8480477493160905,-0.737414111328125,3.744531396484375,9.567229833984374,10.300348617747058
0.850534692862472,-5.659892724609374,-1.3646949462890625,9.370905297851563,11.032254712968491
0.8530216364088534,-4.347870214843749,-1.6136919189453125,9.3086560546875,10.399954545999954
0.855508579955235,-3.0358477050781247,-1.6519991455078125,9.260772021484375,9.88470388525091
0.8579955235016165,-1.7908628417968748,-1.5658078857421873,9.184157568359375,9.487238496719367
0.8604824670479979,-0.7038952880859375,-1.4030021728515625,9.093177905273437,9.22766319772069
0.8629694105943795,0.316034619140625,-1.1109095703125,9.054870678710937,9.128235369560008
0.8654563541407609,1.2210428466796874,-0.7134720947265625,9.088389501953124,9.197761238616323
0.8679432976871424,1.8914193115234375,-0.3495534423828125,9.04050546875,9.2428563632453
0.870430241233524,2.5234885498046875,0.16759411621093748,9.050082275390624,9.396811769963438
0.8729171847799054,2.959233251953125,0.6272808349609375,9.107543115234375,9.59676426100107
0.8754041283262869,3.2513258544921873,1.13006318359375,9.169792358398437,9.794552287223024
0.8778910718726685,3.4428619873046875,1.5658078857421873,9.208099584960937,9.95460451073963
0.8803780154190499,3.4811692138671875,2.039859814453125,9.212887988281249,10.05767727871671
0.8828649589654315,3.375824340820312,2.375048046875,9.270348828125,10.147729332227886
0.885351902511813,3.227383837890625,2.73896669921875,9.375693701171874,10.286961523924392
0.8878388460581944,2.978386865234375,3.0645781249999997,9.351751684570312,10.281910667433987
0.890325789604576,2.6288334228515624,3.23696064453125,9.433154541015625,10.31373278566152
0.8928127331509574,2.269703173828125,3.418919970703125,9.409212524414063,10.265176403401384
0.8952996766973389,1.9632453613281249,3.6008792968749996,9.5001921875,10.347671992234554
0.8977866202437205,1.4796166259765624,3.6822821533203123,9.4618849609375,10.260396397339763
0.9002735637901019,1.0821791503906248,3.6822821533203123,9.524134204101562,10.268371141906528
0.9027605073364834,0.6943184814453125,3.7397429931640622,9.557653027343749,10.28671411091459
0.905247450882865,0.32561142578124996,3.6918589599609373,9.548076220703125,10.24214845123813
0.9077343944292464,-0.01915361328125,3.6296097167968746,9.504980590820312,10.174433133547975
0.9102213379756279,-0.3112462158203125,3.5146880371093747,9.543287817382812,10.174686657114774
0.9127082815220094,-0.5698199951171875,3.4332851806640625,9.586383447265625,10.19857291764937
0.9151952250683909,-0.8571241943359375,3.342305517578125,9.552864624023437,10.156913437765809
0.9176821686147724,-1.0821791503906248,3.2609026611328122,9.572018237304688,10.169962193352381
0.9201691121611539,-1.2641384765625,3.0980969482421874,9.514557397460937,10.085784712069357
0.9226560557075354,-1.3838485595703125,3.0693665283203124,9.552864624023437,10.128833607376338
0.9251429992539169,-1.5514426757812498,2.9544448486328125,9.543287817382812,10.109899163950915
0.9276299428002984,-1.599326708984375,2.925714428710937,9.490615380859374,10.059295758046021
0.9301168863466799,-1.6519991455078125,2.7916391357421872,9.524134204101562,10.061385718612682
0.9326038298930613,-1.695094775390625,2.8107927490234372,9.514557397460937,10.064825117462199
0.9350907734394429,-1.7381904052734374,2.710236279296875,9.476250170898437,10.008296751998028
0.9375777169858244,-1.7477672119140624,2.7246014892578123,9.514557397460937,10.05012168940687
0.9400646605322058,-1.7621324218749999,2.6623522460937497,9.476250170898437,9.999627365854996
0.9425516040785874,-1.7238251953125,2.6623522460937497,9.514557397460937,10.029281891334655
0.9450385476249689,-1.656787548828125,2.6815058593749996,9.476250170898437,9.98672799055161
0.9475254911713503,-1.6328455322265625,2.6096798095703124,9.490615380859374,9.977394126123098
0.9500124347177319,-1.5753846923828123,2.6431986328124997,9.524134204101562,10.008869480577378
0.9524993782641133,-1.5035586425781249,2.5809493896484375,9.4618849609375,9.922159813146191
0.9549863218104948,-1.43652099609375,2.6144682128906247,9.504980590820312,9.962112860247293
0.9574732653568764,-1.39821376953125,2.5809493896484375,9.509768994140625,9.95248751916584
0.9599602089032578,-1.2689268798828124,2.480392919921875,9.495403784179686,9.8957171285512
0.9624471524496393,-1.1540052001953125,2.480392919921875,9.490615380859374,9.877036870776625
0.9649340959960209,-1.0534487304687499,2.398990063476562,9.5384994140625,9.891808662952199
0.9674210395424023,-0.9097966308593749,2.35589443359375,9.476250170898437,9.8070018758647
0.9699079830887838,-0.7900865478515624,2.2936451904296873,9.490615380859374,9.795755474698302
0.9723949266351654,-0.679953271484375,2.2074539306640624,9.485826977539062,9.762996607354443
0.9748818701815468,-0.5123591552734374,2.24097275390625,9.514557397460937,9.788323311850775
0.9773688137279283,-0.38307226562499996,2.0781670410156248,9.476250170898437,9.709008183769718
0.9798557572743098,-0.2154781494140625,2.1068974609374997,9.485826977539062,9.719380700002837
0.9823427008206913,-0.1005564697265625,1.9919757812499999,9.433154541015625,9.64170543583313
0.9848296443670728,0.09576806640624999,1.9776105712890624,9.452308154296874,9.657445031580798
0.9873165879134543,0.19153613281249998,1.9680337646484374,9.442731347656249,9.64753949424303
0.9898035314598358,0.373495458984375,1.9919757812499999,9.418789331054686,9.634368626628216
0.9922904750062173,0.47884033203125,1.9919757812499999,9.442731347656249,9.662423654584616
0.9947774185525988,0.51714755859375,2.0063409912109376,9.390058911132812,9.615927002890437
0.9972643620989803,0.5985504150390625,2.0733786376953125,9.394847314453125,9.639518537586916
0.9997513056453617,0.6177040283203125,2.1164742675781247,9.375693701171874,9.631440908302219
1.0022382491917432,0.612915625,2.1835119140624997,9.380482104492186,9.650742684110906
1.0047251927381249,0.5985504150390625,2.288856787109375,9.404424121093749,9.697438890792249
1.0072121362845063,0.5506663818359374,2.346317626953125,9.366116894531249,9.671224614941941
1.0096990798308878,0.49320554199218747,2.4851813232421875,9.380482104492186,9.716626082583488
1.0121860233772693,0.36391865234375,2.6001030029296874,9.390058911132812,9.750188652837052
1.0146729669236507,0.26336218261718747,2.7341782958984373,9.399635717773437,9.79276478936552
1.0171599104700322,0.1197100830078125,2.829946362304687,9.418789331054686,9.835472504170038
1.0196468540164139,-0.1197100830078125,2.89219560546875,9.3852705078125,9.821528823410416
1.0221337975627953,-0.26336218261718747,3.0358477050781247,9.433154541015625,9.913129451507466
1.0246207411091768,-0.45010991210937495,3.1124621582031247,9.4618849609375,9.970821763186864
1.0271076846555582,-0.6177040283203125,3.208230224609375,9.452308154296874,10.001021392062285
1.0295946282019397,-0.8714894042968749,3.2609026611328122,9.4618849609375,10.04590697553984
1.0320815717483212,-1.0869675537109373,3.2561142578125,9.5001921875,10.101357835567761
1.0345685152947028,-1.2114660400390624,3.375824340820312,9.524134204101562,10.177080734865973
1.0370554588410843,-1.426944189453125,3.303998291015625,9.481038574218749,10.141137355971079
1.0395424023874658,-1.5801730957031248,3.294421484375,9.5384994140625,10.214359059733814
1.0420293459338472,-1.62805712890625,3.265691064453125,9.524134204101562,10.199237249969665
1.0445162894802287,-1.7621324218749999,3.1747114013671873,9.543287817382812,10.210692705179264
1.0470032330266101,-1.8052280517578123,3.0693665283203124,9.557653027343749,10.1994407001129
1.0494901765729918,-1.8195932617187498,3.0358477050781247,9.581595043945311,10.21441405625784
1.0519771201193733,-1.7956512451171873,2.8730419921875,9.557653027343749,10.14038781674827
1.0544640636657547,-1.7381904052734374,2.7246014892578123,9.552864624023437,10.084740040534955
1.0569510072121362,-1.656787548828125,2.6144682128906247,9.552864624023437,10.04179324339462
1.0594379507585177,-1.5610194824218748,2.47081611328125,9.572018237304688,10.008258950758842
1.0619248943048991,-1.388636962890625,2.3367408203125,9.567229833984374,9.945881407512434
1.0644118378512808,-1.2210428466796874,2.221819140625,9.504980590820312,9.837280211468315
1.0668987813976623,-0.9959878906249999,2.0925322509765625,9.457096557617186,9.736907024293881
1.0693857249440437,-0.7852981445312499,1.9728221679687499,9.495403784179686,9.729923612590545
1.0718726684904252,-0.6081272216796875,1.8722656982421875,9.457096557617186,9.659807082062095
1.0743596120368066,-0.37828386230468747,1.7717092285156248,9.447519750976562,9.619650810501378
1.076846555583188,-0.15322890625,1.7525556152343749,9.452308154296874,9.61462738362685
1.0793334991295698,0.076614453125,1.7238251953125,9.428366137695312,9.58496380300215
1.0818204426759512,0.2442085693359375,1.7381904052734374,9.433154541015625,9.595068957803559
1.0843073862223327,0.4740519287109375,1.7573440185546874,9.399635717773437,9.574243304695504
1.0867943297687142,0.5410895751953124,1.714248388671875,9.380482104492186,9.551171131287898
1.0892812733150956,0.70868369140625,1.8195932617187498,9.313444458007812,9.51595501696776
1.0917682168614773,0.7900865478515624,1.8914193115234375,9.342174877929686,9.564409820523185
1.0942551604078588,0.852335791015625,2.01112939453125,9.337386474609374,9.589468385599483
1.0967421039542402,0.842758984375,2.1739351074218747,9.351751684570312,9.638023455402553
1.0992290475006217,0.833182177734375,2.269703173828125,9.327809667968749,9.63606653362413
1.1017159910470031,0.699106884765625,2.384624853515625,9.356540087890625,9.680910522499184
1.1042029345933846,0.5985504150390625,2.5426421630859375,9.370905297851563,9.728163129293641
1.1066898781397663,0.49320554199218747,2.767697119140625,9.414000927734374,9.824805978610202
1.1091768216861477,0.2825157958984375,2.877830395507812,9.404424121093749,9.838948928094439
1.1116637652325292,0.0909796630859375,3.0166940917968748,9.380482104492186,9.85404308166326
1.1141507087789106,-0.1292868896484375,3.1459809814453124,9.4618849609375,9.972019777831662
1.116637652325292,-0.32082302246093747,3.2704794677734372,9.457096557617186,10.011775000516314
1.1191245958716736,-0.584185205078125,3.294421484375,9.437942944335937,10.013453564634144
1.1216115394180552,-0.833182177734375,3.404554760742187,9.504980590820312,10.130638760317995
1.1240984829644367,-1.0295067138671874,3.4715924072265625,9.514557397460937,10.180306497615353
1.1265854265108182,-1.2785036865234374,3.438073583984375,9.5001921875,10.183740631260264
1.1290723700571996,-1.43652099609375,3.4332851806640625,9.533711010742186,10.234387394482019
1.131559313603581,-1.599326708984375,3.385401147460937,9.572018237304688,10.278244985725635
1.1340462571499625,-1.7764976318359373,3.3327287109375,9.552864624023437,10.272304854390969
1.1365332006963442,-1.8291700683593748,3.2225954345703123,9.528922607421874,10.224057439790279
1.1390201442427257,-1.8914193115234375,3.1364041748046874,9.572018237304688,10.248806335131405
1.1415070877891071,-1.944091748046875,3.0358477050781247,9.586383447265625,10.241807048136595
1.1439940313354886,-1.9009961181640624,2.85388837890625,9.581595043945311,10.176710112147655
1.14648097488187,-1.867477294921875,2.710236279296875,9.528922607421874,10.08133017983745
1.1489679184282515,-1.7477672119140624,2.6048914062499997,9.572018237304688,10.072918276283715
1.1514548619746332,-1.6424223388671875,2.427720483398437,9.552864624023437,9.992427153081515
1.1539418055210147,-1.4604630126953124,2.27927998046875,9.519345800781249,9.896767851964007
1.1564287490673961,-1.2641384765625,2.0877438476562498,9.533711010742186,9.841156745916562
1.1589156926137776,-1.0726023437499999,2.020706201171875,9.452308154296874,9.725217672785512
1.161402636160159,-0.7805097412109374,1.85790048828125,9.4618849609375,9.674102371512104
1.1638895797065405,-0.5698199951171875,1.8052280517578123,9.471461767578125,9.658785180362115
1.1663765232529222,-0.316034619140625,1.6998831787109374,9.442731347656249,9.599721662932199
1.1688634667993036,-0.1005564697265625,1.6519991455078125,9.380482104492186,9.52536914208896
1.171350410345685,0.1292868896484375,1.6424223388671875,9.437942944335937,9.580659333239305
1.1738373538920666,0.3064578125,1.6232687255859375,9.414000927734374,9.557841346961736
1.176324297438448,0.5219359619140624,1.6998831787109374,9.394847314453125,9.561651323463467
1.1788112409848295,0.6703764648437499,1.7908628417968748,9.380482104492186,9.57340267801597
1.1812981845312112,0.7565677246093749,1.8291700683593748,9.34696328125,9.554265039339144
1.1837851280775926,0.8475473876953125,1.93451494140625,9.337386474609374,9.573268554111038
1.186272071623974,0.8762778076171874,2.059013427734375,9.337386474609374,9.601780317625003
1.1887590151703555,0.9002198242187499,2.1691467041015624,9.327809667968749,9.618920228262754
1.191245958716737,0.8714894042968749,2.3127988037109373,9.356540087890625,9.677467360035516
1.1937329022631185,0.7805097412109374,2.499546533203125,9.399635717773437,9.757565267760963
1.1962198458095001,0.6272808349609375,2.6479870361328124,9.370905297851563,9.758031701667052
1.1987067893558816,0.411802685546875,2.7724855224609373,9.375693701171874,9.785698227631643
1.201193732902263,0.26815058593749996,3.0071172851562498,9.418789331054686,9.890816526769349
1.2036806764486445,0.06703764648437499,3.1124621582031247,9.437942944335937,9.938142771807673
1.206167619995026,-0.1771709228515625,3.19865341796875,9.423577734375,9.953220109090099
1.2086545635414074,-0.4070142822265625,3.299209887695312,9.466673364257812,10.033361903895983
1.2111415070877891,-0.679953271484375,3.375824340820312,9.504980590820312,10.109558964828686
1.2136284506341706,-0.9050082275390624,3.4811692138671875,9.5001921875,10.158308451062416
1.216115394180552,-1.13006318359375,3.4668040039062498,9.5001921875,10.175923761499517
1.2186023377269335,-1.3838485595703125,3.4763808105468748,9.572018237304688,10.277343699179127
1.221089281273315,-1.5179238525390624,3.4620156005859375,9.543287817382812,10.264696157520428
1.2235762248196966,-1.6615759521484375,3.399766357421875,9.567229833984374,10.28839796207827
1.226063168366078,-1.8435352783203125,3.294421484375,9.562441430664062,10.280667359369414
1.2285501119124596,-1.8770541015625,3.2513258544921873,9.543287817382812,10.255183775910071
1.231037055458841,-1.9728221679687499,3.1076737548828124,9.552864624023437,10.237523430895521
1.2335239990052225,-1.9297265380859374,2.935291235351562,9.572018237304688,10.196240105225964
1.236010942551604,-1.9105729248046874,2.834734765625,9.552864624023437,10.146094451430965
1.2384978860979856,-1.8722656982421875,2.6575638427734374,9.572018237304688,10.108984002288487
1.240984829644367,-1.695094775390625,2.5139117431640625,9.581595043945311,10.04987871250853
1.2434717731907485,-1.5562310791015623,2.39420166015625,9.557653027343749,9.975108428089875
1.24595871673713,-1.4173673828125,2.1930887207031247,9.528922607421874,9.880229475724322
1.2484456602835114,-1.1635820068359375,2.0350714111328125,9.504980590820312,9.789795440504019
1.250932603829893,-0.9337386474609375,1.9488801513671874,9.495403784179686,9.738207983544461
1.2534195473762746,-0.6703764648437499,1.8243816650390623,9.514557397460937,9.711054295694456
1.255906490922656,-0.44532150878906246,1.7525556152343749,9.466673364257812,9.637824807301076
1.2583934344690375,-0.229843359375,1.695094775390625,9.428366137695312,9.582288990311499
1.260880378015419,-0.0047884033203125,1.6424223388671875,9.414000927734374,9.55620152233093
1.2633673215618004,0.2154781494140625,1.5849614990234373,9.394847314453125,9.530041440001645
1.2658542651081819,0.4070142822265625,1.608903515625,9.370905297851563,9.516727234182419
1.2683412086545636,0.5746083984375,1.7334020019531249,9.366116894531249,9.542484110227992
1.270828152200945,0.7326257080078125,1.8148048583984373,9.361328491210937,9.563719371795587
1.2733150957473265,0.814028564453125,1.9105729248046874,9.370905297851563,9.598270547658304
1.275802039293708,0.8810662109374999,1.9728221679687499,9.370905297851563,9.616765104534226
1.2782889828400894,0.8858546142578124,2.0638018310546875,9.337386474609374,9.603686925951127
1.2807759263864709,0.8379705810546875,2.2457611572265623,9.327809667968749,9.630870732798357
1.2832628699328525,0.8044517578125,2.408566870117187,9.332598071289063,9.671903833201716
1.285749813479234,0.679953271484375,2.5713725830078125,9.394847314453125,9.76408979239405
1.2882367570256155,0.5267243652343749,2.6815058593749996,9.414000927734374,9.802618308297925
1.290723700571997,0.373495458984375,2.868253588867187,9.375693701171874,9.811728180403563
1.2932106441183784,0.1771709228515625,3.0550013183593747,9.423577734375,9.90798869129804
1.2956975876647598,-0.028730419921875,3.1507693847656246,9.404424121093749,9.918234026398812
1.2981845312111415,-0.3016694091796875,3.21780703125,9.437942944335937,9.975973814286867
1.300671474757523,-0.5027823486328125,3.356670727539062,9.4618849609375,10.0522283836585
1.3031584183039044,-0.7852981445312499,3.414131567382812,9.452308154296874,10.080630782792872
1.305645361850286,-1.0295067138671874,3.4715924072265625,9.495403784179686,10.162407733427381
1.3081323053966674,-1.235408056640625,3.4668040039062498,9.533711010742186,10.219423110149602
1.3106192489430488,-1.426944189453125,3.447650390625,9.514557397460937,10.22004233872685
1.3131061924894305,-1.608903515625,3.4332851806640625,9.548076220703125,10.273352771647357
1.315593136035812,-1.7477672119140624,3.366247534179687,9.557653027343749,10.282754693150363
1.3180800795821934,-1.8722656982421875,3.303998291015625,9.557653027343749,10.284479322889498
1.3205670231285749,-1.9201497314453124,3.1220389648437497,9.557653027343749,10.236348649800146
1.3230539666749563,-1.9728221679687499,3.0166940917968748,9.619902270507811,10.273022449310252
1.3255409102213378,-1.9297265380859374,2.940079638671875,9.600748657226562,10.224592293718302
1.3280278537677195,-1.8626888916015625,2.7629087158203123,9.610325463867188,10.171609017274788
1.330514797314101,-1.7669208251953124,2.6144682128906247,9.572018237304688,10.078739324638669
1.3330017408604824,-1.656787548828125,2.446874096679687,9.548076220703125,9.994893563380774
1.3354886844068639,-1.4796166259765624,2.3415292236328122,9.519345800781249,9.914129762104405
1.3379756279532453,-1.2689268798828124,2.1499930908203124,9.557653027343749,9.878328659654796
1.3404625714996268,-1.0869675537109373,2.020706201171875,9.5001921875,9.773351708278529
1.3429495150460085,-0.8810662109374999,1.924938134765625,9.466673364257812,9.70049323881415
1.34543645859239,-0.603338818359375,1.7717092285156248,9.433154541015625,9.61703571350499
1.3479234021387714,-0.36391865234375,1.7094599853515624,9.414000927734374,9.57486833822928
1.3504103456851528,-0.12449848632812499,1.637633935546875,9.423577734375,9.565623978380135
1.3528972892315343,0.1005564697265625,1.5849614990234373,9.3852705078125,9.5186930332796
1.3553842327779158,0.32082302246093747,1.62805712890625,9.404424121093749,9.549695831602877
1.3578711763242974,0.5027823486328125,1.656787548828125,9.375693701171874,9.534220862254166
1.360358119870679,0.6655880615234374,1.7190367919921874,9.361328491210937,9.541098787887218
1.3628450634170604,0.7852981445312499,1.8004396484374998,9.370905297851563,9.574557023944891
1.3653320069634418,0.8188169677734375,1.9009961181640624,9.356540087890625,9.582749599373493
1.3678189505098233,0.833182177734375,2.001552587890625,9.342174877929686,9.590445075866208
1.370305894056205,0.8858546142578124,2.1595698974609374,9.318232861328125,9.60614096281939
1.3727928376025864,0.8475473876953125,2.31758720703125,9.366116894531249,9.685746884913303
1.3752797811489679,0.7565677246093749,2.4660277099609376,9.380482104492186,9.72867575268669
1.3777667246953493,0.6177040283203125,2.6575638427734374,9.399635717773437,9.787612347853894
1.3802536682417308,0.49320554199218747,2.7916391357421872,9.442731347656249,9.859091036950069
1.3827406117881123,0.28730419921875,2.940079638671875,9.394847314453125,9.848338339360035
1.385227555334494,0.0526724365234375,3.0933085449218747,9.399635717773437,9.895680055786876
1.3877144988808754,-0.13407529296874998,3.2321722412109373,9.452308154296874,9.99054768392736
1.3902014424272569,-0.4070142822265625,3.284844677734375,9.380482104492186,9.947326761269805
1.3926883859736383,-0.6368576416015624,3.399766357421875,9.466673364257812,10.078784823889844
1.3951753295200198,-0.8906430175781249,3.423708374023437,9.509768994140625,10.146463932673159
1.3976622730664012,-1.1061211669921875,3.5146880371093747,9.5001921875,10.189709889575067
1.400149216612783,-1.3168109130859373,3.4620156005859375,9.567229833984374,10.259211943214904
1.4026361601591644,-1.5083470458984374,3.5051112304687497,9.5384994140625,10.273455437237237
1.4051231037055458,-4.874594580078124,-1.915361328125,9.327809667968749,10.697584518911503
1.4076100472519273,-3.4859576171874997,-2.0542250244140625,9.188945971679686,10.040342077349997
1.4100969907983087,-2.068590234375,-2.0638018310546875,9.141061938476563,9.596736784901479
1.4125839343446902,-0.7565677246093749,-1.8531120849609375,9.0788126953125,9.296841349507709
1.4150708778910719,0.354341845703125,-1.6136919189453125,9.09796630859375,9.24675892976521
1.4175578214374533,1.4030021728515625,-1.216254443359375,9.050082275390624,9.238597250630486
1.4200447649838348,2.2553379638671873,-0.8954314208984374,9.045293872070312,9.365131498964951
1.4225317085302163,3.0119056884765625,-0.33518823242187495,9.030928662109375,9.525838520967076
1.4250186520765977,3.5625720703124997,0.1292868896484375,9.069235888671875,9.744725468702523
1.4275055956229792,3.9360675292968748,0.6272808349609375,9.09796630859375,9.932728718403693
1.4299925391693609,4.1754876953124995,1.158793603515625,9.165003955078124,10.137790568257586
1.4324794827157423,4.223371728515625,1.5801730957031248,9.184157568359375,10.231449848875858
1.4349664262621238,4.180276098632812,2.0781670410156248,9.198522778320312,10.315343320241068
1.4374533698085052,4.017470385742187,2.47081611328125,9.241618408203124,10.37557282123761
1.4399403133548867,3.778050219726562,2.887407202148437,9.323021264648437,10.465634682850416
1.4424272569012682,3.404554760742187,3.21780703125,9.342174877929686,10.450909369957945
1.4449142004476498,2.959233251953125,3.4572271972656248,9.404424121093749,10.447615727159384
1.4474011439940313,2.5330653564453125,3.7014357666015623,9.414000927734374,10.42786940375091
1.4498880875404128,2.068590234375,3.878606689453125,9.476250170898437,10.446146309078522
1.4523750310867942,1.5418658691406248,3.9312791259765625,9.528922607421874,10.422699841355671
1.4548619746331757,1.0486603271484374,4.050989208984375,9.533711010742186,10.411620800307208
1.4573489181795571,0.5315127685546874,3.9935283691406247,9.528922607421874,10.34558556663195
1.4598358617259388,0.028730419921875,3.9695863525390624,9.524134204101562,10.318312535731343
1.4623228052723203,-0.3687070556640625,3.9983167724609374,9.567229833984374,10.375662321130136
1.4648097488187017,-0.82360537109375,3.840299462890625,9.557653027343749,10.333196851074968
1.4672966923650832,-1.1444283935546875,3.825934252929687,9.595960253906249,10.393745352386853
1.4697836359114647,-1.4508862060546874,3.6822821533203123,9.595960253906249,10.380112033794699
1.4722705794578461,-1.7621324218749999,3.5817256835937497,9.557653027343749,10.357731457024327
1.4747575230042278,-2.001552587890625,3.447650390625,9.591171850585937,10.386678171847842
1.4772444665506093,-2.1595698974609374,3.356670727539062,9.524134204101562,10.326669978888372
1.4797314100969907,-2.308010400390625,3.189076611328125,9.533711010742186,10.314493069345588
1.4822183536433722,-2.389413256835937,3.0837317382812497,9.528922607421874,10.296555890386946
1.4847052971897536,-2.427720483398437,2.978386865234375,9.519345800781249,10.265600788037911
1.487192240736135,-2.43250888671875,2.849099975585937,9.5001921875,10.212155588037499
1.4896791842825168,-2.389413256835937,2.81558115234375,9.557653027343749,10.246244401168157
1.4921661278288982,-2.3415292236328122,2.6575638427734374,9.509768994140625,10.147960928455607
1.4946530713752797,-2.2361843505859373,2.5378537597656248,9.5001921875,10.08438762420396
1.4971400149216612,-2.1260510742187497,2.4756045166015626,9.514557397460937,10.058603946989034
1.4996269584680426,-1.9967641845703124,2.389413256835937,9.5001921875,9.9975004136115
1.5021139020144243,-1.85790048828125,2.3511060302734372,9.509768994140625,9.970717131273068
1.5046008455608058,-1.6615759521484375,2.2840683837890623,9.504980590820312,9.915768203142589
1.5070877891071872,-1.5083470458984374,2.2026655273437497,9.4618849609375,9.831282380759609
1.5095747326535687,-1.2641384765625,2.1739351074218747,9.509768994140625,9.836653204272555
1.5120616761999501,-1.0438719238281249,2.0973206542968748,9.471461767578125,9.75689553777179
1.5145486197463316,-0.8762778076171874,1.9967641845703124,9.428366137695312,9.677242274085357
1.5170355632927133,-0.6416460449218749,1.9584569580078124,9.437942944335937,9.660332826765007
1.5195225068390947,-0.44532150878906246,1.9393033447265624,9.476250170898437,9.682898636798305
1.5220094503854762,-0.239420166015625,1.9009961181640624,9.466673364257812,9.658623755107044
1.5244963939318577,-0.028730419921875,1.867477294921875,9.442731347656249,9.625667363257865
1.5269833374782391,0.1292868896484375,1.85790048828125,9.466673364257812,9.648130073218281
1.5294702810246206,0.316034619140625,1.8770541015625,9.423577734375,9.61389761212882
1.5319572245710023,0.47884033203125,1.886630908203125,9.399635717773437,9.59905286339279
1.5344441681173837,0.6081272216796875,1.886630908203125,9.423577734375,9.629798140010177
1.5369311116637652,0.6607996582031249,1.9393033447265624,9.351751684570312,9.573547577623074
1.5394180552101466,0.7517793212890624,2.0350714111328125,9.414000927734374,9.660750553849923
1.541904998756528,0.8475473876953125,2.04943662109375,9.361328491210937,9.620446879362047
1.5443919423029095,0.852335791015625,2.1739351074218747,9.366116894531249,9.652803521980092
1.5468788858492912,0.8188169677734375,2.212242333984375,9.409212524414063,9.700399873230834
1.5493658293956727,0.7805097412109374,2.3415292236328122,9.380482104492186,9.699762835964073
1.5518527729420541,0.737414111328125,2.437297290039062,9.409212524414063,9.747690905091732
1.5543397164884356,0.5889736083984375,2.5857377929687497,9.342174877929686,9.711290403195516
1.556826660034817,0.4836287353515625,2.7198130859375,9.414000927734374,9.81094763228702
1.5593136035811985,0.33518823242187495,2.7724855224609373,9.375693701171874,9.782773609851327
1.5618005471275802,0.181959326171875,2.93050283203125,9.437942944335937,9.884114682937698
1.5642874906739617,-0.0383072265625,3.0071172851562498,9.437942944335937,9.905502956984714
1.5667744342203431,-0.2442085693359375,3.1076737548828124,9.404424121093749,9.907596431099446
1.5692613777667246,-0.44532150878906246,3.2130186279296873,9.442731347656249,9.984336495412368
1.571748321313106,-0.6560112548828124,3.2800562744140622,9.476250170898437,10.049300335411846
1.5742352648594875,-0.8810662109374999,3.342305517578125,9.495403784179686,10.104948137694862
1.5767222084058692,-1.1109095703125,3.399766357421875,9.485826977539062,10.137723847406644
1.5792091519522506,-1.2832920898437499,3.366247534179687,9.524134204101562,10.182710512774271
1.581696095498632,-1.446097802734375,3.35188232421875,9.543287817382812,10.217663937314168
1.5841830390450136,-1.618480322265625,3.308786694335937,9.562441430664062,10.247333021672329
1.586669982591395,-1.7286135986328124,3.265691064453125,9.572018237304688,10.260427682953612
1.5891569261377765,-1.8531120849609375,3.189076611328125,9.5384994140625,10.226788601727279
1.5916438696841582,-1.8722656982421875,3.0980969482421874,9.576806640625,10.23810573189401
1.5941308132305396,-1.89620771484375,2.9927520751953125,9.605537060546874,10.238091174772682
1.596617756776921,-1.905784521484375,2.834734765625,9.572018237304688,10.163231226783438
1.5991047003233025,-1.8818425048828125,2.767697119140625,9.557653027343749,10.126707754624702
1.601591643869684,-1.7764976318359373,2.5761609863281247,9.504980590820312,10.006857913214748
1.6040785874160655,-1.6136919189453125,2.437297290039062,9.552864624023437,9.990077187600685
1.6065655309624471,-1.4700398193359374,2.31758720703125,9.5384994140625,9.925482285748073
1.6090524745088286,-1.2689268798828124,2.231395947265625,9.514557397460937,9.854750416400266
1.61153941805521,-1.0821791503906248,2.0542250244140625,9.504980590820312,9.784457480940882
1.6140263616015915,-0.8810662109374999,1.944091748046875,9.476250170898437,9.71365470326861
1.616513305147973,-0.6272808349609375,1.867477294921875,9.485826977539062,9.688233385956693
1.6190002486943544,-0.40222587890625,1.7717092285156248,9.457096557617186,9.630026715859316
1.6214871922407361,-0.19153613281249998,1.7381904052734374,9.428366137695312,9.589164718660172
1.6239741357871176,0.0526724365234375,1.70467158203125,9.4618849609375,9.614361476570844
1.626461079333499,0.258573779296875,1.695094775390625,9.394847314453125,9.550045170510115
1.6289480228798805,0.45010991210937495,1.7094599853515624,9.361328491210937,9.526768785630043
1.631434966426262,0.5889736083984375,1.7525556152343749,9.361328491210937,9.542159724938431
1.6339219099726436,0.7134720947265625,1.8100164550781248,9.366116894531249,9.566051833417525
1.636408853519025,0.833182177734375,1.8770541015625,9.409212524414063,9.630721934054439
1.6388957970654066,0.8571241943359375,2.020706201171875,9.361328491210937,9.615216407150083
1.641382740611788,0.833182177734375,2.0877438476562498,9.332598071289063,9.599492365482096
1.6438696841581695,0.86191259765625,2.2361843505859373,9.337386474609374,9.640031117793244
1.646356627704551,0.7757213378906249,2.418143676757812,9.375693701171874,9.713536678970053
1.6488435712509326,0.6464344482421874,2.50912333984375,9.370905297851563,9.72252248810592
1.651330514797314,0.5602431884765625,2.710236279296875,9.356540087890625,9.757258607629279
1.6538174583436955,0.3495534423828125,2.858676782226562,9.3852705078125,9.817205460778439
1.656304401890077,0.19632453613281248,3.0262708984374997,9.423577734375,9.899529089306508
1.6587913454364585,-0.0909796630859375,3.0837317382812497,9.399635717773437,9.892968733379302
1.66127828898284,-0.296881005859375,3.227383837890625,9.442731347656249,9.983452312338036
1.6637652325292216,-0.55545478515625,3.323151904296875,9.457096557617186,10.039349774635793
1.666252176075603,-0.74699091796875,3.4093431640625,9.466673364257812,10.089574858606076
1.6687391196219845,-0.9624690673828125,3.438073583984375,9.5384994140625,10.184776273764218
1.671226063168366,-1.22583125,3.4811692138671875,9.495403784179686,10.187438067230993
1.6737130067147474,-1.3551181396484375,3.4428619873046875,9.562441430664062,10.253288738298185
1.676199950261129,-1.5897499023437498,3.42849677734375,9.543287817382812,10.264318646148201
1.6786868938075106,-1.7477672119140624,3.2800562744140622,9.595960253906249,10.290573967710129
1.681173837353892,-1.8339584716796873,3.2034418212890623,9.557653027343749,10.24569053648033
1.6836607809002735,-1.8914193115234375,3.1603461914062496,9.552864624023437,10.238284894769155
1.686147724446655,-1.93451494140625,3.0837317382812497,9.581595043945311,10.249815270450705
1.6886346679930364,-1.89620771484375,2.959233251953125,9.581595043945311,10.205862468378426
1.6911216115394179,-1.9105729248046874,2.7533319091796873,9.572018237304688,10.14172858236688
1.6936085550857995,-1.7860744384765623,2.6384102294921874,9.586383447265625,10.10198089667946
1.696095498632181,-1.6472107421875,2.4660277099609376,9.567229833984374,10.016310827433111
1.6985824421785625,-1.4508862060546874,2.2936451904296873,9.557653027343749,9.935522655280604
1.701069385724944,-1.2737152832031249,2.1547814941406247,9.552864624023437,9.875356015611516
1.7035563292713254,-1.0965443603515623,2.01112939453125,9.528922607421874,9.800378412796219
1.7060432728177068,-0.9002198242187499,1.915361328125,9.485826977539062,9.719049243470323
1.7085302163640885,-0.6272808349609375,1.8243816650390623,9.471461767578125,9.665942153785846
1.71101715991047,-0.4213794921875,1.7238251953125,9.428366137695312,9.593915884917378
1.7135041034568514,-0.181959326171875,1.675941162109375,9.447519750976562,9.596745147200988
1.715991047003233,0.086191259765625,1.6615759521484375,9.414000927734374,9.559899426531725
1.7184779905496144,0.24899697265624998,1.6424223388671875,9.394847314453125,9.540582094059515
1.7209649340959958,0.45968671875,1.675941162109375,9.399635717773437,9.55893520665821
1.7234518776423775,0.622492431640625,1.714248388671875,9.356540087890625,9.532627485736464
1.725938821188759,0.7326257080078125,1.8100164550781248,9.356540087890625,9.558124419152108
1.7284257647351404,0.8044517578125,1.905784521484375,9.337386474609374,9.563782904750354
1.7309127082815219,0.8810662109374999,2.0159177978515626,9.356540087890625,9.611713928954334
1.7333996518279033,0.833182177734375,2.1260510742187497,9.370905297851563,9.645110254050152
1.7358865953742848,0.8714894042968749,2.2361843505859373,9.399635717773437,9.70119404292324
1.7383735389206665,0.74699091796875,2.398990063476562,9.366116894531249,9.697282837899014
1.740860482467048,0.6703764648437499,2.5953145996093747,9.361328491210937,9.737532212830908
1.7433474260134294,0.5410895751953124,2.7581203125,9.351751684570312,9.765002056142835
1.7458343695598109,0.3591302490234375,2.91134921875,9.428366137695312,9.874159044481685
1.7483213131061923,0.1388636962890625,3.1028853515624997,9.418789331054686,9.917699990112515
1.7508082566525738,-0.09576806640624999,3.1842882080078123,9.428366137695312,9.952032502993566
1.7532952001989555,-0.316034619140625,3.2034418212890623,9.437942944335937,9.971794442497279
1.755782143745337,-0.5793968017578125,3.35188232421875,9.447519750976562,10.04123723524096
1.7582690872917184,-0.7996633544921875,3.418919970703125,9.495403784179686,10.123792188266423
1.7607560308380998,-1.0534487304687499,3.4715924072265625,9.5384994140625,10.205130040411538
1.7632429743844813,-1.2641384765625,3.4907460205078125,9.533711010742186,10.231080075141806
1.765729917930863,-1.47482822265625,3.447650390625,9.528922607421874,10.240203980417373
1.7682168614772444,-1.6232687255859375,3.418919970703125,9.5384994140625,10.26191922564238
1.770703805023626,-1.7717092285156248,3.303998291015625,9.552864624023437,10.26219181375792
1.7731907485700074,-1.867477294921875,3.299209887695312,9.6151138671875,10.335505406563174
1.7756776921163888,-1.9488801513671874,3.1364041748046874,9.581595043945311,10.268501768918512
1.7781646356627703,-1.9488801513671874,3.0071172851562498,9.572018237304688,10.220783793152657
1.780651579209152,-1.8818425048828125,2.8730419921875,9.595960253906249,10.192063318906767
1.7831385227555334,-1.9105729248046874,2.7198130859375,9.595960253906249,10.155300355872399
1.7856254663019149,-1.7764976318359373,2.5426421630859375,9.572018237304688,10.062032902983104
1.7881124098482963,-1.6136919189453125,2.418143676757812,9.552864624023437,9.985421522180806
1.7905993533946778,-1.4030021728515625,2.250549560546875,9.610325463867188,9.96954080903218
1.7930862969410593,-1.216254443359375,2.1404162841796874,9.514557397460937,9.827891900613867
1.795573240487441,-1.0007762939453124,2.0063409912109376,9.466673364257812,9.728559089047284
1.7980601840338224,-0.8188169677734375,1.867477294921875,9.481038574218749,9.697836105007461
1.8005471275802039,-0.55545478515625,1.7956512451171873,9.452308154296874,9.637376347130534
1.8030340711265853,-0.3112462158203125,1.68551796875,9.457096557617186,9.611166439612646
1.8055210146729668,-0.1005564697265625,1.6328455322265625,9.3852705078125,9.526783226280065
1.8080079582193482,0.1484405029296875,1.656787548828125,9.433154541015625,9.578694282601655
1.81049490176573,0.3447650390625,1.656787548828125,9.394847314453125,9.54604441514907
1.8129818453121114,0.565031591796875,1.695094775390625,9.323021264648437,9.492698904862202
1.8154687888584928,0.699106884765625,1.7429788085937499,9.370905297851563,9.55722719541793
1.8179557324048743,0.7948749511718749,1.8004396484374998,9.361328491210937,9.565975132521716
1.8204426759512558,0.8714894042968749,1.9536685546875,9.34696328125,9.588641049930498
1.8229296194976372,0.9097966308593749,2.0446482177734375,9.342174877929686,9.606484668898801
1.825416563044019,0.8762778076171874,2.2074539306640624,9.351751684570312,9.648625561290595
1.8279035065904004,0.8475473876953125,2.370259643554687,9.370905297851563,9.703109473439719
1.8303904501367818,0.737414111328125,2.528276953125,9.380482104492186,9.743172401019446
1.8328773936831633,0.5602431884765625,2.6767174560546874,9.380482104492186,9.770984253517167
1.8353643372295447,0.45010991210937495,2.81558115234375,9.351751684570312,9.776776346438336
1.8378512807759262,0.19632453613281248,2.920926025390625,9.404424121093749,9.84954543208477
1.8403382243223079,0.05746083984375,3.1172505615234374,9.409212524414063,9.912307155300637
1.8428251678686893,-0.22026655273437498,3.2417490478515623,9.414000927734374,9.958959168049825
1.8453121114150708,-0.40222587890625,3.375824340820312,9.528922607421874,10.117229941835488
1.8477990549614522,-0.679953271484375,3.385401147460937,9.490615380859374,10.099260254495706
1.8502859985078337,-0.9097966308593749,3.4332851806640625,9.476250170898437,10.120004661201653
1.8527729420542152,-1.158793603515625,3.447650390625,9.543287817382812,10.212905472828613
1.8552598856005968,-1.3742717529296875,3.4668040039062498,9.557653027343749,10.259438787940303
1.8577468291469783,-1.5179238525390624,3.4572271972656248,9.567229833984374,10.285348774441285
1.8602337726933598,-1.7238251953125,3.404554760742187,9.591171850585937,10.322458229044017
1.8627207162397412,-1.8626888916015625,3.337517114257812,9.557653027343749,10.293559237987255
1.8652076597861227,-1.8914193115234375,3.2130186279296873,9.581595043945311,10.281435663446244
1.8676946033325041,-1.9488801513671874,3.0597897216796874,9.591171850585937,10.254317356741097
1.8701815468788858,-1.9488801513671874,2.916137622070312,9.552864624023437,10.176404817034616
1.8726684904252673,-1.9297265380859374,2.7820623291015623,9.586383447265625,10.16673314849994
1.8751554339716487,-1.8339584716796873,2.6671406494140624,9.572018237304688,10.10448296821248
1.8776423775180302,-1.70467158203125,2.4899697265625,9.595960253906249,10.059239913449282
1.8801293210644117,-1.5705962890624998,2.365471240234375,9.576806640625,9.988866418343571
1.8826162646107931,-1.35990654296875,2.2170307373046874,9.5384994140625,9.8867356679459
1.8851032081571748,-1.1444283935546875,2.039859814453125,9.543287817382812,9.825735940681598
1.8875901517035563,-0.93852705078125,1.9201497314453124,9.514557397460937,9.751646552546719
1.8900770952499377,-0.6607996582031249,1.8100164550781248,9.504980590820312,9.698323143090551
1.8925640387963192,-0.45968671875,1.6807295654296874,9.433154541015625,9.592735185867914
1.8950509823427006,-0.181959326171875,1.68551796875,9.437942944335937,9.588996143491796
1.897537925889082,0.033518823242187495,1.6472107421875,9.442731347656249,9.585384814638347
1.9000248694354638,0.21068974609375,1.62805712890625,9.409212524414063,9.551347575796933
1.9025118129818452,0.4070142822265625,1.618480322265625,9.375693701171874,9.523065239600715
1.9049987565282267,0.5985504150390625,1.7094599853515624,9.370905297851563,9.544337700551258
1.9074857000746082,0.718260498046875,1.7669208251953124,9.375693701171874,9.56773430461765
1.9099726436209896,0.8475473876953125,1.8291700683593748,9.375693701171874,9.589986031875382
1.9124595871673713,0.8714894042968749,2.001552587890625,9.390058911132812,9.640483022050198
1.9149465307137528,0.8667010009765624,2.1356278808593747,9.332598071289063,9.61298412725341
1.9174334742601342,0.8571241943359375,2.2601263671875,9.366116894531249,9.673002572221094
1.9199204178065157,0.7613561279296874,2.418143676757812,9.404424121093749,9.74013732163925
1.9224073613528971,0.6512228515624999,2.5713725830078125,9.394847314453125,9.762131131311879
1.9248943048992786,0.51714755859375,2.7581203125,9.3852705078125,9.795813991721142
1.9273812484456603,0.3447650390625,2.85388837890625,9.404424121093749,9.833958249902519
1.9298681919920417,0.143652099609375,3.0358477050781247,9.409212524414063,9.887885898600405
1.9323551355384232,-0.0909796630859375,3.1555577880859373,9.466673364257812,9.979164636310665
1.9348420790848047,-0.3016694091796875,3.308786694335937,9.481038574218749,10.0463508930792
1.9373290226311861,-0.5458779785156249,3.366247534179687,9.514557397460937,10.107245307123883
1.9398159661775676,-0.7709329345703124,3.394977954101562,9.514557397460937,10.131486335578776
1.9423029097239493,-1.0295067138671874,3.4524387939453125,9.471461767578125,10.1334991841185
1.9447898532703307,-1.2832920898437499,3.447650390625,9.490615380859374,10.178649817693739
1.9472767968167122,-1.4604630126953124,3.4715924072265625,9.5384994140625,10.2551390592929
1.9497637403630936,-1.6232687255859375,3.39018955078125,9.562441430664062,10.27466168107604
1.952250683909475,-1.7525556152343749,3.318363500976562,9.552864624023437,10.2635378907091
1.9547376274558566,-1.8914193115234375,3.265691064453125,9.581595043945311,10.29801770859859
1.9572245710022382,-1.9297265380859374,3.1507693847656246,9.595960253906249,10.28268668307646
1.9597115145486197,-1.944091748046875,3.0166940917968748,9.572018237304688,10.222693828125719
1.9621984580950012,-1.93451494140625,2.877830395507812,9.634267480468749,10.239304943649756
1.9646854016413826,-1.8818425048828125,2.73896669921875,9.595960253906249,10.15508360315962
1.967172345187764,-1.7429788085937499,2.5713725830078125,9.610325463867188,10.099915227827669
1.9696592887341455,-1.637633935546875,2.4851813232421875,9.586383447265625,10.037764627358769
1.9721462322805272,-1.4891934326171874,2.2553379638671873,9.576806640625,9.95085281988081
1.9746331758269087,-1.2641384765625,2.1260510742187497,9.552864624023437,9.86789550932877
1.9771201193732901,-1.0582371337890624,1.9871873779296874,9.495403784179686,9.758661410815884
1.9796070629196716,-0.7805097412109374,1.8626888916015625,9.504980590820312,9.71717352911287
1.982094006466053,-0.565031591796875,1.7860744384765623,9.457096557617186,9.640850475948827
1.9845809500124345,-0.3495534423828125,1.714248388671875,9.442731347656249,9.603437428918657
1.9870678935588162,-0.13407529296874998,1.656787548828125,9.414000927734374,9.559620004661285
1.9895548371051976,0.143652099609375,1.6424223388671875,9.423577734375,9.56671335311874
1.992041780651579,0.33518823242187495,1.618480322265625,9.3852705078125,9.529697382893659
1.9945287241979606,0.507570751953125,1.6519991455078125,9.404424121093749,9.56189951287958
1.997015667744342,0.6560112548828124,1.6998831787109374,9.361328491210937,9.537002920632613
1.9995026112907235,0.7805097412109374,1.8100164550781248,9.380482104492186,9.585342953513813
2.001989554837105,0.8667010009765624,1.9919757812499999,9.409212524414063,9.656729180616528
2.0044764983834864,0.852335791015625,2.0254946044921875,9.34696328125,9.60181374920952
2.006963441929868,0.8906430175781249,2.1691467041015624,9.351751684570312,9.641250021575988
2.0094503854762498,0.8044517578125,2.308010400390625,9.34696328125,9.66125132785576
2.011937329022631,0.7326257080078125,2.4564509033203126,9.390058911132812,9.733657987776326
2.0144242725690127,0.622492431640625,2.6144682128906247,9.380482104492186,9.757888366668453
2.016911216115394,0.4213794921875,2.8203695556640622,9.433154541015625,9.854767866451072
2.0193981596617756,0.26336218261718747,2.925714428710937,9.390058911132812,9.838819589368685
2.021885103208157,0.0430956298828125,3.0789433349609374,9.457096557617186,9.945774207838735
2.0243720467545385,-0.1580173095703125,3.23696064453125,9.457096557617186,9.996977492445545
2.02685899030092,-0.44532150878906246,3.2800562744140622,9.457096557617186,10.019668443097709
2.0293459338473014,-0.689530078125,3.385401147460937,9.495403784179686,10.104409219864504
2.031832877393683,-0.8906430175781249,3.4572271972656248,9.4618849609375,10.113008053605467
2.0343198209400644,-1.1013327636718748,3.438073583984375,9.514557397460937,10.176447626495552
2.036806764486446,-1.3263877197265623,3.4859576171874997,9.509768994140625,10.215033588480626
2.0392937080328277,-1.5514426757812498,3.4428619873046875,9.557653027343749,10.276624174842437
2.041780651579209,-5.97592734375,-1.8100164550781248,9.34696328125,11.240711266039542
2.0442675951255906,-4.448426684570312,-2.068590234375,9.289502441406249,10.505352023356547
2.046754538671972,-3.0023288818359375,-2.1068974609374997,9.222464794921875,9.925061839564753
2.0492414822183536,-1.62805712890625,-2.0733786376953125,9.193734375,9.564215636856499
2.0517284257647352,-0.316034619140625,-1.8914193115234375,9.083601098632812,9.283811383886597
2.0542153693111165,0.8092401611328125,-1.5945383056640625,9.050082275390624,9.225042614425139
2.056702312857498,1.8291700683593748,-1.197100830078125,9.064447485351561,9.3243295604055
2.0591892564038794,2.6527754394531247,-0.74699091796875,9.09796630859375,9.506219223013979
2.061676199950261,3.361459130859375,-0.27293898925781246,9.064447485351561,9.671510295449785
2.0641631434966423,3.873818286132812,0.201112939453125,9.050082275390624,9.846365000330424
2.066650087043024,4.256890551757812,0.70868369140625,9.126696728515624,10.095540744229995
2.0691370305894057,4.395754248046875,1.2497732666015624,9.150638745117186,10.228332125560545
2.071623974135787,4.429273071289062,1.7334020019531249,9.198522778320312,10.355479889589818
2.0741109176821686,4.338293408203125,2.1883003173828124,9.203311181640624,10.407227521334764
2.07659786122855,4.170699291992188,2.6384102294921874,9.294290844726563,10.523297174825062
2.0790848047749315,3.81156904296875,2.9496564453125,9.337386474609374,10.50786933164423
2.081571748321313,-1.120486376953125,-1.848323681640625,9.184157568359375,9.435069707930294
2.0840586918676944,0.0909796630859375,-1.7573440185546874,9.150638745117186,9.318300528652475
2.086545635414076,1.1348515869140625,-1.5753846923828123,9.064447485351561,9.270055731656186
2.0890325789604574,2.0925322509765625,-1.2689268798828124,9.045293872070312,9.370496672000845
2.091519522506839,2.8107927490234372,-0.8762778076171874,9.035717065429687,9.50329424781651
2.0940064660532203,3.4572271972656248,-0.411802685546875,9.0021982421875,9.652024375071814
2.096493409599602,3.897760302734375,0.11013327636718749,9.030928662109375,9.836784902408102
2.0989803531459836,4.204218115234375,0.718260498046875,9.088389501953124,10.039430852529996
2.101467296692365,4.309562988281249,1.2976572998046874,9.09796630859375,10.15033194383351
2.1039542402387466,4.1754876953124995,1.8291700683593748,9.069235888671875,10.15044827764084
2.106441183785128,3.9983167724609374,2.384624853515625,9.188945971679686,10.300956303926116
2.1089281273315095,3.6439749267578123,2.940079638671875,9.222464794921875,10.342943412885228
2.111415070877891,3.2225954345703123,3.4620156005859375,9.294290844726563,10.428543314383933
2.1139020144242724,2.6384102294921874,3.859453076171875,9.318232861328125,10.425260200311401
2.116388957970654,2.020706201171875,4.204218115234375,9.423577734375,10.514871412800424
2.1188759015170353,1.39821376953125,4.496310717773437,9.447519750976562,10.55591972597193
2.121362845063417,0.7517793212890624,4.73094248046875,9.514557397460937,10.652407773409742
2.1238497886097982,0.0526724365234375,4.7884033203125,9.572018237304688,10.703042272122568
2.12633673215618,-0.59376201171875,4.8889597900390624,9.624690673828125,10.811528648718145
2.1288236757025616,-1.1875240234375,4.860229370117187,9.667786303710937,10.885684859052814
2.131310619248943,-1.7381904052734374,4.754884497070313,9.667786303710937,10.913126246849938
2.1337975627953245,-2.1691467041015624,4.6830584472656245,9.715670336914062,11.001385546376074
2.1362845063417057,-2.6096798095703124,4.453215087890625,9.682151513671874,10.972037698677225
2.1387714498880874,-2.89219560546875,4.185064501953125,9.758765966796874,11.005138504376664
2.141258393434469,-3.0837317382812497,3.88818349609375,9.734823950195311,10.926763915921088
2.1437453369808503,-3.2417490478515623,3.5817256835937497,9.730035546875,10.863300028316106
2.146232280527232,-3.2609026611328122,3.2704794677734372,9.730035546875,10.770474170525722
2.1487192240736133,-3.1603461914062496,2.959233251953125,9.701305126953125,10.623566757697155
2.151206167619995,-3.0645781249999997,2.6479870361328124,9.677363110351562,10.490702130808463
2.153693111166376,-2.8203695556640622,2.3127988037109373,9.643844287109374,10.310540983429316
2.156180054712758,-2.5234885498046875,2.04943662109375,9.648632690429688,10.18156656510696
2.1586669982591395,-2.1978771240234374,1.8100164550781248,9.600748657226562,10.014050039778947
2.161153941805521,-1.8243816650390623,1.5035586425781249,9.528922607421874,9.817811523432184
2.1636408853519025,-1.388636962890625,1.3551181396484375,9.504980590820312,9.700995506595246
2.1661278288982837,-1.005564697265625,1.2497732666015624,9.4618849609375,9.59689327815591
2.1686147724446654,-0.6177040283203125,1.139639990234375,9.414000927734374,9.502828581076699
2.171101715991047,-0.239420166015625,1.120486376953125,9.423577734375,9.492977881183583
2.1735886595374283,0.21068974609375,1.1252747802734375,9.404424121093749,9.473849616161237
2.17607560308381,0.51714755859375,1.13006318359375,9.366116894531249,9.448207770699012
2.178562546630191,0.7852981445312499,1.1875240234375,9.323021264648437,9.431099192731056
2.181049490176573,1.0630255371093749,1.3215993164062498,9.299079248046874,9.452487657073569
2.1835364337229546,1.2306196533203124,1.4939818359375,9.327809667968749,9.526512460449556
2.186023377269336,1.35990654296875,1.6998831787109374,9.3086560546875,9.559813082447997
2.1885103208157175,1.4221557861328125,1.9105729248046874,9.327809667968749,9.627089341170521
2.1909972643620987,1.388636962890625,2.1116858642578125,9.318232861328125,9.654894792898972
2.1934842079084804,1.2880804931640624,2.3319524169921872,9.34696328125,9.719201408193022
2.1959711514548617,1.149216796875,2.5426421630859375,9.3852705078125,9.791273202221307
2.1984580950012433,1.0007762939453124,2.7581203125,9.361328491210937,9.810364517646919
2.200945038547625,0.8379705810546875,3.0166940917968748,9.3852705078125,9.893732381816804
2.2034319820940063,0.55545478515625,3.227383837890625,9.414000927734374,9.967344175998653
2.205918925640388,0.26336218261718747,3.347093920898437,9.428366137695312,10.008320807257718
2.208405869186769,0.0,3.4715924072265625,9.437942944335937,10.056178243371267
2.210892812733151,-0.3591302490234375,3.5913024902343746,9.471461767578125,10.135828339451166
2.2133797562795325,-0.6512228515624999,3.6727053466796873,9.490615380859374,10.197285720883341
2.2158666998259138,-0.9720458740234375,3.7014357666015623,9.552864624023437,10.290904840702868
2.2183536433722955,-1.2497732666015624,3.706224169921875,9.552864624023437,10.32256040624338
2.2208405869186767,-1.47482822265625,3.69664736328125,9.576806640625,10.370898970037105
2.2233275304650584,-1.6998831787109374,3.6152445068359373,9.605537060546874,10.403169607721068
2.2258144740114396,-1.8818425048828125,3.5960908935546874,9.6151138671875,10.436647718825807
2.2283014175578213,-2.0254946044921875,3.399766357421875,9.586383447265625,10.371103474360524
2.230788361104203,-2.1212626708984375,3.289633081054687,9.639055883789062,10.403501307623557
2.233275304650584,-2.1404162841796874,3.1124621582031247,9.610325463867188,10.326042711381843
2.235762248196966,-2.1499930908203124,2.925714428710937,9.581595043945311,10.246425659472663
2.238249191743347,-2.0350714111328125,2.8203695556640622,9.581595043945311,10.193280319165373
2.240736135289729,-1.9488801513671874,2.5857377929687497,9.605537060546874,10.136592918723696
2.2432230788361105,-1.8148048583984373,2.418143676757812,9.595960253906249,10.060983486223344
2.2457100223824917,-1.5897499023437498,2.212242333984375,9.5384994140625,9.91989374783547
2.2481969659288734,-1.37906015625,2.039859814453125,9.572018237304688,9.883641439898078
2.2506839094752547,-1.1875240234375,1.886630908203125,9.5001921875,9.758239651159657
2.2531708530216363,-0.8858546142578124,1.7908628417968748,9.514557397460937,9.72207439723176
2.2556577965680176,-0.5985504150390625,1.714248388671875,9.485826977539062,9.65804450109935
2.2581447401143993,-0.296881005859375,1.66636435546875,9.471461767578125,9.621512173848298
2.260631683660781,-0.08140285644531249,1.5610194824218748,9.447519750976562,9.57596145014329
2.263118627207162,0.1484405029296875,1.5322890624999999,9.366116894531249,9.491790665411392
2.265605570753544,0.38307226562499996,1.5945383056640625,9.409212524414063,9.551051099146708
2.268092514299925,0.584185205078125,1.6232687255859375,9.370905297851563,9.528386002393063
2.2705794578463068,0.7422025146484375,1.714248388671875,9.394847314453125,9.57876130680276
2.2730664013926885,0.8858546142578124,1.8243816650390623,9.399635717773437,9.615937732960562
2.2755533449390697,0.9241618408203125,1.8914193115234375,9.409212524414063,9.641826717465038
2.2780402884854514,0.97683427734375,2.0542250244140625,9.34696328125,9.619759260883736
2.2805272320318326,0.9576806640625,2.212242333984375,9.370905297851563,9.676003022937431
2.2830141755782143,0.8906430175781249,2.346317626953125,9.394847314453125,9.724279276799836
2.2855011191245955,0.814028564453125,2.5474305664062498,9.399635717773437,9.772676021502434
2.287988062670977,0.6368576416015624,2.6910826660156246,9.414000927734374,9.811774917841303
2.290475006217359,0.47884033203125,2.877830395507812,9.428366137695312,9.869411526293149
2.29296194976374,0.296881005859375,3.0166940917968748,9.452308154296874,9.926465182476058
2.295448893310122,0.023942016601562498,3.1364041748046874,9.457096557617186,9.963647909675755
2.297935836856503,-0.181959326171875,3.299209887695312,9.466673364257812,10.026754193905212
2.3004227804028847,-0.45489831542968745,3.323151904296875,9.471461767578125,10.047828574926369
2.3029097239492664,-0.6847416748046875,3.4668040039062498,9.481038574218749,10.118186280581051
2.3053966674956476,-0.9193734375,3.4763808105468748,9.524134204101562,10.180353795190834
2.3078836110420293,-1.1923124267578125,3.5194764404296874,9.548076220703125,10.245686060684136
2.3103705545884106,-1.37906015625,3.5577836669921874,9.586383447265625,10.317866985655563
2.3128574981347922,-1.5945383056640625,3.4811692138671875,9.619902270507811,10.353917673901414
2.315344441681174,-1.7238251953125,3.438073583984375,9.562441430664062,10.30690105646532
2.317831385227555,-1.848323681640625,3.318363500976562,9.586383447265625,10.311478281737074
2.320318328773937,-1.93451494140625,3.21780703125,9.591171850585937,10.299864446504042
2.322805272320318,-1.9680337646484374,3.0837317382812497,9.624690673828125,10.296466816309053
2.3252922158666998,-1.9584569580078124,2.9544448486328125,9.634267480468749,10.2656421087626
2.327779159413081,-1.905784521484375,2.7916391357421872,9.557653027343749,10.137750988144754
2.3302661029594627,-1.8148048583984373,2.6096798095703124,9.591171850585937,10.104183433114107
2.3327530465058444,-1.6903063720703124,2.5043349365234375,9.634267480468749,10.096927205391301
2.3352399900522256,-1.5514426757812498,2.269703173828125,9.567229833984374,9.954416787024813
2.3377269335986073,-1.3359645263671873,2.1308394775390624,9.552864624023437,9.878385526981061
2.3402138771449885,-1.1109095703125,1.9967641845703124,9.514557397460937,9.785090175965333
2.34270082069137,-0.9241618408203125,1.8914193115234375,9.533711010742186,9.76335945033158
2.345187764237752,-0.6703764648437499,1.7956512451171873,9.552864624023437,9.743253590234925
2.347674707784133,-0.43574470214843747,1.6903063720703124,9.490615380859374,9.649807738204759
2.350161651330515,-0.1484405029296875,1.675941162109375,9.509768994140625,9.657459276832647
2.352648594876896,0.0718260498046875,1.5849614990234373,9.437942944335937,9.570372456459449
2.3551355384232777,0.26815058593749996,1.656787548828125,9.452308154296874,9.600155163458439
2.357622481969659,0.44053310546874996,1.675941162109375,9.433154541015625,9.590998529379002
2.3601094255160406,0.63206923828125,1.70467158203125,9.428366137695312,9.602057318669056
2.3625963690624223,0.7230489013671875,1.7812860351562498,9.404424121093749,9.598904765764733
2.3650833126088036,0.852335791015625,1.9009961181640624,9.3852705078125,9.613717545608262
2.3675702561551852,0.8858546142578124,1.9776105712890624,9.3852705078125,9.632184823501426
2.3700571997015665,0.8906430175781249,2.1021090576171875,9.370905297851563,9.644997334171709
2.372544143247948,0.8571241943359375,2.2601263671875,9.375693701171874,9.682275840853025
2.37503108679433,0.8044517578125,2.4564509033203126,9.366116894531249,9.716246155439585
2.377518030340711,0.6847416748046875,2.6384102294921874,9.457096557617186,9.842090987203795
2.3800049738870928,0.5506663818359374,2.7533319091796873,9.433154541015625,9.842178349373429
2.382491917433474,0.32082302246093747,2.89219560546875,9.433154541015625,9.871784409452903
2.3849788609798557,0.143652099609375,3.1028853515624997,9.437942944335937,9.935959966264146
2.387465804526237,-0.1197100830078125,3.1938650146484373,9.423577734375,9.95082516938054
2.3899527480726186,-0.39743747558593745,3.2800562744140622,9.476250170898437,10.035738289322607
2.3924396916190003,-0.6416460449218749,3.366247534179687,9.519345800781249,10.1173749848064
2.3949266351653815,-0.8475473876953125,3.4332851806640625,9.533711010742186,10.168452652321465
2.397413578711763,-1.0678139404296874,3.42849677734375,9.514557397460937,10.169642040564215
2.3999005222581444,-1.2976572998046874,3.4524387939453125,9.586383447265625,10.271416440378772
2.402387465804526,-1.4700398193359374,3.4332851806640625,9.567229833984374,10.270362744250145
2.404874409350908,-1.6232687255859375,3.404554760742187,9.605537060546874,10.319512425298841
2.407361352897289,-1.7525556152343749,3.380612744140625,9.6151138671875,10.341683053996428
2.4098482964436707,-1.848323681640625,3.246537451171875,9.662997900390625,10.36001130679541
2.412335239990052,-1.924938134765625,3.1651345947265623,9.605537060546874,10.295135066959991
2.4148221835364336,-1.93451494140625,3.0214824951171875,9.591171850585937,10.240228610450826
2.417309127082815,-1.93451494140625,2.849099975585937,9.629479077148437,10.226758334225334
2.4197960706291965,-1.886630908203125,2.6862942626953124,9.624690673828125,10.169081748931474
2.4222830141755782,-1.7621324218749999,2.5761609863281247,9.567229833984374,10.063478662767801
2.4247699577219595,-1.6136919189453125,2.384624853515625,9.619902270507811,10.041561481930744
2.427256901268341,-1.4317325927734375,2.1978771240234374,9.524134204101562,9.878747613298591
2.4297438448147224,-1.197100830078125,2.0781670410156248,9.576806640625,9.872540406585149
2.432230788361104,-0.9911994873046874,1.9776105712890624,9.543287817382812,9.796313712857225
2.4347177319074857,-0.7757213378906249,1.8626888916015625,9.485826977539062,9.698054802317964
2.437204675453867,-0.4836287353515625,1.7621324218749999,9.509768994140625,9.68373449387163
2.4396916190002487,-0.2920926025390625,1.68551796875,9.4618849609375,9.615277215216024
2.44217856254663,0.028730419921875,1.6903063720703124,9.452308154296874,9.602296106259042
2.4446655060930116,0.1771709228515625,1.608903515625,9.428366137695312,9.566297511834668
2.4471524496393933,0.4213794921875,1.68551796875,9.457096557617186,9.615363061242677
2.4496393931857745,0.5363011718749999,1.6903063720703124,9.409212524414063,9.574864746199106
2.452126336732156,0.679953271484375,1.7717092285156248,9.409212524414063,9.598675448800224
2.4546132802785374,0.814028564453125,1.8531120849609375,9.418789331054686,9.633808144548212
2.457100223824919,0.86191259765625,1.9488801513671874,9.414000927734374,9.65217284541544
2.4595871673713003,0.8667010009765624,2.0350714111328125,9.34696328125,9.60512409365645
2.462074110917682,0.8810662109374999,2.2649147705078123,9.375693701171874,9.685543297302127
2.4645610544640637,0.8571241943359375,2.39420166015625,9.394847314453125,9.732934785351132
2.467047998010445,0.699106884765625,2.5761609863281247,9.394847314453125,9.766704250958606
2.4695349415568266,0.55545478515625,2.73896669921875,9.418789331054686,9.824665951602213
2.472021885103208,0.43574470214843747,2.89219560546875,9.442731347656249,9.88533480311887
2.4745088286495895,0.2442085693359375,2.9975404785156248,9.452308154296874,9.919224576017218
2.4769957721959712,0.0047884033203125,3.1220389648437497,9.452308154296874,9.954560747245262
2.4794827157423525,-0.239420166015625,3.246537451171875,9.481038574218749,10.024341369066619
2.481969659288734,-0.45489831542968745,3.356670727539062,9.5384994140625,10.12211153478211
2.4844566028351154,-0.6943184814453125,3.414131567382812,9.519345800781249,10.136879055603256
2.486943546381497,-0.9241618408203125,3.4428619873046875,9.572018237304688,10.214250188190492
2.4894304899278783,-1.197100830078125,3.4955344238281247,9.543287817382812,10.233579709512618
2.49191743347426,-1.3838485595703125,3.4428619873046875,9.572018237304688,10.266054190132932
2.4944043770206417,-1.5945383056640625,3.399766357421875,9.586383447265625,10.295616120043325
2.496891320567023,-1.675941162109375,3.385401147460937,9.6151138671875,10.330543760473779
2.4993782641134046,-1.8148048583984373,3.31357509765625,9.629479077148437,10.344088355148253
2.501865207659786,-1.9105729248046874,3.21780703125,9.576806640625,10.28201324757354
2.5043521512061675,-1.9680337646484374,3.1028853515624997,9.6151138671875,10.293273001466481
2.506839094752549,-1.944091748046875,2.9927520751953125,9.658209497070311,10.296459022290573
2.5093260382989304,-1.8818425048828125,2.767697119140625,9.591171850585937,10.158349079646504
2.511812981845312,-1.8195932617187498,2.6384102294921874,9.572018237304688,10.09433808193855
2.5142999253916933,-1.70467158203125,2.422932080078125,9.572018237304688,10.019981946218774
2.516786868938075,-1.5705962890624998,2.308010400390625,9.576806640625,9.975415286766124
2.5192738124844563,-1.350329736328125,2.1547814941406247,9.548076220703125,9.880902448696645
2.521760756030838,-1.139639990234375,2.0446482177734375,9.514557397460937,9.798273731191845
2.5242476995772196,-0.8954314208984374,1.915361328125,9.519345800781249,9.751325598176924
2.526734643123601,-0.6177040283203125,1.8435352783203125,9.524134204101562,9.720561348335393
2.5292215866699825,-0.4213794921875,1.7429788085937499,9.476250170898437,9.644420827872233
2.5317085302163638,-0.16759411621093748,1.70467158203125,9.457096557617186,9.610966043560257
2.5341954737627455,0.0526724365234375,1.6424223388671875,9.433154541015625,9.57521436415201
2.536682417309127,0.277727392578125,1.6472107421875,9.4618849609375,9.608210174001263
2.5391693608555084,0.51714755859375,1.68551796875,9.433154541015625,9.596500248268757
2.54165630440189,0.6416460449218749,1.7334020019531249,9.3852705078125,9.565547274053591
2.5441432479482713,0.7805097412109374,1.8339584716796873,9.409212524414063,9.617997684630689
2.546630191494653,0.8667010009765624,1.9297265380859374,9.394847314453125,9.630066001787007
2.549117135041034,0.86191259765625,1.9967641845703124,9.399635717773437,9.647958963512616
2.551604078587416,0.9002198242187499,2.1499930908203124,9.423577734375,9.707558052275544
2.5540910221337976,0.8475473876953125,2.31758720703125,9.390058911132812,9.708900730315909
2.556577965680179,0.814028564453125,2.4851813232421875,9.404424121093749,9.761247961328886
2.5590649092265605,0.6560112548828124,2.6048914062499997,9.380482104492186,9.757522970384757
2.5615518527729417,0.47884033203125,2.7581203125,9.390058911132812,9.79845508620362
2.5640387963193234,0.32082302246093747,2.906560815429687,9.423577734375,9.866855654226452
2.566525739865705,0.12449848632812499,3.0933085449218747,9.4618849609375,9.95546707298055
2.5690126834120863,-0.05746083984375,3.1842882080078123,9.485826977539062,10.006193411461775
2.571499626958468,-0.3447650390625,3.265691064453125,9.519345800781249,10.069833441296849
2.5739865705048492,-0.5985504150390625,3.308786694335937,9.4618849609375,10.04159344934723
2.576473514051231,-0.8667010009765624,3.394977954101562,9.476250170898437,10.103284774536549
2.5789604575976126,-1.0534487304687499,3.418919970703125,9.548076220703125,10.196299696956507
2.581447401143994,-1.3120225097656248,3.4620156005859375,9.533711010742186,10.22734573196677
2.5839343446903755,-1.4508862060546874,3.4811692138671875,9.595960253906249,10.31048316389901
2.5864212882367568,-1.6424223388671875,3.4093431640625,9.581595043945311,10.301851073263824
2.5889082317831384,-1.7477672119140624,3.385401147460937,9.605537060546874,10.333536344243976
2.5913951753295197,-1.8626888916015625,3.265691064453125,9.605537060546874,10.315071025295188
2.5938821188759014,-1.886630908203125,3.1603461914062496,9.600748657226562,10.28209798691692
2.596369062422283,-1.9536685546875,3.0310593017578125,9.552864624023437,10.210845402671893
2.5988560059686643,-1.924938134765625,2.901772412109375,9.591171850585937,10.203736934173975
2.601342949515046,-1.8531120849609375,2.786850732421875,9.6151138671875,10.18091234041478
2.603829893061427,-1.8004396484374998,2.5234885498046875,9.562441430664062,10.052356117027573
2.606316836607809,-1.62805712890625,2.4133552734375,9.567229833984374,10.000337013675676
2.6088037801541906,-1.4173673828125,2.250549560546875,9.557653027343749,9.92081826330024
2.611290723700572,-1.235408056640625,2.1356278808593747,9.552864624023437,9.866324646839619
2.6137776672469535,-1.0726023437499999,1.9776105712890624,9.514557397460937,9.776922922324328
2.6162646107933347,-0.7661445312499999,1.905784521484375,9.524134204101562,9.74310650782547
2.6187515543397164,-0.5363011718749999,1.8243816650390623,9.528922607421874,9.716807781618451
2.6212384978860976,-0.2920926025390625,1.7717092285156248,9.471461767578125,9.640169069760116
2.6237254414324793,-0.086191259765625,1.66636435546875,9.442731347656249,9.589023641771186
2.626212384978861,0.105344873046875,1.618480322265625,9.428366137695312,9.566852362312169
2.6286993285252422,0.3591302490234375,1.6424223388671875,9.418789331054686,9.567660013700486
2.631186272071624,0.5410895751953124,1.7190367919921874,9.394847314453125,9.566139319626018
2.633673215618005,0.699106884765625,1.7429788085937499,9.380482104492186,9.566617483532607
2.636160159164387,0.8283937744140625,1.8339584716796873,9.375693701171874,9.589226887477825
2.6386471027107685,0.833182177734375,1.9201497314453124,9.375693701171874,9.606497796317743
2.6411340462571498,0.9050082275390624,2.0829554443359375,9.375693701171874,9.646832415523559
2.6436209898035314,0.852335791015625,2.1883003173828124,9.337386474609374,9.628183668580592
2.6461079333499127,0.842758984375,2.389413256835937,9.390058911132812,9.725880154116275
2.6485948768962944,0.7422025146484375,2.5426421630859375,9.399635717773437,9.765707622548145
2.6510818204426756,0.63206923828125,2.6623522460937497,9.399635717773437,9.789830572134742
2.6535687639890573,0.4261678955078125,2.839523168945312,9.3852705078125,9.814673372402869
2.656055707535439,0.277727392578125,3.0023288818359375,9.481038574218749,9.948929774861131
2.65854265108182,0.028730419921875,3.0933085449218747,9.4618849609375,9.954730041800772
2.661029594628202,-0.1771709228515625,3.21780703125,9.423577734375,9.959391996606735
2.663516538174583,-0.47884033203125,3.318363500976562,9.514557397460937,10.087994193979885
2.666003481720965,-0.7134720947265625,3.385401147460937,9.490615380859374,10.101572336353774
2.6684904252673465,-0.8810662109374999,3.5290532470703124,9.557653027343749,10.226398480394083
2.6709773688137277,-1.13006318359375,3.5098996337890624,9.524134204101562,10.213009868590353
2.6734643123601094,-1.3455413330078123,3.4620156005859375,9.552864624023437,10.249549064346748
2.6759512559064906,-1.5179238525390624,3.4620156005859375,9.605537060546874,10.322595945901735
2.6784381994528723,-1.66636435546875,3.366247534179687,9.533711010742186,10.2469526329975
2.6809251429992536,-1.7908628417968748,3.361459130859375,9.6151138671875,10.342002315100688
2.6834120865456352,-1.886630908203125,3.246537451171875,9.629479077148437,10.33567844424779
2.685899030092017,-1.944091748046875,3.1220389648437497,9.600748657226562,10.281098910236407
2.688385973638398,-1.9297265380859374,2.9735984619140625,9.591171850585937,10.225297540510148
2.69087291718478,-1.905784521484375,2.868253588867187,9.591171850585937,10.190656051493985
2.693359860731161,-1.8004396484374998,2.6815058593749996,9.600748657226562,10.129483273137176
2.6958468042775428,-1.6711527587890624,2.518700146484375,9.572018237304688,10.037934802856723
2.6983337478239244,-1.5227122558593749,2.3415292236328122,9.6151138671875,10.012583402811295
2.7008206913703057,-1.3407529296874998,2.1883003173828124,9.567229833984374,9.90546129131824
2.7033076349166874,-1.158793603515625,2.0638018310546875,9.5384994140625,9.827769415563434
2.7057945784630686,-0.928950244140625,1.915361328125,9.576806640625,9.810544480572155
2.7082815220094503,-0.6703764648437499,1.8291700683593748,9.495403784179686,9.693191464539021
2.7107684655558315,-0.4213794921875,1.7429788085937499,9.4618849609375,9.630306475790805
2.713255409102213,-0.1867477294921875,1.695094775390625,9.4618849609375,9.61433762804502
2.715742352648595,0.023942016601562498,1.6472107421875,9.433154541015625,9.575921942247678
2.718229296194976,0.2442085693359375,1.6615759521484375,9.485826977539062,9.63334759665107
2.720716239741358,0.4740519287109375,1.7381904052734374,9.423577734375,9.59426122387271
2.723203183287739,0.6464344482421874,1.7429788085937499,9.437942944335937,9.619283738596215
2.7256901268341207,0.74699091796875,1.7908628417968748,9.414000927734374,9.611898803932563
2.7281770703805024,0.842758984375,1.8531120849609375,9.380482104492186,9.598839076569167
2.7306640139268836,0.9002198242187499,2.020706201171875,9.404424121093749,9.661099437061024
2.7331509574732653,0.8810662109374999,2.1404162841796874,9.380482104492186,9.661837509000838
2.7356379010196465,0.86191259765625,2.2649147705078123,9.404424121093749,9.711638651281921
2.7381248445660282,0.7996633544921875,2.442085693359375,9.442731347656249,9.78613403332686
2.74061178811241,0.689530078125,2.6240450195312497,9.414000927734374,9.797166807835287
2.743098731658791,0.5267243652343749,2.7198130859375,9.414000927734374,9.81316642306407
2.745585675205173,0.3016694091796875,2.887407202148437,9.423577734375,9.860625847240211
2.748072618751554,0.1484405029296875,3.0358477050781247,9.414000927734374,9.89251329737402
2.7505595622979357,-0.0383072265625,3.1699229980468746,9.442731347656249,9.960675406876955
2.753046505844317,-0.2920926025390625,3.284844677734375,9.476250170898437,10.03368526249207
2.7555334493906987,-0.55545478515625,3.366247534179687,9.528922607421874,10.1212903593346
2.7580203929370803,-0.7805097412109374,3.4332851806640625,9.5384994140625,10.167576587366494
2.7605073364834616,-1.024718310546875,3.4811692138671875,9.543287817382812,10.20994265786806
2.7629942800298433,-1.2306196533203124,3.4811692138671875,9.528922607421874,10.21926268793158
2.7654812235762245,-1.4221557861328125,3.5146880371093747,9.557653027343749,10.28223178445827
2.767968167122606,-1.608903515625,3.423708374023437,9.605537060546874,10.323598780197155
2.770455110668988,-1.7477672119140624,3.4524387939453125,9.610325463867188,10.360134138824385
2.772942054215369,-1.8195932617187498,3.3327287109375,9.634267480468749,10.355535243724347
2.775428997761751,-1.915361328125,3.1747114013671873,9.6151138671875,10.30523246599653
2.777915941308132,-1.915361328125,3.0310593017578125,9.610325463867188,10.257401475495799
2.7804028848545137,-1.924938134765625,2.85388837890625,9.624690673828125,10.221777549370032
2.782889828400895,-1.838746875,2.7437551025390623,9.634267480468749,10.184708735071862
2.7853767719472766,-1.7908628417968748,2.5809493896484375,9.591171850585937,10.092525300316442
2.7878637154936583,-1.618480322265625,2.442085693359375,9.591171850585937,10.028650884079257
2.7903506590400395,-1.4604630126953124,2.27927998046875,9.605537060546874,9.979699978574315
2.792837602586421,-1.2689268798828124,2.1930887207031247,9.557653027343749,9.887797780823469
2.7953245461328025,-1.0342951171875,2.0254946044921875,9.543287817382812,9.810542143412466
2.797811489679184,-0.7757213378906249,1.9201497314453124,9.533711010742186,9.756042446687854
2.800298433225566,-0.5315127685546874,1.7860744384765623,9.495403784179686,9.676531441974957
2.802785376771947,-0.3064578125,1.7525556152343749,9.504980590820312,9.670058097405757
2.8052723203183287,-0.086191259765625,1.6711527587890624,9.495403784179686,9.641725649544389
2.80775926386471,0.1484405029296875,1.637633935546875,9.428366137695312,9.57068270899231
2.8102462074110917,0.37828386230468747,1.656787548828125,9.442731347656249,9.594436875942332
2.812733150957473,0.55545478515625,1.7190367919921874,9.409212524414063,9.581069764914888
2.8152200945038546,0.6512228515624999,1.7956512451171873,9.390058911132812,9.582361971405213
2.8177070380502363,0.7757213378906249,1.8435352783203125,9.394847314453125,9.605390256431932
2.8201939815966175,0.8762778076171874,1.9105729248046874,9.3852705078125,9.617767630897214
2.822680925142999,0.9097966308593749,2.0829554443359375,9.3852705078125,9.656590278013606
2.8251678686893804,0.8667010009765624,2.1978771240234374,9.356540087890625,9.65021641693613
2.827654812235762,0.8667010009765624,2.360682836914062,9.3852705078125,9.716341728573028
2.8301417557821438,0.7278373046875,2.4756045166015626,9.356540087890625,9.705833672643331
2.832628699328525,0.63206923828125,2.6431986328124997,9.418789331054686,9.803040497584048
2.8351156428749067,0.469263525390625,2.844311572265625,9.437942944335937,9.868388095171706
2.837602586421288,0.2920926025390625,3.0023288818359375,9.457096557617186,9.92652870359317
2.8400895299676696,0.062249243164062495,3.0837317382812497,9.433154541015625,9.924599790250552
2.842576473514051,-0.1484405029296875,3.2417490478515623,9.495403784179686,10.034623286241015
2.8450634170604325,-0.4261678955078125,3.35188232421875,9.490615380859374,10.074150807784058
2.847550360606814,-0.6751648681640625,3.375824340820312,9.5384994140625,10.140759766967589
2.8500373041531954,-0.9193734375,3.423708374023437,9.586383447265625,10.220849971795259
2.852524247699577,-1.1061211669921875,3.4668040039062498,9.524134204101562,10.195654288730363
2.8550111912459584,-1.3742717529296875,3.4715924072265625,9.576806640625,10.278900822789012
2.85749813479234,-1.4939818359375,3.418919970703125,9.548076220703125,10.251183102868678
2.8599850783387217,-1.68551796875,3.4715924072265625,9.624690673828125,10.369551351517883
2.862472021885103,-1.7956512451171873,3.299209887695312,9.548076220703125,10.260356172838929
2.8649589654314846,-2.0925322509765625,3.1220389648437497,9.6151138671875,10.323576570082727
2.867445908977866,-1.944091748046875,3.0885201416015624,9.586383447265625,10.257543418768007
2.8699328525242476,-1.905784521484375,2.96881005859375,9.610325463867188,10.23739240860635
2.8724197960706292,-1.9009961181640624,2.849099975585937,9.591171850585937,10.184386794482556
2.8749067396170105,-1.8004396484374998,2.6719290527343746,9.600748657226562,10.12695228436223
2.877393683163392,-1.6711527587890624,2.50912333984375,9.6151138671875,10.07664955015993
2.8798806267097734,-1.5322890624999999,2.379836450195312,9.586383447265625,9.995512938251029
2.882367570256155,-1.3263877197265623,2.231395947265625,9.581595043945311,9.927003366710029
2.8848545138025363,-1.1731588134765625,2.0781670410156248,9.572018237304688,9.865019664820487
2.887341457348918,-0.9433154541015625,1.89620771484375,9.533711010742186,9.766119668533996
2.8898284008952997,-0.7230489013671875,1.8531120849609375,9.514557397460937,9.720268853420425
2.892315344441681,-0.43574470214843747,1.7429788085937499,9.485826977539062,9.654468500153968
2.8948022879880626,-0.22026655273437498,1.656787548828125,9.490615380859374,9.636661384712546
2.897289231534444,-0.0143652099609375,1.675941162109375,9.466673364257812,9.613890457232081
2.8997761750808255,0.229843359375,1.6615759521484375,9.447519750976562,9.595274465053047
2.902263118627207,0.4213794921875,1.675941162109375,9.442731347656249,9.599558050207245
2.9047500621735884,0.5746083984375,1.714248388671875,9.34696328125,9.520217693448759
2.90723700571997,0.6847416748046875,1.7812860351562498,9.3852705078125,9.57732497125748
2.9097239492663514,0.8044517578125,1.867477294921875,9.380482104492186,9.598336240744773
2.912210892812733,0.86191259765625,1.9393033447265624,9.327809667968749,9.56618126478468
2.9146978363591143,0.9097966308593749,2.1164742675781247,9.409212524414063,9.687129273651399
2.917184779905496,0.86191259765625,2.269703173828125,9.3852705078125,9.694212104554918
2.9196717234518776,0.8044517578125,2.418143676757812,9.380482104492186,9.720494122460522
2.922158666998259,0.6703764648437499,2.5809493896484375,9.433154541015625,9.802811277956275
2.9246456105446406,0.5889736083984375,2.729389892578125,9.399635717773437,9.805590789133497
2.927132554091022,0.3687070556640625,2.8730419921875,9.418789331054686,9.854131501282026
2.9296194976374035,0.1580173095703125,2.978386865234375,9.428366137695312,9.888874850839406
2.932106441183785,-0.1149216796875,3.1220389648437497,9.418789331054686,9.92340298250829
2.9345933847301664,-0.26336218261718747,3.294421484375,9.509768994140625,10.067684881732387
2.937080328276548,-0.5267243652343749,3.323151904296875,9.466673364257812,10.046824459574866
2.9395672718229293,-0.7565677246093749,3.385401147460937,9.5384994140625,10.149694907888664
2.942054215369311,-1.005564697265625,3.4763808105468748,9.490615380859374,10.157173042127912
2.9445411589156922,-1.2401964599609374,3.42849677734375,9.562441430664062,10.233912425188946
2.947028102462074,-1.4221557861328125,3.4859576171874997,9.572018237304688,10.285813566468727
2.9495150460084556,-1.5849614990234373,3.42849677734375,9.576806640625,10.294751990094866
2.952001989554837,-1.7381904052734374,3.380612744140625,9.600748657226562,10.325900599466774
2.9544889331012185,-1.7860744384765623,3.35188232421875,9.581595043945311,10.30689771955397
2.9569758766475998,-1.915361328125,3.1699229980468746,9.629479077148437,10.317164733009877
2.9594628201939814,-1.944091748046875,3.0645781249999997,9.552864624023437,10.21901924520993
2.961949763740363,-1.9536685546875,2.9544448486328125,9.610325463867188,10.24226150352752
2.9644367072867444,-1.886630908203125,2.7629087158203123,9.576806640625,10.144371157822563
2.966923650833126,-1.7764976318359373,2.5713725830078125,9.567229833984374,10.064779555104208
2.9694105943795073,-1.6472107421875,2.4756045166015626,9.600748657226562,10.050686331342432
2.971897537925889,-1.4604630126953124,2.3032219970703123,9.595960253906249,9.975983007893914
2.97438448147227,-1.2976572998046874,2.1308394775390624,9.562441430664062,9.882544078406932
2.976871425018652,-1.0678139404296874,2.020706201171875,9.5384994140625,9.808488733484944
2.9793583685650336,-0.8044517578125,1.9488801513671874,9.524134204101562,9.754712133772985
2.981845312111415,-0.622492431640625,1.7764976318359373,9.471461767578125,9.656708998311107
2.9843322556577965,-0.32561142578124996,1.7621324218749999,9.471461767578125,9.63948761540345
2.9868191992041777,-0.12449848632812499,1.637633935546875,9.4618849609375,9.603364607988597
2.9893061427505594,0.1197100830078125,1.675941162109375,9.466673364257812,9.614624998842887
2.991793086296941,0.3399766357421875,1.62805712890625,9.414000927734374,9.559789097841891
2.9942800298433223,0.5315127685546874,1.68551796875,9.380482104492186,9.545518380832648
2.996766973389704,0.679953271484375,1.7381904052734374,9.433154541015625,9.61603072640009
2.9992539169360852,0.7757213378906249,1.8195932617187498,9.423577734375,9.628939741630921
3.001740860482467,0.8283937744140625,1.9536685546875,9.375693701171874,9.612839822095065
3.0042278040288486,0.9002198242187499,2.0542250244140625,9.380482104492186,9.644878469713527
3.00671474757523,0.8762778076171874,2.1691467041015624,9.356540087890625,9.644578924781598
3.0092016911216115,0.8906430175781249,2.3319524169921872,9.423577734375,9.748592943378272
3.0116886346679927,0.7852981445312499,2.5043349365234375,9.399635717773437,9.75917713113858
3.0141755782143744,0.6416460449218749,2.6575638427734374,9.414000927734374,9.802946939199675
3.0166625217607557,0.45010991210937495,2.73896669921875,9.437942944335937,9.837647306797944
3.0191494653071373,0.239420166015625,2.93050283203125,9.418789331054686,9.867054338921404
3.021636408853519,0.086191259765625,3.0550013183593747,9.452308154296874,9.934112513567817
3.0241233523999003,-0.1388636962890625,3.27526787109375,9.485826977539062,10.036312878810321
3.026610295946282,-0.354341845703125,3.2800562744140622,9.509768994140625,10.065785296183192
3.029097239492663,-0.622492431640625,3.399766357421875,9.514557397460937,10.12288054765471
3.031584183039045,-5.1331683593749995,-1.7381904052734374,9.342174877929686,10.800321973927158
3.0340711265854265,-3.7924154296875,-1.8770541015625,9.275137231445312,10.194798553854188
3.036558070131808,-2.480392919921875,-1.8770541015625,9.160215551757812,9.673945942171521
3.0390450136781895,-1.1923124267578125,-1.7429788085937499,9.131485131835937,9.37249191854273
3.0415319572245707,-0.086191259765625,-1.426944189453125,9.117119921875,9.22851419909641
3.0440189007709524,0.9433154541015625,-1.0199299072265624,9.107543115234375,9.212895454603567
3.0465058443173336,1.7908628417968748,-0.679953271484375,9.112331518554686,9.31150427554948
3.0489927878637153,2.427720483398437,-0.19632453613281248,9.09796630859375,9.418352351728357
3.051479731410097,2.978386865234375,0.28730419921875,9.093177905273437,9.572837428831766
3.0539666749564782,3.342305517578125,0.8283937744140625,9.117119921875,9.745723066462086
3.05645361850286,3.5434184570312497,1.3359645263671873,9.188945971679686,9.938679170180993
3.058940562049241,3.6296097167968746,1.8339584716796873,9.217676391601563,10.074871137260306
3.061427505595623,3.5673604736328124,2.2840683837890623,9.270348828125,10.192271411504949
3.0639144491420045,3.4093431640625,2.6192566162109374,9.318232861328125,10.262240968221308
3.0664013926883857,3.1842882080078123,2.9544448486328125,9.342174877929686,10.302653406045023
3.0688883362347674,2.834734765625,3.294421484375,9.375693701171874,10.334048891230802
3.0713752797811487,2.4947581298828125,3.5242648437499997,9.471461767578125,10.409267449258989
3.0738622233275303,2.0877438476562498,3.6727053466796873,9.528922607421874,10.423425780192987
3.0763491668739116,1.675941162109375,3.7158009765625,9.552864624023437,10.386201336446053
3.0788361104202933,1.2641384765625,3.825934252929687,9.519345800781249,10.337009406521695
3.081323053966675,0.833182177734375,3.801992236328125,9.548076220703125,10.310921249953857
3.083809997513056,0.44532150878906246,3.77326181640625,9.581595043945311,10.307413815671557
3.086296941059438,0.09576806640624999,3.7301661865234372,9.595960253906249,10.295910085862952
3.088783884605819,-0.26815058593749996,3.6056677001953124,9.595960253906249,10.254520832077862
3.091270828152201,-0.5363011718749999,3.4907460205078125,9.639055883789062,10.26568677962922
3.0937577716985825,-0.7948749511718749,3.327940307617187,9.591171850585937,10.18320138004428
3.0962447152449637,-1.0007762939453124,3.2800562744140622,9.591171850585937,10.185818564127187
3.0987316587913454,-1.2018892333984375,3.1459809814453124,9.600748657226562,10.174286650385488
3.1012186023377266,-1.369483349609375,2.9975404785156248,9.595960253906249,10.146092191565454
3.1037055458841083,-1.446097802734375,2.959233251953125,9.634267480468749,10.181717447452366
3.1061924894304895,-1.5322890624999999,2.7964275390625,9.528922607421874,10.04829750806175
3.108679432976871,-1.5514426757812498,2.7964275390625,9.595960253906249,10.114812630593358
3.111166376523253,-1.6041151123046875,2.710236279296875,9.509768994140625,10.017697954373531
3.113653320069634,-1.66636435546875,2.6336218261718747,9.476250170898437,9.975572734931982
3.116140263616016,-1.599326708984375,2.5857377929687497,9.485826977539062,9.961164555606214
3.118627207162397,-1.5897499023437498,2.6240450195312497,9.504980590820312,9.987871297148335
3.1211141507087787,-1.5370774658203123,2.6623522460937497,9.5001921875,9.985207970675877
3.1236010942551604,-1.5131354492187499,2.6671406494140624,9.514557397460937,9.996500417697082
3.1260880378015417,-1.5083470458984374,2.6144682128906247,9.485826977539062,9.954469764628044
3.1285749813479233,-1.484405029296875,2.6479870361328124,9.519345800781249,9.99165842637652
3.1310619248943046,-1.43652099609375,2.5953145996093747,9.485826977539062,9.93882105136075
3.1335488684406863,-1.37906015625,2.6431986328124997,9.5001921875,9.95700544975718
3.136035811987068,-1.2976572998046874,2.6288334228515624,9.528922607421874,9.96970639944194
3.138522755533449,-1.2306196533203124,2.6336218261718747,9.5001921875,9.934990702253481
3.141009699079831,-1.2018892333984375,2.5665841796874997,9.533711010742186,9.946031254582303
3.143496642626212,-1.0678139404296874,2.5617957763671875,9.576806640625,9.97087005446906
3.1459835861725938,-1.0199299072265624,2.4851813232421875,9.524134204101562,9.895732189322034
3.148470529718975,-0.9193734375,2.480392919921875,9.471461767578125,9.833930270724583
3.1509574732653567,-0.7996633544921875,2.422932080078125,9.528922607421874,9.864604776848646
3.1534444168117384,-4.592078784179687,-2.85388837890625,9.34696328125,10.79803635020762
3.1559313603581196,-2.85388837890625,-3.0358477050781247,9.251195214843749,10.146214223582714
3.1584183039045013,-1.2210428466796874,-3.0980969482421874,9.165003955078124,9.751228016549138
3.1609052474508825,0.32561142578124996,-2.9831752685546875,9.09796630859375,9.580101692352883
3.163392190997264,1.714248388671875,-2.6575638427734374,9.016563452148437,9.55508815255515
3.165879134543646,2.9735984619140625,-2.27927998046875,8.959102612304687,9.710969295588775
3.168366078090027,3.9743747558593747,-1.7812860351562498,8.959102612304687,9.961634115789417
3.170853021636409,4.797980126953124,-1.2018892333984375,8.963891015625,10.237992633714814
3.17333996518279,5.386953735351562,-0.51714755859375,8.954314208984375,10.462621808007642
3.1758269087291717,5.736507177734374,0.12449848632812499,8.992621435546875,10.667251509004235
3.178313852275553,5.908889697265625,0.8188169677734375,9.04050546875,10.831259290205558
3.1808007958219346,5.923254907226562,1.5370774658203123,9.121908325195312,10.984387435136458
3.1832877393683163,5.722141967773437,2.1643583007812497,9.145850341796875,11.003360124437478
3.1857746829146976,5.315127685546875,2.73896669921875,9.193734375,10.967099555085326
3.1882616264610792,4.802768530273437,3.342305517578125,9.217676391601563,10.918019499364656
3.1907485700074605,4.2137949218749995,3.797203833007812,9.327809667968749,10.917090170685594
3.193235513553842,3.5003228271484375,4.242525341796875,9.404424121093749,10.894699363426925
3.195722457100224,2.73896669921875,4.6064439941406246,9.437942944335937,10.85338803651302
3.198209400646605,1.9536685546875,4.903325,9.528922607421874,10.893107129530831
3.2006963441929868,1.120486376953125,5.085284326171875,9.5384994140625,10.86731693984387
3.203183287739368,0.3112462158203125,5.157110375976562,9.624690673828125,10.923705058437896
3.2056702312857497,-0.469263525390625,5.209782812499999,9.643844287109374,10.971133844944859
3.208157174832131,-1.177947216796875,5.181052392578125,9.662997900390625,11.027438141433967
3.2106441183785126,-1.7764976318359373,5.066130712890625,9.720458740234374,11.104455968511523
3.2131310619248943,-2.370259643554687,4.908113403320312,9.763554370117188,11.181891695770933
3.2156180054712755,-2.93050283203125,4.659116430664063,9.739612353515625,11.18728124075645
3.218104949017657,-3.2609026611328122,4.46279189453125,9.773131176757811,11.22782662216479
3.2205918925640384,-3.5529952636718747,4.1754876953124995,9.706093530273437,11.147498573931138
3.22307883611042,-3.73495458984375,3.840299462890625,9.753977563476562,11.128246225784057
3.225565779656802,-3.854664672851562,3.5386300537109374,9.706093530273437,11.026721816368271
3.228052723203183,-3.892971899414062,3.1699229980468746,9.720458740234374,10.940336381655403
3.2305396667495647,-3.782838623046875,2.858676782226562,9.6917283203125,10.789416055932023
3.233026610295946,-3.5960908935546874,2.5617957763671875,9.662997900390625,10.623944452860874
3.2355135538423276,-3.31357509765625,2.2649147705078123,9.643844287109374,10.44573364965258
3.238000497388709,-2.9975404785156248,1.9919757812499999,9.6151138671875,10.266627056263784
