Time (s),Acceleration x (m/s^2),Acceleration y (m/s^2),Acceleration z (m/s^2),Absolute acceleration (m/s^2)
0.0,-0.09576806640624999,1.62805712890625,9.543287817382812,9.681636426913213
0.002486943546381497,0.1005564697265625,1.70467158203125,9.572018237304688,9.72314506430313
0.004973887092762994,0.4213794921875,1.9201497314453124,9.5001921875,9.701452843107662
0.007460830639144491,0.6272808349609375,2.0638018310546875,9.466673364257812,9.709308102502582
0.009947774185525988,0.7948749511718749,2.269703173828125,9.476250170898437,9.77664032205024
0.012434717731907486,0.93852705078125,2.47081611328125,9.437942944335937,9.801047510916316
0.014921661278288981,1.0390835205078124,2.6767174560546874,9.447519750976562,9.87421593582149
0.01740860482467048,1.0965443603515623,2.849099975585937,9.404424121093749,9.887516030556538
0.019895548371051976,1.120486376953125,3.0789433349609374,9.370905297851563,9.92719738305532
0.022382491917433474,1.0773907470703123,3.2225954345703123,9.356540087890625,9.954432910673036
0.02486943546381497,0.9528922607421875,3.337517114257812,9.361328491210937,9.984062062552686
0.027356379010196465,0.842758984375,3.4859576171874997,9.337386474609374,10.002446170352052
0.029843322556577963,0.6703764648437499,3.5769372802734374,9.375693701171874,10.057212202684216
0.032330266102959464,0.45968671875,3.6727053466796873,9.337386474609374,10.044245248854828
0.03481720964934096,0.16759411621093748,3.69664736328125,9.361328491210937,10.066169114246014
0.03730415319572245,-0.028730419921875,3.6822821533203123,9.323021264648437,10.02390905758712
0.03979109674210395,-0.32561142578124996,3.706224169921875,9.3852705078125,10.095812146782817
0.04227804028848545,-0.6081272216796875,3.5721488769531247,9.361328491210937,10.038154085150465
0.04476498383486695,-0.8906430175781249,3.4715924072265625,9.370905297851563,10.032899128765138
0.04725192738124844,-1.1348515869140625,3.356670727539062,9.423577734375,10.067717904929957
0.04973887092762994,-1.465251416015625,3.1938650146484373,9.418789331054686,10.05292633548663
0.05222581447401144,-1.6232687255859375,3.0406361083984375,9.481038574218749,10.088139657289924
0.05471275802039293,-1.8770541015625,2.839523168945312,9.514557397460937,10.105099029536943
0.05719970156677443,-1.9728221679687499,2.7054478759765623,9.557653027343749,10.127201336358834
0.059686645113155926,-2.0973206542968748,2.480392919921875,9.543287817382812,10.080944664541414
0.062173588659537427,-2.1643583007812497,2.269703173828125,9.600748657226562,10.100018521303998
0.06466053220591893,-2.1835119140624997,2.04943662109375,9.591171850585937,10.047810319179254
0.06714747575230041,-2.1930887207031247,1.8770541015625,9.591171850585937,10.016164320963385
0.06963441929868192,-2.068590234375,1.8100164550781248,9.658209497070311,10.041724743026187
0.07212136284506342,-1.9728221679687499,1.618480322265625,9.605537060546874,9.938704547451314
0.0746083063914449,-1.8052280517578123,1.4987702392578124,9.65342109375,9.93447026077363
0.0770952499378264,-1.5705962890624998,1.4604630126953124,9.639055883789062,9.874772060431395
0.0795821934842079,-1.3838485595703125,1.37906015625,9.595960253906249,9.792818641480581
0.0820691370305894,-1.1013327636718748,1.3263877197265623,9.629479077148437,9.782591964127812
0.0845560805769709,-0.8379705810546875,1.4030021728515625,9.629479077148437,9.767163205812569
0.0870430241233524,-0.5410895751953124,1.484405029296875,9.648632690429688,9.777133987739727
0.0895299676697339,-0.258573779296875,1.5179238525390624,9.624690673828125,9.747082834793238
0.09201691121611538,0.0143652099609375,1.6711527587890624,9.528922607421874,9.674364266488068
0.09450385476249688,0.201112939453125,1.8004396484374998,9.533711010742186,9.70431218471603
0.09699079830887838,0.49799394531249996,1.9967641845703124,9.5384994140625,9.757972958069791
0.09947774185525989,0.6943184814453125,2.1308394775390624,9.447519750976562,9.709695385428306
0.10196468540164137,0.8571241943359375,2.35589443359375,9.437942944335937,9.765227467258228
0.10445162894802287,0.9720458740234375,2.5857377929687497,9.452308154296874,9.847692245342563
0.10693857249440437,1.0726023437499999,2.767697119140625,9.414000927734374,9.87086807725141
0.10942551604078586,1.1013327636718748,2.935291235351562,9.414000927734374,9.922312329293636
0.11191245958716736,1.0678139404296874,3.1364041748046874,9.418789331054686,9.984530545894374
0.11439940313354886,1.0630255371093749,3.3327287109375,9.433154541015625,10.060890047502632
0.11688634667993036,0.9002198242187499,3.4524387939453125,9.34696328125,10.004771458603678
0.11937329022631185,0.7948749511718749,3.5817256835937497,9.366116894531249,10.059062120423519
0.12186023377269335,0.603338818359375,3.5721488769531247,9.351751684570312,10.028934385004241
0.12434717731907485,0.33518823242187495,3.6631285400390623,9.327809667968749,10.026908549191724
0.12683412086545634,0.033518823242187495,3.67749375,9.318232861328125,10.01771168734337
0.12932106441183785,-0.17238251953125,3.6631285400390623,9.380482104492186,10.071825601477958
0.13180800795821934,-0.49320554199218747,3.6535517333984373,9.375693701171874,10.074488788691191
0.13429495150460083,-0.7661445312499999,3.5625720703124997,9.3852705078125,10.067879603161236
0.13678189505098234,-1.01514150390625,3.4332851806640625,9.370905297851563,10.031541531889452
0.13926883859736383,-1.2689268798828124,3.299209887695312,9.437942944335937,10.078180804594455
0.14175578214374532,-1.5179238525390624,3.1076737548828124,9.428366137695312,10.042699687600644
0.14424272569012683,-1.7334020019531249,2.959233251953125,9.485826977539062,10.08675653456789
0.14672966923650832,-1.924938134765625,2.7150246826171873,9.519345800781249,10.084378529425951
0.1492166127828898,-2.0446482177734375,2.5665841796874997,9.557653027343749,10.10527941607551
0.15170355632927132,-2.1595698974609374,2.370259643554687,9.586383447265625,10.108443031342256
0.1541904998756528,-2.1883003173828124,2.1739351074218747,9.591171850585937,10.074980377043477
0.15667744342203432,-2.1595698974609374,2.001552587890625,9.648632690429688,10.087916915743286
0.1591643869684158,-2.1308394775390624,1.7860744384765623,9.619902270507811,10.013643616233786
0.1616513305147973,-2.020706201171875,1.695094775390625,9.629479077148437,9.984160813320795
0.1641382740611788,-1.915361328125,1.5131354492187499,9.610325463867188,9.915469904468132
0.1666252176075603,-1.7525556152343749,1.4700398193359374,9.629479077148437,9.897440858735266
0.1691121611539418,-1.4604630126953124,1.446097802734375,9.658209497070311,9.874470201272745
0.1715991047003233,-1.20667763671875,1.3934253662109375,9.667786303710937,9.841940722458046
0.1740860482467048,-0.9624690673828125,1.3838485595703125,9.6151138671875,9.76175180080271
0.17657299179308628,-0.718260498046875,1.47482822265625,9.619902270507811,9.758767141576813
0.1790599353394678,-0.411802685546875,1.4604630126953124,9.600748657226562,9.71992327348896
0.18154687888584928,-0.1292868896484375,1.6041151123046875,9.548076220703125,9.682750637588253
0.18403382243223076,0.11013327636718749,1.7190367919921874,9.509768994140625,9.664518775019507
0.18652076597861228,0.36391865234375,1.886630908203125,9.495403784179686,9.687853528719607
0.18900770952499377,0.5985504150390625,2.068590234375,9.533711010742186,9.77389245865954
0.19149465307137528,0.74699091796875,2.2457611572265623,9.476250170898437,9.767331053480682
0.19398159661775677,0.9193734375,2.4660277099609376,9.423577734375,9.784189159030197
0.19646854016413826,1.0678139404296874,2.6431986328124997,9.452308154296874,9.87283419630174
0.19895548371051977,1.0917559570312498,2.81558115234375,9.423577734375,9.895617495182139
0.20144242725690126,1.0869675537109373,3.0310593017578125,9.351751684570312,9.8906055690972
0.20392937080328274,1.0534487304687499,3.19865341796875,9.337386474609374,9.92612331639233
0.20641631434966426,0.967257470703125,3.3327287109375,9.332598071289063,9.956909883872932
0.20890325789604575,0.8571241943359375,3.4763808105468748,9.351751684570312,10.013747799616198
0.21139020144242723,0.6703764648437499,3.5817256835937497,9.332598071289063,10.018759915147175
0.21387714498880875,0.488417138671875,3.6822821533203123,9.370905297851563,10.080258888506394
0.21636408853519024,0.229843359375,3.6583401367187496,9.337386474609374,10.031104959175446
0.21885103208157172,-0.0143652099609375,3.7014357666015623,9.366116894531249,10.070996910711383
0.22133797562795324,-0.296881005859375,3.6535517333984373,9.370905297851563,10.062327996123027
0.22382491917433472,-0.603338818359375,3.6200329101562496,9.375693701171874,10.068380623444249
0.22631186272071624,-0.8810662109374999,3.5434184570312497,9.351751684570312,10.039290393227459
0.22879880626709773,-1.1731588134765625,3.3327287109375,9.414000927734374,10.055187503459521
0.2312857498134792,-1.4030021728515625,3.2225954345703123,9.442731347656249,10.07564944487201
0.23377269335986073,-1.6136919189453125,3.0406361083984375,9.476250170898437,10.082102303310478
0.23625963690624222,-1.8243816650390623,2.877830395507812,9.514557397460937,10.106289067438057
0.2387465804526237,-1.9871873779296874,2.6815058593749996,9.543287817382812,10.110080598802005
0.24123352399900522,-2.1068974609374997,2.499546533203125,9.572018237304688,10.114854567310703
0.2437204675453867,-2.1595698974609374,2.288856787109375,9.600748657226562,10.103315411940466
0.2462074110917682,-2.2026655273437497,2.0877438476562498,9.600748657226562,10.069001170821895
0.2486943546381497,-2.1883003173828124,1.9201497314453124,9.605537060546874,10.0370302127555
0.2511812981845312,-2.1164742675781247,1.714248388671875,9.576806640625,9.95657251745316
0.2536682417309127,-1.9919757812499999,1.5658078857421873,9.6151138671875,9.943346344522066
0.2561551852772942,-1.8339584716796873,1.4700398193359374,9.658209497070311,9.940092124099158
0.2586421288236757,-1.637633935546875,1.47482822265625,9.610325463867188,9.859782893890323
0.26112907237005717,-1.3646949462890625,1.3934253662109375,9.667786303710937,9.86256146048519
0.2636160159164387,-1.1635820068359375,1.3551181396484375,9.662997900390625,9.826687981308362
0.2661029594628202,-0.833182177734375,1.4221557861328125,9.619902270507811,9.760083980962795
0.26858990300920166,-0.5985504150390625,1.4508862060546874,9.581595043945311,9.709289210257388
0.2710768465555832,-0.32561142578124996,1.5322890624999999,9.572018237304688,9.699353880901034
0.2735637901019647,-0.009576806640625,1.675941162109375,9.543287817382812,9.68933500605099
0.27605073364834615,0.2154781494140625,1.7764976318359373,9.509768994140625,9.676677166812583
0.27853767719472766,0.45010991210937495,1.9297265380859374,9.490615380859374,9.69526811141274
0.2810246207411092,0.679953271484375,2.0781670410156248,9.481038574218749,9.729913008223138
0.28351156428749064,0.8571241943359375,2.370259643554687,9.490615380859374,9.819601466952951
0.28599850783387215,0.9433154541015625,2.5043349365234375,9.409212524414063,9.782372812862386
0.28848545138025367,1.0773907470703123,2.748543505859375,9.399635717773437,9.852330376734056
0.2909723949266351,1.0869675537109373,2.916137622070312,9.380482104492186,9.883258653216174
0.29345933847301664,1.0678139404296874,3.0980969482421874,9.370905297851563,9.92735097663954
0.29594628201939815,1.0582371337890624,3.323151904296875,9.342174877929686,9.971932403510495
0.2984332255657796,0.93852705078125,3.447650390625,9.318232861328125,9.979809111348784
0.30092016911216113,0.7613561279296874,3.4763808105468748,9.337386474609374,9.992580891325959
0.30340711265854264,0.584185205078125,3.6439749267578123,9.342174877929686,10.044702935900709
0.30589405620492416,0.36391865234375,3.7014357666015623,9.370905297851563,10.082010197431039
0.3083809997513056,0.13407529296874998,3.69664736328125,9.337386474609374,10.043404009042797
0.31086794329768713,-9.442731347656249,-3.0406361083984375,10.204087475585936,14.231445620776414
0.31335488684406865,-8.422801440429687,-3.1842882080078123,10.05564697265625,13.49812251890065
0.3158418303904501,-7.216123803710937,-3.1220389648437497,9.935936889648437,12.67053321386132
0.3183287739368316,-5.928043310546875,-2.925714428710937,9.811438403320311,11.830715360967634
0.32081571748321314,-4.6351744140625,-2.5953145996093747,9.696516723632811,11.056352757189687
0.3233026610295946,-3.399766357421875,-2.1164742675781247,9.548076220703125,10.353918781154045
0.3257896045759761,-2.1499930908203124,-1.5418658691406248,9.5001921875,9.86171751007054
0.3282765481223576,-1.0869675537109373,-0.9576806640625,9.399635717773437,9.510615245292056
0.3307634916687391,-0.05746083984375,-0.3016694091796875,9.260772021484375,9.265862324385042
0.3332504352151206,0.8188169677734375,0.2825157958984375,9.217676391601563,9.258284639280358
0.3357373787615021,1.5753846923828123,0.9433154541015625,9.169792358398437,9.351832594261047
0.3382243223078836,2.1595698974609374,1.5514426757812498,9.198522778320312,9.575152104354915
0.3407112658542651,2.6001030029296874,2.04943662109375,9.203311181640624,9.780678033543252
0.3431982094006466,2.906560815429687,2.5953145996093747,9.13627353515625,9.932534810104283
0.34568515294702806,3.1364041748046874,2.9975404785156248,9.150638745117186,10.127016812058317
0.3481720964934096,3.2225954345703123,3.366247534179687,9.179369165039063,10.294540400831606
0.3506590400397911,3.19865341796875,3.7014357666015623,9.212887988281249,10.431170380507519
0.35314598358617255,3.0837317382812497,3.864241479492187,9.294290844726563,10.527374124247654
0.35563292713255407,2.882618798828125,4.070142822265625,9.265560424804686,10.522650033081234
0.3581198706789356,2.6048914062499997,4.103661645507812,9.299079248046874,10.492777182453796
0.36060681422531704,2.3367408203125,4.2137949218749995,9.390058911132812,10.55412865467723
0.36309375777169856,2.001552587890625,4.185064501953125,9.418789331054686,10.499265217642108
0.36558070131808007,1.6472107421875,4.084508032226562,9.433154541015625,10.410615432777494
0.36806764486446153,1.3024457031249999,4.07971962890625,9.442731347656249,10.368493254281535
0.37055458841084304,0.9193734375,3.9839515624999997,9.509768994140625,10.35146481865466
0.37304153195722456,0.5698199951171875,3.83072265625,9.514557397460937,10.272581630998172
0.3755284755036061,0.24899697265624998,3.687070556640625,9.524134204101562,10.215949349902607
0.37801541904998753,-0.0718260498046875,3.5338416503906247,9.562441430664062,10.194777187675395
0.38050236259636905,-0.3447650390625,3.4715924072265625,9.576806640625,10.192450255262077
0.38298930614275056,-0.5698199951171875,3.27526787109375,9.600748657226562,10.160041792900852
0.385476249689132,-0.814028564453125,3.1699229980468746,9.543287817382812,10.08887489677116
0.38796319323551354,-1.0007762939453124,3.0310593017578125,9.548076220703125,10.067503821586161
0.39045013678189505,-1.1923124267578125,2.935291235351562,9.572018237304688,10.082711772862812
0.3929370803282765,-1.3024457031249999,2.849099975585937,9.543287817382812,10.044305742353712
0.395424023874658,-1.4221557861328125,2.767697119140625,9.519345800781249,10.015019665391673
0.39791096742103954,-1.5227122558593749,2.710236279296875,9.552864624023437,10.045957188276274
0.400397910967421,-1.6424223388671875,2.6001030029296874,9.466673364257812,9.953692347596558
0.4028848545138025,-1.6807295654296874,2.5234885498046875,9.476250170898437,9.94948057109302
0.40537179806018403,-1.70467158203125,2.5426421630859375,9.476250170898437,9.958426164487033
0.4078587416065655,-1.7477672119140624,2.4564509033203126,9.5001921875,9.96707042550122
0.410345685152947,-1.7764976318359373,2.389413256835937,9.457096557617186,9.914732212619604
0.4128326286993285,-1.8243816650390623,2.360682836914062,9.481038574218749,9.939380481803441
0.41531957224571,-1.7860744384765623,2.2649147705078123,9.476250170898437,9.905514530749853
0.4178065157920915,-1.7860744384765623,2.1787235107421874,9.476250170898437,9.886162821716663
0.420293459338473,-1.7669208251953124,2.1308394775390624,9.481038574218749,9.876870887450726
0.42278040288485447,-1.70467158203125,2.0302830078125,9.471461767578125,9.835473669787909
0.425267346431236,-1.5897499023437498,2.0638018310546875,9.504980590820312,9.855518189407267
0.4277542899776175,-1.5083470458984374,1.9776105712890624,9.557653027343749,9.87597011810171
0.43024123352399896,-1.426944189453125,1.8818425048828125,9.533711010742186,9.821870828378087
0.43272817707038047,-1.3120225097656248,1.924938134765625,9.548076220703125,9.828150863980627
0.435215120616762,-1.1348515869140625,1.8435352783203125,9.581595043945311,9.823109183598149
0.43770206416314344,-0.97683427734375,1.8100164550781248,9.557653027343749,9.77645621706252
0.44018900770952496,-0.842758984375,1.7812860351562498,9.591171850585937,9.791516742173274
0.4426759512559065,-0.6512228515624999,1.7525556152343749,9.581595043945311,9.76230023985352
0.445162894802288,-0.488417138671875,1.8339584716796873,9.605537060546874,9.791235733998727
0.44764983834866945,-0.27293898925781246,1.8052280517578123,9.581595043945311,9.753989317036785
0.45013678189505096,-0.1005564697265625,1.915361328125,9.552864624023437,9.743507743405303
0.4526237254414325,0.08140285644531249,1.9201497314453124,9.548076220703125,9.739577040742757
0.45511066898781394,0.27293898925781246,2.0733786376953125,9.557653027343749,9.783768499826714
0.45759761253419545,0.44532150878906246,2.1691467041015624,9.509768994140625,9.764180200714407
0.46008455608057697,0.5602431884765625,2.2744915771484373,9.5001921875,9.784724623830229
0.4625714996269584,0.6368576416015624,2.384624853515625,9.447519750976562,9.764612270477665
0.46505844317333994,0.7900865478515624,2.5665841796874997,9.485826977539062,9.858625895748657
0.46754538671972146,0.814028564453125,2.6671406494140624,9.457096557617186,9.85966313053328
0.4700323302661029,0.8475473876953125,2.7964275390625,9.380482104492186,9.825059189048911
0.47251927381248443,0.8475473876953125,2.940079638671875,9.428366137695312,9.912441317988304
0.47500621735886595,-9.414000927734374,-3.385401147460937,10.381258398437499,14.417173104729741
0.4774931609052474,-8.245630517578125,-3.5865140869140624,10.137049829101562,13.550397970751144
0.4799801044516289,-6.9336080078124995,-3.4955344238281247,10.022128149414062,12.678199144888314
0.48246704799801043,-5.61200869140625,-3.19865341796875,9.859322436523437,11.786953132512103
0.4849539915443919,-4.204218115234375,-2.7437551025390623,9.710881933593749,10.931828298659447
0.4874409350907734,-2.916137622070312,-2.1691467041015624,9.567229833984374,10.234302260098108
0.4899278786371549,-1.6615759521484375,-1.4987702392578124,9.481038574218749,9.74152140687823
0.4924148221835364,-0.44053310546874996,-0.7900865478515624,9.351751684570312,9.39540130808544
0.4949017657299179,0.5506663818359374,-0.023942016601562498,9.208099584960937,9.224581543398108
0.4973887092762994,1.4221557861328125,0.7326257080078125,9.145850341796875,9.284710333802073
0.49987565282268087,2.04943662109375,1.426944189453125,9.093177905273437,9.429859203649183
0.5023625963690624,2.6384102294921874,2.1308394775390624,9.011775048828124,9.62879924750792
0.5048495399154439,2.940079638671875,2.767697119140625,9.016563452148437,9.879404441141743
0.5073364834618254,3.1507693847656246,3.318363500976562,9.011775048828124,10.10697648019777
0.5098234270082069,3.1794998046874996,3.768473413085937,9.035717065429687,10.2934344977583
0.5123103705545884,3.0693665283203124,4.094084838867187,9.016563452148437,10.367302351124627
0.5147973141009698,2.839523168945312,4.3813890380859375,9.102754711914063,10.493788880824242
0.5172842576473514,2.5570073730468748,4.568136767578125,9.184157568359375,10.571419510811591
0.5197712011937329,2.2074539306640624,4.649539624023437,9.212887988281249,10.553121654561988
0.5222581447401143,1.7381904052734374,4.544194750976562,9.236830004882812,10.43982951771201
0.5247450882864959,1.2641384765625,4.486733911132812,9.342174877929686,10.44054877518684
0.5272320318328774,0.82360537109375,4.290409374999999,9.423577734375,10.386999361133638
0.5297189753792588,0.33039982910156246,4.055777612304687,9.4618849609375,10.299794323264784
0.5322059189256404,-0.028730419921875,3.825934252929687,9.524134204101562,10.263904261172103
0.5346928624720219,-0.43574470214843747,3.5673604736328124,9.586383447265625,10.237904169911756
0.5371798060184033,-0.7422025146484375,3.265691064453125,9.634267480468749,10.199740809766546
0.5396667495647849,-1.0103531005859374,2.9927520751953125,9.686939916992188,10.188924542210826
0.5421536931111663,-1.1923124267578125,2.73896669921875,9.686939916992188,10.137078102581976
0.5446406366575478,-1.2928688964843749,2.4947581298828125,9.744400756835937,10.141433538703387
0.5471275802039294,-10.63025537109375,-4.477157104492187,10.544064111328124,15.627685464481619
0.5496145237503108,-9.2320416015625,-4.668693237304687,10.424354028320312,14.686539605529722
0.5521014672966923,-7.766790185546874,-4.707000463867187,10.204087475585936,13.660244667009552
0.5545884108430739,-6.129156249999999,-4.434061474609375,10.050858569335936,12.579634950121674
0.5570753543894553,-4.453215087890625,-3.9887399658203124,9.888052856445311,11.554858736730848
0.5595622979358368,-2.825157958984375,-3.35188232421875,9.739612353515625,10.680668584193455
0.5620492414822184,-1.235408056640625,-2.5665841796874997,9.605537060546874,10.018978472847131
0.5645361850285998,0.1580173095703125,-1.7190367919921874,9.366116894531249,9.523875400506368
0.5670231285749813,1.4939818359375,-0.7565677246093749,9.279925634765624,9.429814220588439
0.5695100721213628,2.5570073730468748,0.21068974609375,9.117119921875,9.471248732071983
0.5719970156677443,3.4763808105468748,1.16837041015625,9.05965908203125,9.773829118513303
0.5744839592141258,4.127603662109375,2.0542250244140625,8.973467822265624,10.08861126219185
0.5769709027605073,4.65432802734375,2.9640216552734375,8.94473740234375,10.509829730111457
0.5794578463068888,4.874594580078124,3.69664736328125,8.901641772460938,10.801208279345545
0.5819447898532703,4.903325,4.410119458007812,8.901641772460938,11.07840132576653
0.5844317333996518,4.707000463867187,4.989516259765625,8.892064965820312,11.23031367458988
0.5869186769460333,4.429273071289062,5.329492895507812,8.911218579101561,11.288568156672463
0.5894056204924147,3.9264907226562498,5.683834741210937,8.954314208984375,11.309423049551267
0.5918925640387963,3.347093920898437,5.7700260009765625,9.0021982421875,11.204276458518175
0.5943795075851778,2.7198130859375,5.904101293945312,9.09796630859375,11.181627174249307
0.5968664511315592,1.944091748046875,5.779602807617187,9.17458076171875,11.016180531016193
0.5993533946779408,1.1731588134765625,5.6311623046875,9.327809667968749,10.958755572838662
0.6018403382243223,0.354341845703125,5.315127685546875,9.34696328125,10.758339232349895
0.6043272817707037,-0.33518823242187495,5.008669873046875,9.409212524414063,10.664539623345771
0.6068142253170853,-1.0534487304687499,4.582501977539062,9.533711010742186,10.630179877980543
0.6093011688634667,-1.6998831787109374,4.055777612304687,9.576806640625,10.538223773181864
0.6117881124098483,-2.1978771240234374,3.6248213134765623,9.672574707031249,10.5607146950403
0.6142750559562298,-2.6192566162109374,3.189076611328125,9.710881933593749,10.551395300275804
0.6167619995026112,-2.935291235351562,2.6671406494140624,9.80665,10.578277652935215
0.6192489430489928,-3.1364041748046874,2.1835119140624997,9.777919580078125,10.498212549813436
0.6217358865953743,-3.265691064453125,1.7956512451171873,9.811438403320311,10.49540018601904
0.6242228301417557,-3.2513258544921873,1.39821376953125,9.816226806640625,10.43477025510414
0.6267097736881373,-3.1268273681640624,1.1252747802734375,9.82580361328125,10.372545944375958
0.6291967172345188,-2.916137622070312,0.928950244140625,9.840168823242188,10.305131229482251
0.6316836607809002,-2.6336218261718747,0.7230489013671875,9.782707983398437,10.15677798937757
0.6341706043272818,-2.27927998046875,0.6847416748046875,9.816226806640625,10.100608749475942
0.6366575478736632,-1.9393033447265624,0.6272808349609375,9.7683427734375,9.978722325435534
0.6391444914200447,-1.4604630126953124,0.718260498046875,9.696516723632811,9.832155761896594
0.6416314349664263,-0.9959878906249999,0.8475473876953125,9.634267480468749,9.722625074427093
0.6441183785128077,-0.565031591796875,0.97683427734375,9.595960253906249,9.662086684545459
0.6466053220591892,-0.2154781494140625,1.2593500732421874,9.557653027343749,9.642672079405331
0.6490922656055708,0.17238251953125,1.4891934326171874,9.528922607421874,9.646127661970155
0.6515792091519522,0.5219359619140624,1.7956512451171873,9.428366137695312,9.612016883509394
0.6540661526983337,0.8475473876953125,2.1021090576171875,9.476250170898437,9.743537158853453
0.6565530962447153,1.0821791503906248,2.346317626953125,9.394847314453125,9.743688941154588
0.6590400397910967,1.197100830078125,2.6815058593749996,9.370905297851563,9.820254078817852
0.6615269833374782,1.3359645263671873,2.9544448486328125,9.323021264648437,9.870778646105453
0.6640139268838597,1.3455413330078123,3.1842882080078123,9.318232861328125,9.938794520887601
0.6665008704302412,1.2593500732421874,3.447650390625,9.294290844726563,9.99280231613334
0.6689878139766227,1.149216796875,3.5769372802734374,9.260772021484375,9.993852009467489
0.6714747575230042,0.9528922607421875,3.768473413085937,9.275137231445312,10.056717465846445
0.6739617010693857,0.7230489013671875,3.883395092773437,9.3086560546875,10.112103376885313
0.6764486446157671,0.45010991210937495,3.907337109375,9.284714038085937,10.08344172335558
0.6789355881621487,0.1771709228515625,3.907337109375,9.34696328125,10.132344023138911
0.6814225317085302,-0.19632453613281248,3.835511059570312,9.303867651367186,10.065368432686938
0.6839094752549116,-0.5219359619140624,3.7110125732421873,9.399635717773437,10.119149326595736
0.6863964188012932,-0.7900865478515624,3.6152445068359373,9.433154541015625,10.133046639189377
0.6888833623476747,-1.1348515869140625,3.4907460205078125,9.495403784179686,10.180171360474557
0.6913703058940561,-1.43652099609375,3.2417490478515623,9.437942944335937,10.082028391251692
0.6938572494404377,-1.6424223388671875,3.0645781249999997,9.5001921875,10.116463899153425
0.6963441929868192,-1.8435352783203125,2.806004345703125,9.533711010742186,10.107617342720449
0.6988311365332006,-2.0254946044921875,2.5474305664062498,9.562441430664062,10.101104741480924
0.7013180800795822,-2.1212626708984375,2.31758720703125,9.619902270507811,10.119954815870644
0.7038050236259636,-2.1499930908203124,2.1499930908203124,9.658209497070311,10.125509926440708
0.7062919671723451,-2.1691467041015624,1.915361328125,9.667786303710937,10.09157561807928
0.7087789107187267,-2.1021090576171875,1.7429788085937499,9.701305126953125,10.078301383842918
0.7112658542651081,-1.9919757812499999,1.5562310791015623,9.667786303710937,9.992793138000453
0.7137527978114896,-1.848323681640625,1.4413093994140624,9.682151513671874,9.96181364765731
0.7162397413578712,-1.66636435546875,1.3838485595703125,9.6917283203125,9.930831024428366
0.7187266849042526,-1.388636962890625,1.3359645263671873,9.672574707031249,9.862647478923611
0.7212136284506341,-1.1061211669921875,1.3311761230468748,9.667786303710937,9.82148796877841
0.7237005719970157,-0.8379705810546875,1.3646949462890625,9.667786303710937,9.799524427509777
0.7261875155433971,-0.5267243652343749,1.4317325927734375,9.662997900390625,9.782679857641
0.7286744590897786,-0.2346317626953125,1.4987702392578124,9.581595043945311,9.700944690096309
0.7311614026361601,0.05746083984375,1.6519991455078125,9.605537060546874,9.746729971965653
0.7336483461825416,0.33039982910156246,1.8148048583984373,9.509768994140625,9.687021577505405
0.7361352897289231,0.5506663818359374,1.9632453613281249,9.5001921875,9.716543490989823
0.7386222332753046,0.7757213378906249,2.1930887207031247,9.442731347656249,9.725047919416339
0.7411091768216861,0.9050082275390624,2.403778466796875,9.437942944335937,9.781204313881304
0.7435961203680675,1.0486603271484374,2.6431986328124997,9.442731347656249,9.861610558029907
0.7460830639144491,1.1061211669921875,2.829946362304687,9.390058911132812,9.869412687902681
0.7485700074608306,1.120486376953125,3.0550013183593747,9.414000927734374,9.960518874210255
0.7510569510072121,1.0438719238281249,3.208230224609375,9.3852705078125,9.973249835047191
0.7535438945535936,1.01514150390625,3.366247534179687,9.394847314453125,10.03121581844449
0.7560308380999751,0.833182177734375,3.5386300537109374,9.342174877929686,10.02458610857032
0.7585177816463566,0.6655880615234374,3.6583401367187496,9.399635717773437,10.108393128999884
0.7610047251927381,0.45010991210937495,3.6679169433593746,9.337386474609374,10.042061532005267
0.7634916687391196,0.13407529296874998,3.7301661865234372,9.356540087890625,10.07357723847749
0.7659786122855011,-0.08140285644531249,3.69664736328125,9.332598071289063,10.038387067339055
0.7684655558318826,-0.33039982910156246,3.6679169433593746,9.390058911132812,10.086425784439097
0.770952499378264,-0.6512228515624999,3.5721488769531247,9.399635717773437,10.076581286743874
0.7734394429246456,-0.9145850341796874,3.4907460205078125,9.409212524414063,10.077452748290465
0.7759263864710271,-1.24498486328125,3.342305517578125,9.423577734375,10.075952103818322
0.7784133300174085,-1.4796166259765624,3.2417490478515623,9.476250170898437,10.124105864251195
0.7809002735637901,-1.7238251953125,2.9831752685546875,9.476250170898437,10.083165439898483
0.7833872171101716,-1.886630908203125,2.81558115234375,9.490615380859374,10.077631354471409
0.785874160656553,-2.01112939453125,2.6192566162109374,9.5384994140625,10.093964421137171
0.7883611042029346,-2.1547814941406247,2.408566870117187,9.572018237304688,10.102861514967458
0.790848047749316,-2.1787235107421874,2.1978771240234374,9.634267480468749,10.11912100302116
0.7933349912956975,-2.212242333984375,2.020706201171875,9.619902270507811,10.0757029228659
0.7958219348420791,-2.1739351074218747,1.8100164550781248,9.648632690429688,10.054763359411467
0.7983088783884605,-2.0302830078125,1.6711527587890624,9.65342109375,10.005165638222984
0.800795821934842,-1.89620771484375,1.5418658691406248,9.667786303710937,9.971912859149668
0.8032827654812236,-1.695094775390625,1.4508862060546874,9.65342109375,9.907923894223947
0.805769709027605,-1.4939818359375,1.4173673828125,9.682151513671874,9.898735775727651
0.8082566525739865,-1.24498486328125,1.35990654296875,9.662997900390625,9.837319835115776
0.8107435961203681,-1.0390835205078124,1.3551181396484375,9.662997900390625,9.8127248080209
0.8132305396667495,-0.7230489013671875,1.4125789794921875,9.6151138671875,9.745183105824788
0.815717483213131,-0.4070142822265625,1.5322890624999999,9.6151138671875,9.74494664305428
0.8182044267595125,-0.16280571289062498,1.5705962890624998,9.591171850585937,9.720280647740516
0.820691370305894,0.1005564697265625,1.6903063720703124,9.524134204101562,9.673488490343216
0.8231783138522755,0.36391865234375,1.905784521484375,9.562441430664062,9.75729150649573
0.825665257398657,0.59376201171875,2.0542250244140625,9.524134204101562,9.761225646158712
0.8281522009450385,0.7709329345703124,2.2266075439453124,9.423577734375,9.713698371895621
0.83063914449142,0.9241618408203125,2.4660277099609376,9.442731347656249,9.803088445909971
0.8331260880378015,1.0390835205078124,2.6623522460937497,9.442731347656249,9.865748291380706
0.835613031584183,1.1061211669921875,2.7916391357421872,9.452308154296874,9.917806337293682
0.8380999751305644,1.1444283935546875,3.0310593017578125,9.375693701171874,9.919711145841934
0.840586918676946,1.0630255371093749,3.208230224609375,9.414000927734374,10.0023086302127
0.8430738622233275,0.9911994873046874,3.375824340820312,9.375693701171874,10.014104991555756
0.8455608057697089,0.82360537109375,3.5242648437499997,9.380482104492186,10.054462343103426
0.8480477493160905,0.689530078125,3.6008792968749996,9.351751684570312,10.04475201332346
0.850534692862472,0.4213794921875,3.6822821533203123,9.366116894531249,10.072780560258481
0.8530216364088534,0.22505495605468748,3.687070556640625,9.34696328125,10.050415991585957
0.855508579955235,-0.06703764648437499,3.706224169921875,9.356540087890625,10.064066477327321
0.8579955235016165,-0.3447650390625,3.6391865234374996,9.394847314453125,10.080957174118735
0.8604824670479979,-0.6368576416015624,3.5721488769531247,9.370905297851563,10.048865675094191
0.8629694105943795,-0.8906430175781249,3.447650390625,9.409212524414063,10.06045816701843
0.8654563541407609,-1.177947216796875,3.3710359375,9.442731347656249,10.095376082221305
0.8679432976871424,-1.4413093994140624,3.208230224609375,9.428366137695312,10.063011576331215
0.870430241233524,-1.6328455322265625,3.0166940917968748,9.490615380859374,10.091501775404835
0.8729171847799054,-1.838746875,2.81558115234375,9.543287817382812,10.11844008042558
0.8754041283262869,-1.9776105712890624,2.6575638427734374,9.533711010742186,10.092830860885254
0.8778910718726685,-2.0973206542968748,2.446874096679687,9.591171850585937,10.118128494905289
0.8803780154190499,-2.0925322509765625,2.288856787109375,9.595960253906249,10.084642274658144
0.8828649589654315,-2.1835119140624997,2.0973206542968748,9.6151138671875,10.080520466958763
0.885351902511813,-2.1595698974609374,1.8914193115234375,9.648632690429688,10.066644026131632
0.8878388460581944,-2.1021090576171875,1.7381904052734374,9.658209497070311,10.035994174191215
0.890325789604576,-1.9536685546875,1.5945383056640625,9.629479077148437,9.954207177221312
0.8928127331509574,-1.7956512451171873,1.5131354492187499,9.643844287109374,9.925607030090676
0.8952996766973389,-1.6041151123046875,1.4221557861328125,9.639055883789062,9.874568887012934
0.8977866202437205,-1.350329736328125,1.369483349609375,9.65342109375,9.84314044677443
0.9002735637901019,-1.0869675537109373,1.37906015625,9.686939916992188,9.844801182999747
0.9027605073364834,-0.7948749511718749,1.3838485595703125,9.624690673828125,9.756102377009961
0.905247450882865,-0.5602431884765625,1.5035586425781249,9.619902270507811,9.752798609426277
0.9077343944292464,-0.26815058593749996,1.5801730957031248,9.591171850585937,9.724167276255313
0.9102213379756279,0.0718260498046875,1.7094599853515624,9.610325463867188,9.761442923277418
0.9127082815220094,0.22505495605468748,1.7717092285156248,9.567229833984374,9.732496597478619
0.9151952250683909,0.49799394531249996,1.9823989746093749,9.533711010742186,9.750361495885524
0.9176821686147724,0.70868369140625,2.1835119140624997,9.519345800781249,9.792236788812332
0.9201691121611539,0.8667010009765624,2.3367408203125,9.481038574218749,9.803143410775565
0.9226560557075354,0.9911994873046874,2.5522189697265625,9.4618849609375,9.850054066200878
0.9251429992539169,1.0965443603515623,2.7820623291015623,9.471461767578125,9.932314350236755
0.9276299428002984,1.1061211669921875,2.93050283203125,9.414000927734374,9.921429551833494
0.9301168863466799,1.0869675537109373,3.1076737548828124,9.394847314453125,9.955013344616615
0.9326038298930613,0.9911994873046874,3.27526787109375,9.351751684570312,9.958168286432787
0.9350907734394429,0.8954314208984374,3.423708374023437,9.34696328125,9.99446341936005
0.9375777169858244,0.74699091796875,3.5146880371093747,9.327809667968749,9.995952212349698
0.9400646605322058,0.565031591796875,3.6391865234374996,9.370905297851563,10.068604935809136
0.9425516040785874,0.3064578125,3.6296097167968746,9.342174877929686,10.027173806059668
0.9450385476249689,0.086191259765625,3.7158009765625,9.380482104492186,10.089997539314911
0.9475254911713503,-0.201112939453125,3.5865140869140624,9.351751684570312,10.017923401579399
0.9500124347177319,-0.45968671875,3.6152445068359373,9.361328491210937,10.045684438800585
0.9524993782641133,-0.7326257080078125,3.5577836669921874,9.414000927734374,10.09048950827134
0.9549863218104948,-1.024718310546875,3.418919970703125,9.394847314453125,10.049985942474239
0.9574732653568764,-1.2976572998046874,3.31357509765625,9.452308154296874,10.099991279171046
0.9599602089032578,-1.5131354492187499,3.1220389648437497,9.485826977539062,10.100377202535206
0.9624471524496393,-1.6903063720703124,2.9544448486328125,9.514557397460937,10.105082011772744
0.9649340959960209,-1.9297265380859374,2.7629087158203123,9.533711010742186,10.11183241159068
0.9674210395424023,-2.0542250244140625,2.5617957763671875,9.552864624023437,10.10147813815682
0.9699079830887838,-2.1021090576171875,2.389413256835937,9.605537060546874,10.119016771584038
0.9723949266351654,-2.1691467041015624,2.1691467041015624,9.548076220703125,10.028766343084568
0.9748818701815468,-2.1452046874999997,2.001552587890625,9.610325463867188,10.048207374194549
0.9773688137279283,-2.0925322509765625,1.8770541015625,9.65342109375,10.05438024618261
0.9798557572743098,-2.0063409912109376,1.618480322265625,9.658209497070311,9.996293984065968
0.9823427008206913,-1.905784521484375,1.5322890624999999,9.610325463867188,9.916565934578392
0.9848296443670728,-1.7094599853515624,1.4796166259765624,9.701305126953125,9.961266986063139
0.9873165879134543,-1.5131354492187499,1.4125789794921875,9.65342109375,9.872866710041368
0.9898035314598358,-1.2210428466796874,1.3646949462890625,9.662997900390625,9.834981766775583
0.9922904750062173,-0.9864110839843749,1.407790576171875,9.648632690429688,9.800560898631975
0.9947774185525988,-0.6512228515624999,1.4125789794921875,9.643844287109374,9.768480086979372
0.9972643620989803,-0.430956298828125,1.5083470458984374,9.6151138671875,9.74224044156946
0.9997513056453617,-0.1292868896484375,1.6041151123046875,9.624690673828125,9.758307791837339
1.0022382491917432,0.1388636962890625,1.7477672119140624,9.562441430664062,9.721844447843706
1.0047251927381249,0.39743747558593745,1.89620771484375,9.572018237304688,9.766119668534
1.0072121362845063,0.5985504150390625,2.0638018310546875,9.514557397460937,9.754196177378573
1.0096990798308878,0.7565677246093749,2.1978771240234374,9.485826977539062,9.766471830811474
1.0121860233772693,0.9145850341796874,2.43250888671875,9.452308154296874,9.803045175479829
1.0146729669236507,1.0390835205078124,2.6144682128906247,9.399635717773437,9.811640547107736
1.0171599104700322,1.0869675537109373,2.834734765625,9.428366137695312,9.90511522803763
1.0196468540164139,1.1013327636718748,3.0406361083984375,9.3852705078125,9.926817430820847
1.0221337975627953,1.0917559570312498,3.23696064453125,9.390058911132812,9.992149500407914
1.0246207411091768,0.948103857421875,3.31357509765625,9.361328491210937,9.975627898665001
1.0271076846555582,0.86191259765625,3.447650390625,9.361328491210937,10.013174205132602
1.0295946282019397,0.689530078125,3.6535517333984373,9.366116894531249,10.077104627782798
1.0320815717483212,0.488417138671875,3.6200329101562496,9.337386474609374,10.02646377085066
1.0345685152947028,0.22026655273437498,3.7014357666015623,9.361328491210937,10.068943102872735
1.0370554588410843,-0.0430956298828125,3.6631285400390623,9.370905297851563,10.06152245117339
1.0395424023874658,-0.26815058593749996,3.706224169921875,9.375693701171874,10.085218624930532
1.0420293459338472,-0.5793968017578125,3.6200329101562496,9.370905297851563,10.06251484599173
1.0445162894802287,-0.8379705810546875,3.4859576171874997,9.394847314453125,10.05570739756422
1.0470032330266101,-1.149216796875,3.3710359375,9.428366137695312,10.07862443811534
1.0494901765729918,-1.3742717529296875,3.227383837890625,9.476250170898437,10.104649750952811
1.0519771201193733,-1.608903515625,3.0358477050781247,9.428366137695312,10.034890624090439
1.0544640636657547,-1.8243816650390623,2.89219560546875,9.504980590820312,10.101377129475678
1.0569510072121362,-1.9393033447265624,2.6862942626953124,9.562441430664062,10.120146265916217
1.0594379507585177,-2.068590234375,2.4756045166015626,9.581595043945311,10.110125957006026
1.0619248943048991,-2.1595698974609374,2.2840683837890623,9.6151138671875,10.115884795845867
1.0644118378512808,-2.1930887207031247,2.04943662109375,9.586383447265625,10.045326087229014
1.0668987813976623,-2.1787235107421874,1.8626888916015625,9.648632690429688,10.065413992379302
1.0693857249440437,-2.0733786376953125,1.7477672119140624,9.643844287109374,10.01785016040394
1.0718726684904252,-1.9536685546875,1.608903515625,9.619902270507811,9.947256457852415
1.0743596120368066,-1.8243816650390623,1.465251416015625,9.600748657226562,9.88178652628684
1.076846555583188,-1.5658078857421873,1.426944189453125,9.648632690429688,9.878463283815702
1.0793334991295698,-1.3646949462890625,1.37906015625,9.648632690429688,9.841763663379222
1.0818204426759512,-1.149216796875,1.3646949462890625,9.639055883789062,9.802779701363031
1.0843073862223327,-0.8810662109374999,1.3742717529296875,9.610325463867188,9.747987281506386
1.0867943297687142,-0.5602431884765625,1.4317325927734375,9.586383447265625,9.708886560540941
1.0892812733150956,-0.24899697265624998,1.5801730957031248,9.648632690429688,9.780340449064358
1.0917682168614773,0.0047884033203125,1.656787548828125,9.600748657226562,9.74265583349817
1.0942551604078588,0.2442085693359375,1.7908628417968748,9.562441430664062,9.731757994234467
1.0967421039542402,0.488417138671875,1.9728221679687499,9.548076220703125,9.761984333327616
1.0992290475006217,0.679953271484375,2.1212626708984375,9.466673364257812,9.725224745778258
1.1017159910470031,0.8810662109374999,2.375048046875,9.495403784179686,9.827503442768892
1.1042029345933846,0.9911994873046874,2.5426421630859375,9.418789331054686,9.806176525839467
1.1066898781397663,1.0869675537109373,2.729389892578125,9.442731347656249,9.889198296754797
1.1091768216861477,1.1109095703125,2.925714428710937,9.409212524414063,9.916007529311871
1.1116637652325292,1.1013327636718748,3.1220389648437497,9.370905297851563,9.93850729514459
1.1141507087789106,1.0199299072265624,3.2800562744140622,9.399635717773437,10.007605997730947
1.116637652325292,0.9145850341796874,3.447650390625,9.370905297851563,10.026795355547288
1.1191245958716736,0.7852981445312499,3.5529952636718747,9.356540087890625,10.039188758848162
1.1216115394180552,0.5698199951171875,3.6200329101562496,9.34696328125,10.039674082284018
1.1240984829644367,0.354341845703125,3.6487633300781246,9.370905297851563,10.062449904662461
1.1265854265108182,0.105344873046875,3.7014357666015623,9.380482104492186,10.084898055471495
1.1290723700571996,-0.1292868896484375,3.6727053466796873,9.356540087890625,10.05237892638697
1.131559313603581,-0.44053310546874996,3.6535517333984373,9.414000927734374,10.107716020596163
1.1340462571499625,-0.6943184814453125,3.5817256835937497,9.409212524414063,10.091784646720425
1.1365332006963442,-0.9720458740234375,3.4572271972656248,9.433154541015625,10.093646401048673
1.1390201442427257,-1.2401964599609374,3.2609026611328122,9.423577734375,10.048651190109593
1.1415070877891071,-1.484405029296875,3.1316157714843746,9.485826977539062,10.09907862525188
1.1439940313354886,-1.675941162109375,3.0071172851562498,9.476250170898437,10.082204642189657
1.14648097488187,-1.89620771484375,2.7964275390625,9.524134204101562,10.105678750920069
1.1489679184282515,-1.9967641845703124,2.5761609863281247,9.548076220703125,10.089074890822166
1.1514548619746332,-2.1260510742187497,2.398990063476562,9.552864624023437,10.076332121350726
1.1539418055210147,-2.1499930908203124,2.2266075439453124,9.6151138671875,10.101023023650159
1.1564287490673961,-2.2026655273437497,2.059013427734375,9.619902270507811,10.081358609585333
1.1589156926137776,-2.1643583007812497,1.8052280517578123,9.576806640625,9.982911429284199
1.161402636160159,-2.059013427734375,1.675941162109375,9.6917283203125,10.048776687198812
1.1638895797065405,-1.924938134765625,1.5849614990234373,9.662997900390625,9.979529958821468
1.1663765232529222,-1.7381904052734374,1.3934253662109375,9.634267480468749,9.888480673056018
1.1688634667993036,-1.5227122558593749,1.455674609375,9.643844287109374,9.871239730476386
1.171350410345685,-1.2593500732421874,1.35990654296875,9.648632690429688,9.825040519377655
1.1738373538920666,-0.9911994873046874,1.3551181396484375,9.648632690429688,9.793617022881064
1.176324297438448,-0.737414111328125,1.4030021728515625,9.629479077148437,9.759050259418258
1.1788112409848295,-0.4165910888671875,1.5275006591796874,9.600748657226562,9.730425539428149
1.1812981845312112,-0.16759411621093748,1.6041151123046875,9.595960253906249,9.730556318929628
1.1837851280775926,0.09576806640624999,1.7094599853515624,9.562441430664062,9.714510336550264
1.186272071623974,0.3447650390625,1.8195932617187498,9.509768994140625,9.688420350716129
1.1887590151703555,0.5602431884765625,2.0063409912109376,9.543287817382812,9.767989504941887
1.191245958716737,0.7757213378906249,2.24097275390625,9.490615380859374,9.782406799209154
1.1937329022631185,0.9433154541015625,2.418143676757812,9.495403784179686,9.84377752247604
1.1962198458095001,1.0342951171875,2.6240450195312497,9.423577734375,9.836625232760111
1.1987067893558816,1.1156979736328125,2.7964275390625,9.447519750976562,9.91566530267575
1.201193732902263,1.0726023437499999,2.96881005859375,9.370905297851563,9.88828473766446
1.2036806764486445,1.0534487304687499,3.1651345947265623,9.370905297851563,9.94694412026948
1.206167619995026,0.97683427734375,3.327940307617187,9.356540087890625,9.978689007718458
1.2086545635414074,0.9050082275390624,3.5194764404296874,9.361328491210937,10.041923392807309
1.2111415070877891,0.689530078125,3.5194764404296874,9.318232861328125,9.984569585180626
1.2136284506341706,0.5027823486328125,3.6631285400390623,9.327809667968749,10.033909207920745
1.216115394180552,0.2346317626953125,3.6391865234374996,9.342174877929686,10.028706899010219
1.2186023377269335,0.009576806640625,3.6918589599609373,9.332598071289063,10.036299171293052
1.221089281273315,-0.258573779296875,3.6918589599609373,9.356540087890625,10.061884783473126
1.2235762248196966,-0.5602431884765625,3.5913024902343746,9.370905297851563,10.051128897188638
1.226063168366078,-0.842758984375,3.4955344238281247,9.447519750976562,10.108641504129249
1.2285501119124596,-1.0582371337890624,3.418919970703125,9.423577734375,10.080312342046302
1.231037055458841,-1.3934253662109375,3.2225954345703123,9.4618849609375,10.09227539260244
1.2335239990052225,-1.618480322265625,3.0980969482421874,9.509768994140625,10.131800904882951
1.236010942551604,-1.7908628417968748,2.85388837890625,9.514557397460937,10.093496473817364
1.2384978860979856,-1.9823989746093749,2.710236279296875,9.5001921875,10.076156905466751
1.240984829644367,-2.0638018310546875,2.4947581298828125,9.528922607421874,10.063968510618302
1.2434717731907485,-2.1356278808593747,2.3223756103515623,9.562441430664062,10.069489611491749
1.24595871673713,-2.1739351074218747,2.0781670410156248,9.605537060546874,10.06534223577045
1.2484456602835114,-2.1691467041015624,1.905784521484375,9.634267480468749,10.057649921898344
1.250932603829893,-2.0973206542968748,1.7286135986328124,9.567229833984374,9.9457903454979
1.2534195473762746,-1.9919757812499999,1.5849614990234373,9.667786303710937,9.997307761627324
1.255906490922656,-1.7812860351562498,1.5083470458984374,9.6151138671875,9.894367358699322
1.2583934344690375,-1.62805712890625,1.426944189453125,9.677363110351562,9.916556685885972
1.260880378015419,-1.407790576171875,1.3742717529296875,9.658209497070311,9.856546446223339
1.2633673215618004,-1.2018892333984375,1.3646949462890625,9.610325463867188,9.780863231189773
1.2658542651081819,-0.8954314208984374,1.3934253662109375,9.619902270507811,9.761452318935621
1.2683412086545636,-0.603338818359375,1.407790576171875,9.600748657226562,9.72215340422765
1.270828152200945,-0.33518823242187495,1.5610194824218748,9.624690673828125,9.756218711290192
1.2733150957473265,-0.06703764648437499,1.6232687255859375,9.562441430664062,9.699473259739012
1.275802039293708,0.2154781494140625,1.8195932617187498,9.519345800781249,9.69408556522062
1.2782889828400894,0.39743747558593745,1.9297265380859374,9.543287817382812,9.744544290227248
1.2807759263864709,0.679953271484375,2.1164742675781247,9.509768994140625,9.766140798628753
1.2832628699328525,0.842758984375,2.3319524169921872,9.5001921875,9.81844673969852
1.285749813479234,0.9720458740234375,2.5570073730468748,9.481038574218749,9.86778862424839
1.2882367570256155,1.0342951171875,2.7198130859375,9.433154541015625,9.871755376150611
1.290723700571997,1.13006318359375,2.901772412109375,9.433154541015625,9.933867853221967
1.2932106441183784,1.1156979736328125,3.1220389648437497,9.3852705078125,9.953653187206498
1.2956975876647598,1.0726023437499999,3.2130186279296873,9.342174877929686,9.937313316035764
1.2981845312111415,0.93852705078125,3.438073583984375,9.380482104492186,10.034671270482033
1.300671474757523,0.737414111328125,3.5003228271484375,9.337386474609374,9.99914124523003
1.3031584183039044,0.6272808349609375,3.6343981201171873,9.370905297851563,10.070560910034908
1.305645361850286,0.39264907226562495,3.6918589599609373,9.375693701171874,10.08402837423561
1.3081323053966674,0.1580173095703125,3.6822821533203123,9.356540087890625,10.05629224630477
1.3106192489430488,-0.12449848632812499,3.67749375,9.366116894531249,10.062981955484704
1.3131061924894305,-0.38786066894531246,3.6296097167968746,9.399635717773437,10.083533816159052
1.315593136035812,-0.689530078125,3.5529952636718747,9.404424121093749,10.076825895177695
1.3180800795821934,-0.9337386474609375,3.4428619873046875,9.423577734375,10.07615918101724
1.3205670231285749,-1.1875240234375,3.342305517578125,9.471461767578125,10.113842370423246
1.3230539666749563,-1.5035586425781249,3.1459809814453124,9.437942944335937,10.061443830178026
1.3255409102213378,-1.695094775390625,2.9831752685546875,9.5001921875,10.10080851119894
1.3280278537677195,-1.8722656982421875,2.7964275390625,9.533711010742186,10.110243887384135
1.330514797314101,-2.01112939453125,2.6192566162109374,9.543287817382812,10.098489442907766
1.3330017408604824,-2.0877438476562498,2.442085693359375,9.567229833984374,10.092291296004973
1.3354886844068639,-2.1643583007812497,2.2361843505859373,9.610325463867188,10.101649510125572
1.3379756279532453,-2.1499930908203124,2.04943662109375,9.639055883789062,10.086330308157857
1.3404625714996268,-2.1260510742187497,1.8914193115234375,9.648632690429688,10.059506597096048
1.3429495150460085,-2.01112939453125,1.7429788085937499,9.658209497070311,10.018164864787046
1.34543645859239,-1.9536685546875,1.5562310791015623,9.619902270507811,9.93887295860339
1.3479234021387714,-1.7286135986328124,1.4508862060546874,9.65342109375,9.913713460129635
1.3504103456851528,-1.5562310791015623,1.39821376953125,9.65342109375,9.877519715501753
1.3528972892315343,-1.3168109130859373,1.3551181396484375,9.595960253906249,9.780224401708528
1.3553842327779158,-1.0295067138671874,1.4221557861328125,9.662997900390625,9.821198479660325
1.3578711763242974,-0.74699091796875,1.455674609375,9.639055883789062,9.776931130508968
1.360358119870679,-0.4836287353515625,1.4508862060546874,9.610325463867188,9.731254958022197
1.3628450634170604,-0.201112939453125,1.5562310791015623,9.605537060546874,9.732864111222172
1.3653320069634418,0.1149216796875,1.70467158203125,9.572018237304688,9.723304239318065
1.3678189505098233,0.33518823242187495,1.8626888916015625,9.552864624023437,9.738541142438553
1.370305894056205,0.55545478515625,2.0446482177734375,9.528922607421874,9.761633183593448
1.3727928376025864,0.7230489013671875,2.212242333984375,9.509768994140625,9.790430132530405
1.3752797811489679,0.9002198242187499,2.379836450195312,9.433154541015625,9.770282588353234
1.3777667246953493,1.0486603271484374,2.6288334228515624,9.476250170898437,9.889882251487586
1.3802536682417308,1.1156979736328125,2.7724855224609373,9.414000927734374,9.876986959999872
1.3827406117881123,1.1061211669921875,2.978386865234375,9.399635717773437,9.922068533421394
1.385227555334494,1.0678139404296874,3.189076611328125,9.366116894531249,9.951612026517099
1.3877144988808754,0.9864110839843749,3.289633081054687,9.375693701171874,9.98490485747213
1.3902014424272569,0.8810662109374999,3.42849677734375,9.327809667968749,9.976918413125542
1.3926883859736383,0.70868369140625,3.5434184570312497,9.342174877929686,10.016699974837794
1.3951753295200198,0.5363011718749999,3.69664736328125,9.366116894531249,10.083499707811391
1.3976622730664012,0.277727392578125,3.6248213134765623,9.313444458007812,9.997835252274294
1.400149216612783,0.009576806640625,3.6727053466796873,9.34696328125,10.042638042854614
1.4026361601591644,-0.2346317626953125,3.69664736328125,9.428366137695312,10.129873731639469
1.4051231037055458,-0.5219359619140624,3.6152445068359373,9.418789331054686,10.102277092583442
1.4076100472519273,-0.814028564453125,3.5146880371093747,9.3852705078125,10.054798705432171
1.4100969907983087,-1.0438719238281249,3.404554760742187,9.447519750976562,10.096350388003636
1.4125839343446902,-1.2785036865234374,3.2704794677734372,9.471461767578125,10.10144522532671
1.4150708778910719,-1.5466542724609373,3.1316157714843746,9.485826977539062,10.10841581191332
1.4175578214374533,-1.7621324218749999,2.935291235351562,9.533711010742186,10.129792245890414
1.4200447649838348,-1.9488801513671874,2.710236279296875,9.514557397460937,10.083169987835602
1.4225317085302163,-2.0829554443359375,2.5234885498046875,9.567229833984374,10.111309734172165
1.4250186520765977,-2.1835119140624997,2.31758720703125,9.591171850585937,10.105914714092924
1.4275055956229792,-2.1643583007812497,2.1212626708984375,9.562441430664062,10.031175817818589
1.4299925391693609,-2.1308394775390624,1.9488801513671874,9.557653027343749,9.984354867217263
1.4324794827157423,-2.0973206542968748,1.8052280517578123,9.624690673828125,10.014602978284644
1.4349664262621238,-1.9823989746093749,1.6519991455078125,9.65342109375,9.992374376720894
1.4374533698085052,-1.85790048828125,1.5658078857421873,9.658209497070311,9.95914450385711
1.4399403133548867,-1.6328455322265625,1.43652099609375,9.686939916992188,9.928070409689237
1.4424272569012682,-1.426944189453125,1.43652099609375,9.65342109375,9.863483213616256
1.4449142004476498,-1.16837041015625,1.3646949462890625,9.619902270507811,9.786214866120451
1.4474011439940313,-0.928950244140625,1.3646949462890625,9.672574707031249,9.812443238848134
1.4498880875404128,-0.6368576416015624,1.4221557861328125,9.643844287109374,9.76892252859595
1.4523750310867942,-0.3064578125,1.5562310791015623,9.65342109375,9.782857986072441
1.4548619746331757,-0.0909796630859375,1.6232687255859375,9.528922607421874,9.666625301148086
1.4573489181795571,0.22505495605468748,1.7860744384765623,9.591171850585937,9.758652012470586
1.4598358617259388,0.469263525390625,1.9201497314453124,9.5384994140625,9.74115775046797
1.4623228052723203,0.63206923828125,2.1212626708984375,9.528922607421874,9.782618918222477
1.4648097488187017,0.833182177734375,2.29843359375,9.495403784179686,9.805084525427949
1.4672966923650832,0.9433154541015625,2.499546533203125,9.481038574218749,9.850262400739306
1.4697836359114647,1.0438719238281249,2.6479870361328124,9.457096557617186,9.87614192065803
1.4722705794578461,1.1348515869140625,2.901772412109375,9.428366137695312,9.92986703246524
1.4747575230042278,1.0773907470703123,3.0645781249999997,9.370905297851563,9.917977415148902
1.4772444665506093,1.0295067138671874,3.2417490478515623,9.414000927734374,10.00960710670143
1.4797314100969907,0.9576806640625,3.35188232421875,9.34696328125,9.975870385623756
1.4822183536433722,0.8283937744140625,3.5577836669921874,9.313444458007812,10.00421453883316
1.4847052971897536,0.622492431640625,3.5817256835937497,9.327809667968749,10.011208163943863
1.487192240736135,0.4213794921875,3.6343981201171873,9.351751684570312,10.041995316759076
1.4896791842825168,0.1388636962890625,3.687070556640625,9.361328491210937,10.062218618980156
1.4921661278288982,-0.062249243164062495,3.69664736328125,9.361328491210937,10.064966359461236
1.4946530713752797,-0.37828386230468747,3.6535517333984373,9.394847314453125,10.087353221285849
1.4971400149216612,-0.6607996582031249,3.5051112304687497,9.394847314453125,10.049160014057225
1.4996269584680426,-0.9433154541015625,3.4428619873046875,9.442731347656249,10.094964983276782
1.5021139020144243,-1.1923124267578125,3.35188232421875,9.495403784179686,10.139990979435096
1.5046008455608058,-1.4317325927734375,3.2130186279296873,9.509768994140625,10.13947992958965
1.5070877891071872,-1.6472107421875,3.0454245117187497,9.490615380859374,10.10245979913604
1.5095747326535687,-1.8722656982421875,2.825157958984375,9.490615380859374,10.07763249208025
1.5120616761999501,-1.9871873779296874,2.6527754394531247,9.509768994140625,10.070840954413251
1.5145486197463316,-2.1260510742187497,2.4133552734375,9.576806640625,10.102455259882836
1.5170355632927133,-2.1547814941406247,2.1883003173828124,9.600748657226562,10.079985929840689
1.5195225068390947,-2.1595698974609374,2.0350714111328125,9.595960253906249,10.04428748020376
1.5220094503854762,-2.1595698974609374,1.8339584716796873,9.629479077148437,10.037629855454156
1.5244963939318577,-2.068590234375,1.7238251953125,9.696516723632811,10.063452460931913
1.5269833374782391,-1.9393033447265624,1.618480322265625,9.658209497070311,9.983054978598878
1.5294702810246206,-1.7860744384765623,1.47482822265625,9.667786303710937,9.941391864338893
1.5319572245710023,-1.5370774658203123,1.426944189453125,9.662997900390625,9.887987928729498
1.5344441681173837,-1.3120225097656248,1.3311761230468748,9.672574707031249,9.851504169404915
1.5369311116637652,-1.0582371337890624,1.35990654296875,9.648632690429688,9.801291977681704
1.5394180552101466,-0.8044517578125,1.37906015625,9.619902270507811,9.75148548885375
1.541904998756528,-0.5027823486328125,1.4604630126953124,9.648632690429688,9.771481724711776
1.5443919423029095,-0.26336218261718747,1.5179238525390624,9.548076220703125,9.671567193464377
1.5468788858492912,0.05746083984375,1.675941162109375,9.552864624023437,9.698933088329175
1.5493658293956727,0.28730419921875,1.8004396484374998,9.533711010742186,9.706480941458715
1.5518527729420541,0.507570751953125,2.0063409912109376,9.514557397460937,9.737034184536387
1.5543397164884356,0.7230489013671875,2.1547814941406247,9.4618849609375,9.731040541240922
1.556826660034817,0.8762778076171874,2.379836450195312,9.4618849609375,9.795853783097002
1.5593136035811985,0.9864110839843749,2.5617957763671875,9.447519750976562,9.838263763058613
1.5618005471275802,1.0965443603515623,2.7629087158203123,9.442731347656249,9.899558041154396
1.5642874906739617,1.13006318359375,2.978386865234375,9.375693701171874,9.902093894531028
1.5667744342203431,1.0917559570312498,3.1220389648437497,9.361328491210937,9.928420291671454
1.5692613777667246,1.0342951171875,3.323151904296875,9.390058911132812,10.014305334021655
1.571748321313106,0.9241618408203125,3.4332851806640625,9.351751684570312,10.004837920209377
1.5742352648594875,0.7709329345703124,3.5482068603515624,9.380482104492186,10.05870538519492
1.5767222084058692,0.5602431884765625,3.6535517333984373,9.361328491210937,10.064630336937903
1.5792091519522506,0.3447650390625,3.69664736328125,9.337386474609374,10.048425291399248
1.581696095498632,0.076614453125,3.706224169921875,9.370905297851563,10.077491427604551
1.5841830390450136,-0.22026655273437498,3.6679169433593746,9.361328491210937,10.056669586796312
1.586669982591395,-0.5027823486328125,3.5960908935546874,9.356540087890625,10.036408830906998
1.5891569261377765,-0.7852981445312499,3.5146880371093747,9.390058911132812,10.056984216381602
1.5916438696841582,-1.0103531005859374,3.4428619873046875,9.476250170898437,10.132789810952552
1.5941308132305396,-1.3215993164062498,3.2513258544921873,9.409212524414063,10.042461097500217
1.596617756776921,-1.5418658691406248,3.0980969482421874,9.509768994140625,10.119844928705515
1.5991047003233025,-1.7717092285156248,2.916137622070312,9.548076220703125,10.139456185497218
1.601591643869684,-1.9297265380859374,2.7198130859375,9.552864624023437,10.118223671136573
1.6040785874160655,-2.04943662109375,2.5522189697265625,9.576806640625,10.120733054736272
1.6065655309624471,-2.1116858642578125,2.31758720703125,9.552864624023437,10.054235434702115
1.6090524745088286,-2.1883003173828124,2.1739351074218747,9.6151138671875,10.097775339614188
1.61153941805521,-2.2170307373046874,1.9536685546875,9.643844287109374,10.086415554880764
1.6140263616015915,-2.059013427734375,1.838746875,9.629479077148437,10.017354624008886
1.616513305147973,-2.0063409912109376,1.68551796875,9.639055883789062,9.988882486384599
1.6190002486943544,-1.8770541015625,1.5897499023437498,9.682151513671874,9.9897294651003
1.6214871922407361,-1.6519991455078125,1.407790576171875,9.629479077148437,9.871060874108537
1.6239741357871176,-1.5179238525390624,1.369483349609375,9.624690673828125,9.839423155543136
1.626461079333499,-1.2018892333984375,1.3838485595703125,9.682151513671874,9.854117540342335
1.6289480228798805,-0.9241618408203125,1.3838485595703125,9.672574707031249,9.814673372402867
1.631434966426262,-0.689530078125,1.4221557861328125,9.595960253906249,9.725247143554686
1.6339219099726436,-0.38786066894531246,1.4891934326171874,9.639055883789062,9.761123465517349
1.636408853519025,-0.0909796630859375,1.6041151123046875,9.586383447265625,9.720093116355825
1.6388957970654066,0.1580173095703125,1.7381904052734374,9.562441430664062,9.720419819636858
1.641382740611788,-9.064447485351561,-4.802768530273437,10.371681591796875,14.587754207269167
1.6438696841581695,-7.503428002929687,-4.678270043945313,10.237606298828124,13.527609734503386
1.646356627704551,-5.851428857421874,-4.414907861328125,10.026916552734374,12.420534877894145
1.6488435712509326,-4.185064501953125,-3.9600095458984375,9.868899243164062,11.42766873692264
1.651330514797314,-2.5761609863281247,-3.289633081054687,9.734823950195311,10.593634342223858
1.6538174583436955,-0.9720458740234375,-2.446874096679687,9.557653027343749,9.913667203275544
1.656304401890077,0.4740519287109375,-1.5227122558593749,9.399635717773437,9.533967142386272
1.6587913454364585,1.7286135986328124,-0.6081272216796875,9.203311181640624,9.383968264931285
1.66127828898284,2.7629087158203123,0.38307226562499996,9.193734375,9.607557477876652
1.6637652325292216,3.6296097167968746,1.2928688964843749,9.088389501953124,9.871393033355261
1.666252176075603,4.295197778320312,2.2457611572265623,9.016563452148437,10.23672719265363
1.6687391196219845,4.707000463867187,3.1220389648437497,8.954314208984375,10.58691284643772
1.671226063168366,4.912901806640625,3.859453076171875,8.8872765625,10.863501595122408
1.6737130067147474,4.936843823242187,4.529829541015625,8.882488159179687,11.12611246139952
1.676199950261129,4.75009609375,5.042188696289062,8.877699755859375,11.260578702004164
1.6786868938075106,4.338293408203125,5.430049365234375,8.935160595703124,11.320040665807996
1.681173837353892,3.859453076171875,5.679046337890624,8.978256225585938,11.302921312977196
1.6836607809002735,3.227383837890625,5.837063647460937,9.030928662109375,11.226976038172355
1.686147724446655,2.5330653564453125,5.894524487304687,9.150638745117186,11.175689172265747
1.6886346679930364,1.8004396484374998,5.7508723876953125,9.169792358398437,10.972657291803317
1.6911216115394179,1.01514150390625,5.549759448242187,9.294290844726563,10.872634662889876
1.6936085550857995,0.239420166015625,5.267243652343749,9.394847314453125,10.7733158206254
1.696095498632181,-0.45968671875,4.879382983398437,9.437942944335937,10.634587777559311
1.6985824421785625,-1.158793603515625,4.477157104492187,9.528922607421874,10.591888614033348
1.701069385724944,-1.7812860351562498,4.00310517578125,9.605537060546874,10.55765945695109
1.7035563292713254,-2.2457611572265623,3.5913024902343746,9.734823950195311,10.616387996534765
1.7060432728177068,-2.6910826660156246,3.0693665283203124,9.715670336914062,10.538367373369304
1.7085302163640885,-2.9640216552734375,2.6001030029296874,9.749189160156249,10.516303974271663
1.71101715991047,-3.1316157714843746,2.2026655273437497,9.816226806640625,10.536463423984738
1.7135041034568514,-3.2321722412109373,1.7956512451171873,9.859322436523437,10.52984044030487
1.715991047003233,-3.2034418212890623,1.4125789794921875,9.849745629882811,10.453463916285479
1.7184779905496144,-3.0406361083984375,1.16837041015625,9.835380419921874,10.360756022781718
1.7209649340959958,-2.89219560546875,0.86191259765625,9.782707983398437,10.237629815281407
1.7234518776423775,-2.5522189697265625,0.7709329345703124,9.82580361328125,10.181089131611028
1.725938821188759,-2.2361843505859373,0.7230489013671875,9.763554370117188,10.04242570805521
1.7284257647351404,-1.8100164550781248,0.6943184814453125,9.758765966796874,9.949459830364814
1.7309127082815219,-1.369483349609375,0.7757213378906249,9.706093530273437,9.832877496304528
1.7333996518279033,-0.9002198242187499,0.852335791015625,9.65342109375,9.732698024999035
1.7358865953742848,-0.4644751220703125,1.0726023437499999,9.600748657226562,9.671638315511899
1.7383735389206665,-0.105344873046875,1.3168109130859373,9.595960253906249,9.686461774954154
1.740860482467048,0.2825157958984375,1.5370774658203123,9.476250170898437,9.604256327916149
1.7433474260134294,0.5889736083984375,1.8100164550781248,9.5001921875,9.688998971951616
1.7458343695598109,0.8667010009765624,2.1021090576171875,9.370905297851563,9.642815938122665
1.7483213131061923,1.0869675537109373,2.43250888671875,9.404424121093749,9.774548122353071
1.7508082566525738,1.216254443359375,2.729389892578125,9.375693701171874,9.840349406138635
1.7532952001989555,1.2880804931640624,2.9975404785156248,9.332598071289063,9.886444610548212
1.755782143745337,1.3024457031249999,3.2609026611328122,9.323021264648437,9.962357977710838
1.7582690872917184,1.177947216796875,3.423708374023437,9.289502441406249,9.97016520850133
1.7607560308380998,1.0438719238281249,3.6296097167968746,9.279925634765624,10.01901966643459
1.7632429743844813,0.8858546142578124,3.797203833007812,9.294290844726563,10.079054402739331
1.765729917930863,0.6177040283203125,3.835511059570312,9.313444458007812,10.091231393000843
1.7682168614772444,0.3591302490234375,3.878606689453125,9.337386474609374,10.117279800591275
1.770703805023626,0.08140285644531249,3.8690298828125,9.34696328125,10.116409503384554
1.7731907485700074,-0.296881005859375,3.778050219726562,9.332598071289063,10.07269519814058
1.7756776921163888,-0.612915625,3.7205893798828122,9.394847314453125,10.123319957353566
1.7781646356627703,-0.9193734375,3.5051112304687497,9.442731347656249,10.114159755488773
1.780651579209152,-1.158793603515625,3.404554760742187,9.4618849609375,10.122305209212783
1.7831385227555334,-1.5035586425781249,3.1555577880859373,9.514557397460937,10.13632260808622
1.7856254663019149,-1.68551796875,3.0119056884765625,9.528922607421874,10.134737922486812
1.7881124098482963,-1.905784521484375,2.73896669921875,9.595960253906249,10.159547549783266
1.7905993533946778,-2.0302830078125,2.4851813232421875,9.600748657226562,10.122872619984982
1.7930862969410593,-2.1164742675781247,2.2744915771484373,9.648632690429688,10.136512617989876
1.795573240487441,-2.1691467041015624,2.0925322509765625,9.610325463867188,10.071854058054345
1.7980601840338224,-2.1595698974609374,1.8626888916015625,9.706093530273437,10.116402703892879
1.8005471275802039,-2.0877438476562498,1.714248388671875,9.710881933593749,10.079610599605925
1.8030340711265853,-1.9536685546875,1.5370774658203123,9.672574707031249,9.986897887763146
1.8055210146729668,-1.7381904052734374,1.4030021728515625,9.639055883789062,9.894499447310075
1.8080079582193482,-1.4939818359375,1.3646949462890625,9.658209497070311,9.86789667111676
1.81049490176573,-1.2641384765625,1.2976572998046874,9.710881933593749,9.878420343549854
1.8129818453121114,-1.005564697265625,1.3359645263671873,9.643844287109374,9.78773182152589
1.8154687888584928,-0.737414111328125,1.3455413330078123,9.639055883789062,9.760412869403979
1.8179557324048743,-0.43574470214843747,1.407790576171875,9.610325463867188,9.722659269626948
1.8204426759512558,-0.1580173095703125,1.5897499023437498,9.619902270507811,9.751655957643663
1.8229296194976372,0.1388636962890625,1.6903063720703124,9.595960253906249,9.744684292072115
1.825416563044019,0.38786066894531246,1.867477294921875,9.548076220703125,9.736717458256653
1.8279035065904004,0.6081272216796875,2.0781670410156248,9.509768994140625,9.753168884523117
1.8303904501367818,0.7757213378906249,2.2170307373046874,9.452308154296874,9.739768905266683
1.8328773936831633,0.9002198242187499,2.47081611328125,9.4618849609375,9.82051908055689
1.8353643372295447,0.9959878906249999,2.7054478759765623,9.442731347656249,9.873024632396485
1.8378512807759262,1.0821791503906248,2.901772412109375,9.409212524414063,9.905789982369386
1.8403382243223079,1.0726023437499999,3.0885201416015624,9.404424121093749,9.956536822726386
1.8428251678686893,1.0007762939453124,3.2561142578125,9.342174877929686,9.943845569007662
1.8453121114150708,0.928950244140625,3.39018955078125,9.366116894531249,10.004023162125275
1.8477990549614522,0.7517793212890624,3.5386300537109374,9.323021264648437,10.000290011096231
1.8502859985078337,0.5698199951171875,3.6056677001953124,9.323021264648437,10.01220554584024
1.8527729420542152,0.3591302490234375,3.725377783203125,9.318232861328125,10.041756709922941
1.8552598856005968,0.11013327636718749,3.7014357666015623,9.370905297851563,10.07604198949881
1.8577468291469783,-0.15322890625,3.6727053466796873,9.375693701171874,10.070544972315753
1.8602337726933598,-0.469263525390625,3.6296097167968746,9.409212524414063,10.09591775333569
1.8627207162397412,-0.7230489013671875,3.5529952636718747,9.433154541015625,10.105987317037696
1.8652076597861227,-1.01514150390625,3.4093431640625,9.437942944335937,10.086074563666147
1.8676946033325041,-1.2928688964843749,3.303998291015625,9.471461767578125,10.1141733574833
1.8701815468788858,-1.5370774658203123,3.0837317382812497,9.490615380859374,10.096721689589161
1.8726684904252673,-1.7286135986328124,2.9544448486328125,9.519345800781249,10.116066123342751
1.8751554339716487,-1.9201497314453124,2.7246014892578123,9.581595043945311,10.144820937433678
1.8776423775180302,-2.059013427734375,2.5234885498046875,9.586383447265625,10.12453842674293
1.8801293210644117,-2.0877438476562498,2.365471240234375,9.552864624023437,10.06038523550271
1.8826162646107931,-2.1930887207031247,2.1260510742187497,9.639055883789062,10.111435587386714
1.8851032081571748,-2.1116858642578125,1.9584569580078124,9.605537060546874,10.02801640740655
1.8875901517035563,-2.1116858642578125,1.7812860351562498,9.624690673828125,10.013334494324207
1.8900770952499377,-1.9632453613281249,1.6424223388671875,9.672574707031249,10.005527719770058
1.8925640387963192,-1.8435352783203125,1.5514426757812498,9.682151513671874,9.97745732300296
1.8950509823427006,-1.6615759521484375,1.446097802734375,9.682151513671874,9.929556457039244
1.897537925889082,-1.4125789794921875,1.407790576171875,9.667786303710937,9.871339609895017
1.9000248694354638,-1.20667763671875,1.3455413330078123,9.662997900390625,9.8305686926415
1.9025118129818452,-0.9002198242187499,1.37906015625,9.658209497070311,9.79761263450295
1.9049987565282267,-0.6368576416015624,1.407790576171875,9.6151138671875,9.738474040680398
1.9074857000746082,-0.38786066894531246,1.4796166259765624,9.591171850585937,9.71237760416331
1.9099726436209896,-0.06703764648437499,1.5658078857421873,9.557653027343749,9.685297092613716
1.9124595871673713,0.2059013427734375,1.7573440185546874,9.528922607421874,9.69180166020444
1.9149465307137528,0.45010991210937495,1.886630908203125,9.524134204101562,9.719624861819707
1.9174334742601342,0.622492431640625,2.0446482177734375,9.481038574218749,9.718959594921559
1.9199204178065157,0.833182177734375,2.27927998046875,9.490615380859374,9.795973156254785
1.9224073613528971,0.9816226806640624,2.47081611328125,9.447519750976562,9.814486476527268
1.9248943048992786,1.0630255371093749,2.710236279296875,9.428366137695312,9.867598087103225
1.9273812484456603,1.1061211669921875,2.920926025390625,9.390058911132812,9.895883954271955
1.9298681919920417,1.1109095703125,3.1172505615234374,9.404424121093749,9.969682251011815
1.9323551355384232,1.01514150390625,3.294421484375,9.366116894531249,9.980374285150248
1.9348420790848047,0.9576806640625,3.4428619873046875,9.356540087890625,10.015752260027755
1.9373290226311861,0.7948749511718749,3.5003228271484375,9.3852705078125,10.04825301169671
1.9398159661775676,0.5793968017578125,3.5817256835937497,9.351751684570312,10.030938096522476
1.9423029097239493,0.3591302490234375,3.6296097167968746,9.3852705078125,10.06907859423319
1.9447898532703307,0.1005564697265625,3.6583401367187496,9.361328491210937,10.051270331649073
1.9472767968167122,-0.12449848632812499,3.6679169433593746,9.390058911132812,10.081781634762057
1.9497637403630936,-0.44053310546874996,3.6152445068359373,9.380482104492186,10.06267890643041
1.952250683909475,-0.7230489013671875,3.5146880371093747,9.418789331054686,10.079157910002086
1.9547376274558566,-0.9816226806640624,3.447650390625,9.437942944335937,10.095773537659772
1.9572245710022382,-1.2880804931640624,3.2704794677734372,9.428366137695312,10.062269889663913
1.9597115145486197,-1.4891934326171874,3.1699229980468746,9.481038574218749,10.107235098637041
1.9621984580950012,-1.714248388671875,2.9640216552734375,9.5384994140625,10.134448331461593
1.9646854016413826,-1.8626888916015625,2.81558115234375,9.557653027343749,10.13636219377654
1.967172345187764,-1.9919757812499999,2.528276953125,9.528922607421874,10.057858515758973
1.9696592887341455,-2.1404162841796874,2.389413256835937,9.629479077148437,10.149755902422699
1.9721462322805272,-2.1499930908203124,2.1787235107421874,9.595960253906249,10.072326425478094
1.9746331758269087,-2.1835119140624997,2.0302830078125,9.662997900390625,10.112531918051912
1.9771201193732901,-2.1116858642578125,1.8435352783203125,9.658209497070311,10.056781304225371
1.9796070629196716,-2.0159177978515626,1.695094775390625,9.629479077148437,9.983192783999055
1.982094006466053,-1.8722656982421875,1.5897499023437498,9.672574707031249,9.979548339474935
1.9845809500124345,-1.695094775390625,1.47482822265625,9.677363110351562,9.934778374654023
1.9870678935588162,-1.4604630126953124,1.4221557861328125,9.6917283203125,9.903791048191064
1.9895548371051976,-1.2641384765625,1.3359645263671873,9.658209497070311,9.831777967027959
1.992041780651579,-1.005564697265625,1.3455413330078123,9.6151138671875,9.760740572220978
1.9945287241979606,-0.718260498046875,1.4030021728515625,9.619902270507811,9.748170748104595
1.997015667744342,-0.4165910888671875,1.4939818359375,9.643844287109374,9.76776650496145
1.9995026112907235,-0.1292868896484375,1.6232687255859375,9.629479077148437,9.766195971438412
2.001989554837105,0.1484405029296875,1.7669208251953124,9.595960253906249,9.758406477492489
2.0044764983834864,0.316034619140625,1.848323681640625,9.552864624023437,9.73516311304168
2.006963441929868,0.612915625,2.068590234375,9.5384994140625,9.779453062068011
2.0094503854762498,0.7661445312499999,2.24097275390625,9.495403784179686,9.786298041196597
2.011937329022631,0.967257470703125,2.461239306640625,9.447519750976562,9.810653157882816
2.0144242725690127,0.9959878906249999,2.6096798095703124,9.423577734375,9.828847231621765
2.016911216115394,1.0630255371093749,2.85388837890625,9.423577734375,9.903459975564655
2.0193981596617756,1.1156979736328125,3.0166940917968748,9.442731347656249,9.975489988760478
2.021885103208157,1.0630255371093749,3.189076611328125,9.356540087890625,9.942086065900408
2.0243720467545385,0.9720458740234375,3.323151904296875,9.361328491210937,9.981116314350594
2.02685899030092,0.8667010009765624,3.4955344238281247,9.361328491210937,10.030174607334553
2.0293459338473014,0.6943184814453125,3.5434184570312497,9.327809667968749,10.002296022271961
2.031832877393683,0.488417138671875,3.6296097167968746,9.356540087890625,10.047758974712671
2.0343198209400644,0.26336218261718747,3.69664736328125,9.356540087890625,10.063766878460143
2.036806764486446,0.047884033203124995,3.7110125732421873,9.414000927734374,10.119156124241837
2.0392937080328277,-0.22026655273437498,3.6727053466796873,9.399635717773437,10.094079133067325
2.041780651579209,-0.5602431884765625,3.6152445068359373,9.414000927734374,10.09986528335034
2.0442675951255906,-0.814028564453125,3.4907460205078125,9.418789331054686,10.077774692174177
2.046754538671972,-1.1252747802734375,3.342305517578125,9.437942944335937,10.075317192252218
2.0492414822183536,-1.3407529296874998,3.23696064453125,9.481038574218749,10.107701275687448
2.0517284257647352,-1.5705962890624998,3.0358477050781247,9.504980590820312,10.100881150845993
2.0542153693111165,-1.7812860351562498,2.868253588867187,9.533711010742186,10.113926251730282
2.056702312857498,-1.9680337646484374,2.6767174560546874,9.557653027343749,10.118631559130776
2.0591892564038794,-2.0638018310546875,2.4899697265625,9.572018237304688,10.103601356563706
2.061676199950261,-2.1404162841796874,2.27927998046875,9.586383447265625,10.08341443643747
2.0641631434966423,-2.2266075439453124,2.1021090576171875,9.65342109375,10.127446986191922
2.066650087043024,-2.1452046874999997,1.9201497314453124,9.65342109375,10.073599999786516
2.0691370305894057,-2.059013427734375,1.7238251953125,9.648632690429688,10.015349339609331
2.071623974135787,-1.944091748046875,1.618480322265625,9.634267480468749,9.96082733328927
2.0741109176821686,-1.8339584716796873,1.5035586425781249,9.672574707031249,9.959055865423073
2.07659786122855,-1.618480322265625,1.4221557861328125,9.682151513671874,9.918974925227436
2.0790848047749315,-1.3838485595703125,1.4030021728515625,9.667786303710937,9.866587249250463
2.081571748321313,-1.13006318359375,1.39821376953125,9.682151513671874,9.847644514193197
2.0840586918676944,-0.8667010009765624,1.39821376953125,9.658209497070311,9.797304887554521
2.086545635414076,-0.5602431884765625,1.4700398193359374,9.65342109375,9.780768288530561
2.0890325789604574,-0.27293898925781246,1.5562310791015623,9.605537060546874,9.734613145110501
2.091519522506839,-0.033518823242187495,1.5897499023437498,9.552864624023437,9.684299189328671
2.0940064660532203,0.16759411621093748,1.8052280517578123,9.610325463867188,9.779841083989858
2.096493409599602,0.49320554199218747,1.9728221679687499,9.543287817382812,9.757541769241262
2.0989803531459836,0.6368576416015624,2.0973206542968748,9.5001921875,9.749768878391047
2.101467296692365,0.8283937744140625,2.31758720703125,9.476250170898437,9.790646761533967
2.1039542402387466,0.9528922607421875,2.5426421630859375,9.428366137695312,9.811580956019489
2.106441183785128,1.0390835205078124,2.6910826660156246,9.447519750976562,9.878119756462407
2.1089281273315095,1.1348515869140625,2.940079638671875,9.399635717773437,9.913884608613138
2.111415070877891,1.120486376953125,3.0693665283203124,9.423577734375,9.973982049408296
2.1139020144242724,1.0342951171875,3.2561142578125,9.366116894531249,9.969763895468711
2.116388957970654,0.97683427734375,3.385401147460937,9.361328491210937,10.00248055509138
2.1188759015170353,0.82360537109375,3.4907460205078125,9.351751684570312,10.015931966464692
2.121362845063417,0.63206923828125,3.6104561035156246,9.375693701171874,10.066704385030318
2.1238497886097982,0.430956298828125,3.6727053466796873,9.356540087890625,10.060781794241118
2.12633673215618,0.16759411621093748,3.7014357666015623,9.390058911132812,10.094648130401106
2.1288236757025616,-0.086191259765625,3.706224169921875,9.3852705078125,10.09092805621902
2.131310619248943,-0.411802685546875,3.6008792968749996,9.394847314453125,10.069710483642204
2.1337975627953245,-0.6368576416015624,3.5769372802734374,9.414000927734374,10.09076218281156
2.1362845063417057,-0.948103857421875,3.418919970703125,9.399635717773437,10.046943132981944
2.1387714498880874,-1.2114660400390624,3.3327287109375,9.447519750976562,10.091103015625562
2.141258393434469,-1.465251416015625,3.1555577880859373,9.476250170898437,10.094742392331677
2.1437453369808503,-1.68551796875,2.987963671875,9.4618849609375,10.064599581773688
2.146232280527232,-1.867477294921875,2.786850732421875,9.504980590820312,10.079616286531937
2.1487192240736133,-1.9871873779296874,2.6288334228515624,9.533711010742186,10.087186152562632
2.151206167619995,-2.1260510742187497,2.43250888671875,9.572018237304688,10.102510865594056
2.153693111166376,-2.1643583007812497,2.250549560546875,9.605537060546874,10.100285263307068
2.156180054712758,-2.1547814941406247,2.0350714111328125,9.643844287109374,10.089020347383244
2.1586669982591395,-2.1116858642578125,1.85790048828125,9.629479077148437,10.031843235961249
2.161153941805521,-2.001552587890625,1.714248388671875,9.672574707031249,10.025146470912853
2.1636408853519025,-1.867477294921875,1.608903515625,9.706093530273437,10.014204590882647
2.1661278288982837,-1.7669208251953124,1.455674609375,9.6151138671875,9.88389662278341
2.1686147724446654,-1.5275006591796874,1.4317325927734375,9.672574707031249,9.896555862728446
2.171101715991047,-1.2832920898437499,1.3742717529296875,9.672574707031249,9.853637039279285
2.1735886595374283,-1.0103531005859374,1.37906015625,9.682151513671874,9.831921390863458
2.17607560308381,-0.699106884765625,1.3838485595703125,9.65342109375,9.777132815166672
2.178562546630191,-0.430956298828125,1.4939818359375,9.595960253906249,9.721119187221156
2.181049490176573,-0.181959326171875,1.5801730957031248,9.5384994140625,9.670213404100014
2.1835364337229546,0.0909796630859375,1.7238251953125,9.629479077148437,9.782981033423754
2.186023377269336,0.32561142578124996,1.8243816650390623,9.519345800781249,9.6980583487202
2.1885103208157175,0.5602431884765625,2.039859814453125,9.562441430664062,9.793629899467087
2.1909972643620987,0.7661445312499999,2.2553379638671873,9.562441430664062,9.85463408193858
2.1934842079084804,0.9193734375,2.422932080078125,9.457096557617186,9.805739272606992
2.1959711514548617,1.0678139404296874,2.6192566162109374,9.4618849609375,9.87562650402272
2.1984580950012433,1.1156979736328125,2.834734765625,9.452308154296874,9.93109422992243
2.200945038547625,1.1061211669921875,2.96881005859375,9.370905297851563,9.89197671354811
2.2034319820940063,1.0773907470703123,3.19865341796875,9.404424121093749,9.991763986382276
2.205918925640388,1.0103531005859374,3.327940307617187,9.428366137695312,10.04938247383223
2.208405869186769,0.8810662109374999,3.4620156005859375,9.356540087890625,10.015321867172341
2.210892812733151,0.7661445312499999,3.5242648437499997,9.313444458007812,9.987375421203156
2.2133797562795325,0.5315127685546874,3.6487633300781246,9.366116894531249,10.065789851973026
2.2158666998259138,0.33518823242187495,3.7014357666015623,9.327809667968749,10.040966641080063
2.2183536433722955,0.033518823242187495,3.6583401367187496,9.3086560546875,10.001782521726273
2.2208405869186767,-0.2346317626953125,3.6391865234374996,9.361328491210937,10.046551733644348
2.2233275304650584,-0.507570751953125,3.6439749267578123,9.423577734375,10.116323376152332
2.2258144740114396,-0.7900865478515624,3.5051112304687497,9.404424121093749,10.067434357395339
2.2283014175578213,-1.0678139404296874,3.39018955078125,9.466673364257812,10.111949188319267
2.230788361104203,-1.3072341064453123,3.265691064453125,9.457096557617186,10.090107751535545
2.233275304650584,-1.5753846923828123,3.0837317382812497,9.476250170898437,10.089130570278583
2.235762248196966,-1.7381904052734374,2.925714428710937,9.509768994140625,10.100337475810916
2.238249191743347,-1.9536685546875,2.6719290527343746,9.504980590820312,10.064823978405762
2.240736135289729,-2.0254946044921875,2.5522189697265625,9.557653027343749,10.097781016310078
2.2432230788361105,-2.1260510742187497,2.3415292236328122,9.548076220703125,10.058260873116668
2.2457100223824917,-2.1739351074218747,2.1547814941406247,9.639055883789062,10.113381010798555
2.2481969659288734,-2.1068974609374997,1.9680337646484374,9.667786303710937,10.088521488499788
2.2506839094752547,-2.059013427734375,1.7908628417968748,9.6917283203125,10.06858102457673
2.2531708530216363,-1.9728221679687499,1.608903515625,9.643844287109374,9.974183197787752
2.2556577965680176,-1.8243816650390623,1.5227122558593749,9.643844287109374,9.932308578970307
2.2581447401143993,-1.637633935546875,1.4700398193359374,9.648632690429688,9.896412217168221
2.260631683660781,-1.3934253662109375,1.407790576171875,9.672574707031249,9.873307957349404
2.263118627207162,-1.158793603515625,1.4125789794921875,9.677363110351562,9.848326698401367
2.265605570753544,-0.8954314208984374,1.388636962890625,9.643844287109374,9.784367259984183
2.268092514299925,-0.6464344482421874,1.4508862060546874,9.586383447265625,9.71708268343963
2.2705794578463068,-0.3112462158203125,1.5179238525390624,9.586383447265625,9.710804015475642
2.2730664013926885,-0.047884033203124995,1.66636435546875,9.619902270507811,9.763277254074778
2.2755533449390697,0.17238251953125,1.8052280517578123,9.567229833984374,9.737579306386877
2.2780402884854514,0.45010991210937495,1.915361328125,9.514557397460937,9.715863853504459
2.2805272320318326,0.6655880615234374,2.068590234375,9.485826977539062,9.731545944668914
2.2830141755782143,0.8475473876953125,2.31758720703125,9.476250170898437,9.79228596079775
2.2855011191245955,0.9145850341796874,2.4516625,9.4618849609375,9.817045472680002
2.287988062670977,1.0534487304687499,2.6767174560546874,9.423577734375,9.852836539955504
2.290475006217359,1.0965443603515623,2.85388837890625,9.3852705078125,9.870683406851324
2.29296194976374,1.1156979736328125,3.0550013183593747,9.3852705078125,9.932830287906915
2.295448893310122,1.0821791503906248,3.294421484375,9.370905297851563,9.991906261147282
2.297935836856503,0.9816226806640624,3.385401147460937,9.380482104492186,10.020876634762155
2.3004227804028847,0.8092401611328125,3.5529952636718747,9.342174877929686,10.027705442018407
2.3029097239492664,0.6464344482421874,3.5817256835937497,9.299079248046874,9.985965713432293
2.3053966674956476,0.411802685546875,3.6200329101562496,9.34696328125,10.031946087548205
2.3078836110420293,0.1867477294921875,3.67749375,9.375693701171874,10.072857954620105
2.3103705545884106,-0.086191259765625,3.706224169921875,9.3852705078125,10.09092805621902
2.3128574981347922,-0.3495534423828125,3.5913024902343746,9.351751684570312,10.02371691316694
2.315344441681174,-0.6560112548828124,3.5817256835937497,9.3852705078125,10.066896847781004
2.317831385227555,-0.9050082275390624,3.4524387939453125,9.418789331054686,10.072336669345477
2.320318328773937,-1.1635820068359375,3.399766357421875,9.476250170898437,10.134675706362913
2.322805272320318,-1.43652099609375,3.2130186279296873,9.481038574218749,10.113217772868595
2.3252922158666998,-1.66636435546875,3.0310593017578125,9.490615380859374,10.101280659567571
2.327779159413081,-1.838746875,2.844311572265625,9.495403784179686,10.081358609585333
2.3302661029594627,-2.0302830078125,2.5905261962890624,9.519345800781249,10.07227975883929
2.3327530465058444,-2.1021090576171875,2.446874096679687,9.581595043945311,10.11004544605392
2.3352399900522256,-2.1595698974609374,2.2457611572265623,9.576806640625,10.070869413771888
2.3377269335986073,-2.1308394775390624,2.1021090576171875,9.605537060546874,10.061097434708335
2.3402138771449885,-2.1595698974609374,1.8435352783203125,9.639055883789062,10.048570186610608
2.34270082069137,-2.0781670410156248,1.714248388671875,9.605537060546874,9.97615998317826
2.345187764237752,-1.944091748046875,1.5945383056640625,9.643844287109374,9.966231874036751
2.347674707784133,-1.714248388671875,1.5322890624999999,9.648632690429688,9.918803864577104
2.350161651330515,-1.5418658691406248,1.4221557861328125,9.634267480468749,9.859968931171613
2.352648594876896,-1.2832920898437499,1.388636962890625,9.643844287109374,9.827455613564162
2.3551355384232777,-1.0486603271484374,1.4030021728515625,9.629479077148437,9.787490530059316
2.357622481969659,-0.7422025146484375,1.4173673828125,9.586383447265625,9.718978468368967
2.3601094255160406,-0.5267243652343749,1.4413093994140624,9.605537060546874,9.727340518523569
2.3625963690624223,-0.201112939453125,1.5514426757812498,9.586383447265625,9.713195580686056
2.3650833126088036,0.08140285644531249,1.618480322265625,9.552864624023437,9.689340922039896
2.3675702561551852,0.316034619140625,1.8531120849609375,9.5384994140625,9.721978880454035
2.3700571997015665,0.51714755859375,2.01112939453125,9.485826977539062,9.710458098705486
2.372544143247948,0.737414111328125,2.1499930908203124,9.476250170898437,9.74502781748793
2.37503108679433,0.9097966308593749,2.346317626953125,9.485826977539062,9.813961980967823
2.377518030340711,1.0007762939453124,2.6001030029296874,9.447519750976562,9.849757269164513
2.3800049738870928,1.0534487304687499,2.77727392578125,9.404424121093749,9.86236268527783
2.382491917433474,1.149216796875,2.9496564453125,9.3852705078125,9.904770310128766
2.3849788609798557,1.0678139404296874,3.1459809814453124,9.409212524414063,9.978512077287977
2.387465804526237,1.0438719238281249,3.323151904296875,9.361328491210937,9.988367148475582
2.3899527480726186,0.9145850341796874,3.4524387939453125,9.361328491210937,10.019494524727365
2.3924396916190003,0.7565677246093749,3.5242648437499997,9.34696328125,10.017911957681031
2.3949266351653815,0.5363011718749999,3.5913024902343746,9.356540087890625,10.036429391951225
2.397413578711763,0.32082302246093747,3.7014357666015623,9.351751684570312,10.062743846281785
2.3999005222581444,0.105344873046875,3.7110125732421873,9.366116894531249,10.075061168204517
2.402387465804526,-0.181959326171875,3.6727053466796873,9.390058911132812,10.084397855819415
2.404874409350908,-0.469263525390625,3.5865140869140624,9.337386474609374,10.013494780950012
2.407361352897289,-0.7900865478515624,3.5434184570312497,9.390058911132812,10.067435496156428
2.4098482964436707,-1.01514150390625,3.4093431640625,9.452308154296874,10.099517935380872
2.412335239990052,-1.2832920898437499,3.318363500976562,9.457096557617186,10.10420952932805
2.4148221835364336,-1.5035586425781249,3.1268273681640624,9.495403784179686,10.109422881974275
2.417309127082815,-1.7525556152343749,2.896984008789062,9.519345800781249,10.103559373137799
2.4197960706291965,-1.89620771484375,2.7341782958984373,9.528922607421874,10.093151178389766
2.4222830141755782,-2.0733786376953125,2.5378537597656248,9.595960253906249,10.140120999068811
2.4247699577219595,-2.1739351074218747,2.288856787109375,9.557653027343749,10.065465246786715
2.427256901268341,-2.1404162841796874,2.1452046874999997,9.624690673828125,10.090488372112008
2.4297438448147224,-2.1835119140624997,1.93451494140625,9.6151138671875,10.047909584404024
2.432230788361104,-2.068590234375,1.7764976318359373,9.65342109375,10.031128959739664
2.4347177319074857,-1.9393033447265624,1.675941162109375,9.634267480468749,9.969392465287832
2.437204675453867,-1.838746875,1.5227122558593749,9.6151138671875,9.907071078954061
2.4396916190002487,-1.68551796875,1.407790576171875,9.65342109375,9.900069895843913
2.44217856254663,-1.43652099609375,1.3934253662109375,9.682151513671874,9.886823795189072
2.4446655060930116,-1.1923124267578125,1.35990654296875,9.6151138671875,9.783729831081379
2.4471524496393933,-0.9193734375,1.4030021728515625,9.624690673828125,9.769766280801239
2.4496393931857745,-0.612915625,1.407790576171875,9.595960253906249,9.718024133756613
2.452126336732156,-0.3064578125,1.5322890624999999,9.576806640625,9.703455652179718
2.4546132802785374,-0.11013327636718749,1.608903515625,9.562441430664062,9.697473174803548
2.457100223824919,0.1867477294921875,1.7621324218749999,9.548076220703125,9.711114503652503
2.4595871673713003,0.36391865234375,1.85790048828125,9.495403784179686,9.68229952203986
2.462074110917682,0.63206923828125,2.1021090576171875,9.528922607421874,9.778483526106355
2.4645610544640637,0.7948749511718749,2.2170307373046874,9.457096557617186,9.745959510394504
2.467047998010445,0.9624690673828125,2.480392919921875,9.457096557617186,9.824223686529239
2.4695349415568266,1.0199299072265624,2.6575638427734374,9.394847314453125,9.816621550001763
2.472021885103208,1.0965443603515623,2.834734765625,9.399635717773437,9.878830009292802
2.4745088286495895,1.1252747802734375,3.0023288818359375,9.337386474609374,9.872538084101967
2.4769957721959712,1.0678139404296874,3.227383837890625,9.394847314453125,9.990965374293951
2.4794827157423525,0.967257470703125,3.3710359375,9.361328491210937,9.996696525698134
2.481969659288734,0.82360537109375,3.4715924072265625,9.323021264648437,9.982434830756198
2.4844566028351154,0.6847416748046875,3.6152445068359373,9.361328491210937,10.058495669123658
2.486943546381497,0.47884033203125,3.6727053466796873,9.323021264648437,10.03178838135037
2.4894304899278783,0.201112939453125,3.7158009765625,9.342174877929686,10.056035737886916
2.49191743347426,-0.047884033203124995,3.6535517333984373,9.323021264648437,10.013463868729016
2.4944043770206417,-0.33039982910156246,3.6679169433593746,9.366116894531249,10.064140521300207
2.496891320567023,-0.6560112548828124,3.5673604736328124,9.3852705078125,10.061794771321155
2.4993782641134046,-0.8667010009765624,3.4859576171874997,9.394847314453125,10.058142333244666
2.501865207659786,-1.177947216796875,3.361459130859375,9.423577734375,10.074263469346313
2.5043521512061675,-1.4317325927734375,3.19865341796875,9.457096557617186,10.085530090460677
2.506839094752549,-1.6232687255859375,3.0550013183593747,9.433154541015625,10.047509094563022
2.5093260382989304,-1.8243816650390623,2.81558115234375,9.495403784179686,10.070678165336133
2.511812981845312,-1.9584569580078124,2.6719290527343746,9.552864624023437,10.110983188796908
2.5142999253916933,-2.1356278808593747,2.4564509033203126,9.562441430664062,10.101254555787001
2.516786868938075,-2.1260510742187497,2.2840683837890623,9.557653027343749,10.054143073534641
2.5192738124844563,-2.2026655273437497,2.0302830078125,9.576806640625,10.034391359174695
2.521760756030838,-2.1404162841796874,1.9393033447265624,9.591171850585937,10.01662901379108
2.5242476995772196,-2.068590234375,1.7381904052734374,9.634267480468749,10.00597228298949
2.526734643123601,-1.9393033447265624,1.6136919189453125,9.701305126953125,10.023982254492674
2.5292215866699825,-1.7764976318359373,1.5227122558593749,9.639055883789062,9.918971457811116
2.5317085302163638,-1.5945383056640625,1.4317325927734375,9.662997900390625,9.89777444925845
2.5341954737627455,-1.3168109130859373,1.43652099609375,9.619902270507811,9.815299447656283
2.536682417309127,-1.0630255371093749,1.350329736328125,9.634267480468749,9.78634372861368
2.5391693608555084,-0.814028564453125,1.4030021728515625,9.619902270507811,9.755694608529582
2.54165630440189,-0.51714755859375,1.4317325927734375,9.6151138671875,9.734871056852812
2.5441432479482713,-0.26815058593749996,1.5562310791015623,9.572018237304688,9.701406755908845
2.546630191494653,0.0430956298828125,1.637633935546875,9.581595043945311,9.720630932523212
2.549117135041034,0.27293898925781246,1.7956512451171873,9.514557397460937,9.686364723441226
2.551604078587416,0.51714755859375,2.0063409912109376,9.528922607421874,9.751574838384231
2.5540910221337976,0.70868369140625,2.1787235107421874,9.495403784179686,9.767894437151737
2.556577965680179,0.9002198242187499,2.3223756103515623,9.476250170898437,9.798119284277206
2.5590649092265605,0.9911994873046874,2.5378537597656248,9.404424121093749,9.791137379232278
2.5615518527729417,1.1252747802734375,2.7820623291015623,9.452308154296874,9.917269965969092
2.5640387963193234,1.120486376953125,2.925714428710937,9.380482104492186,9.889830087114898
2.566525739865705,1.1013327636718748,3.0933085449218747,9.356540087890625,9.915963595472107
2.5690126834120863,1.005564697265625,3.23696064453125,9.356540087890625,9.9515786180352
2.571499626958468,0.967257470703125,3.4668040039062498,9.390058911132812,10.056218144545003
2.5739865705048492,0.7661445312499999,3.5529952636718747,9.356540087890625,10.037708662974003
2.576473514051231,0.5506663818359374,3.5960908935546874,9.332598071289063,10.01661070118129
2.5789604575976126,0.3687070556640625,3.7110125732421873,9.375693701171874,10.090153199523387
2.581447401143994,0.1484405029296875,3.706224169921875,9.351751684570312,10.060486655748159
2.5839343446903755,-0.1867477294921875,3.6631285400390623,9.327809667968749,10.023044378689065
2.5864212882367568,-0.469263525390625,3.6248213134765623,9.404424121093749,10.08973393406912
2.5889082317831384,-0.7517793212890624,3.4955344238281247,9.366116894531249,10.025371750618973
2.5913951753295197,-1.0103531005859374,3.4332851806640625,9.466673364257812,10.120581263207137
2.5938821188759014,-1.2785036865234374,3.23696064453125,9.4618849609375,10.081654274210827
2.596369062422283,-1.4939818359375,3.1364041748046874,9.476250170898437,10.092984205639882
2.5988560059686643,-1.6903063720703124,2.96881005859375,9.495403784179686,10.091266611287347
2.601342949515046,-1.9105729248046874,2.748543505859375,9.5384994140625,10.10879574314711
2.603829893061427,-11.85608662109375,-4.127603662109375,10.390835205078124,16.296421638428107
2.606316836607809,-10.654197387695312,-4.486733911132812,10.342951171874999,15.511909686079054
2.6088037801541906,-9.198522778320312,-4.563348364257812,10.199299072265624,14.472825265385142
2.611290723700572,-7.6997525390625,-4.529829541015625,10.022128149414062,13.425669349300055
2.6137776672469535,-6.066907006835937,-4.2521021484374995,9.9215716796875,12.382460091012563
2.6162646107933347,-4.4819455078125,-3.797203833007812,9.777919580078125,11.406765702813617
2.6187515543397164,-2.868253588867187,-3.27526787109375,9.6917283203125,10.624681459329302
2.6212384978860976,-1.35990654296875,-2.6192566162109374,9.576806640625,10.021231284582402
2.6237254414324793,0.05746083984375,-1.8243816650390623,9.466673364257812,9.64103598133492
2.626212384978861,1.388636962890625,-1.0295067138671874,9.356540087890625,9.514885133563517
2.6286993285252422,2.461239306640625,-0.2154781494140625,9.246406811523437,9.570797703515353
2.631186272071624,3.414131567382812,0.6272808349609375,9.169792358398437,9.804838983963554
2.633673215618005,4.223371728515625,1.484405029296875,9.165003955078124,10.199883555454178
2.636160159164387,4.80755693359375,2.2649147705078123,9.112331518554686,10.548792740946945
2.6386471027107685,5.161898779296875,2.9640216552734375,9.074024291992187,10.852121462290254
2.6411340462571498,5.4013189453125,3.6583401367187496,9.064447485351561,11.16789627099103
2.6436209898035314,-4.055777612304687,-2.461239306640625,9.907206469726562,10.984524158961852
2.6461079333499127,-2.8203695556640622,-2.1068974609374997,9.777919580078125,10.392363189183524
2.6485948768962944,-1.6615759521484375,-1.637633935546875,9.662997900390625,9.940634183721196
2.6510818204426756,-0.51714755859375,-1.005564697265625,9.509768994140625,9.576758756472087
2.6535687639890573,0.5219359619140624,-0.3495534423828125,9.418789331054686,9.439713831478707
2.656055707535439,1.3742717529296875,0.296881005859375,9.332598071289063,9.437910146995936
2.65854265108182,2.1930887207031247,1.0821791503906248,9.255983618164063,9.573608650354208
2.661029594628202,2.7916391357421872,1.7286135986328124,9.145850341796875,9.717403589031983
2.663516538174583,3.246537451171875,2.4899697265625,9.160215551757812,10.032422619473573
2.666003481720965,3.5051112304687497,3.1028853515624997,9.09796630859375,10.231651538007256
2.6684904252673465,3.6200329101562496,3.67749375,9.045293872070312,10.413738031274656
2.6709773688137277,3.5529952636718747,4.146757275390625,9.045293872070312,10.56582758125423
2.6734643123601094,3.39018955078125,4.553771557617187,9.074024291992187,10.703650659511172
2.6759512559064906,3.0550013183593747,4.855440966796874,9.0788126953125,10.739328656568544
2.6784381994528723,2.6384102294921874,5.066130712890625,9.165003955078124,10.799267865729618
2.6809251429992536,2.1930887207031247,5.200206005859375,9.126696728515624,10.730721029574338
2.6834120865456352,1.618480322265625,5.161898779296875,9.193734375,10.667212818694686
2.685899030092017,1.0438719238281249,5.061342309570312,9.241618408203124,10.588407121509922
2.688385973638398,0.39743747558593745,4.8650177734375,9.351751684570312,10.549010098237964
2.69087291718478,-0.26336218261718747,4.61602080078125,9.327809667968749,10.410813650927064
2.693359860731161,-0.7852981445312499,4.371812231445312,9.471461767578125,10.461262991508875
2.6958468042775428,-1.3024457031249999,3.9695863525390624,9.519345800781249,10.395764767187874
2.6983337478239244,-1.7956512451171873,3.6104561035156246,9.557653027343749,10.37345111621958
2.7008206913703057,-2.1787235107421874,3.1938650146484373,9.624690673828125,10.372187832609383
2.7033076349166874,-2.4947581298828125,2.8203695556640622,9.643844287109374,10.352875696691484
2.7057945784630686,-2.7150246826171873,2.4564509033203126,9.710881933593749,10.378185679387375
2.7082815220094503,-2.844311572265625,2.059013427734375,9.777919580078125,10.389290444019254
2.7107684655558315,-2.834734765625,1.7812860351562498,9.801861596679688,10.35785652975314
2.713255409102213,-2.7916391357421872,1.4891934326171874,9.82580361328125,10.322662582431358
2.715742352648595,-2.7150246826171873,1.158793603515625,9.782707983398437,10.218392101070343
2.718229296194976,-2.4564509033203126,1.0534487304687499,9.763554370117188,10.122791077878858
2.720716239741358,-2.2026655273437497,0.928950244140625,9.797073193359374,10.084509266071318
2.723203183287739,-1.9201497314453124,0.86191259765625,9.730035546875,9.955072077118233
2.7256901268341207,-1.5370774658203123,0.8906430175781249,9.710881933593749,9.872035253628844
2.7281770703805024,-1.1061211669921875,1.005564697265625,9.629479077148437,9.744820762522755
2.7306640139268836,-0.7326257080078125,1.0390835205078124,9.682151513671874,9.765269731263105
2.7331509574732653,-0.354341845703125,1.1923124267578125,9.581595043945311,9.661994134379029
2.7356379010196465,-0.0143652099609375,1.4173673828125,9.519345800781249,9.624296396722702
2.7381248445660282,0.3399766357421875,1.599326708984375,9.528922607421874,9.66818473619309
2.74061178811241,0.6368576416015624,1.905784521484375,9.476250170898437,9.686945834443815
2.743098731658791,0.852335791015625,2.1404162841796874,9.428366137695312,9.705768707148724
2.745585675205173,1.0630255371093749,2.398990063476562,9.447519750976562,9.805141817551554
2.748072618751554,1.177947216796875,2.6767174560546874,9.366116894531249,9.81206001139063
2.7505595622979357,1.2641384765625,2.96881005859375,9.332598071289063,9.87467802068308
2.753046505844317,1.2593500732421874,3.208230224609375,9.332598071289063,9.948672803007472
2.7555334493906987,1.22583125,3.4093431640625,9.313444458007812,9.993324308567828
2.7580203929370803,1.1013327636718748,3.5625720703124997,9.303867651367186,10.023313169140462
2.7605073364834616,0.8954314208984374,3.7205893798828122,9.327809667968749,10.082292197961742
2.7629942800298433,0.6703764648437499,3.787627026367187,9.303867651367186,10.067645026004856
2.7654812235762245,0.4165910888671875,3.854664672851562,9.342174877929686,10.114752558776411
2.767968167122606,0.08140285644531249,3.816357446289062,9.351751684570312,10.100815321188042
2.770455110668988,-0.2154781494140625,3.758896606445312,9.361328491210937,10.090104342928205
2.772942054215369,-0.5410895751953124,3.725377783203125,9.404424121093749,10.129877126864788
2.775428997761751,-0.7948749511718749,3.6200329101562496,9.433154541015625,10.135130440862541
2.777915941308132,-1.1827356201171875,3.4093431640625,9.466673364257812,10.131159308933109
2.7804028848545137,-1.4317325927734375,3.23696064453125,9.485826977539062,10.124657321572013
2.782889828400895,-1.6424223388671875,3.0789433349609374,9.5384994140625,10.156791534297678
2.7853767719472766,-1.838746875,2.8730419921875,9.586383447265625,10.175171151248678
2.7878637154936583,-2.0302830078125,2.6001030029296874,9.610325463867188,10.160754904981726
2.7903506590400395,-2.1356278808593747,2.403778466796875,9.600748657226562,10.124891710145738
2.792837602586421,-2.2266075439453124,2.1835119140624997,9.648632690429688,10.14009951767908
2.7953245461328025,-2.1835119140624997,1.9393033447265624,9.648632690429688,10.080909410194545
2.797811489679184,-2.1308394775390624,1.7573440185546874,9.643844287109374,10.031573531236313
2.800298433225566,-2.039859814453125,1.5945383056640625,9.6151138671875,9.957609911511502
2.802785376771947,-1.905784521484375,1.465251416015625,9.686939916992188,9.980770576958566
2.8052723203183287,-1.68551796875,1.3838485595703125,9.744400756835937,9.985457113654274
2.80775926386471,-1.465251416015625,1.3168109130859373,9.6917283203125,9.889921664386698
2.8102462074110917,-1.20667763671875,1.3311761230468748,9.710881933593749,9.875693834750281
2.812733150957473,-0.9576806640625,1.3407529296874998,9.65342109375,9.793023510951164
2.8152200945038546,-0.679953271484375,1.3311761230468748,9.648632690429688,9.763732847471854
2.8177070380502363,-0.33039982910156246,1.5227122558593749,9.629479077148437,9.754726236981446
2.8201939815966175,-0.1005564697265625,1.5753846923828123,9.572018237304688,9.70131339911723
2.822680925142999,0.21068974609375,1.7190367919921874,9.586383447265625,9.74157201171044
2.8251678686893804,0.44053310546874996,1.915361328125,9.509768994140625,9.710735541461785
2.827654812235762,0.6943184814453125,2.0829554443359375,9.466673364257812,9.717956890330065
2.8301417557821438,0.8810662109374999,2.3367408203125,9.524134204101562,9.846104187297014
2.832628699328525,0.9959878906249999,2.5330653564453125,9.428366137695312,9.81338371840899
2.8351156428749067,1.1061211669921875,2.767697119140625,9.457096557617186,9.91566067791059
2.837602586421288,1.1252747802734375,2.925714428710937,9.404424121093749,9.91308434842036
2.8400895299676696,1.1109095703125,3.1220389648437497,9.375693701171874,9.944087678093375
2.842576473514051,1.0630255371093749,3.327940307617187,9.356540087890625,9.9874948009956
2.8450634170604325,0.93852705078125,3.4811692138671875,9.351751684570312,10.02270580684121
2.847550360606814,0.7709329345703124,3.5338416503906247,9.34696328125,10.022379806247441
2.8500373041531954,0.5889736083984375,3.6487633300781246,9.375693701171874,10.077896413860714
2.852524247699577,0.354341845703125,3.706224169921875,9.351751684570312,10.065630398101902
2.8550111912459584,0.076614453125,3.749319799804687,9.3852705078125,10.106758691116069
2.85749813479234,-0.19153613281249998,3.6822821533203123,9.390058911132812,10.08806692589709
2.8599850783387217,-0.469263525390625,3.6343981201171873,9.409212524414063,10.097640233310148
2.862472021885103,-0.737414111328125,3.5098996337890624,9.409212524414063,10.069580693377898
2.8649589654314846,-1.0630255371093749,3.423708374023437,9.437942944335937,10.095868924636719
2.867445908977866,-1.2880804931640624,3.299209887695312,9.423577734375,10.067162189800289
2.8699328525242476,-1.5418658691406248,3.0980969482421874,9.471461767578125,10.083855565894549
2.8724197960706292,-1.7621324218749999,2.91134921875,9.481038574218749,10.073289303477944
2.8749067396170105,-1.9201497314453124,2.73896669921875,9.562441430664062,10.130607073886507
2.877393683163392,-2.0542250244140625,2.5474305664062498,9.567229833984374,10.111435587386714
2.8798806267097734,-2.1116858642578125,2.346317626953125,9.591171850585937,10.097276913273662
2.882367570256155,-2.1499930908203124,2.1212626708984375,9.629479077148437,10.092031158630148
2.8848545138025363,-2.1787235107421874,1.9632453613281249,9.672574707031249,10.107416581309876
2.887341457348918,-2.1404162841796874,1.7621324218749999,9.686939916992188,10.075877008837557
2.8898284008952997,-2.01112939453125,1.618480322265625,9.658209497070311,9.997256157786888
2.892315344441681,-1.848323681640625,1.5562310791015623,9.701305126953125,9.997673567881787
2.8948022879880626,-1.6807295654296874,1.4125789794921875,9.701305126953125,9.946635230652607
2.897289231534444,-1.4413093994140624,1.37906015625,9.639055883789062,9.843301175429112
2.8997761750808255,-1.158793603515625,1.3742717529296875,9.648632690429688,9.81465935533565
2.902263118627207,-0.8906430175781249,1.3551181396484375,9.672574707031249,9.807562980693296
2.9047500621735884,-0.6177040283203125,1.4508862060546874,9.648632690429688,9.776642667314345
2.90723700571997,-0.37828386230468747,1.47482822265625,9.624690673828125,9.744377226570082
2.9097239492663514,-0.1292868896484375,1.5753846923828123,9.586383447265625,9.715827274444386
2.912210892812733,0.16759411621093748,1.7908628417968748,9.552864624023437,9.72072528316873
2.9146978363591143,0.4070142822265625,1.8914193115234375,9.509768994140625,9.704577989787015
2.917184779905496,0.6607996582031249,2.059013427734375,9.514557397460937,9.757202209314434
2.9196717234518776,0.8475473876953125,2.3127988037109373,9.5001921875,9.814327612234672
2.922158666998259,0.93852705078125,2.47081611328125,9.471461767578125,9.833328699143163
2.9246456105446406,1.0917559570312498,2.6910826660156246,9.399635717773437,9.838038860051588
2.927132554091022,1.120486376953125,2.89219560546875,9.423577734375,9.920892220815553
2.9296194976374035,1.0869675537109373,3.0358477050781247,9.34696328125,9.887547336538228
2.932106441183785,1.0582371337890624,3.2561142578125,9.394847314453125,9.999265070651294
2.9345933847301664,0.93852705078125,3.4332851806640625,9.409212524414063,10.059898632014443
2.937080328276548,0.8283937744140625,3.5003228271484375,9.3852705078125,10.050960085711191
2.9395672718229293,0.6272808349609375,3.6296097167968746,9.361328491210937,10.05992142427232
2.942054215369311,0.38307226562499996,3.687070556640625,9.390058911132812,10.095268198759356
2.9445411589156922,0.1580173095703125,3.7014357666015623,9.390058911132812,10.094493675214515
2.947028102462074,-0.1484405029296875,3.6822821533203123,9.370905297851563,10.06951352056661
2.9495150460084556,-0.40222587890625,3.6439749267578123,9.437942944335937,10.124974367623949
2.952001989554837,-0.699106884765625,3.5625720703124997,9.394847314453125,10.071932597787997
2.9544889331012185,-0.967257470703125,3.438073583984375,9.437942944335937,10.091120056964076
2.9569758766475998,-1.216254443359375,3.337517114257812,9.442731347656249,10.088779443667367
2.9594628201939814,-1.4413093994140624,3.1411925781249996,9.495403784179686,10.1048085890986
2.961949763740363,-1.714248388671875,2.9831752685546875,9.490615380859374,10.095036529323952
2.9644367072867444,-1.89620771484375,2.806004345703125,9.5384994140625,10.121869153373227
2.966923650833126,-2.01112939453125,2.5474305664062498,9.557653027343749,10.093699783691886
2.9694105943795073,-2.1068974609374997,2.346317626953125,9.581595043945311,10.087179333372298
2.971897537925889,-2.1260510742187497,2.1787235107421874,9.581595043945311,10.053551257769804
2.97438448147227,-2.1595698974609374,2.068590234375,9.634267480468749,10.087711216375531
2.976871425018652,-2.1164742675781247,1.8052280517578123,9.643844287109374,10.037033639386976
2.9793583685650336,-2.0446482177734375,1.7094599853515624,9.677363110351562,10.037638992589617
2.981845312111415,-1.867477294921875,1.608903515625,9.662997900390625,9.972440543447368
2.9843322556577965,-1.7477672119140624,1.446097802734375,9.639055883789062,9.902387965179086
2.9868191992041777,-1.484405029296875,1.4030021728515625,9.643844287109374,9.85776881561138
2.9893061427505594,-1.2928688964843749,1.3646949462890625,9.634267480468749,9.81595701728269
2.991793086296941,-1.0103531005859374,1.3934253662109375,9.643844287109374,9.796232963393418
2.9942800298433223,-0.74699091796875,1.39821376953125,9.65342109375,9.782716186729125
2.996766973389704,-0.47884033203125,1.446097802734375,9.658209497070311,9.777601833167076
2.9992539169360852,-0.21068974609375,1.5753846923828123,9.581595043945311,9.712527512664275
3.001740860482467,0.1149216796875,1.68551796875,9.581595043945311,9.729395736714519
3.0042278040288486,0.3447650390625,1.8818425048828125,9.548076220703125,9.737861862939926
3.00671474757523,0.603338818359375,2.04943662109375,9.557653027343749,9.793515180195136
3.0092016911216115,0.7805097412109374,2.2170307373046874,9.495403784179686,9.781979031407337
3.0116886346679927,0.9002198242187499,2.403778466796875,9.447519750976562,9.790003886334521
3.0141755782143744,1.0342951171875,2.6288334228515624,9.442731347656249,9.856252171010508
3.0166625217607557,1.0630255371093749,2.7820623291015623,9.409212524414063,9.869304657631313
3.0191494653071373,1.120486376953125,2.9927520751953125,9.404424121093749,9.932534810104283
3.021636408853519,1.0917559570312498,3.1794998046874996,9.404424121093749,9.987208975841599
3.0241233523999003,0.9959878906249999,3.303998291015625,9.351751684570312,9.968132029380904
3.026610295946282,0.8954314208984374,3.438073583984375,9.356540087890625,10.008346007943953
3.029097239492663,0.7709329345703124,3.5865140869140624,9.380482104492186,10.072282035265712
3.031584183039045,0.507570751953125,3.6535517333984373,9.351751684570312,10.05292633548663
3.0340711265854265,0.316034619140625,3.67749375,9.327809667968749,10.03154381756047
3.036558070131808,0.023942016601562498,3.67749375,9.356540087890625,10.053326609523452
3.0390450136781895,-0.22505495605468748,3.706224169921875,9.342174877929686,10.053008444280668
3.0415319572245707,-0.5363011718749999,3.6104561035156246,9.370905297851563,10.056683266548182
3.0440189007709524,-0.7757213378906249,3.4955344238281247,9.423577734375,10.080888939872043
3.0465058443173336,-1.0965443603515623,3.39018955078125,9.390058911132812,10.043356066524273
3.0489927878637153,-1.3407529296874998,3.2417490478515623,9.476250170898437,10.1047450541399
3.051479731410097,-1.5466542724609373,3.0933085449218747,9.514557397460937,10.12361099915376
3.0539666749564782,-1.7860744384765623,2.925714428710937,9.5384994140625,10.135720886558458
3.05645361850286,-1.9297265380859374,2.729389892578125,9.533711010742186,10.102725341898966
3.058940562049241,-2.059013427734375,2.5378537597656248,9.572018237304688,10.1145326702147
3.061427505595623,-2.1499930908203124,2.3127988037109373,9.548076220703125,10.05670264616481
3.0639144491420045,-2.1691467041015624,2.0973206542968748,9.572018237304688,10.03630830963998
3.0664013926883857,-2.1643583007812497,1.9632453613281249,9.624690673828125,10.058501367987738
3.0688883362347674,-2.0973206542968748,1.7908628417968748,9.648632690429688,10.035041426914862
3.0713752797811487,-1.9823989746093749,1.6328455322265625,9.634267480468749,9.970717131273066
3.0738622233275303,-1.8339584716796873,1.5562310791015623,9.65342109375,9.94855756683675
3.0763491668739116,-1.6472107421875,1.4317325927734375,9.706093530273437,9.948437719803222
3.0788361104202933,-1.4030021728515625,1.3838485595703125,9.600748657226562,9.800909483924881
3.081323053966675,-1.1635820068359375,1.35990654296875,9.600748657226562,9.766147841983512
3.083809997513056,-0.9193734375,1.4125789794921875,9.65342109375,9.799447214212707
3.086296941059438,-0.6368576416015624,1.4317325927734375,9.624690673828125,9.751416124837979
3.088783884605819,-0.32561142578124996,1.5275006591796874,9.624690673828125,9.750587245456952
3.091270828152201,-0.08140285644531249,1.6328455322265625,9.524134204101562,9.663433307830452
3.0937577716985825,0.22026655273437498,1.7621324218749999,9.576806640625,9.740064345700988
3.0962447152449637,0.43574470214843747,1.8770541015625,9.490615380859374,9.684264858679132
3.0987316587913454,0.6655880615234374,2.0973206542968748,9.485826977539062,9.73769350731428
3.1012186023377266,0.8379705810546875,2.308010400390625,9.476250170898437,9.789199354619207
3.1037055458841083,0.9864110839843749,2.47081611328125,9.442731347656249,9.81035750603756
3.1061924894304895,1.0438719238281249,2.7341782958984373,9.414000927734374,9.858438670220673
3.108679432976871,1.120486376953125,2.916137622070312,9.409212524414063,9.91426390012803
3.111166376523253,1.0917559570312498,3.1124621582031247,9.394847314453125,9.957033083094922
3.113653320069634,-9.02135185546875,-3.294421484375,10.271125122070313,14.061792684082102
3.116140263616016,-7.886500268554687,-3.423708374023437,10.089165795898436,13.255562303176665
3.118627207162397,-6.56968935546875,-3.308786694335937,9.988609326171874,12.404886290767106
3.1211141507087787,-5.238513232421875,-3.0262708984374997,9.801861596679688,11.51854275494313
3.1236010942551604,-3.9552211425781247,-2.5139117431640625,9.710881933593749,10.782613526752808
3.1260880378015417,-2.6623522460937497,-1.93451494140625,9.557653027343749,10.108372714334271
3.1285749813479233,-1.43652099609375,-1.3024457031249999,9.447519750976562,9.644458866463125
3.1310619248943046,-0.33518823242187495,-0.5889736083984375,9.279925634765624,9.304636524299278
3.1335488684406863,0.6272808349609375,0.16280571289062498,9.2320416015625,9.2547598066638
3.136035811987068,1.446097802734375,0.8906430175781249,9.160215551757812,9.316329362710377
3.138522755533449,2.0829554443359375,1.5562310791015623,9.102754711914063,9.466821108477967
3.141009699079831,2.5522189697265625,2.2601263671875,9.054870678710937,9.675364379353748
3.143496642626212,2.839523168945312,2.825157958984375,9.035717065429687,9.883753953164113
3.1459835861725938,2.9975404785156248,3.318363500976562,9.09796630859375,10.137542907295638
3.148470529718975,3.0502129150390624,3.7110125732421873,9.045293872070312,10.241716378515148
3.1509574732653567,2.91134921875,4.0222587890625,9.093177905273437,10.360521437488549
3.1534444168117384,2.7054478759765623,4.319139794921875,9.13627353515625,10.461639971194781
3.1559313603581196,2.427720483398437,4.429273071289062,9.227253198242186,10.519243711884872
3.1584183039045013,2.0446482177734375,4.429273071289062,9.236830004882812,10.445959736357112
3.1609052474508825,1.6615759521484375,4.429273071289062,9.3086560546875,10.441760968786571
3.163392190997264,1.24498486328125,4.3430818115234375,9.337386474609374,10.373000197994948
3.165879134543646,0.7805097412109374,4.1946413085937495,9.457096557617186,10.375012600666135
3.168366078090027,0.38307226562499996,3.9169139160156248,9.519345800781249,10.30082052367769
3.170853021636409,0.0047884033203125,3.7158009765625,9.548076220703125,10.245631232022049
3.17333996518279,-0.33518823242187495,3.4428619873046875,9.6151138671875,10.218417905613522
3.1758269087291717,-0.6512228515624999,3.1747114013671873,9.619902270507811,10.151128182546477
3.178313852275553,-0.852335791015625,2.9640216552734375,9.706093530273437,10.184309121977396
3.1808007958219346,-1.0342951171875,2.7150246826171873,9.744400756835937,10.168307210469363
3.1832877393683163,-1.16837041015625,2.5330653564453125,9.749189160156249,10.14042399487616
3.1857746829146976,-1.197100830078125,2.3415292236328122,9.763554370117188,10.111518354863163
3.1882616264610792,-1.2210428466796874,2.1595698974609374,9.6917283203125,10.004213392875744
3.1907485700074605,-1.2114660400390624,2.0877438476562498,9.715670336914062,10.011022646822164
3.193235513553842,-1.1013327636718748,1.9823989746093749,9.6917283203125,9.953513821039119
3.195722457100224,-1.024718310546875,1.9536685546875,9.686939916992188,9.934972239164104
3.198209400646605,-0.9145850341796874,1.9919757812499999,9.581595043945311,9.829109668936926
3.2006963441929868,-0.7709329345703124,2.0638018310546875,9.6151138671875,9.864280524521352
3.203183287739368,-0.6607996582031249,2.1260510742187497,9.524134204101562,9.78089370641586
3.2056702312857497,-0.5315127685546874,2.2361843505859373,9.481038574218749,9.75567110550402
3.208157174832131,-0.411802685546875,2.308010400390625,9.481038574218749,9.766605649147445
3.2106441183785126,-0.354341845703125,2.4516625,9.437942944335937,9.757611089711613
3.2131310619248943,-0.27293898925781246,2.5761609863281247,9.409212524414063,9.75932279663536
3.2156180054712755,-0.229843359375,2.748543505859375,9.423577734375,9.818917287015855
3.218104949017657,-0.26336218261718747,2.829946362304687,9.394847314453125,9.815350840119853
3.2205918925640384,-10.156203442382813,-3.69664736328125,10.237606298828124,14.886982663432104
3.22307883611042,-8.86812294921875,-3.816357446289062,10.122684619140625,13.98845712360346
3.225565779656802,-7.575254052734374,-3.744531396484375,9.950302099609374,13.054290529025947
3.228052723203183,-6.110002636718749,-3.418919970703125,9.86411083984375,12.096356006976055
3.2305396667495647,-4.687846850585937,-3.0166940917968748,9.672574707031249,11.164007022621014
3.233026610295946,-3.327940307617187,-2.4756045166015626,9.576806640625,10.43642802138741
