Time (s),Acceleration x (m/s^2),Acceleration y (m/s^2),Acceleration z (m/s^2),Absolute acceleration (m/s^2)
0.0,-0.5602431884765625,2.4516625,9.485826977539062,9.813533252195587
0.002486943546381497,-0.55545478515625,2.446874096679687,9.481038574218749,9.807436734905757
0.004973887092762994,-0.5602431884765625,2.4516625,9.481038574218749,9.808904826226245
0.007460830639144491,-0.5506663818359374,2.4564509033203126,9.476250170898437,9.804932524294093
0.009947774185525988,-0.5506663818359374,2.461239306640625,9.476250170898437,9.806133269035751
0.012434717731907486,-0.5602431884765625,2.4660277099609376,9.481038574218749,9.81250516139245
0.014921661278288981,-0.55545478515625,2.4660277099609376,9.5001921875,9.830741288635572
0.01740860482467048,-0.5363011718749999,2.4660277099609376,9.519345800781249,9.848190498162658
0.019895548371051976,-0.5315127685546874,2.480392919921875,9.524134204101562,9.856164933587127
0.022382491917433474,-0.5315127685546874,2.4947581298828125,9.519345800781249,9.855164555937392
0.02486943546381497,-0.5315127685546874,2.5043349365234375,9.519345800781249,9.857593203834297
0.027356379010196465,-0.5267243652343749,2.5139117431640625,9.514557397460937,9.85515059646114
0.029843322556577963,-0.51714755859375,2.528276953125,9.509768994140625,9.853696376029704
0.032330266102959464,-0.5219359619140624,2.5378537597656248,9.509768994140625,9.856410359568745
0.03481720964934096,-0.5219359619140624,2.5474305664062498,9.504980590820312,9.854261802432026
0.03730415319572245,-0.507570751953125,2.5617957763671875,9.5001921875,9.852617787546974
0.03979109674210395,-0.5027823486328125,2.5713725830078125,9.509768994140625,9.864099217498747
0.04227804028848545,-0.507570751953125,2.5857377929687497,9.5001921875,9.858870097615709
0.04476498383486695,-0.51714755859375,2.6096798095703124,9.5001921875,9.865673920481786
0.04725192738124844,-0.5267243652343749,2.6144682128906247,9.509768994140625,9.876668917963457
0.04973887092762994,-0.5219359619140624,2.6240450195312497,9.514557397460937,9.88356372380148
0.05222581447401144,-0.5219359619140624,2.6288334228515624,9.504980590820312,9.875618377869381
0.05471275802039293,-0.5315127685546874,2.6336218261718747,9.509768994140625,9.882012753905146
0.05719970156677443,-0.5363011718749999,2.6479870361328124,9.528922607421874,9.904535342393283
0.059686645113155926,-0.5410895751953124,2.6479870361328124,9.528922607421874,9.90479577427764
0.062173588659537427,-0.5410895751953124,2.6336218261718747,9.528922607421874,9.90096499892357
0.06466053220591893,-0.5458779785156249,2.6288334228515624,9.543287817382812,9.913782845006086
0.06714747575230041,-0.5602431884765625,2.6288334228515624,9.543287817382812,9.914584205136544
0.06963441929868192,11.908759057617187,13.555969799804688,10.290278735351562,20.77192085380706
0.07212136284506342,12.038045947265624,12.694057202148437,10.13226142578125,20.216734654247944
0.0746083063914449,11.769895361328125,11.616666455078125,9.974244116210937,19.3122479798422
0.0770952499378264,11.176133349609374,10.386046801757812,9.801861596679688,18.13428839455849
0.0795821934842079,10.280701928710936,9.045293872070312,9.643844287109374,16.748549370411922
0.0820691370305894,9.126696728515624,7.651868505859374,9.509768994140625,15.24084614210047
0.0845560805769709,7.7763669921875,6.253654736328125,9.370905297851563,13.689190891345072
0.0870430241233524,6.287173559570312,4.874594580078124,9.251195214843749,12.201427645625529
0.0895299676697339,4.7022120605468745,3.5721488769531247,9.1554271484375,10.894626755048398
0.09201691121611538,3.0837317382812497,2.35589443359375,9.0788126953125,9.873422910646973
0.09450385476249688,1.4700398193359374,1.254561669921875,9.035717065429687,9.240082518060522
0.09699079830887838,-0.06703764648437499,0.3016694091796875,9.02135185546875,9.026643217644665
0.09947774185525989,-1.5083470458984374,-0.488417138671875,9.030928662109375,9.169042186200672
0.10196468540164137,-2.8203695556640622,-1.1348515869140625,9.04050546875,9.537982579420909
0.10445162894802287,-3.9600095458984375,-1.618480322265625,9.04050546875,10.001594537255869
0.10693857249440437,-4.932055419921875,-1.93451494140625,9.05965908203125,10.494996017452129
0.10942551604078586,-5.693411547851563,-2.0877438476562498,9.088389501953124,10.925769225361105
0.11191245958716736,-6.2392895263671875,-2.1116858642578125,9.121908325195312,11.25154044904115
0.11439940313354886,-6.58884296875,-2.001552587890625,9.150638745117186,11.452216111852666
0.11688634667993036,-6.737283471679687,-1.7621324218749999,9.198522778320312,11.53728393311307
0.11937329022631185,-6.6893994384765625,-1.426944189453125,9.246406811523437,11.501316163443711
0.12186023377269335,-6.4643444824218745,-1.0199299072265624,9.303867651367186,11.374970763796718
0.12434717731907485,-6.081272216796875,-0.5602431884765625,9.351751684570312,11.16919888688905
0.12683412086545634,-5.559336254882812,-0.05746083984375,9.409212524414063,10.928989050802478
0.12932106441183785,-4.936843823242187,0.4740519287109375,9.4618849609375,10.682903125097331
0.13180800795821934,-4.242525341796875,1.0103531005859374,9.5001921875,10.453395920134678
0.13429495150460083,-3.4859576171874997,1.5322890624999999,9.533711010742186,10.266034088986432
0.13678189505098234,-2.70065947265625,2.0350714111328125,9.581595043945311,10.160809063348026
0.13926883859736383,-1.915361328125,2.5234885498046875,9.6151138671875,10.123587217841978
0.14175578214374532,-1.1348515869140625,2.9544448486328125,9.6151138671875,10.122600810410123
0.14424272569012683,-0.39743747558593745,3.327940307617187,9.624690673828125,10.19155600509252
0.14672966923650832,0.27293898925781246,3.6487633300781246,9.65342109375,10.323589896157117
0.1492166127828898,0.8714894042968749,3.912125512695312,9.658209497070311,10.456826980407701
0.15170355632927132,1.388636962890625,4.108450048828125,9.662997900390625,10.591562813927675
0.1541904998756528,1.8052280517578123,4.237736938476562,9.667786303710937,10.70903145446883
0.15667744342203432,2.1212626708984375,4.314351391601562,9.667786303710937,10.797197565265826
0.1591643869684158,2.3367408203125,4.328716601562499,9.667786303710937,10.847314741085846
0.1616513305147973,2.4516625,4.285620971679688,9.677363110351562,10.864094665290812
0.1641382740611788,2.4660277099609376,4.204218115234375,9.667786303710937,10.8269494614587
0.1666252176075603,2.39420166015625,4.084508032226562,9.648632690429688,10.74762858725806
0.1691121611539418,2.2266075439453124,3.9264907226562498,9.643844287109374,10.647950186954853
0.1715991047003233,2.001552587890625,3.7397429931640622,9.629479077148437,10.522298119434312
0.1740860482467048,1.7238251953125,3.5529952636718747,9.610325463867188,10.390077197457343
0.17657299179308628,1.388636962890625,3.356670727539062,9.586383447265625,10.251551033176984
0.1790599353394678,1.0199299072265624,3.1507693847656246,9.557653027343749,10.115153786410005
0.18154687888584928,0.63206923828125,2.9544448486328125,9.528922607421874,9.996430460110753
0.18403382243223076,0.2442085693359375,2.7581203125,9.509768994140625,9.904674240250438
0.18652076597861228,-0.1388636962890625,2.5713725830078125,9.519345800781249,9.861500117205441
0.18900770952499377,-0.5123591552734374,2.418143676757812,9.504980590820312,9.821129608008803
0.19149465307137528,-0.852335791015625,2.269703173828125,9.481038574218749,9.786118803885204
0.19398159661775677,-1.158793603515625,2.1404162841796874,9.4618849609375,9.769925869685274
0.19646854016413826,-1.4317325927734375,2.039859814453125,9.442731347656249,9.766066843097096
0.19895548371051977,-1.6472107421875,1.9584569580078124,9.433154541015625,9.774111800068118
0.20144242725690126,-1.8291700683593748,1.89620771484375,9.423577734375,9.784951923878985
0.20392937080328274,-1.9584569580078124,1.867477294921875,9.433154541015625,9.813634887140527
0.20641631434966426,-2.0302830078125,1.85790048828125,9.447519750976562,9.840196784681703
0.20890325789604575,-2.04943662109375,1.8531120849609375,9.4618849609375,9.857052392948091
0.21139020144242723,-2.0254946044921875,1.8770541015625,9.466673364257812,9.861230403888142
0.21387714498880875,-1.9632453613281249,1.9297265380859374,9.466673364257812,9.858807303427623
0.21636408853519024,-1.867477294921875,1.9823989746093749,9.476250170898437,9.859852658282156
0.21885103208157172,-1.7381904052734374,2.039859814453125,9.481038574218749,9.852534008742586
0.22133797562795324,-1.5849614990234373,2.1116858642578125,9.481038574218749,9.841819577116661
0.22382491917433472,-1.4125789794921875,2.1883003173828124,9.485826977539062,9.836917764227206
0.22631186272071624,-1.2210428466796874,2.2601263671875,9.476250170898437,9.818270424598033
0.22879880626709773,-1.0295067138671874,2.3367408203125,9.471461767578125,9.809629439989386
0.2312857498134792,-0.8283937744140625,2.408566870117187,9.476250170898437,9.812581103601984
0.23377269335986073,-0.6368576416015624,2.47081611328125,9.471461767578125,9.809133903460117
0.23625963690624222,-0.4644751220703125,2.5378537597656248,9.481038574218749,9.825809447104225
0.2387465804526237,-0.3064578125,2.5953145996093747,9.5001921875,9.853082048842579
0.24123352399900522,-0.16280571289062498,2.6336218261718747,9.514557397460937,9.873665585435702
0.2437204675453867,-0.028730419921875,2.6671406494140624,9.5384994140625,9.904414962674798
0.2462074110917682,0.06703764648437499,2.7054478759765623,9.557653027343749,9.933411984145497
0.2486943546381497,0.13407529296874998,2.7198130859375,9.567229833984374,9.947223034742018
0.2511812981845312,0.1771709228515625,2.7341782958984373,9.576806640625,9.961041407482716
0.2536682417309127,0.201112939453125,2.7437551025390623,9.581595043945311,9.968731216322466
0.2561551852772942,0.21068974609375,2.7341782958984373,9.576806640625,9.961693960104888
0.2586421288236757,0.181959326171875,2.7150246826171873,9.576806640625,9.95588738664317
0.26112907237005717,0.1292868896484375,2.710236279296875,9.567229833984374,9.944545363450892
0.2636160159164387,0.086191259765625,2.70065947265625,9.562441430664062,9.93686452737424
0.2661029594628202,0.009576806640625,2.6862942626953124,9.557653027343749,9.927990731870588
0.26858990300920166,-0.08140285644531249,2.6623522460937497,9.533711010742186,9.898807581909281
0.2710768465555832,-0.17238251953125,2.6336218261718747,9.514557397460937,9.873828139374691
0.2735637901019647,-0.26815058593749996,2.6048914062499997,9.5001921875,9.854492152035524
0.27605073364834615,-0.373495458984375,2.5905261962890624,9.490615380859374,9.844902495146732
0.27853767719472766,-0.469263525390625,2.5713725830078125,9.5001921875,9.853213527390054
0.2810246207411092,-0.55545478515625,2.5426421630859375,9.504980590820312,9.854857442892117
0.28351156428749064,-0.6416460449218749,2.518700146484375,9.509768994140625,9.858563100005126
0.28599850783387215,-0.718260498046875,2.5043349365234375,9.504980590820312,9.855569372147773
0.28848545138025367,-0.7805097412109374,2.4851813232421875,9.504980590820312,9.85545421060784
0.2909723949266351,-0.842758984375,2.47081611328125,9.509768994140625,9.86158614490151
0.29345933847301664,-0.8762778076171874,2.4660277099609376,9.514557397460937,9.867925715772095
0.29594628201939815,-0.9097966308593749,2.47081611328125,9.514557397460937,9.872156028181077
0.2984332255657796,-0.9433154541015625,2.47081611328125,9.524134204101562,9.884528752011114
0.30092016911216113,-0.9433154541015625,2.47081611328125,9.528922607421874,9.889142650899156
0.30340711265854264,-0.93852705078125,2.4756045166015626,9.528922607421874,9.889884569897765
0.30589405620492416,-0.9433154541015625,2.480392919921875,9.519345800781249,9.882314382673576
0.3083809997513056,-0.9193734375,2.4899697265625,9.514557397460937,9.877853978793011
0.31086794329768713,-0.8954314208984374,2.5043349365234375,9.514557397460937,9.879286076098955
0.31335488684406865,-0.8667010009765624,2.5139117431640625,9.524134204101562,9.888379807392576
0.3158418303904501,-0.8188169677734375,2.5234885498046875,9.519345800781249,9.88212528571464
0.3183287739368316,-0.7661445312499999,2.5330653564453125,9.514557397460937,9.875737947736683
0.32081571748321314,-0.7278373046875,2.5378537597656248,9.519345800781249,9.87868378494336
0.3233026610295946,-0.679953271484375,2.5426421630859375,9.514557397460937,9.871887767316
0.3257896045759761,-0.63206923828125,2.5522189697265625,9.509768994140625,9.866561686490991
0.3282765481223576,-0.5889736083984375,2.5617957763671875,9.514557397460937,9.870992350355726
0.3307634916687391,-0.5458779785156249,2.5665841796874997,9.509768994140625,9.865142849486208
0.3332504352151206,-0.5123591552734374,2.5761609863281247,9.504980590820312,9.861225753593843
0.3357373787615021,-0.47884033203125,2.5761609863281247,9.504980590820312,9.859541040176756
0.3382243223078836,-0.45489831542968745,2.5857377929687497,9.495403784179686,9.851683380822871
0.3407112658542651,-0.44053310546874996,2.5905261962890624,9.5001921875,9.856903519367014
0.3431982094006466,-0.4261678955078125,2.5905261962890624,9.514557397460937,9.87011892118834
0.34568515294702806,-0.411802685546875,2.5905261962890624,9.519345800781249,9.8741253739425
0.3481720964934096,-0.39743747558593745,2.5809493896484375,9.528922607421874,9.880264285795317
0.3506590400397911,-0.39743747558593745,2.5617957763671875,9.543287817382812,9.889140332315042
0.35314598358617255,-0.4070142822265625,2.5426421630859375,9.548076220703125,9.889208730317872
0.35563292713255407,-0.4213794921875,2.5426421630859375,9.543287817382812,9.885187515234383
0.3581198706789356,-0.430956298828125,2.5378537597656248,9.533711010742186,9.875123830808551
0.36060681422531704,-0.45010991210937495,2.5234885498046875,9.524134204101562,9.863048500930724
0.36309375777169856,-0.4644751220703125,2.518700146484375,9.509768994140625,9.848618882302281
0.36558070131808007,-0.469263525390625,2.5043349365234375,9.490615380859374,9.826682148006947
0.36806764486446153,-0.49799394531249996,2.4756045166015626,9.504980590820312,9.834697337694577
0.37055458841084304,-0.5267243652343749,2.480392919921875,9.524134204101562,9.85590786948962
0.37304153195722456,-0.5315127685546874,2.4851813232421875,9.504980590820312,9.838866198114461
0.3755284755036061,-0.5410895751953124,2.4756045166015626,9.5001921875,9.83234698586452
0.37801541904998753,-0.5602431884765625,2.4756045166015626,9.519345800781249,9.851925427433159
0.38050236259636905,-0.5793968017578125,2.4899697265625,9.524134204101562,9.86127690671052
0.38298930614275056,-0.5793968017578125,2.480392919921875,9.514557397460937,9.84961177715469
0.385476249689132,-0.584185205078125,2.480392919921875,9.504980590820312,9.840644156908711
0.38796319323551354,-0.5985504150390625,2.4851813232421875,9.5001921875,9.838091299036174
0.39045013678189505,-0.6081272216796875,2.4851813232421875,9.5001921875,9.838678596568528
0.3929370803282765,-0.6081272216796875,2.4947581298828125,9.504980590820312,9.845724598841626
0.395424023874658,-0.6081272216796875,2.5043349365234375,9.514557397460937,9.857398980543415
0.39791096742103954,-0.6081272216796875,2.518700146484375,9.519345800781249,9.865678568679392
0.400397910967421,-0.5985504150390625,2.518700146484375,9.528922607421874,9.874334361640765
0.4028848545138025,-0.584185205078125,2.5234885498046875,9.524134204101562,9.870075944619922
0.40537179806018403,-0.5746083984375,2.5330653564453125,9.514557397460937,9.862727684629489
0.4078587416065655,-0.5746083984375,2.5426421630859375,9.524134204101562,9.87442840466194
0.410345685152947,-0.5698199951171875,2.5522189697265625,9.524134204101562,9.876621326850836
0.4128326286993285,-0.5506663818359374,2.5570073730468748,9.504980590820312,9.858304935523714
0.41531957224571,-0.5410895751953124,2.5617957763671875,9.519345800781249,9.872867871244374
0.4178065157920915,-0.5410895751953124,2.5617957763671875,9.519345800781249,9.872867871244374
0.420293459338473,-0.5315127685546874,2.5617957763671875,9.509768994140625,9.863113592819857
0.42278040288485447,-0.5363011718749999,2.5617957763671875,9.509768994140625,9.863372793760037
0.425267346431236,-0.5410895751953124,2.5570073730468748,9.509768994140625,9.862391746230704
0.4277542899776175,-0.5267243652343749,2.5522189697265625,9.528922607421874,9.878847416809279
0.43024123352399896,-0.51714755859375,2.5522189697265625,9.5384994140625,9.887579801896026
0.43272817707038047,-0.51714755859375,2.5474305664062498,9.543287817382812,9.890964889909757
0.435215120616762,-0.5219359619140624,2.5474305664062498,9.548076220703125,9.895836455568396
0.43770206416314344,-0.5315127685546874,2.5426421630859375,9.543287817382812,9.890494292908024
0.44018900770952496,-0.5363011718749999,2.5234885498046875,9.543287817382812,9.885846234559642
0.4426759512559065,-0.5410895751953124,2.5234885498046875,9.543287817382812,9.886107158775268
0.445162894802288,-0.5410895751953124,2.518700146484375,9.548076220703125,9.889508980361054
0.44764983834866945,-0.5410895751953124,2.5139117431640625,9.548076220703125,9.88829053462527
0.45013678189505096,-0.5506663818359374,2.50912333984375,9.548076220703125,9.887602991372045
0.4526237254414325,-0.5506663818359374,2.499546533203125,9.543287817382812,9.880552044351532
0.45511066898781394,-0.5746083984375,2.4947581298828125,9.528922607421874,9.866831254075798
0.45759761253419545,-0.584185205078125,2.4947581298828125,9.514557397460937,9.853521855155506
0.46008455608057697,-0.584185205078125,2.4947581298828125,9.485826977539062,9.825782611489856
0.4625714996269584,-0.59376201171875,2.5043349365234375,9.466673364257812,9.810308424631739
0.46505844317333994,-0.59376201171875,2.499546533203125,9.485826977539062,9.827573436307455
0.46754538671972146,-0.584185205078125,2.499546533203125,9.481038574218749,9.822377394058112
0.4700323302661029,-0.5793968017578125,2.499546533203125,9.4618849609375,9.803606506768322
0.47251927381248443,-0.5746083984375,2.5043349365234375,9.466673364257812,9.80916779708631
0.47500621735886595,-0.584185205078125,2.5139117431640625,9.490615380859374,9.835283672251395
0.4774931609052474,-0.584185205078125,2.50912333984375,9.485826977539062,9.82943974681104
0.4799801044516289,-0.584185205078125,2.499546533203125,9.5001921875,9.840866670416583
0.48246704799801043,-0.5793968017578125,2.5043349365234375,9.504980590820312,9.846423216582247
0.4849539915443919,-0.5746083984375,2.5043349365234375,9.504980590820312,9.84614261107961
0.4874409350907734,-0.565031591796875,2.4947581298828125,9.504980590820312,9.8431567526996
0.4899278786371549,-0.5698199951171875,2.499546533203125,9.504980590820312,9.844647466027107
0.4924148221835364,-0.5746083984375,2.50912333984375,9.519345800781249,9.861228078741267
0.4949017657299179,-0.5698199951171875,2.50912333984375,9.528922607421874,9.870195581629561
0.4973887092762994,-0.5698199951171875,2.5139117431640625,9.543287817382812,9.885281455004744
0.49987565282268087,-0.565031591796875,2.5234885498046875,9.557653027343749,9.901312365127009
0.5023625963690624,-0.565031591796875,2.528276953125,9.548076220703125,9.893290886645758
0.5048495399154439,-0.5602431884765625,2.528276953125,9.5384994140625,9.88377599169508
0.5073364834618254,-0.5506663818359374,2.5234885498046875,9.533711010742186,9.877392042509321
0.5098234270082069,-0.55545478515625,2.5330653564453125,9.528922607421874,9.875490680295947
0.5123103705545884,-0.55545478515625,2.5426421630859375,9.519345800781249,9.868713374230042
0.5147973141009698,-0.55545478515625,2.5522189697265625,9.519345800781249,9.87118514478564
0.5172842576473514,-0.5602431884765625,2.5474305664062498,9.528922607421874,9.879455500134151
0.5197712011937329,-0.5602431884765625,2.5474305664062498,9.552864624023437,9.902550047629838
0.5222581447401143,-0.5602431884765625,2.5522189697265625,9.567229833984374,9.917639880331771
0.5247450882864959,-0.5506663818359374,2.5474305664062498,9.562441430664062,9.911252295730632
0.5272320318328774,-0.5458779785156249,2.5378537597656248,9.557653027343749,9.90390912036646
0.5297189753792588,-0.55545478515625,2.5426421630859375,9.552864624023437,9.901049525821682
0.5322059189256404,-0.5458779785156249,2.5522189697265625,9.543287817382812,9.893742810598404
0.5346928624720219,-0.5458779785156249,2.5474305664062498,9.533711010742186,9.88327025303042
0.5371798060184033,-0.55545478515625,2.5378537597656248,9.533711010742186,9.881339856550644
0.5396667495647849,-0.5602431884765625,2.5474305664062498,9.5384994140625,9.888692835403772
0.5421536931111663,-0.5506663818359374,2.5522189697265625,9.528922607421874,9.880152893136426
0.5446406366575478,-0.5458779785156249,2.5474305664062498,9.528922607421874,9.878651290349552
0.5471275802039294,-0.5602431884765625,2.5474305664062498,9.519345800781249,9.870218811948742
0.5496145237503108,-0.565031591796875,2.5330653564453125,9.490615380859374,9.839078265119984
0.5521014672966923,-0.5602431884765625,2.5234885498046875,9.466673364257812,9.813244696672863
0.5545884108430739,-0.565031591796875,2.5234885498046875,9.466673364257812,9.813519233499886
0.5570753543894553,-0.5698199951171875,2.518700146484375,9.471461767578125,9.817185608382369
0.5595622979358368,-0.5698199951171875,2.518700146484375,9.490615380859374,9.835665994844492
0.5620492414822184,-0.5698199951171875,2.5234885498046875,9.519345800781249,9.864615236423685
0.5645361850285998,-0.5698199951171875,2.518700146484375,9.524134204101562,9.86801284922517
0.5670231285749813,-0.5698199951171875,2.5234885498046875,9.519345800781249,9.864615236423685
0.5695100721213628,-0.5746083984375,2.5234885498046875,9.519345800781249,9.864892992192154
0.5719970156677443,-0.5793968017578125,2.5330653564453125,9.504980590820312,9.853769673875144
0.5744839592141258,-0.5746083984375,2.528276953125,9.5001921875,9.847639857483312
0.5769709027605073,-0.5698199951171875,2.5234885498046875,9.5001921875,9.846133296236992
0.5794578463068888,-0.565031591796875,2.5234885498046875,9.490615380859374,9.836617074387332
0.5819447898532703,-0.5698199951171875,2.518700146484375,9.490615380859374,9.835665994844492
0.5844317333996518,-0.5746083984375,2.5234885498046875,9.490615380859374,9.837171828323159
0.5869186769460333,-0.565031591796875,2.528276953125,9.481038574218749,9.828608115967155
0.5894056204924147,-0.565031591796875,2.5139117431640625,9.490615380859374,9.834164593881434
0.5918925640387963,-0.5698199951171875,2.499546533203125,9.509768994140625,9.849270735460648
0.5943795075851778,-0.565031591796875,2.5043349365234375,9.519345800781249,9.859457320201349
0.5968664511315592,-0.5602431884765625,2.518700146484375,9.519345800781249,9.862842761242135
0.5993533946779408,-0.565031591796875,2.518700146484375,9.524134204101562,9.867737504887645
0.6018403382243223,-0.565031591796875,2.5234885498046875,9.524134204101562,9.868960811476615
0.6043272817707037,-0.5602431884765625,2.5234885498046875,9.519345800781249,9.864066674859885
0.6068142253170853,-0.5506663818359374,2.518700146484375,9.514557397460937,9.85768159160983
0.6093011688634667,-0.5410895751953124,2.528276953125,9.509768994140625,9.854981917893431
0.6117881124098483,-0.5458779785156249,2.5474305664062498,9.509768994140625,9.860177056220014
0.6142750559562298,-0.55545478515625,2.5426421630859375,9.504980590820312,9.854857442892117
0.6167619995026112,-0.5458779785156249,2.528276953125,9.490615380859374,9.836765089526935
0.6192489430489928,-0.5363011718749999,2.5330653564453125,9.481038574218749,9.828231351204641
0.6217358865953743,-0.55545478515625,2.5378537597656248,9.490615380859374,9.839766868768487
0.6242228301417557,-0.55545478515625,2.5378537597656248,9.5001921875,9.849004179293738
0.6267097736881373,-0.5410895751953124,2.5426421630859375,9.504980590820312,9.854058206127982
0.6291967172345188,-0.5410895751953124,2.5378537597656248,9.524134204101562,9.871302445578236
0.6316836607809002,-0.5506663818359374,2.5474305664062498,9.543287817382812,9.892774045744314
0.6341706043272818,-0.5410895751953124,2.5522189697265625,9.548076220703125,9.898098762599494
0.6366575478736632,-0.5315127685546874,2.5426421630859375,9.5384994140625,9.88587406680409
0.6391444914200447,-0.5410895751953124,2.5474305664062498,9.543287817382812,9.892245588563453
0.6416314349664263,-0.5458779785156249,2.5426421630859375,9.533711010742186,9.882037116570523
0.6441183785128077,-0.5410895751953124,2.5378537597656248,9.509768994140625,9.857443175401011
0.6466053220591892,-0.5506663818359374,2.5426421630859375,9.504980590820312,9.854588711126278
0.6490922656055708,-0.55545478515625,2.5426421630859375,9.519345800781249,9.868713374230042
0.6515792091519522,-0.55545478515625,2.5474305664062498,9.533711010742186,9.883803829769217
0.6540661526983337,-0.5602431884765625,2.5522189697265625,9.5384994140625,9.889927460388027
0.6565530962447153,-0.5602431884765625,2.5426421630859375,9.533711010742186,9.882841050835712
0.6590400397910967,-0.5602431884765625,2.5378537597656248,9.524134204101562,9.872370863877036
0.6615269833374782,-0.565031591796875,2.5474305664062498,9.514557397460937,9.865873791001384
0.6640139268838597,-0.565031591796875,2.5426421630859375,9.504980590820312,9.855401864008472
0.6665008704302412,-0.565031591796875,2.5378537597656248,9.5001921875,9.849548923941697
0.6689878139766227,-0.565031591796875,2.5426421630859375,9.519345800781249,9.869257031007068
0.6714747575230042,-0.565031591796875,2.5426421630859375,9.528922607421874,9.87849461848649
0.6739617010693857,-0.565031591796875,2.5330653564453125,9.528922607421874,9.876033963995244
0.6764486446157671,-0.565031591796875,2.5330653564453125,9.528922607421874,9.876033963995244
0.6789355881621487,-0.5698199951171875,2.5234885498046875,9.524134204101562,9.8692361216848
0.6814225317085302,-0.5602431884765625,2.50912333984375,9.519345800781249,9.860401454283423
0.6839094752549116,-0.55545478515625,2.5043349365234375,9.524134204101562,9.86353667962877
0.6863964188012932,-0.565031591796875,2.499546533203125,9.528922607421874,9.867490036965426
0.6888833623476747,-0.5698199951171875,2.499546533203125,9.524134204101562,9.86314148921227
0.6913703058940561,-0.5746083984375,2.4947581298828125,9.533711010742186,9.871455747483148
0.6938572494404377,-0.5698199951171875,2.480392919921875,9.5384994140625,9.872183899021765
0.6963441929868192,-0.565031591796875,2.47081611328125,9.5384994140625,9.869506777820735
0.6988311365332006,-0.565031591796875,2.480392919921875,9.524134204101562,9.85802932003473
0.7013180800795822,-0.5698199951171875,2.4851813232421875,9.504980590820312,9.841009961792437
0.7038050236259636,-0.565031591796875,2.4851813232421875,9.495403784179686,9.831484116537757
0.7062919671723451,-0.565031591796875,2.4851813232421875,9.485826977539062,9.822234998050503
0.7087789107187267,-0.5602431884765625,2.4899697265625,9.481038574218749,9.81854949140941
0.7112658542651081,-0.5602431884765625,2.4899697265625,9.481038574218749,9.81854949140941
0.7137527978114896,-0.5602431884765625,2.499546533203125,9.490615380859374,9.830228156522445
0.7162397413578712,-0.5602431884765625,2.5043349365234375,9.5001921875,9.84069192201251
0.7187266849042526,-0.565031591796875,2.499546533203125,9.504980590820312,9.84437146816632
0.7212136284506341,-0.5602431884765625,2.499546533203125,9.5001921875,9.839474422006399
0.7237005719970157,-0.565031591796875,2.5043349365234375,9.504980590820312,9.845588362606433
0.7261875155433971,-0.5698199951171875,2.50912333984375,9.524134204101562,9.865572821642001
0.7286744590897786,-0.565031591796875,2.5139117431640625,9.528922607421874,9.87113868864086
0.7311614026361601,-0.5602431884765625,2.518700146484375,9.528922607421874,9.872086350735112
0.7336483461825416,-0.5506663818359374,2.528276953125,9.528922607421874,9.873995334920055
0.7361352897289231,-0.55545478515625,2.5330653564453125,9.524134204101562,9.870870400127524
0.7386222332753046,-0.5506663818359374,2.5378537597656248,9.509768994140625,9.85797349823782
0.7411091768216861,-0.5506663818359374,2.5426421630859375,9.519345800781249,9.868445019780888
0.7435961203680675,-0.55545478515625,2.5378537597656248,9.519345800781249,9.867480742274651
0.7460830639144491,-0.55545478515625,2.5474305664062498,9.524134204101562,9.874566565006848
0.7485700074608306,-0.565031591796875,2.5522189697265625,9.519345800781249,9.871728665437084
0.7510569510072121,-0.5746083984375,2.5617957763671875,9.514557397460937,9.870145636258176
0.7535438945535936,-0.5793968017578125,2.5617957763671875,9.5001921875,9.856579013691107
0.7560308380999751,-0.5746083984375,2.5522189697265625,9.481038574218749,9.835348947892541
0.7585177816463566,-0.5793968017578125,2.5522189697265625,9.490615380859374,9.844861737511797
0.7610047251927381,-0.5793968017578125,2.5522189697265625,9.5001921875,9.854094272065561
0.7634916687391196,-0.5746083984375,2.5522189697265625,9.495403784179686,9.84919740413405
0.7659786122855011,-0.565031591796875,2.5474305664062498,9.5001921875,9.852020848020238
0.7684655558318826,-0.5698199951171875,2.5522189697265625,9.509768994140625,9.862769530825805
0.770952499378264,-0.5793968017578125,2.5426421630859375,9.514557397460937,9.86547172176618
0.7734394429246456,-0.584185205078125,2.5330653564453125,9.533711010742186,9.88176796379081
0.7759263864710271,-0.584185205078125,2.5234885498046875,9.552864624023437,9.89780224796121
0.7784133300174085,-0.5793968017578125,2.528276953125,9.552864624023437,9.898742724735735
0.7809002735637901,-0.5698199951171875,2.5378537597656248,9.552864624023437,9.900637305633932
0.7833872171101716,-0.565031591796875,2.5426421630859375,9.548076220703125,9.896971728038194
0.785874160656553,-0.55545478515625,2.5522189697265625,9.533711010742186,9.885039065382184
0.7883611042029346,-0.55545478515625,2.5426421630859375,9.528922607421874,9.877951470122285
0.790848047749316,-0.5602431884765625,2.5330653564453125,9.528922607421874,9.875761165018801
0.7933349912956975,-0.5506663818359374,2.5378537597656248,9.528922607421874,9.87645185419726
0.7958219348420791,-0.5458779785156249,2.5378537597656248,9.514557397460937,9.862326649577343
0.7983088783884605,-0.55545478515625,2.5234885498046875,9.504980590820312,9.849933020646343
0.800795821934842,-0.5506663818359374,2.5234885498046875,9.504980590820312,9.849664154525803
0.8032827654812236,-0.5410895751953124,2.528276953125,9.495403784179686,9.841120632565275
0.805769709027605,-0.5458779785156249,2.5234885498046875,9.509768994140625,9.854018649786598
0.8082566525739865,-0.5506663818359374,2.50912333984375,9.514557397460937,9.855239006143462
0.8107435961203681,-0.5506663818359374,2.50912333984375,9.509768994140625,9.850616210194739
0.8132305396667495,-0.55545478515625,2.50912333984375,9.509768994140625,9.850885050330252
0.815717483213131,-0.55545478515625,2.50912333984375,9.514557397460937,9.8555077201776
0.8182044267595125,-0.5506663818359374,2.5139117431640625,9.509768994140625,9.85183698801502
0.820691370305894,-0.5410895751953124,2.5139117431640625,9.504980590820312,9.846684021165402
0.8231783138522755,-0.5363011718749999,2.50912333984375,9.504980590820312,9.845200603003171
0.825665257398657,-0.5458779785156249,2.5139117431640625,9.504980590820312,9.846948311620068
0.8281522009450385,-0.55545478515625,2.5139117431640625,9.509768994140625,9.85210579483846
0.83063914449142,-0.55545478515625,2.50912333984375,9.519345800781249,9.860130548210467
0.8331260880378015,-0.5602431884765625,2.50912333984375,9.514557397460937,9.855778753318363
0.835613031584183,-0.565031591796875,2.5139117431640625,9.524134204101562,9.86651637052734
0.8380999751305644,-0.565031591796875,2.518700146484375,9.528922607421874,9.872359251256238
0.840586918676946,-0.5698199951171875,2.518700146484375,9.528922607421874,9.872634466694867
0.8430738622233275,-0.5746083984375,2.518700146484375,9.528922607421874,9.872911996857413
0.8455608057697089,-0.5746083984375,2.518700146484375,9.528922607421874,9.872911996857413
0.8480477493160905,-0.5698199951171875,2.528276953125,9.5384994140625,9.884323459428522
0.850534692862472,-0.5698199951171875,2.5378537597656248,9.528922607421874,9.877538285981359
0.8530216364088534,-0.5698199951171875,2.5522189697265625,9.524134204101562,9.876621326850836
0.855508579955235,-0.5698199951171875,2.5617957763671875,9.528922607421874,9.8837168355272
0.8579955235016165,-0.5698199951171875,2.5617957763671875,9.519345800781249,9.874484133437033
0.8604824670479979,-0.5746083984375,2.5617957763671875,9.5001921875,9.856298697320597
0.8629694105943795,-0.5793968017578125,2.5617957763671875,9.5001921875,9.856579013691107
0.8654563541407609,-0.5698199951171875,2.5570073730468748,9.504980590820312,9.859393366963419
0.8679432976871424,-0.565031591796875,2.5474305664062498,9.495403784179686,9.847403526564923
0.870430241233524,-0.5602431884765625,2.5426421630859375,9.490615380859374,9.841274404625716
0.8729171847799054,-0.5602431884765625,2.528276953125,9.490615380859374,9.83757272345887
0.8754041283262869,-0.565031591796875,2.5330653564453125,9.504980590820312,9.852935442375676
0.8778910718726685,-0.5793968017578125,2.5426421630859375,9.519345800781249,9.870089882986939
0.8803780154190499,-0.5793968017578125,2.528276953125,9.533711010742186,9.880259644459603
0.8828649589654315,-0.5746083984375,2.528276953125,9.543287817382812,9.889221482435568
0.885351902511813,-0.584185205078125,2.518700146484375,9.533711010742186,9.878095384135516
0.8878388460581944,-0.5698199951171875,2.5139117431640625,9.533711010742186,9.876036285656323
0.890325789604576,-0.5602431884765625,2.50912333984375,9.533711010742186,9.8742705047578
0.8928127331509574,-0.5602431884765625,2.5043349365234375,9.543287817382812,9.882302781737332
0.8952996766973389,-0.5506663818359374,2.5043349365234375,9.528922607421874,9.867892023963975
0.8977866202437205,-0.5506663818359374,2.5043349365234375,9.509768994140625,9.849397609006072
0.9002735637901019,-0.5506663818359374,2.499546533203125,9.504980590820312,9.843557404089381
0.9027605073364834,-0.5458779785156249,2.499546533203125,9.504980590820312,9.843290693205546
0.905247450882865,-0.5458779785156249,2.499546533203125,9.504980590820312,9.843290693205546
0.9077343944292464,-0.5458779785156249,2.499546533203125,9.5001921875,9.838666944180604
0.9102213379756279,-0.5506663818359374,2.4947581298828125,9.490615380859374,9.828470476025513
0.9127082815220094,-0.5458779785156249,2.4851813232421875,9.481038574218749,9.816526953186854
0.9151952250683909,-0.5410895751953124,2.4899697265625,9.4618849609375,9.798979241818916
0.9176821686147724,-0.5458779785156249,2.4851813232421875,9.485826977539062,9.821151787067949
0.9201691121611539,-0.55545478515625,2.4851813232421875,9.504980590820312,9.84018862927005
0.9226560557075354,-0.5506663818359374,2.4899697265625,9.504980590820312,9.841129952152489
0.9251429992539169,-0.5458779785156249,2.4899697265625,9.519345800781249,9.854738783015897
0.9276299428002984,-0.5410895751953124,2.4899697265625,9.543287817382812,9.877604443031213
0.9301168863466799,-0.5458779785156249,2.4851813232421875,9.552864624023437,9.885915815023843
0.9326038298930613,-0.5506663818359374,2.4947581298828125,9.548076220703125,9.883967376871352
0.9350907734394429,-0.5602431884765625,2.499546533203125,9.548076220703125,9.88571519002235
0.9375777169858244,-0.565031591796875,2.499546533203125,9.533711010742186,9.872114221772511
0.9400646605322058,-0.5602431884765625,2.518700146484375,9.528922607421874,9.872086350735112
0.9425516040785874,-0.5602431884765625,2.528276953125,9.509768994140625,9.856052105374435
0.9450385476249689,-0.5698199951171875,2.5378537597656248,9.495403784179686,9.84520642533237
0.9475254911713503,-0.5746083984375,2.5474305664062498,9.5001921875,9.852574734639257
0.9500124347177319,-0.5698199951171875,2.5474305664062498,9.495403784179686,9.84767943944715
0.9524993782641133,-0.565031591796875,2.5474305664062498,9.504980590820312,9.856638332730903
0.9549863218104948,-0.5698199951171875,2.5474305664062498,9.524134204101562,9.875385038328051
0.9574732653568764,-0.565031591796875,2.5522189697265625,9.514557397460937,9.867111271225195
0.9599602089032578,-0.565031591796875,2.5570073730468748,9.504980590820312,9.859117781901961
0.9624471524496393,-0.5698199951171875,2.5570073730468748,9.509768994140625,9.86400972498354
0.9649340959960209,-0.565031591796875,2.5522189697265625,9.514557397460937,9.867111271225195
0.9674210395424023,-0.5602431884765625,2.5522189697265625,9.504980590820312,9.857603670849084
0.9699079830887838,-0.5602431884765625,2.5570073730468748,9.504980590820312,9.85884451484662
0.9723949266351654,-0.5746083984375,2.5570073730468748,9.504980590820312,9.859671269836628
0.9748818701815468,-0.584185205078125,2.5522189697265625,9.5001921875,9.854376977906838
0.9773688137279283,-0.5698199951171875,2.5522189697265625,9.481038574218749,9.835070357760099
0.9798557572743098,-0.565031591796875,2.5570073730468748,9.481038574218749,9.836037812623967
0.9823427008206913,-0.565031591796875,2.5522189697265625,9.485826977539062,9.839410338885582
0.9848296443670728,-0.5746083984375,2.5474305664062498,9.5001921875,9.852574734639257
0.9873165879134543,-0.5746083984375,2.5522189697265625,9.514557397460937,9.867664310796435
0.9898035314598358,-0.5698199951171875,2.5522189697265625,9.528922607421874,9.88123891799521
0.9922904750062173,-0.5698199951171875,2.5474305664062498,9.533711010742186,9.884621538220015
0.9947774185525988,-0.5746083984375,2.5474305664062498,9.543287817382812,9.894135620033868
0.9972643620989803,-0.5698199951171875,2.5474305664062498,9.528922607421874,9.880003207273361
0.9997513056453617,-0.5746083984375,2.5474305664062498,9.524134204101562,9.875662491192836
1.0022382491917432,-0.5746083984375,2.5570073730468748,9.528922607421874,9.882754048118708
1.0047251927381249,-0.5698199951171875,2.5665841796874997,9.533711010742186,9.889575057332054
1.0072121362845063,-0.5602431884765625,2.5761609863281247,9.533711010742186,9.891517754827126
1.0096990798308878,-0.5458779785156249,2.5857377929687497,9.524134204101562,9.88398477533998
1.0121860233772693,-0.5458779785156249,2.5857377929687497,9.504980590820312,9.865529825269702
1.0146729669236507,-0.5506663818359374,2.5857377929687497,9.5001921875,9.861182738267617
1.0171599104700322,-0.5458779785156249,2.5809493896484375,9.504980590820312,9.864275875664964
1.0196468540164139,-0.5506663818359374,2.5761609863281247,9.519345800781249,9.877134370171087
1.0221337975627953,-0.5602431884765625,2.5665841796874997,9.528922607421874,9.884411608178418
1.0246207411091768,-0.55545478515625,2.5617957763671875,9.528922607421874,9.882899052221541
1.0271076846555582,-0.5458779785156249,2.5522189697265625,9.514557397460937,9.866032987297329
1.0295946282019397,-0.55545478515625,2.5378537597656248,9.509768994140625,9.858242137735708
1.0320815717483212,-0.565031591796875,2.528276953125,9.519345800781249,9.865565849270032
1.0345685152947028,-0.5602431884765625,2.5234885498046875,9.519345800781249,9.864066674859885
1.0370554588410843,-0.5506663818359374,2.5139117431640625,9.504980590820312,9.847214923437656
1.0395424023874658,-0.565031591796875,2.518700146484375,9.5001921875,9.844631162571046
1.0420293459338472,-0.5746083984375,2.5139117431640625,9.504980590820312,9.848582796313586
1.0445162894802287,-0.565031591796875,2.5043349365234375,9.504980590820312,9.845588362606433
1.0470032330266101,-0.565031591796875,2.499546533203125,9.509768994140625,9.848994867157495
1.0494901765729918,-0.5698199951171875,2.5043349365234375,9.509768994140625,9.850487024662568
1.0519771201193733,-0.5698199951171875,2.5043349365234375,9.504980590820312,9.845864326355409
1.0544640636657547,-0.5698199951171875,2.4947581298828125,9.5001921875,9.838809102370456
1.0569510072121362,-0.5746083984375,2.4899697265625,9.5001921875,9.837874549423196
1.0594379507585177,-0.5698199951171875,2.4851813232421875,9.509768994140625,9.845634939309173
1.0619248943048991,-0.565031591796875,2.480392919921875,9.514557397460937,9.848777193464462
1.0644118378512808,-0.565031591796875,2.4851813232421875,9.519345800781249,9.854609651527142
1.0668987813976623,-0.565031591796875,2.4947581298828125,9.519345800781249,9.857029131599262
1.0693857249440437,-0.565031591796875,2.4851813232421875,9.519345800781249,9.854609651527142
1.0718726684904252,-0.55545478515625,2.4851813232421875,9.524134204101562,9.858691016837989
1.0743596120368066,-0.5602431884765625,2.4899697265625,9.519345800781249,9.85554494405478
1.076846555583188,-0.5602431884765625,2.4851813232421875,9.524134204101562,9.85896196246661
1.0793334991295698,-0.5602431884765625,2.4899697265625,9.519345800781249,9.85554494405478
1.0818204426759512,-0.55545478515625,2.499546533203125,9.509768994140625,9.848450091863143
1.0843073862223327,-0.55545478515625,2.499546533203125,9.509768994140625,9.848450091863143
1.0867943297687142,-0.55545478515625,2.499546533203125,9.504980590820312,9.843826437004646
1.0892812733150956,-0.5506663818359374,2.499546533203125,9.5001921875,9.83893378040365
1.0917682168614773,-0.5506663818359374,2.4947581298828125,9.5001921875,9.837718393516694
1.0942551604078588,-0.5506663818359374,2.4899697265625,9.504980590820312,9.841129952152489
1.0967421039542402,-0.5506663818359374,2.4947581298828125,9.509768994140625,9.84696693975455
1.0992290475006217,-0.5506663818359374,2.4947581298828125,9.519345800781249,9.856216112969127
1.1017159910470031,-0.5458779785156249,2.4899697265625,9.509768994140625,9.845488221949404
1.1042029345933846,-0.5506663818359374,2.4899697265625,9.504980590820312,9.841129952152489
1.1066898781397663,-0.55545478515625,2.4947581298828125,9.509768994140625,9.847235879519072
1.1091768216861477,-0.55545478515625,2.499546533203125,9.519345800781249,9.85769787348204
1.1116637652325292,-0.5458779785156249,2.5043349365234375,9.519345800781249,9.858378199104138
1.1141507087789106,-0.5458779785156249,2.518700146484375,9.533711010742186,9.875903950103783
1.116637652325292,-0.5458779785156249,2.518700146484375,9.548076220703125,9.8897721263781
1.1191245958716736,-0.5410895751953124,2.5139117431640625,9.557653027343749,9.897538157132628
1.1216115394180552,-0.5410895751953124,2.528276953125,9.567229833984374,9.91044141178226
1.1240984829644367,-0.5458779785156249,2.528276953125,9.552864624023437,9.896837355642951
1.1265854265108182,-0.5506663818359374,2.528276953125,9.5384994140625,9.883237773516226
1.1290723700571996,-0.5602431884765625,2.5378537597656248,9.533711010742186,9.881610181166716
1.131559313603581,-0.55545478515625,2.5330653564453125,9.533711010742186,9.880111120565557
1.1340462571499625,-0.55545478515625,2.5330653564453125,9.528922607421874,9.875490680295947
1.1365332006963442,-0.5602431884765625,2.5378537597656248,9.509768994140625,9.85851309570106
1.1390201442427257,-0.5698199951171875,2.5378537597656248,9.495403784179686,9.84520642533237
1.1415070877891071,-0.5746083984375,2.5522189697265625,9.495403784179686,9.84919740413405
1.1439940313354886,-0.5746083984375,2.5522189697265625,9.485826977539062,9.839964935343769
1.14648097488187,-0.5746083984375,2.5522189697265625,9.471461767578125,9.826117468037983
1.1489679184282515,-0.5793968017578125,2.5474305664062498,9.466673364257812,9.820540093604647
1.1514548619746332,-0.5698199951171875,2.5426421630859375,9.466673364257812,9.818738645156312
1.1539418055210147,-0.5698199951171875,2.5378537597656248,9.466673364257812,9.817499738647319
1.1564287490673961,-0.5746083984375,2.5426421630859375,9.481038574218749,9.832868168895642
1.1589156926137776,-0.5746083984375,2.5378537597656248,9.504980590820312,9.854721332913593
1.161402636160159,-0.584185205078125,2.5330653564453125,9.519345800781249,9.86790945077564
1.1638895797065405,-0.5793968017578125,2.5330653564453125,9.533711010742186,9.881486041596041
1.1663765232529222,-0.5698199951171875,2.5330653564453125,9.552864624023437,9.89941096488964
1.1688634667993036,-0.5602431884765625,2.5426421630859375,9.548076220703125,9.896699506203731
1.171350410345685,-0.5602431884765625,2.5570073730468748,9.528922607421874,9.881929224310714
1.1738373538920666,-0.5698199951171875,2.5617957763671875,9.519345800781249,9.874484133437033
1.176324297438448,-0.5746083984375,2.5522189697265625,9.519345800781249,9.87228144634454
1.1788112409848295,-0.565031591796875,2.5617957763671875,9.509768994140625,9.864976666037263
1.1812981845312112,-0.565031591796875,2.5617957763671875,9.514557397460937,9.86959273572724
1.1837851280775926,7.388506323242187,8.552088330078124,10.160991845703125,15.197828653544349
1.186272071623974,7.287949853515625,8.073247998046874,9.9981861328125,14.773465140301054
1.1887590151703555,7.000645654296875,7.493851196289062,9.859322436523437,14.225789406443607
1.191245958716737,6.536170532226562,6.842628344726562,9.686939916992188,13.541783222523497
1.1937329022631185,5.951985327148437,6.129156249999999,9.504980590820312,12.780349827112527
1.1962198458095001,5.2624552490234375,5.377376928710937,9.351751684570312,12.002702922728307
1.1987067893558816,4.477157104492187,4.61602080078125,9.222464794921875,11.243061890122434
1.201193732902263,3.6535517333984373,3.873818286132812,9.121908325195312,10.562391768717122
1.2036806764486445,2.8012159423828122,3.1459809814453124,9.054870678710937,9.986725694623555
1.206167619995026,1.9297265380859374,2.4564509033203126,9.02135185546875,9.546873040550281
1.2086545635414074,1.0869675537109373,1.8243816650390623,8.992621435546875,9.239973333598327
1.2111415070877891,0.28730419921875,1.2593500732421874,8.987833032226561,9.080178903801771
1.2136284506341706,-0.469263525390625,0.7757213378906249,8.997409838867187,9.04297161661281
1.216115394180552,-1.1635820068359375,0.373495458984375,8.997409838867187,9.080022343202595
1.2186023377269335,-1.7764976318359373,0.0718260498046875,9.011775048828124,9.185488138799723
1.221089281273315,-2.27927998046875,-0.15322890625,9.054870678710937,9.338590864539215
1.2235762248196966,-2.7054478759765623,-0.3016694091796875,9.107543115234375,9.50567168788792
1.226063168366078,-3.0502129150390624,-0.354341845703125,9.1554271484375,9.656666259172148
1.2285501119124596,-3.289633081054687,-0.32082302246093747,9.208099584960937,9.783338447905608
1.231037055458841,-3.4428619873046875,-0.2346317626953125,9.255983618164063,9.878339104698451
1.2335239990052225,-3.5051112304687497,-0.0718260498046875,9.318232861328125,9.955924235214129
1.236010942551604,-3.4955344238281247,0.1388636962890625,9.380482104492186,10.011567736723986
1.2384978860979856,-3.414131567382812,0.39264907226562495,9.428366137695312,10.03516595178129
1.240984829644367,-3.2609026611328122,0.679953271484375,9.471461767578125,10.04013997071154
1.2434717731907485,-3.0597897216796874,0.9864110839843749,9.524134204101562,10.05208696267801
1.24595871673713,-2.8107927490234372,1.3024457031249999,9.576806640625,10.065393490543258
1.2484456602835114,-2.528276953125,1.6328455322265625,9.629479077148437,10.088866942380339
1.250932603829893,-2.2266075439453124,1.9584569580078124,9.682151513671874,10.126074893305004
1.2534195473762746,-1.9105729248046874,2.2601263671875,9.710881933593749,10.151831757119027
1.255906490922656,-1.599326708984375,2.5570073730468748,9.720458740234374,10.177595528831242
1.2583934344690375,-1.2737152832031249,2.839523168945312,9.730035546875,10.21561717142403
1.260880378015419,-0.967257470703125,3.0741549316406247,9.734823950195311,10.254404560951242
1.2633673215618004,-0.689530078125,3.284844677734375,9.734823950195311,10.297206107812698
1.2658542651081819,-0.4165910888671875,3.4620156005859375,9.730035546875,10.335990126614625
1.2683412086545636,-0.181959326171875,3.5960908935546874,9.701305126953125,10.347961155577211
1.270828152200945,0.01915361328125,3.6918589599609373,9.677363110351562,10.357680542029613
1.2733150957473265,0.19153613281249998,3.749319799804687,9.667786303710937,10.371122266447397
1.275802039293708,0.33518823242187495,3.778050219726562,9.639055883789062,10.358446454210137
1.2782889828400894,0.44053310546874996,3.763685009765625,9.619902270507811,10.339338178233158
1.2807759263864709,0.5027823486328125,3.725377783203125,9.586383447265625,10.297085865218786
1.2832628699328525,0.5410895751953124,3.6487633300781246,9.557653027343749,10.244753933521341
1.285749813479234,0.5410895751953124,3.5625720703124997,9.533711010742186,10.191974456448689
1.2882367570256155,0.5123591552734374,3.4572271972656248,9.490615380859374,10.113689341922173
1.290723700571997,0.45968671875,3.327940307617187,9.471461767578125,10.049631166622607
1.2932106441183784,0.39264907226562495,3.1842882080078123,9.481038574218749,10.009193630429603
1.2956975876647598,0.3112462158203125,3.0406361083984375,9.476250170898437,9.956990481667216
1.2981845312111415,0.2059013427734375,2.896984008789062,9.457096557617186,9.893006975143113
1.300671474757523,0.0909796630859375,2.7533319091796873,9.452308154296874,9.845569731863641
1.3031584183039044,-0.023942016601562498,2.6192566162109374,9.452308154296874,9.808527304621775
1.305645361850286,-0.143652099609375,2.4899697265625,9.447519750976562,9.771193100640891
1.3081323053966674,-0.258573779296875,2.365471240234375,9.447519750976562,9.742584053155923
1.3106192489430488,-0.3687070556640625,2.2601263671875,9.437942944335937,9.711790932114072
1.3131061924894305,-0.469263525390625,2.1739351074218747,9.433154541015625,9.691780368034921
1.315593136035812,-0.5793968017578125,2.0877438476562498,9.447519750976562,9.692781049441175
1.3180800795821934,-0.6751648681640625,2.020706201171875,9.4618849609375,9.698781787661412
1.3205670231285749,-0.74699091796875,1.9823989746093749,9.471461767578125,9.705487578723401
1.3230539666749563,-0.814028564453125,1.9680337646484374,9.476250170898437,9.712626663472378
1.3255409102213378,-0.8714894042968749,1.9632453613281249,9.490615380859374,9.730652929684762
1.3280278537677195,-0.9193734375,1.9728221679687499,9.5001921875,9.746328869038102
1.330514797314101,-0.9433154541015625,1.9919757812499999,9.490615380859374,9.743181814296493
1.3330017408604824,-0.9624690673828125,2.020706201171875,9.5001921875,9.760289537537258
1.3354886844068639,-0.967257470703125,2.0733786376953125,9.519345800781249,9.790425448607117
1.3379756279532453,-0.9576806640625,2.1308394775390624,9.519345800781249,9.801814811972818
1.3404625714996268,-0.93852705078125,2.1787235107421874,9.509768994140625,9.801192554134794
1.3429495150460085,-0.9193734375,2.24097275390625,9.514557397460937,9.81804506360148
1.34543645859239,-0.8954314208984374,2.3032219970703123,9.528922607421874,9.84413505878279
1.3479234021387714,-0.852335791015625,2.375048046875,9.548076220703125,9.875884215702786
1.3504103456851528,-0.8188169677734375,2.446874096679687,9.552864624023437,9.895194621463196
1.3528972892315343,-0.7757213378906249,2.50912333984375,9.548076220703125,9.902686657920867
1.3553842327779158,-0.7326257080078125,2.5665841796874997,9.5384994140625,9.904901102561638
1.3578711763242974,-0.689530078125,2.6288334228515624,9.533711010742186,9.913519179892038
1.360358119870679,-0.6416460449218749,2.6767174560546874,9.533711010742186,9.923113000609161
1.3628450634170604,-0.5985504150390625,2.7198130859375,9.543287817382812,9.941327284985013
1.3653320069634418,-0.565031591796875,2.7581203125,9.567229833984374,9.972881983370417
1.3678189505098233,-0.5267243652343749,2.786850732421875,9.562441430664062,9.974179749563994
1.370305894056205,-0.488417138671875,2.806004345703125,9.548076220703125,9.963833158268445
1.3727928376025864,-0.45968671875,2.806004345703125,9.528922607421874,9.944110735794109
1.3752797811489679,-0.44053310546874996,2.806004345703125,9.528922607421874,9.943243729455416
1.3777667246953493,-0.4213794921875,2.806004345703125,9.533711010742186,9.947002900416175
1.3802536682417308,-0.4261678955078125,2.7964275390625,9.528922607421874,9.939919120124891
1.3827406117881123,-0.430956298828125,2.77727392578125,9.519345800781249,9.925568913930105
1.385227555334494,-0.4261678955078125,2.7533319091796873,9.509768994140625,9.90949857455901
1.3877144988808754,-0.4213794921875,2.7198130859375,9.5001921875,9.890833913189983
1.3902014424272569,-0.4261678955078125,2.6815058593749996,9.495403784179686,9.87597011810171
1.3926883859736383,-0.430956298828125,2.6527754394531247,9.504980590820312,9.877631137855685
1.3951753295200198,-0.43574470214843747,2.6240450195312497,9.509768994140625,9.87477554336784
1.3976622730664012,-0.44532150878906246,2.5953145996093747,9.504980590820312,9.86299270754098
1.400149216612783,-0.45968671875,2.5713725830078125,9.495403784179686,9.8481450976645
1.4026361601591644,-0.4740519287109375,2.5426421630859375,9.476250170898437,9.82288510072624
1.4051231037055458,-0.488417138671875,2.50912333984375,9.481038574218749,9.819589791927203
1.4076100472519273,-0.5027823486328125,2.4851813232421875,9.5001921875,9.832729422643773
1.4100969907983087,-0.5267243652343749,2.4660277099609376,9.504980590820312,9.833788042005867
1.4125839343446902,-0.5458779785156249,2.4516625,9.514557397460937,9.840499695183837
1.4150708778910719,-0.5506663818359374,2.437297290039062,9.524134204101562,9.846460474802777
1.4175578214374533,-0.5602431884765625,2.422932080078125,9.524134204101562,9.84345491342564
1.4200447649838348,-0.5698199951171875,2.403778466796875,9.519345800781249,9.83467285775807
1.4225317085302163,-0.59376201171875,2.389413256835937,9.524134204101562,9.837224271929603
1.4250186520765977,-0.603338818359375,2.398990063476562,9.528922607421874,9.844772070120987
1.4275055956229792,-0.603338818359375,2.39420166015625,9.5384994140625,9.852877264601691
1.4299925391693609,-0.612915625,2.389413256835937,9.5384994140625,9.852305940610204
1.4324794827157423,-0.612915625,2.403778466796875,9.528922607421874,9.846531497895143
1.4349664262621238,-0.6177040283203125,2.4133552734375,9.528922607421874,9.84917296023719
1.4374533698085052,-0.6177040283203125,2.422932080078125,9.528922607421874,9.851523952643598
1.4399403133548867,-0.6081272216796875,2.43250888671875,9.519345800781249,9.844026751109789
1.4424272569012682,-0.6081272216796875,2.4516625,9.514557397460937,9.844149033879605
1.4449142004476498,-0.6081272216796875,2.4660277099609376,9.509768994140625,9.843110164270309
1.4474011439940313,-0.6081272216796875,2.480392919921875,9.504980590820312,9.84209448170547
1.4498880875404128,-0.5985504150390625,2.4899697265625,9.495403784179686,9.834678686319908
1.4523750310867942,-0.59376201171875,2.4947581298828125,9.504980590820312,9.844847763426692
1.4548619746331757,-0.5889736083984375,2.5139117431640625,9.524134204101562,9.867916421491689
1.4573489181795571,-0.584185205078125,2.5330653564453125,9.524134204101562,9.872528794163777
1.4598358617259388,-0.5793968017578125,2.5426421630859375,9.524134204101562,9.874708206378902
1.4623228052723203,-0.5698199951171875,2.5522189697265625,9.533711010742186,9.885856671660493
1.4648097488187017,-0.565031591796875,2.5474305664062498,9.533711010742186,9.884346656544183
1.4672966923650832,-0.5602431884765625,2.5474305664062498,9.524134204101562,9.87483707504243
1.4697836359114647,-0.5602431884765625,2.5570073730468748,9.509768994140625,9.863461129743902
1.4722705794578461,-0.5602431884765625,2.5570073730468748,9.504980590820312,9.85884451484662
1.4747575230042278,-0.55545478515625,2.5570073730468748,9.514557397460937,9.867807213041187
1.4772444665506093,-0.5506663818359374,2.5570073730468748,9.509768994140625,9.86292180298611
1.4797314100969907,-0.5506663818359374,2.5665841796874997,9.504980590820312,9.8607932666382
1.4822183536433722,-0.5410895751953124,2.5713725830078125,9.504980590820312,9.861510580073428
1.4847052971897536,-0.5410895751953124,2.5617957763671875,9.504980590820312,9.85901777866683
1.487192240736135,-0.5410895751953124,2.5617957763671875,9.5001921875,9.854401408895106
1.4896791842825168,-0.5602431884765625,2.5713725830078125,9.481038574218749,9.839508211120235
1.4921661278288982,-0.5602431884765625,2.5665841796874997,9.485826977539062,9.842872559850829
1.4946530713752797,-0.5602431884765625,2.5570073730468748,9.5001921875,9.854228063906705
1.4971400149216612,-0.5602431884765625,2.5570073730468748,9.504980590820312,9.85884451484662
1.4996269584680426,-0.55545478515625,2.5474305664062498,9.524134204101562,9.874566565006848
1.5021139020144243,-0.5458779785156249,2.5426421630859375,9.519345800781249,9.86817898154377
1.5046008455608058,-0.5506663818359374,2.5426421630859375,9.524134204101562,9.873064112590574
1.5070877891071872,-0.5506663818359374,2.5426421630859375,9.533711010742186,9.882302781737332
1.5095747326535687,-0.55545478515625,2.5378537597656248,9.543287817382812,9.890580068414424
1.5120616761999501,-0.5698199951171875,2.5378537597656248,9.533711010742186,9.882157768885227
1.5145486197463316,6.9144543945312495,14.164097021484373,10.251971508789062,18.802506317645467
1.5170355632927133,6.617573388671874,12.914323754882812,10.036493359375,17.643787420878972
1.5195225068390947,6.148309863281249,11.487379565429686,9.835380419921874,16.324714743595234
1.5220094503854762,5.549759448242187,9.94072529296875,9.65342109375,14.92670050938517
1.5244963939318577,4.860229370117187,8.327033374023436,9.485826977539062,13.525613767591388
1.5269833374782391,4.108450048828125,6.698976245117187,9.318232861328125,12.18954913826986
1.5294702810246206,3.31357509765625,5.099649536132812,9.179369165039063,11.011222620002611
1.5319572245710023,2.5139117431640625,3.5865140869140624,9.074024291992187,10.075750711471354
1.5344441681173837,1.7286135986328124,2.212242333984375,8.992621435546875,9.420687947316164
1.5369311116637652,0.97683427734375,0.9816226806640624,8.920795385742187,9.027645241527098
1.5394180552101466,0.277727392578125,-0.086191259765625,8.86812294921875,8.872889387359027
1.541904998756528,-0.354341845703125,-0.967257470703125,8.853757739257812,8.913482555304347
1.5443919423029095,-0.9097966308593749,-1.6328455322265625,8.86812294921875,9.062975178389024
1.5468788858492912,-1.388636962890625,-2.1260510742187497,8.896853369140624,9.252156811083655
1.5493658293956727,-1.7860744384765623,-2.427720483398437,8.930372192382812,9.425255229423547
1.5518527729420541,-2.0973206542968748,-2.5426421630859375,8.973467822265624,9.559649985939817
1.5543397164884356,-2.3223756103515623,-2.4851813232421875,9.030928662109375,9.650244928759902
1.556826660034817,-2.47081611328125,-2.2936451904296873,9.107543115234375,9.711492270556805
1.5593136035811985,-2.5426421630859375,-1.9776105712890624,9.165003955078124,9.714590585185473
1.5618005471275802,-2.5665841796874997,-1.5562310791015623,9.227253198242186,9.703165004649485
1.5642874906739617,-2.5234885498046875,-1.0678139404296874,9.3086560546875,9.703571436169344
1.5667744342203431,-2.427720483398437,-0.507570751953125,9.3852705078125,9.707458849697263
1.5692613777667246,-2.2936451904296873,0.0909796630859375,9.471461767578125,9.745648955989058
1.571748321313106,-2.1356278808593747,0.689530078125,9.5384994140625,9.798945312951473
1.5742352648594875,-1.9488801513671874,1.2785036865234374,9.595960253906249,9.874976390624713
1.5767222084058692,-1.7429788085937499,1.85790048828125,9.643844287109374,9.974642950280211
1.5792091519522506,-1.5322890624999999,2.403778466796875,9.682151513671874,10.093072803769525
1.581696095498632,-1.3215993164062498,2.882618798828125,9.706093530273437,10.210992484127027
1.5841830390450136,-1.120486376953125,3.308786694335937,9.730035546875,10.338140589729042
1.586669982591395,-0.9241618408203125,3.67749375,9.753977563476562,10.46509023841274
1.5891569261377765,-0.74699091796875,3.9695863525390624,9.758765966796874,10.561681894305712
1.5916438696841582,-0.584185205078125,4.180276098632812,9.749189160156249,10.62368438420217
1.5941308132305396,-0.44053310546874996,4.314351391601562,9.753977563476562,10.674632342897457
1.596617756776921,-0.3064578125,4.395754248046875,9.739612353515625,10.690024349683148
1.5991047003233025,-0.19153613281249998,4.410119458007812,9.701305126953125,10.658384534736907
1.601591643869684,-0.12449848632812499,4.352658618164062,9.677363110351562,10.611903396138185
1.6040785874160655,-0.08140285644531249,4.2521021484374995,9.662997900390625,10.557486799837255
1.6065655309624471,-0.047884033203124995,4.11802685546875,9.619902270507811,10.464366094375663
1.6090524745088286,-0.033518823242187495,3.9504327392578125,9.586383447265625,10.368499888456377
1.61153941805521,-0.0383072265625,3.758896606445312,9.567229833984374,10.279234302117725
1.6140263616015915,-0.0383072265625,3.5529952636718747,9.548076220703125,10.187786918837581
1.616513305147973,-0.062249243164062495,3.3327287109375,9.533711010742186,10.099633719364698
1.6190002486943544,-0.1005564697265625,3.1076737548828124,9.504980590820312,10.000620170882511
1.6214871922407361,-0.1484405029296875,2.882618798828125,9.485826977539062,9.915262940037202
1.6239741357871176,-0.21068974609375,2.6815058593749996,9.471461767578125,9.845986586303358
1.626461079333499,-0.26336218261718747,2.4947581298828125,9.4618849609375,9.788791793672216
1.6289480228798805,-0.3064578125,2.3223756103515623,9.457096557617186,9.742895881948698
1.631434966426262,-0.3495534423828125,2.1787235107421874,9.457096557617186,9.71111214256314
1.6339219099726436,-0.4070142822265625,2.0638018310546875,9.457096557617186,9.688220369288464
1.636408853519025,-0.4644751220703125,1.9680337646484374,9.447519750976562,9.661496958696969
1.6388957970654066,-0.507570751953125,1.9009961181640624,9.452308154296874,9.654923290907094
1.641382740611788,-0.5602431884765625,1.867477294921875,9.452308154296874,9.651293867718994
1.6438696841581695,-0.603338818359375,1.848323681640625,9.457096557617186,9.654894792898972
1.646356627704551,8.499415893554687,12.114660400390624,10.357316381835936,18.063196554924872
1.6488435712509326,8.298302954101562,11.166556542968749,10.122684619140625,17.20530618280172
1.651330514797314,7.867346655273437,9.95987890625,9.90241806640625,16.09820532802631
1.6538174583436955,7.235277416992187,8.571241943359375,9.706093530273437,14.833195184142088
1.656304401890077,6.459556079101562,7.058106494140625,9.504980590820312,13.486563241002463
1.6587913454364585,5.5545478515625,5.487510205078125,9.332598071289063,12.168120514128814
1.66127828898284,4.5585599609375,3.9360675292968748,9.179369165039063,10.97879386730244
1.6637652325292216,3.5290532470703124,2.437297290039062,9.030928662109375,9.997615085649072
1.666252176075603,2.4899697265625,1.0534487304687499,8.9255837890625,9.326078996153703
1.6687391196219845,1.455674609375,-0.17238251953125,8.8489693359375,8.969557548161513
1.671226063168366,0.4740519287109375,-1.216254443359375,8.786720092773438,8.883155412963033
1.6737130067147474,-0.44053310546874996,-2.0446482177734375,8.748412866210938,8.994964337291345
1.676199950261129,-1.2689268798828124,-2.6431986328124997,8.734047656249999,9.21304851287765
1.6786868938075106,-1.9967641845703124,-3.0071172851562498,8.734047656249999,9.450577233011447
1.681173837353892,-2.6096798095703124,-3.1364041748046874,8.762778076171875,9.666112945152756
1.6836607809002735,-3.0933085449218747,-3.0502129150390624,8.815450512695312,9.827742585300951
1.686147724446655,-3.4668040039062498,-2.77727392578125,8.896853369140624,9.944143016485315
1.6886346679930364,-3.7301661865234372,-2.3367408203125,8.992621435546875,10.012079590347584
1.6911216115394179,-3.8690298828125,-1.7429788085937499,9.0788126953125,10.02158706582298
1.6936085550857995,-3.892971899414062,-1.0342951171875,9.1554271484375,10.002341869253012
1.696095498632181,-3.835511059570312,-0.26336218261718747,9.246406811523437,10.013817636221766
1.6985824421785625,-3.6918589599609373,0.55545478515625,9.332598071289063,10.051653563410607
1.701069385724944,-3.4715924072265625,1.407790576171875,9.399635717773437,10.118645155114079
1.7035563292713254,-3.1842882080078123,2.2361843505859373,9.476250170898437,10.243999665312163
1.7060432728177068,-2.858676782226562,2.9927520751953125,9.548076220703125,10.406457487790144
1.7085302163640885,-2.50912333984375,3.6822821533203123,9.6151138671875,10.597420274302198
1.71101715991047,-2.1212626708984375,4.285620971679688,9.667786303710937,10.785749600564102
1.7135041034568514,-1.7381904052734374,4.76924970703125,9.720458740234374,10.966055205660837
1.715991047003233,-1.3551181396484375,5.137956762695312,9.777919580078125,11.128461537077166
1.7184779905496144,-0.9816226806640624,5.386953735351562,9.797073193359374,11.223435159970101
1.7209649340959958,-0.6416460449218749,5.516240625,9.792284790039062,11.257418073834454
1.7234518776423775,-0.33039982910156246,5.5258174316406246,9.792284790039062,11.248673866021901
1.725938821188759,-0.05746083984375,5.415684155273437,9.792284790039062,11.19025370699993
1.7284257647351404,6.904877587890625,12.856862915039061,10.678139404296875,18.083111448460926
1.7309127082815219,7.053318090820312,11.942277880859374,10.433930834960936,17.356100072962956
1.7333996518279033,7.005434057617187,10.82179150390625,10.180145458984374,16.426278922985585
1.7358865953742848,6.7803791015625,9.562441430664062,9.94072529296875,15.369835595283858
1.7383735389206665,6.402095239257812,8.207323291015625,9.720458740234374,14.241990632505482
1.740860482467048,5.875370874023437,6.785167504882812,9.495403784179686,13.066031302627989
1.7433474260134294,5.228936425781249,5.353434912109375,9.294290844726563,11.932513725507357
1.7458343695598109,4.486733911132812,3.9743747558593747,9.126696728515624,10.91892984974348
1.7483213131061923,3.67749375,2.6479870361328124,8.98304462890625,10.06135609297961
1.7508082566525738,2.834734765625,1.43652099609375,8.86812294921875,9.420345981232401
1.7532952001989555,1.9823989746093749,0.37828386230468747,8.786720092773438,9.015511874750146
1.755782143745337,1.1348515869140625,-0.5410895751953124,8.734047656249999,8.824072444985507
1.7582690872917184,0.316034619140625,-1.2832920898437499,8.719682446289061,8.819273123816526
1.7607560308380998,-0.45968671875,-1.838746875,8.729259252929687,8.932651848951462
1.7632429743844813,-1.1875240234375,-2.2266075439453124,8.767566479492187,9.123498037118788
1.765729917930863,-1.8339584716796873,-2.437297290039062,8.796296899414061,9.310137533813283
1.7682168614772444,-2.384624853515625,-2.480392919921875,8.8489693359375,9.494369017347342
1.770703805023626,-2.858676782226562,-2.360682836914062,8.9255837890625,9.664931576442594
1.7731907485700074,-3.2321722412109373,-2.1068974609374997,9.0021982421875,9.794157824918033
1.7756776921163888,-3.5098996337890624,-1.7334020019531249,9.088389501953124,9.895600117166186
1.7781646356627703,-3.6918589599609373,-1.2689268798828124,9.188945971679686,9.983823219447615
1.780651579209152,-3.778050219726562,-0.7278373046875,9.279925634765624,10.045916105146949
1.7831385227555334,-3.782838623046875,-0.1292868896484375,9.366116894531249,10.102016077490365
1.7856254663019149,-3.706224169921875,0.4836287353515625,9.457096557617186,10.168907003777036
1.7881124098482963,-3.5577836669921874,1.1013327636718748,9.543287817382812,10.244271611142526
1.7905993533946778,-3.35188232421875,1.7094599853515624,9.629479077148437,10.338483247274127
1.7930862969410593,-3.0933085449218747,2.2649147705078123,9.6917283203125,10.42247545003098
1.795573240487441,-2.786850732421875,2.7964275390625,9.730035546875,10.500482642692123
1.7980601840338224,-2.4516625,3.27526787109375,9.7683427734375,10.590493339816321
1.8005471275802039,-2.0973206542968748,3.687070556640625,9.801861596679688,10.6803433454665
1.8030340711265853,-1.7429788085937499,4.0222587890625,9.821015209960937,10.75494679892381
1.8055210146729668,-1.388636962890625,4.290409374999999,9.830592016601562,10.815565848196032
1.8080079582193482,-1.0342951171875,4.4819455078125,9.82580361328125,10.849148287824692
1.81049490176573,-0.7038952880859375,4.582501977539062,9.811438403320311,10.851687264793785
1.8129818453121114,-0.40222587890625,4.61602080078125,9.773131176757811,10.815892320517184
1.8154687888584928,-0.1197100830078125,4.582501977539062,9.734823950195311,10.760132537260839
1.8179557324048743,0.1292868896484375,4.486733911132812,9.710881933593749,10.698071051238236
1.8204426759512558,0.33518823242187495,4.3430818115234375,9.682151513671874,10.616909564766875
1.8229296194976372,0.507570751953125,4.161122485351562,9.639055883789062,10.511135368605295
1.825416563044019,0.6464344482421874,3.9504327392578125,9.605537060546874,10.406254779929888
1.8279035065904004,0.7278373046875,3.7110125732421873,9.567229833984374,10.287528768228892
1.8303904501367818,0.7709329345703124,3.4620156005859375,9.524134204101562,10.163120679498148
1.8328773936831633,0.7852981445312499,3.208230224609375,9.504980590820312,10.06250914940067
1.8353643372295447,0.7661445312499999,2.959233251953125,9.485826977539062,9.96619046225975
1.8378512807759262,0.7134720947265625,2.7341782958984373,9.4618849609375,9.874818499482956
1.8403382243223079,0.63206923828125,2.5234885498046875,9.442731347656249,9.794523024986301
1.8428251678686893,0.5267243652343749,2.31758720703125,9.447519750976562,9.741882696081836
1.8453121114150708,0.40222587890625,2.1499930908203124,9.447519750976562,9.697416428788095
1.8477990549614522,0.26815058593749996,2.01112939453125,9.433154541015625,9.648883395138007
1.8502859985078337,0.12449848632812499,1.89620771484375,9.423577734375,9.613267960830969
1.8527729420542152,-0.0143652099609375,1.8195932617187498,9.418789331054686,9.592951498894335
1.8552598856005968,-0.16759411621093748,1.7717092285156248,9.423577734375,9.590143830725596
1.8577468291469783,-0.32082302246093747,1.7477672119140624,9.433154541015625,9.599063612325242
1.8602337726933598,-0.4644751220703125,1.7477672119140624,9.428366137695312,9.600235173812342
1.8627207162397412,-0.5985504150390625,1.7764976318359373,9.433154541015625,9.61761982144989
1.8652076597861227,-0.718260498046875,1.8243816650390623,9.442731347656249,9.644140288630979
1.8676946033325041,-0.8188169677734375,1.8818425048828125,9.452308154296874,9.672534408503518
1.8701815468788858,-0.9097966308593749,1.9584569580078124,9.447519750976562,9.691177070458703
1.8726684904252673,-0.9911994873046874,2.0350714111328125,9.457096557617186,9.724230939880952
1.8751554339716487,-1.0582371337890624,2.1308394775390624,9.490615380859374,9.784279381629164
1.8776423775180302,-1.0917559570312498,2.2170307373046874,9.490615380859374,9.807086043635566
1.8801293210644117,-1.1061211669921875,2.2936451904296873,9.495403784179686,9.830920878547609
1.8826162646107931,-1.13006318359375,2.375048046875,9.519345800781249,9.876023516513637
1.8851032081571748,-1.1252747802734375,2.4564509033203126,9.533711010742186,9.909189674634824
1.8875901517035563,-1.1013327636718748,2.5330653564453125,9.548076220703125,9.93957310314266
1.8900770952499377,-1.0773907470703123,2.6001030029296874,9.572018237304688,9.977216023671646
1.8925640387963192,-1.0390835205078124,2.6479870361328124,9.586383447265625,9.999513863389895
1.8950509823427006,-0.9816226806640624,2.6910826660156246,9.586383447265625,10.005211472054564
1.897537925889082,-0.928950244140625,2.7246014892578123,9.572018237304688,9.995495733911769
1.9000248694354638,-0.8667010009765624,2.7437551025390623,9.557653027343749,9.981387382468233
1.9025118129818452,-0.7948749511718749,2.7581203125,9.552864624023437,9.974782021234551
1.9049987565282267,-0.737414111328125,2.7533319091796873,9.548076220703125,9.964455614334854
1.9074857000746082,-0.679953271484375,2.7533319091796873,9.5384994140625,9.951188076083177
1.9099726436209896,-0.6177040283203125,2.7437551025390623,9.524134204101562,9.930704036826874
1.9124595871673713,-0.5602431884765625,2.7246014892578123,9.519345800781249,9.917422557315579
1.9149465307137528,-0.507570751953125,2.70065947265625,9.514557397460937,9.903433350362128
1.9174334742601342,-0.45968671875,2.6767174560546874,9.5001921875,9.8807783002342
1.9199204178065157,-0.4213794921875,2.6527754394531247,9.519345800781249,9.891042547853766
1.9224073613528971,-0.38307226562499996,2.6192566162109374,9.524134204101562,9.88515968105691
1.9248943048992786,-0.3591302490234375,2.6048914062499997,9.509768994140625,9.866617459698999
1.9273812484456603,-0.3399766357421875,2.5905261962890624,9.509768994140625,9.862155768817933
1.9298681919920417,-0.3447650390625,2.5617957763671875,9.504980590820312,9.85019373230006
1.9323551355384232,-0.33518823242187495,2.5426421630859375,9.504980590820312,9.844899001641778
1.9348420790848047,-0.33039982910156246,2.5330653564453125,9.490615380859374,9.828395823047538
1.9373290226311861,-0.3399766357421875,2.5139117431640625,9.504980590820312,9.837682267543489
1.9398159661775676,-0.33518823242187495,2.50912333984375,9.528922607421874,9.859432901741279
1.9423029097239493,-0.3447650390625,2.5043349365234375,9.528922607421874,9.85854565667205
1.9447898532703307,-0.3687070556640625,2.5043349365234375,9.519345800781249,9.850156488200577
1.9472767968167122,-0.39264907226562495,2.518700146484375,9.524134204101562,9.859368948344958
1.9497637403630936,-0.4165910888671875,2.5043349365234375,9.524134204101562,9.856691835872352
1.952250683909475,-0.44053310546874996,2.499546533203125,9.514557397460937,9.847263820891586
1.9547376274558566,-0.4644751220703125,2.499546533203125,9.519345800781249,9.852990129170006
1.9572245710022382,-0.488417138671875,2.4947581298828125,9.528922607421874,9.862187155301836
1.9597115145486197,-0.51714755859375,2.50912333984375,9.533711010742186,9.871919122858277
1.9621984580950012,-0.5315127685546874,2.5139117431640625,9.528922607421874,9.869276778659646
1.9646854016413826,-0.55545478515625,2.50912333984375,9.5384994140625,9.8786234377555
1.967172345187764,-0.5889736083984375,2.5139117431640625,9.5384994140625,9.881781885666102
1.9696592887341455,-0.6081272216796875,2.5139117431640625,9.533711010742186,9.87832053572432
1.9721462322805272,-0.622492431640625,2.5139117431640625,9.5384994140625,9.883836307423282
1.9746331758269087,-0.6368576416015624,2.50912333984375,9.533711010742186,9.878913565092153
1.9771201193732901,-0.6512228515624999,2.5043349365234375,9.524134204101562,9.869392940522044
1.9796070629196716,-0.6560112548828124,2.499546533203125,9.519345800781249,9.86387490355754
1.982094006466053,-0.6607996582031249,2.4947581298828125,9.519345800781249,9.862982246245268
1.9845809500124345,-0.679953271484375,2.4899697265625,9.524134204101562,9.867695679759146
1.9870678935588162,-0.679953271484375,2.4947581298828125,9.524134204101562,9.868905051511843
1.9895548371051976,-0.6703764648437499,2.499546533203125,9.524134204101562,9.86946147537957
1.992041780651579,-0.6655880615234374,2.4899697265625,9.509768994140625,9.852850502710302
1.9945287241979606,-0.6607996582031249,2.4899697265625,9.5001921875,9.843284869743187
1.997015667744342,-0.6512228515624999,2.4947581298828125,9.495403784179686,9.839237894960538
1.9995026112907235,-0.63206923828125,2.499546533203125,9.490615380859374,9.834583097469547
2.001989554837105,-0.6177040283203125,2.499546533203125,9.485826977539062,9.829049017380001
2.0044764983834864,-0.6081272216796875,2.5043349365234375,9.476250170898437,9.820429190900589
2.006963441929868,-0.5889736083984375,2.5139117431640625,9.476250170898437,9.821708581772354
2.0094503854762498,-0.5746083984375,2.5139117431640625,9.481038574218749,9.825478080470027
2.011937329022631,-0.565031591796875,2.50912333984375,9.481038574218749,9.823698543832718
2.0144242725690127,-0.55545478515625,2.5043349365234375,9.495403784179686,9.835797706198452
2.016911216115394,-0.55545478515625,2.5139117431640625,9.509768994140625,9.85210579483846
2.0193981596617756,-0.5506663818359374,2.5234885498046875,9.519345800781249,9.863527381212629
2.021885103208157,-0.5267243652343749,2.5139117431640625,9.5384994140625,9.878267149729266
2.0243720467545385,-0.5219359619140624,2.528276953125,9.552864624023437,9.895545665851916
2.02685899030092,-0.5219359619140624,2.5330653564453125,9.552864624023437,9.89677016876117
2.0293459338473014,-0.51714755859375,2.5330653564453125,9.548076220703125,9.891896744999887
2.031832877393683,-0.507570751953125,2.5378537597656248,9.548076220703125,9.892628027503674
2.0343198209400644,-0.49799394531249996,2.5474305664062498,9.533711010742186,9.880741171419054
2.036806764486446,-0.49320554199218747,2.5522189697265625,9.524134204101562,9.872497440557845
2.0392937080328277,-0.49320554199218747,2.5474305664062498,9.528922607421874,9.87588073315734
2.041780651579209,-0.5027823486328125,2.5426421630859375,9.533711010742186,9.87975024461377
2.0442675951255906,-0.5027823486328125,2.5570073730468748,9.543287817382812,9.892695242517076
2.046754538671972,-0.5027823486328125,2.5522189697265625,9.552864624023437,9.900698676580724
2.0492414822183536,-0.5123591552734374,2.5474305664062498,9.552864624023437,9.899956409983421
2.0517284257647352,-0.5315127685546874,2.5570073730468748,9.552864624023437,9.903434507981117
2.0542153693111165,-0.5410895751953124,2.5570073730468748,9.5384994140625,9.890097861309147
2.056702312857498,-0.5506663818359374,2.5522189697265625,9.528922607421874,9.880152893136426
2.0591892564038794,-0.55545478515625,2.5809493896484375,9.519345800781249,9.878652450872599
2.061676199950261,-0.565031591796875,2.5761609863281247,9.524134204101562,9.882560319317303
2.0641631434966423,-0.5746083984375,2.5713725830078125,9.528922607421874,9.886480558340004
2.066650087043024,-0.584185205078125,2.5809493896484375,9.528922607421874,9.88953680229739
2.0691370305894057,-0.5889736083984375,2.5761609863281247,9.5384994140625,9.897801089683487
2.071623974135787,-0.5985504150390625,2.5570073730468748,9.543287817382812,9.898024634772673
2.0741109176821686,-0.603338818359375,2.5522189697265625,9.548076220703125,9.901696769520257
2.07659786122855,-0.603338818359375,2.5378537597656248,9.552864624023437,9.902622983867166
2.0790848047749315,-0.612915625,2.5330653564453125,9.552864624023437,9.90198506302201
2.081571748321313,-0.612915625,2.5330653564453125,9.552864624023437,9.90198506302201
2.0840586918676944,-0.5985504150390625,2.528276953125,9.533711010742186,9.881401347349133
2.086545635414076,-0.5889736083984375,2.5139117431640625,9.519345800781249,9.863294917960207
2.0890325789604574,-0.59376201171875,2.50912333984375,9.524134204101562,9.866984625448964
2.091519522506839,-0.5985504150390625,2.499546533203125,9.509768994140625,9.850974662078347
2.0940064660532203,9.34696328125,8.935160595703124,10.328585961914062,16.549395923256228
2.096493409599602,9.184157568359375,8.087613208007811,10.065223779296874,15.845092848264361
2.0989803531459836,8.729259252929687,7.149086157226562,9.787496386718749,14.93668254694929
2.101467296692365,8.030152368164062,6.1626750732421876,9.514557397460937,13.892037776506013
2.1039542402387466,7.115567333984375,5.166687182617188,9.265560424804686,12.774058278917982
2.106441183785128,6.0525417968749995,4.1946413085937495,9.054870678710937,11.671287886041497
2.1089281273315095,4.879382983398437,3.294421484375,8.877699755859375,10.652471270582025
2.111415070877891,3.6343981201171873,2.4851813232421875,8.734047656249999,9.781030843758199
2.1139020144242724,2.3511060302734372,1.7860744384765623,8.628702783203124,9.119883397622187
2.116388957970654,1.0821791503906248,1.2018892333984375,8.571241943359375,8.722490349349906
2.1188759015170353,-0.1197100830078125,0.74699091796875,8.547299926757812,8.58071453746456
2.121362845063417,-1.24498486328125,0.4165910888671875,8.547299926757812,8.647535572813625
2.1238497886097982,-2.2553379638671873,0.2059013427734375,8.585607153320312,8.879278962019463
2.12633673215618,-3.1411925781249996,0.1197100830078125,8.671798413085938,9.223963846093561
2.1288236757025616,-3.8690298828125,0.1197100830078125,8.767566479492187,9.584046364160853
2.131310619248943,-4.429273071289062,0.21068974609375,8.877699755859375,9.923527752988909
2.1337975627953245,-4.8314989501953125,0.38307226562499996,9.0021982421875,10.223976704691438
2.1362845063417057,-5.0757075195312495,0.6177040283203125,9.13627353515625,10.469759271331203
2.1387714498880874,-5.157110375976562,0.8906430175781249,9.275137231445312,10.649751315261252
2.141258393434469,-5.085284326171875,1.177947216796875,9.404424121093749,10.755969011343366
2.1437453369808503,-4.88417138671875,1.484405029296875,9.5384994140625,10.818574744295788
2.146232280527232,-4.57771357421875,1.7956512451171873,9.658209497070311,10.837935027069348
2.1487192240736133,-4.165910888671875,2.0877438476562498,9.758765966796874,10.814203673895472
2.151206167619995,-3.67749375,2.360682836914062,9.835380419921874,10.762503971770336
2.153693111166376,-3.1411925781249996,2.6096798095703124,9.911994873046874,10.720315381771846
2.156180054712758,-2.5665841796874997,2.8203695556640622,9.988609326171874,10.691779788829669
2.1586669982591395,-1.9728221679687499,2.9927520751953125,10.041281762695311,10.661891564251261
2.161153941805521,-1.3838485595703125,3.1316157714843746,10.050858569335936,10.617994733320794
2.1636408853519025,-0.814028564453125,3.2321722412109373,10.036493359375,10.575480076733093
2.1661278288982837,-0.28730419921875,3.284844677734375,10.01733974609375,10.546081919291078
2.1686147724446654,0.181959326171875,3.31357509765625,9.955090502929687,10.493651225655892
2.171101715991047,0.603338818359375,3.318363500976562,9.878476049804688,10.438383166032828
2.1735886595374283,0.9528922607421875,3.284844677734375,9.801861596679688,10.381459385745641
2.17607560308381,1.2210428466796874,3.2321722412109373,9.734823950195311,10.329795756527735
2.178562546630191,1.4173673828125,3.1651345947265623,9.677363110351562,10.279998252440945
2.181049490176573,1.5418658691406248,3.0837317382812497,9.624690673828125,10.223571898264224
2.1835364337229546,1.5849614990234373,2.9831752685546875,9.562441430664062,10.141583887696415
2.186023377269336,1.5610194824218748,2.882618798828125,9.5001921875,10.04987186800379
2.1885103208157175,1.484405029296875,2.7820623291015623,9.457096557617186,9.968952020854685
2.1909972643620987,1.3359645263671873,2.6862942626953124,9.414000927734374,9.880505632248024
2.1934842079084804,1.149216796875,2.5953145996093747,9.370905297851563,9.791334087777196
2.1959711514548617,0.9337386474609375,2.5139117431640625,9.342174877929686,9.719457369832993
2.1984580950012433,0.679953271484375,2.43250888671875,9.327809667968749,9.663719218666241
2.200945038547625,0.4070142822265625,2.370259643554687,9.313444458007812,9.618941681713057
2.2034319820940063,0.13407529296874998,2.3319524169921872,9.313444458007812,9.60188658190133
2.205918925640388,-0.1388636962890625,2.2840683837890623,9.3086560546875,9.585787868111943
2.208405869186769,-0.4070142822265625,2.2553379638671873,9.303867651367186,9.58197073838956
2.210892812733151,-0.6560112548828124,2.2601263671875,9.318232861328125,9.610826479555461
2.2133797562795325,-0.8762778076171874,2.2601263671875,9.318232861328125,9.628369418012268
2.2158666998259138,-1.0726023437499999,2.2649147705078123,9.337386474609374,9.667838480327468
2.2183536433722955,-1.24498486328125,2.27927998046875,9.366116894531249,9.71952932096965
2.2208405869186767,-1.3742717529296875,2.3032219970703123,9.394847314453125,9.77018988968874
2.2233275304650584,-1.465251416015625,2.327164013671875,9.437942944335937,9.830433412581852
2.2258144740114396,-1.5275006591796874,2.3511060302734372,9.481038574218749,9.886913081200136
2.2283014175578213,-1.5562310791015623,2.379836450195312,9.519345800781249,9.934959545770251
2.230788361104203,-1.5466542724609373,2.403778466796875,9.552864624023437,9.971334558667483
2.233275304650584,-1.5083470458984374,2.427720483398437,9.586383447265625,10.003383685253269
2.235762248196966,-1.4508862060546874,2.4516625,9.610325463867188,10.023675738883421
2.238249191743347,-1.3646949462890625,2.4660277099609376,9.624690673828125,10.028876085065374
2.240736135289729,-1.2593500732421874,2.480392919921875,9.634267480468749,10.027832344499549
2.2432230788361105,-1.1540052001953125,2.499546533203125,9.643844287109374,10.029117284573838
2.2457100223824917,-1.0295067138671874,2.528276953125,9.639055883789062,10.018156854252641
2.2481969659288734,-0.9050082275390624,2.5474305664062498,9.634267480468749,10.00637558098795
2.2506839094752547,-0.7757213378906249,2.5665841796874997,9.634267480468749,10.000410383114216
2.2531708530216363,-0.6464344482421874,2.5857377929687497,9.624690673828125,9.986920846624107
2.2556577965680176,-0.5363011718749999,2.5857377929687497,9.605537060546874,9.961927579664534
2.2581447401143993,-0.430956298828125,2.5953145996093747,9.586383447265625,9.940831393824844
2.260631683660781,-0.33518823242187495,2.6001030029296874,9.572018237304688,9.9245362567876
2.263118627207162,-0.2537853759765625,2.5905261962890624,9.557653027343749,9.905754104651123
2.265605570753544,-0.19153613281249998,2.6001030029296874,9.557653027343749,9.906863939063152
2.268092514299925,-0.15322890625,2.6048914062499997,9.543287817382812,9.893597965425565
2.2705794578463068,-0.1292868896484375,2.5905261962890624,9.519345800781249,9.866381583353972
2.2730664013926885,-0.1149216796875,2.5665841796874997,9.495403784179686,9.836831520794602
2.2755533449390697,-0.1292868896484375,2.5570073730468748,9.490615380859374,9.829892273725871
2.2780402884854514,-0.143652099609375,2.5522189697265625,9.490615380859374,9.828847231621765
2.2805272320318326,-0.17238251953125,2.5426421630859375,9.481038574218749,9.817577977707442
2.2830141755782143,-0.2154781494140625,2.5426421630859375,9.471461767578125,9.809181822000824
2.2855011191245955,-0.26336218261718747,2.5426421630859375,9.4618849609375,9.801104826638193
2.287988062670977,-0.316034619140625,2.5378537597656248,9.466673364257812,9.806043247508152
2.290475006217359,-0.37828386230468747,2.5330653564453125,9.4618849609375,9.802386739693493
2.29296194976374,-0.430956298828125,2.528276953125,9.452308154296874,9.794081739856464
2.295448893310122,-0.49320554199218747,2.518700146484375,9.466673364257812,9.808415097257075
2.297935836856503,-0.5458779785156249,2.518700146484375,9.471461767578125,9.815825039701087
2.3004227804028847,-0.5985504150390625,2.5234885498046875,9.490615380859374,9.83859936005849
2.3029097239492664,-0.6464344482421874,2.5378537597656248,9.514557397460937,9.868403197651043
2.3053966674956476,-0.6847416748046875,2.5330653564453125,9.524134204101562,9.878988996804027
2.3078836110420293,-0.718260498046875,2.5234885498046875,9.524134204101562,9.878918207060286
2.3103705545884106,-0.7422025146484375,2.5330653564453125,9.519345800781249,9.878523631981931
2.3128574981347922,-0.7613561279296874,2.5426421630859375,9.519345800781249,9.882440831995405
2.315344441681174,-0.7757213378906249,2.5378537597656248,9.519345800781249,9.882327143687712
2.317831385227555,-0.7757213378906249,2.5378537597656248,9.524134204101562,9.886939750891205
2.320318328773937,-0.7709329345703124,2.5378537597656248,9.528922607421874,9.891178158025333
2.322805272320318,-0.7661445312499999,2.5330653564453125,9.533711010742186,9.894192396508897
2.3252922158666998,-0.7565677246093749,2.5330653564453125,9.533711010742186,9.893455435705507
2.327779159413081,-0.7278373046875,2.528276953125,9.5384994140625,9.894690625071027
2.3302661029594627,-0.6943184814453125,2.5234885498046875,9.533711010742186,9.886441131722712
2.3327530465058444,-0.6703764648437499,2.528276953125,9.528922607421874,9.881394386145871
2.3352399900522256,-0.6512228515624999,2.518700146484375,9.533711010742186,9.882286540403713
2.3377269335986073,-0.6272808349609375,2.518700146484375,9.524134204101562,9.871497556680396
2.3402138771449885,-0.5985504150390625,2.5234885498046875,9.509768994140625,9.85707681730528
2.34270082069137,-0.565031591796875,2.5234885498046875,9.509768994140625,9.85509824824909
2.345187764237752,-0.5363011718749999,2.5234885498046875,9.524134204101562,9.86735758679532
2.347674707784133,-0.5123591552734374,2.5234885498046875,9.533711010742186,9.87533047555041
2.350161651330515,-0.488417138671875,2.528276953125,9.5384994140625,9.879964915176679
2.352648594876896,-0.4740519287109375,2.5234885498046875,9.543287817382812,9.882664724532402
2.3551355384232777,-0.4644751220703125,2.5234885498046875,9.524134204101562,9.86371451015057
2.357622481969659,-0.45489831542968745,2.528276953125,9.519345800781249,9.85987126203661
2.3601094255160406,-0.45010991210937495,2.528276953125,9.519345800781249,9.859651502945413
2.3625963690624223,-0.45010991210937495,2.528276953125,9.514557397460937,9.855028450200475
2.3650833126088036,-0.44053310546874996,2.5378537597656248,9.514557397460937,9.857057045211269
2.3675702561551852,-0.44532150878906246,2.5378537597656248,9.519345800781249,9.861894210900779
2.3700571997015665,-0.45489831542968745,2.5330653564453125,9.504980590820312,9.847233551067784
2.372544143247948,-0.4644751220703125,2.5426421630859375,9.504980590820312,9.850148341035043
2.37503108679433,-0.4836287353515625,2.5426421630859375,9.528922607421874,9.874172977085006
2.377518030340711,-0.5027823486328125,2.5330653564453125,9.528922607421874,9.872668142318764
2.3800049738870928,-0.5123591552734374,2.5378537597656248,9.528922607421874,9.874390090946616
2.382491917433474,-0.5219359619140624,2.528276953125,9.524134204101562,9.867813022031756
2.3849788609798557,-0.5363011718749999,2.518700146484375,9.519345800781249,9.86151174261363
2.387465804526237,-0.565031591796875,2.5234885498046875,9.528922607421874,9.873581985224996
2.3899527480726186,-0.5698199951171875,2.518700146484375,9.524134204101562,9.86801284922517
2.3924396916190003,-0.5746083984375,2.518700146484375,9.509768994140625,9.854427003198802
2.3949266351653815,-0.59376201171875,2.5139117431640625,9.509768994140625,9.854339749617774
2.397413578711763,-0.603338818359375,2.5043349365234375,9.528922607421874,9.870971444709323
2.3999005222581444,-0.603338818359375,2.499546533203125,9.533711010742186,9.874380802750816
2.402387465804526,-0.612915625,2.499546533203125,9.528922607421874,9.870347739226444
2.404874409350908,-0.612915625,2.499546533203125,9.524134204101562,9.86572505053502
2.407361352897289,-0.6177040283203125,2.5043349365234375,9.519345800781249,9.862616093904629
2.4098482964436707,-0.6177040283203125,2.50912333984375,9.514557397460937,9.859211970067914
2.412335239990052,-0.6081272216796875,2.5043349365234375,9.5001921875,9.843534110850419
2.4148221835364336,-0.5985504150390625,2.5043349365234375,9.5001921875,9.842947103031252
2.417309127082815,-0.59376201171875,2.499546533203125,9.509768994140625,9.850684875688922
2.4197960706291965,-0.59376201171875,2.4947581298828125,9.514557397460937,9.854094272065563
2.4222830141755782,-0.584185205078125,2.4899697265625,9.519345800781249,9.856934922575146
2.4247699577219595,-0.5698199951171875,2.5043349365234375,9.533711010742186,9.873602885344033
2.427256901268341,-0.5698199951171875,2.50912333984375,9.543287817382812,9.884064807901211
2.4297438448147224,-0.5698199951171875,2.5043349365234375,9.548076220703125,9.887474289093433
2.432230788361104,-0.5602431884765625,2.5043349365234375,9.543287817382812,9.882302781737332
2.4347177319074857,-0.5506663818359374,2.5043349365234375,9.5384994140625,9.877140173676123
2.437204675453867,-0.5458779785156249,2.50912333984375,9.543287817382812,9.882713446588651
2.4396916190002487,-0.55545478515625,2.50912333984375,9.5384994140625,9.8786234377555
2.44217856254663,-0.5410895751953124,2.5043349365234375,9.5384994140625,9.876610879990542
2.4446655060930116,-0.5315127685546874,2.5139117431640625,9.528922607421874,9.869276778659646
2.4471524496393933,-0.55545478515625,2.5139117431640625,9.524134204101562,9.865972562728341
2.4496393931857745,-0.5602431884765625,2.5139117431640625,9.524134204101562,9.866243308391997
2.452126336732156,-0.565031591796875,2.518700146484375,9.504980590820312,9.849252111683393
2.4546132802785374,-0.565031591796875,2.5139117431640625,9.490615380859374,9.834164593881434
2.457100223824919,-0.55545478515625,2.5139117431640625,9.5001921875,9.842862077170805
2.4595871673713003,-0.55545478515625,2.50912333984375,9.490615380859374,9.832395957258138
2.462074110917682,-0.565031591796875,2.5043349365234375,9.485826977539062,9.82709863702549
2.4645610544640637,-0.5698199951171875,2.5043349365234375,9.485826977539062,9.827375119986774
2.467047998010445,-0.5698199951171875,2.499546533203125,9.485826977539062,9.826155969975796
2.4695349415568266,-0.5746083984375,2.50912333984375,9.504980590820312,9.847361615071033
2.472021885103208,-0.5746083984375,2.50912333984375,9.519345800781249,9.861228078741267
2.4745088286495895,-0.5793968017578125,2.5043349365234375,9.533711010742186,9.874160205532712
2.4769957721959712,-0.584185205078125,2.518700146484375,9.528922607421874,9.87347400057185
2.4794827157423525,-0.584185205078125,2.518700146484375,9.528922607421874,9.87347400057185
2.481969659288734,-0.5746083984375,2.518700146484375,9.543287817382812,9.886777412527426
2.4844566028351154,-0.5602431884765625,2.5330653564453125,9.533711010742186,9.88038147879952
2.486943546381497,-0.5602431884765625,2.5378537597656248,9.552864624023437,9.900090740044222
2.4894304899278783,-0.5698199951171875,2.5330653564453125,9.567229833984374,9.913274011301183
2.49191743347426,-0.5698199951171875,2.5378537597656248,9.552864624023437,9.900637305633932
2.4944043770206417,-0.565031591796875,2.5474305664062498,9.548076220703125,9.898203003916715
2.496891320567023,-0.565031591796875,2.5426421630859375,9.543287817382812,9.892352209390749
2.4993782641134046,-0.5602431884765625,2.5474305664062498,9.528922607421874,9.879455500134151
2.501865207659786,-0.5698199951171875,2.5617957763671875,9.509768994140625,9.865252087431244
2.5043521512061675,-0.5698199951171875,2.5617957763671875,9.504980590820312,9.860636311035863
2.506839094752549,-0.5602431884765625,2.5617957763671875,9.495403784179686,9.850855955431541
2.5093260382989304,-0.565031591796875,2.5665841796874997,9.481038574218749,9.838531775472118
2.511812981845312,-0.565031591796875,2.5665841796874997,9.476250170898437,9.83391744690809
2.5142999253916933,-0.565031591796875,2.5617957763671875,9.4618849609375,9.81882504750729
2.516786868938075,-0.565031591796875,2.5665841796874997,9.476250170898437,9.83391744690809
2.5192738124844563,-0.5602431884765625,2.5665841796874997,9.481038574218749,9.838257936620712
2.521760756030838,-0.55545478515625,2.5570073730468748,9.481038574218749,9.835492319655023
2.5242476995772196,-0.55545478515625,2.5522189697265625,9.504980590820312,9.857332687885497
2.526734643123601,-0.5506663818359374,2.5474305664062498,9.524134204101562,9.874298369630242
2.5292215866699825,-0.5458779785156249,2.5426421630859375,9.533711010742186,9.882037116570523
2.5317085302163638,-0.5458779785156249,2.5426421630859375,9.528922607421874,9.877417577239829
2.5341954737627455,-0.5458779785156249,2.5378537597656248,9.519345800781249,9.866946282829172
2.536682417309127,-0.5506663818359374,2.518700146484375,9.524134204101562,9.866925368610122
2.5391693608555084,-0.5458779785156249,2.518700146484375,9.543287817382812,9.88514924322015
2.54165630440189,-0.5410895751953124,2.5330653564453125,9.557653027343749,9.902420381881472
2.5441432479482713,-0.5458779785156249,2.5234885498046875,9.562441430664062,9.904860591815728
2.546630191494653,-0.5458779785156249,2.5234885498046875,9.552864624023437,9.89561517811511
2.549117135041034,-0.5363011718749999,2.5378537597656248,9.552864624023437,9.89876472989582
2.551604078587416,-0.5410895751953124,2.5330653564453125,9.543287817382812,9.888556031788244
2.5540910221337976,-0.5458779785156249,2.5330653564453125,9.528922607421874,9.874956654370054
2.556577965680179,-0.5458779785156249,2.5426421630859375,9.5001921875,9.849703728354811
2.5590649092265605,-0.5410895751953124,2.5378537597656248,9.476250170898437,9.825110530461947
2.5615518527729417,-0.5410895751953124,2.5378537597656248,9.471461767578125,9.820492230485991
2.5640387963193234,-0.5458779785156249,2.5330653564453125,9.466673364257812,9.814902315000392
2.566525739865705,-0.55545478515625,2.5330653564453125,9.4618849609375,9.810821430053226
2.5690126834120863,-0.5602431884765625,2.5234885498046875,9.4618849609375,9.808625485012922
2.571499626958468,-0.565031591796875,2.518700146484375,9.481038574218749,9.826148969634685
2.5739865705048492,-0.5602431884765625,2.5234885498046875,9.485826977539062,9.83172316224565
2.576473514051231,-0.55545478515625,2.5139117431640625,9.5001921875,9.842862077170805
2.5789604575976126,-0.565031591796875,2.5043349365234375,9.524134204101562,9.864080621718259
2.581447401143994,-0.5602431884765625,2.50912333984375,9.533711010742186,9.8742705047578
2.5839343446903755,-0.5602431884765625,2.5139117431640625,9.548076220703125,9.88935711757893
2.5864212882367568,-0.565031591796875,2.50912333984375,9.552864624023437,9.893037104913518
2.5889082317831384,-0.565031591796875,2.50912333984375,9.567229833984374,9.906909070469853
2.5913951753295197,-0.565031591796875,2.5043349365234375,9.567229833984374,9.905697394444323
2.5938821188759014,-0.565031591796875,2.50912333984375,9.548076220703125,9.88841342939471
2.596369062422283,-0.5698199951171875,2.5139117431640625,9.5384994140625,9.880658791362253
2.5988560059686643,-0.5746083984375,2.5234885498046875,9.533711010742186,9.878755736877851
2.601342949515046,-0.5746083984375,2.5330653564453125,9.528922607421874,9.876586503940215
2.603829893061427,-0.5746083984375,2.528276953125,9.528922607421874,9.875359498342004
2.606316836607809,-0.5698199951171875,2.528276953125,9.528922607421874,9.875082036964253
2.6088037801541906,-0.584185205078125,2.528276953125,9.528922607421874,9.875921362777799
2.611290723700572,-0.5793968017578125,2.528276953125,9.524134204101562,9.871019063061702
2.6137776672469535,-0.565031591796875,2.528276953125,9.528922607421874,9.87480688974054
2.6162646107933347,-0.5698199951171875,2.528276953125,9.5384994140625,9.884323459428522
2.6187515543397164,-0.5746083984375,2.5234885498046875,9.533711010742186,9.878755736877851
2.6212384978860976,-0.5698199951171875,2.5234885498046875,9.528922607421874,9.873857166582187
2.6237254414324793,-0.5698199951171875,2.528276953125,9.519345800781249,9.865841254215981
2.626212384978861,-0.565031591796875,2.5330653564453125,9.519345800781249,9.86679407277782
2.6286993285252422,-0.5698199951171875,2.5378537597656248,9.519345800781249,9.86829980329152
2.631186272071624,-0.5698199951171875,2.5426421630859375,9.519345800781249,9.86953233295222
2.633673215618005,-0.55545478515625,2.5426421630859375,9.524134204101562,9.873332341494061
2.636160159164387,-0.55545478515625,2.5378537597656248,9.533711010742186,9.881339856550644
2.6386471027107685,-0.565031591796875,2.5378537597656248,9.5384994140625,9.886502590792949
2.6411340462571498,-0.5602431884765625,2.5426421630859375,9.528922607421874,9.87822188746398
2.6436209898035314,-0.55545478515625,2.5378537597656248,9.524134204101562,9.872100286263647
2.6461079333499127,-0.55545478515625,2.528276953125,9.519345800781249,9.8650219890737
2.6485948768962944,-0.5602431884765625,2.528276953125,9.528922607421874,9.87453405686431
2.6510818204426756,-0.565031591796875,2.5234885498046875,9.528922607421874,9.873581985224996
2.6535687639890573,-0.55545478515625,2.518700146484375,9.514557397460937,9.85795023906248
2.656055707535439,-0.55545478515625,2.5139117431640625,9.509768994140625,9.85210579483846
2.65854265108182,-0.565031591796875,2.518700146484375,9.509768994140625,9.853873220695876
2.661029594628202,-0.565031591796875,2.5234885498046875,9.5001921875,9.845857340026814
2.663516538174583,-0.5602431884765625,2.5234885498046875,9.504980590820312,9.850204207177665
2.666003481720965,-0.5698199951171875,2.5234885498046875,9.504980590820312,9.850753540704465
2.6684904252673465,-0.5698199951171875,2.528276953125,9.490615380859374,9.838122762292759
2.6709773688137277,-0.565031591796875,2.528276953125,9.490615380859374,9.83784658138335
2.6734643123601094,-0.5602431884765625,2.518700146484375,9.504980590820312,9.848978570897879
2.6759512559064906,-0.5506663818359374,2.518700146484375,9.509768994140625,9.853059941657875
2.6784381994528723,-0.5458779785156249,2.5139117431640625,9.509768994140625,9.851570501283787
2.6809251429992536,-0.5458779785156249,2.50912333984375,9.504980590820312,9.845726927649771
2.6834120865456352,-0.5506663818359374,2.518700146484375,9.509768994140625,9.853059941657875
2.685899030092017,-0.5602431884765625,2.50912333984375,9.524134204101562,9.865024313326366
2.688385973638398,-0.565031591796875,2.50912333984375,9.533711010742186,9.874543344915955
2.69087291718478,-0.5602431884765625,2.50912333984375,9.533711010742186,9.8742705047578
2.693359860731161,-0.5602431884765625,2.50912333984375,9.528922607421874,9.869647330225064
2.6958468042775428,-0.565031591796875,2.518700146484375,9.528922607421874,9.872359251256238
2.6983337478239244,-0.565031591796875,2.5234885498046875,9.514557397460937,9.859718942764166
2.7008206913703057,-0.5698199951171875,2.5330653564453125,9.5001921875,9.848592108839455
2.7033076349166874,-0.5698199951171875,2.528276953125,9.5001921875,9.847361615071033
2.7057945784630686,-0.5698199951171875,2.5378537597656248,9.504980590820312,9.85444329044836
2.7082815220094503,-0.565031591796875,2.5474305664062498,9.519345800781249,9.870491764103802
2.7107684655558315,-0.565031591796875,2.5378537597656248,9.528922607421874,9.877263207180455
2.713255409102213,-0.565031591796875,2.5378537597656248,9.524134204101562,9.872643756533623
2.715742352648595,-0.5602431884765625,2.5522189697265625,9.504980590820312,9.857603670849084
2.718229296194976,-0.55545478515625,2.5474305664062498,9.495403784179686,9.846858663230002
2.720716239741358,-0.55545478515625,2.528276953125,9.5001921875,9.846540812361061
2.723203183287739,-0.5698199951171875,2.528276953125,9.504980590820312,9.851981283498727
2.7256901268341207,-0.5746083984375,2.528276953125,9.519345800781249,9.866118975469004
2.7281770703805024,-0.5698199951171875,2.518700146484375,9.552864624023437,9.8957449330333
2.7306640139268836,-0.5698199951171875,2.518700146484375,9.562441430664062,9.904990225619423
2.7331509574732653,-0.5746083984375,2.518700146484375,9.557653027343749,9.90064425330738
2.7356379010196465,-0.565031591796875,2.5139117431640625,9.543287817382812,9.88500659167984
2.7381248445660282,-0.5602431884765625,2.5139117431640625,9.528922607421874,9.870865754374753
2.74061178811241,-0.5698199951171875,2.518700146484375,9.509768994140625,9.854148952428828
2.743098731658791,-0.565031591796875,2.5234885498046875,9.485826977539062,9.83199718310231
2.745585675205173,-0.5602431884765625,2.528276953125,9.481038574218749,9.828334000620924
2.748072618751554,-0.5602431884765625,2.5330653564453125,9.485826977539062,9.834185577772349
2.7505595622979357,-0.55545478515625,2.528276953125,9.5001921875,9.846540812361061
2.753046505844317,-0.55545478515625,2.5234885498046875,9.504980590820312,9.849933020646343
2.7555334493906987,-0.5602431884765625,2.5234885498046875,9.504980590820312,9.850204207177665
2.7580203929370803,-0.5746083984375,2.518700146484375,9.524134204101562,9.868290509363444
2.7605073364834616,-0.584185205078125,2.528276953125,9.533711010742186,9.88054160164725
2.7629942800298433,-0.5602431884765625,2.5378537597656248,9.533711010742186,9.881610181166716
2.7654812235762245,-0.55545478515625,2.5330653564453125,9.5384994140625,9.88473172071185
2.767968167122606,-0.565031591796875,2.5234885498046875,9.543287817382812,9.887446461353461
2.770455110668988,-0.5602431884765625,2.518700146484375,9.552864624023437,9.895198097211255
2.772942054215369,-0.5506663818359374,2.5234885498046875,9.543287817382812,9.886635944065445
2.775428997761751,-0.55545478515625,2.5139117431640625,9.533711010742186,9.875217866311505
2.777915941308132,-0.5602431884765625,2.518700146484375,9.543287817382812,9.885952924404505
2.7804028848545137,-0.55545478515625,2.5234885498046875,9.543287817382812,9.88690380476899
2.782889828400895,-0.55545478515625,2.5234885498046875,9.528922607421874,9.87303856660066
2.7853767719472766,-0.5602431884765625,2.5234885498046875,9.528922607421874,9.873309118500517
2.7878637154936583,-0.5602431884765625,2.5330653564453125,9.524134204101562,9.871141011453291
2.7903506590400395,-0.55545478515625,2.528276953125,9.514557397460937,9.860401454283423
2.792837602586421,-0.5602431884765625,2.5330653564453125,9.509768994140625,9.857281514300796
2.7953245461328025,-0.5602431884765625,2.5426421630859375,9.509768994140625,9.859746848761135
2.797811489679184,-0.565031591796875,2.5330653564453125,9.504980590820312,9.852935442375676
2.800298433225566,-0.5698199951171875,2.528276953125,9.495403784179686,9.842742107926647
2.802785376771947,-0.5698199951171875,2.528276953125,9.485826977539062,9.833503578396982
2.8052723203183287,-0.5698199951171875,2.5330653564453125,9.495403784179686,9.843973179132126
2.80775926386471,-0.5793968017578125,2.5378537597656248,9.504980590820312,9.85500169415077
2.8102462074110917,-0.584185205078125,2.5378537597656248,9.495403784179686,9.846048297891016
2.812733150957473,-0.5698199951171875,2.5378537597656248,9.5001921875,9.849824776727141
2.8152200945038546,-0.5698199951171875,2.528276953125,9.5001921875,9.847361615071033
2.8177070380502363,-0.5746083984375,2.5330653564453125,9.490615380859374,9.839632880295019
2.8201939815966175,-0.5746083984375,2.5330653564453125,9.5001921875,9.848870316488808
2.822680925142999,-0.5746083984375,2.5234885498046875,9.509768994140625,9.855651961918536
2.8251678686893804,-0.5698199951171875,2.5234885498046875,9.524134204101562,9.8692361216848
2.827654812235762,-0.5698199951171875,2.5234885498046875,9.528922607421874,9.873857166582187
2.8301417557821438,-0.5698199951171875,2.528276953125,9.5384994140625,9.884323459428522
2.832628699328525,-0.5698199951171875,2.5330653564453125,9.543287817382812,9.890169730205137
2.8351156428749067,-0.5698199951171875,2.5378537597656248,9.533711010742186,9.882157768885227
2.837602586421288,-0.5746083984375,2.5426421630859375,9.524134204101562,9.87442840466194
2.8400895299676696,-0.5698199951171875,2.5426421630859375,9.528922607421874,9.87876966299819
2.842576473514051,-0.565031591796875,2.5330653564453125,9.524134204101562,9.871413938108828
2.8450634170604325,-0.5698199951171875,2.5330653564453125,9.514557397460937,9.862449867879553
2.847550360606814,-0.5793968017578125,2.528276953125,9.528922607421874,9.875639273678738
2.8500373041531954,-0.5698199951171875,2.5234885498046875,9.5384994140625,9.883099734390084
2.852524247699577,-0.5506663818359374,2.5378537597656248,9.543287817382812,9.89031230727564
2.8550111912459584,-0.55545478515625,2.5522189697265625,9.5384994140625,9.889657363117074
2.85749813479234,-0.565031591796875,2.5474305664062498,9.524134204101562,9.875109899546773
2.8599850783387217,-0.565031591796875,2.5378537597656248,9.504980590820312,9.854167566951348
2.862472021885103,-0.5506663818359374,2.5474305664062498,9.495403784179686,9.846589713162576
2.8649589654314846,-0.5458779785156249,2.5522189697265625,9.485826977539062,9.838329018927364
2.867445908977866,-0.5458779785156249,2.5474305664062498,9.481038574218749,9.832470579865117
2.8699328525242476,-0.5458779785156249,2.5426421630859375,9.481038574218749,9.831231071577685
2.8724197960706292,-0.5458779785156249,2.5378537597656248,9.504980590820312,9.853087866514521
2.8749067396170105,-0.5363011718749999,2.528276953125,9.519345800781249,9.863962072793525
2.877393683163392,-0.5410895751953124,2.5234885498046875,9.533711010742186,9.876862762321203
2.8798806267097734,-0.5458779785156249,2.528276953125,9.543287817382812,9.887593715588162
2.882367570256155,-0.5410895751953124,2.528276953125,9.524134204101562,9.868844644527817
2.8848545138025363,-0.5458779785156249,2.528276953125,9.514557397460937,9.859866611101287
2.887341457348918,-0.5506663818359374,2.5234885498046875,9.519345800781249,9.863527381212629
2.8898284008952997,-0.5506663818359374,2.5330653564453125,9.528922607421874,9.875222510016846
2.892315344441681,-0.5506663818359374,2.5378537597656248,9.509768994140625,9.85797349823782
2.8948022879880626,-0.55545478515625,2.5234885498046875,9.504980590820312,9.849933020646343
2.897289231534444,-0.5602431884765625,2.518700146484375,9.519345800781249,9.862842761242135
2.8997761750808255,-0.55545478515625,2.528276953125,9.524134204101562,9.869642683896581
2.902263118627207,-0.55545478515625,2.5234885498046875,9.519345800781249,9.863795869451067
2.9047500621735884,-0.55545478515625,2.518700146484375,9.514557397460937,9.85795023906248
2.90723700571997,-0.55545478515625,2.5139117431640625,9.509768994140625,9.85210579483846
2.9097239492663514,-0.5602431884765625,2.5043349365234375,9.5001921875,9.84069192201251
2.912210892812733,-0.565031591796875,2.50912333984375,9.490615380859374,9.832941622001103
2.9146978363591143,-0.565031591796875,2.5043349365234375,9.495403784179686,9.83634318223161
2.917184779905496,-0.5698199951171875,2.4947581298828125,9.504980590820312,9.843432784619528
2.9196717234518776,-0.5746083984375,2.4899697265625,9.519345800781249,9.856371975813628
2.922158666998259,-0.5746083984375,2.4947581298828125,9.528922607421874,9.866831254075798
2.9246456105446406,-0.565031591796875,2.4947581298828125,9.528922607421874,9.866278167808801
2.927132554091022,-0.565031591796875,2.499546533203125,9.533711010742186,9.872114221772511
2.9296194976374035,-0.5602431884765625,2.5043349365234375,9.533711010742186,9.873054823147344
2.932106441183785,-0.55545478515625,2.5139117431640625,9.528922607421874,9.870595135502562
2.9345933847301664,-0.565031591796875,2.5139117431640625,9.533711010742186,9.8757611650188
2.937080328276548,-0.5698199951171875,2.5139117431640625,9.528922607421874,9.871413938108827
2.9395672718229293,-0.5602431884765625,2.518700146484375,9.519345800781249,9.862842761242135
2.942054215369311,-0.5506663818359374,2.5234885498046875,9.514557397460937,9.858906145950385
2.9445411589156922,-0.5506663818359374,2.5234885498046875,9.509768994140625,9.854285070313221
2.947028102462074,-0.5602431884765625,2.518700146484375,9.509768994140625,9.853599808194627
2.9495150460084556,-0.565031591796875,2.5234885498046875,9.504980590820312,9.850477713928129
2.952001989554837,-0.565031591796875,2.528276953125,9.495403784179686,9.842466056636692
2.9544889331012185,-0.55545478515625,2.528276953125,9.490615380859374,9.837301188713322
2.9569758766475998,-0.55545478515625,2.528276953125,9.5001921875,9.846540812361061
2.9594628201939814,-0.55545478515625,2.5234885498046875,9.504980590820312,9.849933020646343
2.961949763740363,-0.5602431884765625,2.5330653564453125,9.5001921875,9.848042654745857
2.9644367072867444,-0.5602431884765625,2.5378537597656248,9.504980590820312,9.853894162617221
2.966923650833126,-0.55545478515625,2.528276953125,9.509768994140625,9.855781079750829
2.9694105943795073,-0.5602431884765625,2.528276953125,9.504980590820312,9.85143201843307
2.971897537925889,-0.5602431884765625,2.5378537597656248,9.519345800781249,9.867751446557746
2.97438448147227,-0.5698199951171875,2.5330653564453125,9.528922607421874,9.876309077033508
2.976871425018652,-0.5698199951171875,2.5378537597656248,9.514557397460937,9.863680803958049
2.9793583685650336,-0.55545478515625,2.5522189697265625,9.519345800781249,9.87118514478564
2.981845312111415,-0.5602431884765625,2.5522189697265625,9.533711010742186,9.885309288839338
2.9843322556577965,-0.565031591796875,2.5522189697265625,9.528922607421874,9.880963942217193
2.9868191992041777,-0.5506663818359374,2.5617957763671875,9.504980590820312,9.859548016809283
2.9893061427505594,-0.5506663818359374,2.5665841796874997,9.495403784179686,9.85156235528763
2.991793086296941,-0.55545478515625,2.5665841796874997,9.5001921875,9.856446416899509
2.9942800298433223,-0.5602431884765625,2.5761609863281247,9.495403784179686,9.854601508043203
2.996766973389704,-0.5602431884765625,2.5713725830078125,9.504980590820312,9.862580059130039
2.9992539169360852,-0.5602431884765625,2.5665841796874997,9.524134204101562,9.879795499877204
3.001740860482467,-0.5602431884765625,2.5617957763671875,9.528922607421874,9.883169334190468
3.0042278040288486,-0.55545478515625,2.5474305664062498,9.528922607421874,9.879185116559439
3.00671474757523,-0.5602431884765625,2.5330653564453125,9.524134204101562,9.871141011453291
3.0092016911216115,-0.55545478515625,2.5378537597656248,9.519345800781249,9.867480742274651
3.0116886346679927,-0.5602431884765625,2.5474305664062498,9.528922607421874,9.879455500134151
3.0141755782143744,-0.5746083984375,2.5426421630859375,9.514557397460937,9.865191658079222
3.0166625217607557,-0.5746083984375,2.5378537597656248,9.524134204101562,9.873196486206922
3.0191494653071373,-0.5746083984375,2.5330653564453125,9.533711010742186,9.881206431804019
3.021636408853519,-0.5793968017578125,2.5378537597656248,9.5384994140625,9.887333990106452
3.0241233523999003,-0.5793968017578125,2.5378537597656248,9.548076220703125,9.896573239066145
3.026610295946282,-0.5746083984375,2.5378537597656248,9.543287817382812,9.891674220419848
3.029097239492663,-0.5698199951171875,2.5474305664062498,9.533711010742186,9.884621538220015
3.031584183039045,-0.5698199951171875,2.5474305664062498,9.524134204101562,9.875385038328051
3.0340711265854265,-0.5698199951171875,2.5426421630859375,9.495403784179686,9.846441845710133
3.036558070131808,-0.5602431884765625,2.5474305664062498,9.471461767578125,9.824045141162035
3.0390450136781895,-0.565031591796875,2.5426421630859375,9.466673364257812,9.818461918996231
3.0415319572245707,-0.5602431884765625,2.5426421630859375,9.476250170898437,9.827421783010506
3.0440189007709524,-0.5602431884765625,2.5378537597656248,9.490615380859374,9.840038335473873
3.0465058443173336,-0.5746083984375,2.5330653564453125,9.509768994140625,9.858108400372595
3.0489927878637153,7.206546997070312,9.471461767578125,9.97903251953125,15.531387499561637
3.051479731410097,6.9910688476562495,8.690952026367187,9.8449572265625,14.87719306691053
3.0539666749564782,6.5601125488281244,7.838616235351562,9.701305126953125,14.09234906978451
3.05645361850286,5.942408520507812,6.9336080078124995,9.567229833984374,13.225695661358845
3.058940562049241,5.190629199218749,5.999869360351562,9.4618849609375,12.347806721806224
3.061427505595623,4.338293408203125,5.090072729492187,9.351751684570312,11.497168767007048
3.0639144491420045,3.423708374023437,4.209006518554688,9.251195214843749,10.724836959448005
3.0664013926883857,2.4851813232421875,3.394977954101562,9.184157568359375,10.102017212353195
3.0688883362347674,1.5514426757812498,2.6623522460937497,9.126696728515624,9.632844181902534
3.0713752797811487,0.6512228515624999,2.01112939453125,9.069235888671875,9.31234515298476
3.0738622233275303,-0.19153613281249998,1.465251416015625,9.035717065429687,9.155753966157338
3.0763491668739116,-0.9433154541015625,1.0103531005859374,9.026140258789061,9.131367115889226
3.0788361104202933,-1.6136919189453125,0.6560112548828124,9.030928662109375,9.197392286725131
3.081323053966675,-2.1739351074218747,0.4070142822265625,9.05965908203125,9.325721267540063
3.083809997513056,-2.6192566162109374,0.24899697265624998,9.093177905273437,9.466170774442523
3.086296941059438,-2.9496564453125,0.17238251953125,9.13627353515625,9.602170743514717
3.088783884605819,-3.1794998046874996,0.16280571289062498,9.198522778320312,9.733886480303502
3.091270828152201,-3.289633081054687,0.2346317626953125,9.255983618164063,9.825984460182926
3.0937577716985825,-3.294421484375,0.3591302490234375,9.323021264648437,9.894489019325968
3.0962447152449637,-3.2225954345703123,0.5315127685546874,9.394847314453125,9.946395488815895
3.0987316587913454,-3.0933085449218747,0.74699091796875,9.466673364257812,9.987214715383002
3.1012186023377266,-2.887407202148437,0.97683427734375,9.543287817382812,10.018266712451787
3.1037055458841083,-2.6240450195312497,1.22583125,9.605537060546874,10.032677446202625
3.1061924894304895,-2.3319524169921872,1.4891934326171874,9.65342109375,10.042123180290277
3.108679432976871,-2.0063409912109376,1.7525556152343749,9.706093530273437,10.06504381390954
3.111166376523253,-1.675941162109375,2.0063409912109376,9.749189160156249,10.093605512024626
3.113653320069634,7.388506323242187,8.959102612304687,10.419565624999999,15.602015674908037
3.116140263616016,7.848193041992187,8.71489404296875,10.275913525390624,15.592880137609367
3.118627207162397,7.953537915039062,8.346186987304687,10.13226142578125,15.348626133742156
3.1211141507087787,7.75721337890625,7.862558251953125,9.983820922851562,14.888615177067575
3.1236010942551604,7.283161450195312,7.287949853515625,9.830592016601562,14.240758167100509
3.1260880378015417,6.555324145507812,6.6271501953125,9.701305126953125,13.45387362547141
3.1285749813479233,5.645527514648437,5.908889697265625,9.552864624023437,12.571562388900707
3.1310619248943046,4.6064439941406246,5.185840795898438,9.418789331054686,11.697258802572009
3.1335488684406863,3.447650390625,4.448426684570312,9.313444458007812,10.881867526135867
3.136035811987068,2.2457611572265623,3.7158009765625,9.198522778320312,10.171698057650357
3.138522755533449,1.0534487304687499,3.0166940917968748,9.093177905273437,9.638261351932796
3.141009699079831,-0.11013327636718749,2.375048046875,9.016563452148437,9.324773404761483
3.143496642626212,-1.197100830078125,1.7860744384765623,8.973467822265624,9.227471866897762
3.1459835861725938,-2.1643583007812497,1.254561669921875,8.935160595703124,9.278764287813527
3.148470529718975,-2.9927520751953125,0.7805097412109374,8.916006982421875,9.437210443256346
3.1509574732653567,-3.67749375,0.39743747558593745,8.9255837890625,9.661674948158032
3.1534444168117384,-4.185064501953125,0.1149216796875,8.954314208984375,9.884721282423184
3.1559313603581196,-4.534617944335937,-0.1005564697265625,9.011775048828124,10.088853306267193
3.1584183039045013,-4.7022120605468745,-0.2346317626953125,9.069235888671875,10.218458295202458
3.1609052474508825,-4.7117888671875,-0.2825157958984375,9.141061938476563,10.28784636680336
3.163392190997264,-4.57771357421875,-0.258573779296875,9.208099584960937,10.28646780646711
3.165879134543646,-4.314351391601562,-0.16280571289062498,9.265560424804686,10.222071395567092
3.168366078090027,-3.9312791259765625,-0.009576806640625,9.327809667968749,10.122404876481465
3.170853021636409,-3.4668040039062498,0.1867477294921875,9.390058911132812,10.011334130400185
3.17333996518279,-2.940079638671875,0.4261678955078125,9.466673364257812,9.921874416784503
3.1758269087291717,-2.365471240234375,0.70868369140625,9.519345800781249,9.834410568900037
3.178313852275553,-1.7812860351562498,1.0103531005859374,9.552864624023437,9.769903574336071
3.1808007958219346,-1.1923124267578125,1.3120225097656248,9.605537060546874,9.767771199750344
3.1832877393683163,-0.6272808349609375,1.6328455322265625,9.648632690429688,9.80590529083623
3.1857746829146976,-0.1005564697265625,1.9584569580078124,9.682151513671874,9.878751094833378
3.1882616264610792,0.3591302490234375,2.250549560546875,9.715670336914062,9.979388656417445
3.1907485700074605,0.737414111328125,2.5378537597656248,9.744400756835937,10.096426466199174
3.193235513553842,1.0630255371093749,2.7964275390625,9.749189160156249,10.197878188833299
3.195722457100224,1.3024457031249999,3.0166940917968748,9.734823950195311,10.274415087700476
3.198209400646605,1.4317325927734375,3.2130186279296873,9.730035546875,10.346349049982994
3.2006963441929868,1.5083470458984374,3.380612744140625,9.725247143554688,10.405963931320114
3.203183287739368,1.5035586425781249,3.5098996337890624,9.720458740234374,10.443533987666378
3.2056702312857497,1.4125789794921875,3.6104561035156246,9.725247143554688,10.469536983646174
3.208157174832131,1.2641384765625,3.67749375,9.710881933593749,10.460556117980166
3.2106441183785126,1.0630255371093749,3.7014357666015623,9.658209497070311,10.397675736246208
3.2131310619248943,0.8283937744140625,3.7110125732421873,9.634267480468749,10.357459169577606
3.2156180054712755,0.565031591796875,3.6918589599609373,9.605537060546874,10.306086818065907
3.218104949017657,0.277727392578125,3.6391865234374996,9.581595043945311,10.25318363451639
3.2205918925640384,-0.01915361328125,3.5625720703124997,9.586383447265625,10.226975809841381
3.22307883611042,-0.316034619140625,3.4668040039062498,9.576806640625,10.189888778289724
3.225565779656802,-0.5793968017578125,3.361459130859375,9.543287817382812,10.134567110031501
3.228052723203183,7.651868505859374,12.727576025390624,9.916783276367187,17.85734788997226
3.2305396667495647,7.101202124023437,11.717222924804688,9.753977563476562,16.818456022614193
3.233026610295946,6.335057592773437,10.467449658203124,9.581595043945311,15.540509021165633
3.2355135538423276,5.396530541992187,9.026140258789061,9.457096557617186,14.14321127474528
3.238000497388709,4.347870214843749,7.4699091796875,9.356540087890625,12.737674865304474
3.2404874409350906,3.246537451171875,5.870582470703124,9.265560424804686,11.439158795684898
