Time (s),Acceleration x (m/s^2),Acceleration y (m/s^2),Acceleration z (m/s^2),Absolute acceleration (m/s^2)
0.0,-1.3024457031249999,1.388636962890625,9.591171850585937,9.778305317986698
0.002486943546381497,-1.5562310791015623,1.3551181396484375,9.610325463867188,9.829372099245196
0.004973887092762994,-1.7525556152343749,1.388636962890625,9.610325463867188,9.867021806028895
0.007460830639144491,-1.85790048828125,1.4508862060546874,9.634267480468749,9.918466357884828
0.009947774185525988,-2.0063409912109376,1.4939818359375,9.639055883789062,9.958352485724383
0.012434717731907486,-2.1212626708984375,1.6232687255859375,9.667786303710937,10.029997442105024
0.014921661278288981,-2.1404162841796874,1.7477672119140624,9.658209497070311,10.045749488511177
0.01740860482467048,-2.1116858642578125,1.9105729248046874,9.662997900390625,10.073878821648423
0.019895548371051976,-2.0925322509765625,2.0925322509765625,9.6151138671875,10.060208602297243
0.022382491917433474,-1.9584569580078124,2.2744915771484373,9.667786303710937,10.122991534379015
0.02486943546381497,-1.85790048828125,2.4564509033203126,9.648632690429688,10.128280113603065
0.027356379010196465,-1.637633935546875,2.6815058593749996,9.634267480468749,10.133677933797525
0.029843322556577963,-1.4508862060546874,2.858676782226562,9.572018237304688,10.09458453149284
0.032330266102959464,-1.1827356201171875,3.0310593017578125,9.605537060546874,10.141623452850437
0.03481720964934096,-0.9433154541015625,3.2034418212890623,9.562441430664062,10.12877927803796
0.03730415319572245,-0.6607996582031249,3.342305517578125,9.514557397460937,10.10615974694113
0.03979109674210395,-0.36391865234375,3.4572271972656248,9.490615380859374,10.107256649874948
0.04227804028848545,-0.11013327636718749,3.5817256835937497,9.466673364257812,10.122193082362477
0.04476498383486695,0.19153613281249998,3.6296097167968746,9.442731347656249,10.118099035414165
0.04725192738124844,0.39264907226562495,3.6152445068359373,9.390058911132812,10.069626234012025
0.04973887092762994,0.5985504150390625,3.6679169433593746,9.399635717773437,10.107671785805492
0.05222581447401144,0.7805097412109374,3.6296097167968746,9.423577734375,10.128528001057198
0.05471275802039293,0.9624690673828125,3.5194764404296874,9.361328491210937,10.047264913436194
0.05719970156677443,1.0726023437499999,3.4524387939453125,9.366116894531249,10.039619270459426
0.059686645113155926,1.1013327636718748,3.3327287109375,9.351751684570312,9.98875738452526
0.062173588659537427,1.0965443603515623,3.1747114013671873,9.332598071289063,9.918598125562804
0.06466053220591893,1.0486603271484374,2.9544448486328125,9.327809667968749,9.84055212105496
0.06714747575230041,0.9528922607421875,2.806004345703125,9.356540087890625,9.814606791155287
0.06963441929868192,0.814028564453125,2.6001030029296874,9.34696328125,9.735959157197886
0.07212136284506342,0.6655880615234374,2.442085693359375,9.399635717773437,9.734471820709906
0.0746083063914449,0.44532150878906246,2.2266075439453124,9.366116894531249,9.637439394515955
0.0770952499378264,0.22505495605468748,2.1164742675781247,9.447519750976562,9.684303924581126
0.0795821934842079,-0.047884033203124995,1.886630908203125,9.5001921875,9.685830922737562
0.0820691370305894,-0.296881005859375,1.6711527587890624,9.490615380859374,9.641196511961205
0.0845560805769709,-0.5410895751953124,1.62805712890625,9.495403784179686,9.649147162727978
0.0870430241233524,-0.8667010009765624,1.4604630126953124,9.557653027343749,9.707360827106303
0.0895299676697339,-1.158793603515625,1.4173673828125,9.533711010742186,9.70790289144655
0.09201691121611538,-1.39821376953125,1.4173673828125,9.586383447265625,9.790948863168264
0.09450385476249688,-1.6232687255859375,1.350329736328125,9.548076220703125,9.778760211224828
0.09699079830887838,-1.8291700683593748,1.4030021728515625,9.639055883789062,9.910886769952354
0.09947774185525989,-1.9680337646484374,1.5083470458984374,9.619902270507811,9.934323701379384
0.10196468540164137,-2.0733786376953125,1.5370774658203123,9.662997900390625,10.001751573306422
0.10445162894802287,-2.0925322509765625,1.656787548828125,9.643844287109374,10.00636641530486
0.10693857249440437,-2.1260510742187497,1.8052280517578123,9.662997900390625,10.057458422086249
0.10942551604078586,-2.1021090576171875,2.0063409912109376,9.667786303710937,10.09506605611624
0.11191245958716736,-2.01112939453125,2.2361843505859373,9.658209497070311,10.115639998569158
0.11439940313354886,-1.9393033447265624,2.3367408203125,9.648632690429688,10.115204788782616
0.11688634667993036,-1.7956512451171873,2.5426421630859375,9.610325463867188,10.101868544237117
0.11937329022631185,-1.5801730957031248,2.7581203125,9.658209497070311,10.167850577182389
0.12186023377269335,-1.3407529296874998,2.93050283203125,9.595960253906249,10.122643847412457
0.12434717731907485,-1.0821791503906248,3.1507693847656246,9.567229833984374,10.130663656730352
0.12683412086545634,-0.82360537109375,3.2225954345703123,9.481038574218749,10.047563863346765
0.12932106441183785,-0.5793968017578125,3.399766357421875,9.466673364257812,10.075317192252218
0.13180800795821934,-0.2346317626953125,3.5194764404296874,9.476250170898437,10.111433319775085
0.13429495150460083,-0.009576806640625,3.6008792968749996,9.433154541015625,10.097070269170763
0.13678189505098234,0.239420166015625,3.6583401367187496,9.437942944335937,10.124995881103498
0.13926883859736383,0.488417138671875,3.6631285400390623,9.409212524414063,10.108923895835185
0.14175578214374532,0.7038952880859375,3.6104561035156246,9.437942944335937,10.129443660564153
0.14424272569012683,0.8475473876953125,3.6104561035156246,9.375693701171874,10.082527571397776
0.14672966923650832,0.9959878906249999,3.5146880371093747,9.399635717773437,10.084551328805539
0.1492166127828898,1.0438719238281249,3.399766357421875,9.399635717773437,10.049936890610628
0.15170355632927132,1.0869675537109373,3.23696064453125,9.342174877929686,9.946639841015912
0.1541904998756528,1.0726023437499999,3.1172505615234374,9.337386474609374,9.902247877495002
0.15667744342203432,0.9959878906249999,2.935291235351562,9.375693701171874,9.874794119008117
0.1591643869684158,0.9528922607421875,2.7198130859375,9.380482104492186,9.813196797971463
0.1616513305147973,0.7422025146484375,2.518700146484375,9.342174877929686,9.704171600423779
0.1641382740611788,0.5793968017578125,2.3367408203125,9.404424121093749,9.707690320802978
0.1666252176075603,0.3399766357421875,2.1116858642578125,9.433154541015625,9.672600782459728
0.1691121611539418,0.076614453125,1.9632453613281249,9.490615380859374,9.691851341751407
0.1715991047003233,-0.13407529296874998,1.7717092285156248,9.457096557617186,9.622557096462817
0.1740860482467048,-0.43574470214843747,1.656787548828125,9.466673364257812,9.620432579304875
0.17657299179308628,-0.7134720947265625,1.5466542724609373,9.567229833984374,9.717667856268594
0.1790599353394678,-1.0007762939453124,1.484405029296875,9.519345800781249,9.68622506224052
0.18154687888584928,-1.2785036865234374,1.407790576171875,9.591171850585937,9.777884405651584
0.18403382243223076,-1.5131354492187499,1.369483349609375,9.557653027343749,9.77311592705381
0.18652076597861228,-1.7094599853515624,1.407790576171875,9.605537060546874,9.857508304303678
0.18900770952499377,-1.8818425048828125,1.4030021728515625,9.605537060546874,9.888179232383953
0.19149465307137528,-1.9776105712890624,1.5227122558593749,9.624690673828125,9.943051179225252
0.19398159661775677,-2.1116858642578125,1.5705962890624998,9.6151138671875,9.968771467513163
0.19646854016413826,-2.1212626708984375,1.7525556152343749,9.701305126953125,10.083973803500468
0.19895548371051977,-2.1499930908203124,1.89620771484375,9.667786303710937,10.083856702801206
0.20144242725690126,-2.1547814941406247,2.059013427734375,9.634267480468749,10.084727535650083
0.20392937080328274,-1.9728221679687499,2.2936451904296873,9.624690673828125,10.088979439610542
0.20641631434966426,-1.838746875,2.4564509033203126,9.610325463867188,10.088285118502526
0.20890325789604575,-1.6807295654296874,2.6431986328124997,9.648632690429688,10.1443316033852
0.21139020144242723,-1.465251416015625,2.844311572265625,9.6151138671875,10.133483345387276
0.21387714498880875,-1.20667763671875,3.0454245117187497,9.610325463867188,10.153277150604557
0.21636408853519024,-0.9576806640625,3.1938650146484373,9.576806640625,10.140668193863437
0.21885103208157172,-0.699106884765625,3.3327287109375,9.562441430664062,10.15067077645189
0.22133797562795324,-0.38307226562499996,3.4668040039062498,9.495403784179686,10.11573859818478
0.22382491917433472,-0.11013327636718749,3.5817256835937497,9.490615380859374,10.144588139421087
0.22631186272071624,0.1149216796875,3.6200329101562496,9.447519750976562,10.117977797374769
0.22879880626709773,0.3495534423828125,3.6439749267578123,9.428366137695312,10.114090611733754
0.2312857498134792,0.5746083984375,3.6631285400390623,9.433154541015625,10.135733328530666
0.23377269335986073,0.7900865478515624,3.6104561035156246,9.404424121093749,10.104594157011906
0.23625963690624222,0.9193734375,3.5098996337890624,9.380482104492186,10.057737691427
0.2387465804526237,1.024718310546875,3.5098996337890624,9.409212524414063,10.0946878795153
0.24123352399900522,1.0917559570312498,3.3327287109375,9.366116894531249,10.001157803596744
0.2437204675453867,1.0678139404296874,3.1172505615234374,9.323021264648437,9.888185029406616
0.2462074110917682,1.0534487304687499,2.9496564453125,9.337386474609374,9.848706186566735
0.2486943546381497,0.967257470703125,2.8107927490234372,9.351751684570312,9.812818273180106
0.2511812981845312,0.8379705810546875,2.6719290527343746,9.399635717773437,9.80788209474407
0.2536682417309127,0.6607996582031249,2.427720483398437,9.390058911132812,9.72130080227633
0.2561551852772942,0.45489831542968745,2.2170307373046874,9.428366137695312,9.696197491489855
0.2586421288236757,0.22505495605468748,2.0254946044921875,9.428366137695312,9.646106268982907
0.26112907237005717,-0.01915361328125,1.838746875,9.447519750976562,9.624810978731803
0.2636160159164387,-0.27293898925781246,1.7525556152343749,9.5384994140625,9.702005872417171
0.2661029594628202,-0.5458779785156249,1.6519991455078125,9.586383447265625,9.742988840299224
0.26858990300920166,-0.8283937744140625,1.5131354492187499,9.562441430664062,9.716794803228632
0.2710768465555832,-1.1252747802734375,1.426944189453125,9.543287817382812,9.714769962090747
0.2735637901019647,-1.3551181396484375,1.3742717529296875,9.567229833984374,9.75996181957621
0.27605073364834615,-1.5801730957031248,1.37906015625,9.562441430664062,9.789741571758718
0.27853767719472766,-1.8148048583984373,1.3646949462890625,9.586383447265625,9.851632177893258
0.2810246207411092,-1.93451494140625,1.47482822265625,9.662997900390625,9.964486678591179
0.28351156428749064,-2.0446482177734375,1.5849614990234373,9.667786303710937,10.007935916164307
0.28599850783387215,-2.1260510742187497,1.6998831787109374,9.682151513671874,10.057522255762086
0.28848545138025367,-2.1452046874999997,1.848323681640625,9.610325463867188,10.018810263940505
0.2909723949266351,-2.1356278808593747,1.9680337646484374,9.677363110351562,10.103732979146542
0.29345933847301664,-2.0254946044921875,2.1356278808593747,9.682151513671874,10.119663668918518
0.29594628201939815,-1.9680337646484374,2.3127988037109373,9.619902270507811,10.08784986502894
0.2984332255657796,-1.7956512451171873,2.5043349365234375,9.624690673828125,10.105974838443684
0.30092016911216113,-1.5801730957031248,2.767697119140625,9.600748657226562,10.115901795436773
0.30340711265854264,-1.369483349609375,2.920926025390625,9.619902270507811,10.146418736913184
0.30589405620492416,-1.177947216796875,3.0502129150390624,9.5384994140625,10.083368958076525
0.3083809997513056,-0.8714894042968749,3.2417490478515623,9.524134204101562,10.0983940806836
0.31086794329768713,-0.584185205078125,3.39018955078125,9.519345800781249,10.121887275548476
0.31335488684406865,-0.296881005859375,3.4907460205078125,9.476250170898437,10.103106621865567
0.3158418303904501,-0.023942016601562498,3.5434184570312497,9.4618849609375,10.103645609175132
0.3183287739368316,0.22505495605468748,3.6631285400390623,9.452308154296874,10.139787467096175
0.32081571748321314,0.49320554199218747,3.6343981201171873,9.404424121093749,10.09431991030466
0.3233026610295946,0.6464344482421874,3.6056677001953124,9.414000927734374,10.101590494941359
0.3257896045759761,0.8714894042968749,3.5673604736328124,9.366116894531249,10.060303186915549
0.3282765481223576,0.967257470703125,3.5146880371093747,9.327809667968749,10.014821626703194
0.3307634916687391,1.0199299072265624,3.39018955078125,9.303867651367186,9.954677065582707
0.3332504352151206,1.0821791503906248,3.2561142578125,9.361328491210937,9.970349186153294
0.3357373787615021,1.0773907470703123,3.0885201416015624,9.370905297851563,9.92540143209602
0.3382243223078836,1.0295067138671874,2.91134921875,9.356540087890625,9.852952895640888
0.3407112658542651,0.928950244140625,2.7820623291015623,9.394847314453125,9.842051382764776
0.3431982094006466,0.7996633544921875,2.5378537597656248,9.370905297851563,9.741356645138126
0.34568515294702806,0.584185205078125,2.3415292236328122,9.370905297851563,9.67666768884109
0.3481720964934096,0.39743747558593745,2.1883003173828124,9.418789331054686,9.677820379034085
0.3506590400397911,0.1388636962890625,1.9871873779296874,9.4618849609375,9.66930523952809
0.35314598358617255,-0.16280571289062498,1.8004396484374998,9.457096557617186,9.628331315856887
0.35563292713255407,-0.39743747558593745,1.6615759521484375,9.433154541015625,9.586615450013722
0.3581198706789356,-0.7134720947265625,1.5466542724609373,9.509768994140625,9.661101810373058
0.36060681422531704,-0.928950244140625,1.4939818359375,9.552864624023437,9.713503631909475
0.36309375777169856,-1.22583125,1.43652099609375,9.557653027343749,9.742432253641175
0.36558070131808007,-1.4700398193359374,1.350329736328125,9.6151138671875,9.820123326426536
0.36806764486446153,-1.6711527587890624,1.3742717529296875,9.600748657226562,9.841531850954219
0.37055458841084304,-1.848323681640625,1.426944189453125,9.610325463867188,9.889935574784179
0.37304153195722456,-2.01112939453125,1.5035586425781249,9.624690673828125,9.94685883081152
0.3755284755036061,-2.1021090576171875,1.5658078857421873,9.634267480468749,9.98447428312509
0.37801541904998753,-2.1499930908203124,1.7238251953125,9.648632690429688,10.034448484565441
0.38050236259636905,-2.1308394775390624,1.9105729248046874,9.667786303710937,10.082502556124469
0.38298930614275056,-2.1068974609374997,2.039859814453125,9.6151138671875,10.052385769184696
0.385476249689132,-2.020706201171875,2.2361843505859373,9.6151138671875,10.076417452658523
0.38796319323551354,-1.8722656982421875,2.408566870117187,9.581595043945311,10.055522701421232
0.39045013678189505,-1.68551796875,2.6240450195312497,9.591171850585937,10.085492578698274
0.3929370803282765,-1.5131354492187499,2.8203695556640622,9.619902270507811,10.138371812688685
0.395424023874658,-1.2641384765625,2.9927520751953125,9.586383447265625,10.12192465243246
0.39791096742103954,-1.0342951171875,3.2034418212890623,9.600748657226562,10.173798733563551
0.400397910967421,-0.7805097412109374,3.294421484375,9.485826977539062,10.071907556200296
0.4028848545138025,-0.44532150878906246,3.42849677734375,9.504980590820312,10.114225498292862
0.40537179806018403,-0.16759411621093748,3.5146880371093747,9.457096557617186,10.090480418993097
0.4078587416065655,0.11013327636718749,3.5817256835937497,9.399635717773437,10.05952483161708
0.410345685152947,0.38786066894531246,3.6439749267578123,9.418789331054686,10.106561315706935
0.4128326286993285,0.5602431884765625,3.6583401367187496,9.437942944335937,10.137657126116578
0.41531957224571,0.7709329345703124,3.5817256835937497,9.342174877929686,10.034905475984358
0.4178065157920915,0.9002198242187499,3.5386300537109374,9.323021264648437,10.012543327747933
0.420293459338473,1.0390835205078124,3.4332851806640625,9.390058911132812,10.051882811140562
0.42278040288485447,1.120486376953125,3.342305517578125,9.366116894531249,10.007529244313723
0.425267346431236,1.0726023437499999,3.1938650146484373,9.332598071289063,9.922128616372678
0.4277542899776175,1.0438719238281249,3.0071172851562498,9.332598071289063,9.860517720701608
0.43024123352399896,0.9816226806640624,2.858676782226562,9.342174877929686,9.818953482029327
0.43272817707038047,0.9002198242187499,2.6288334228515624,9.409212524414063,9.810934778430052
0.435215120616762,0.679953271484375,2.446874096679687,9.366116894531249,9.70431218471603
0.43770206416314344,0.49320554199218747,2.27927998046875,9.437942944335937,9.721786664834706
0.44018900770952496,0.296881005859375,2.0733786376953125,9.433154541015625,9.662889935292394
0.4426759512559065,0.0,1.8722656982421875,9.414000927734374,9.598374461970003
0.445162894802288,-0.26336218261718747,1.7477672119140624,9.428366137695312,9.592608503046204
0.44764983834866945,-0.5315127685546874,1.6519991455078125,9.528922607421874,9.6856581117718
0.45013678189505096,-0.82360537109375,1.4700398193359374,9.524134204101562,9.67204607182291
0.4526237254414325,-1.1252747802734375,1.4413093994140624,9.5384994140625,9.712187559351879
0.45511066898781394,-1.2928688964843749,1.35990654296875,9.591171850585937,9.77299510163481
0.45759761253419545,-1.5610194824218748,1.369483349609375,9.557653027343749,9.780644041189266
0.46008455608057697,-1.7477672119140624,1.4221557861328125,9.658209497070311,9.917571678408583
0.4625714996269584,-1.9009961181640624,1.446097802734375,9.605537060546874,9.898046641529202
0.46505844317333994,-2.0733786376953125,1.5658078857421873,9.619902270507811,9.964595977982501
0.46754538671972146,-2.0877438476562498,1.6807295654296874,9.658209497070311,10.023199934892805
0.4700323302661029,-2.1595698974609374,1.8100164550781248,9.648632690429688,10.051667249989002
0.47251927381248443,-2.1404162841796874,1.9728221679687499,9.643844287109374,10.073586343007271
0.47500621735886595,-2.0829554443359375,2.1452046874999997,9.639055883789062,10.092175427784102
0.4774931609052474,-1.9488801513671874,2.31758720703125,9.600748657226562,10.066961760423327
0.4799801044516289,-1.7669208251953124,2.5713725830078125,9.65342109375,10.145072940911296
0.48246704799801043,-1.6232687255859375,2.70065947265625,9.624690673828125,10.127350764616946
0.4849539915443919,-1.39821376953125,2.882618798828125,9.6151138671875,10.134836336302893
0.4874409350907734,-1.1444283935546875,3.1220389648437497,9.528922607421874,10.092433289559683
0.4899278786371549,-0.8667010009765624,3.294421484375,9.543287817382812,10.13305116473871
0.4924148221835364,-0.6081272216796875,3.347093920898437,9.524134204101562,10.113455827302577
0.4949017657299179,-0.3399766357421875,3.4811692138671875,9.447519750976562,10.074212259701476
0.4973887092762994,-0.01915361328125,3.6152445068359373,9.466673364257812,10.133521810834447
0.49987565282268087,0.181959326171875,3.6583401367187496,9.423577734375,10.110409441170845
0.5023625963690624,0.4213794921875,3.5960908935546874,9.380482104492186,10.054992536239961
0.5048495399154439,0.622492431640625,3.6104561035156246,9.394847314453125,10.08394992871098
0.5073364834618254,0.8188169677734375,3.5960908935546874,9.356540087890625,10.057195103890793
0.5098234270082069,0.9576806640625,3.5577836669921874,9.361328491210937,10.060290651655807
0.5123103705545884,1.0534487304687499,3.366247534179687,9.380482104492186,10.021717477647991
0.5147973141009698,1.0821791503906248,3.294421484375,9.34696328125,9.969455712890625
0.5172842576473514,1.0965443603515623,3.1364041748046874,9.342174877929686,9.915425968246227
0.5197712011937329,1.0534487304687499,2.93050283203125,9.370905297851563,9.874789475101323
0.5222581447401143,0.9241618408203125,2.7629087158203123,9.351751684570312,9.79504973187211
0.5247450882864959,0.7900865478515624,2.5378537597656248,9.375693701171874,9.745181929407295
0.5272320318328774,0.612915625,2.35589443359375,9.390058911132812,9.700469602042567
0.5297189753792588,0.39743747558593745,2.1643583007812497,9.409212524414063,9.663109423511216
0.5322059189256404,0.1292868896484375,2.0446482177734375,9.466673364257812,9.685825004604789
0.5346928624720219,-0.105344873046875,1.8626888916015625,9.418789331054686,9.601786287559348
0.5371798060184033,-0.44053310546874996,1.6519991455078125,9.437942944335937,9.591555536737145
0.5396667495647849,-0.6703764648437499,1.5658078857421873,9.533711010742186,9.684668532067352
0.5421536931111663,-0.9624690673828125,1.4700398193359374,9.533711010742186,9.694277147495256
0.5446406366575478,-1.1923124267578125,1.39821376953125,9.591171850585937,9.765612532543976
0.5471275802039294,-1.446097802734375,1.4221557861328125,9.576806640625,9.789226290520785
0.5496145237503108,-1.6472107421875,1.388636962890625,9.600748657226562,9.839511706539184
0.5521014672966923,-1.8291700683593748,1.4173673828125,9.562441430664062,9.83844904198437
0.5545884108430739,-2.0542250244140625,1.4987702392578124,9.65342109375,9.982719644178701
0.5570753543894553,-2.04943662109375,1.6041151123046875,9.624690673828125,9.97035838494678
0.5595622979358368,-2.1547814941406247,1.7094599853515624,9.624690673828125,10.009995369423661
0.5620492414822184,-2.1212626708984375,1.9297265380859374,9.677363110351562,10.093312469171535
0.5645361850285998,-2.1164742675781247,2.001552587890625,9.677363110351562,10.10628679867167
0.5670231285749813,-2.0254946044921875,2.2074539306640624,9.648632690429688,10.103048749939774
0.5695100721213628,-1.9105729248046874,2.403778466796875,9.591171850585937,10.070700933197507
0.5719970156677443,-1.70467158203125,2.6096798095703124,9.639055883789062,10.130534647385222
0.5744839592141258,-1.5275006591796874,2.786850732421875,9.562441430664062,10.076709849126116
0.5769709027605073,-1.2737152832031249,2.9640216552734375,9.557653027343749,10.087443005374961
0.5794578463068888,-1.0295067138671874,3.1507693847656246,9.504980590820312,10.0663741149306
0.5819447898532703,-0.7661445312499999,3.318363500976562,9.514557397460937,10.105707112169656
0.5844317333996518,-0.4836287353515625,3.42849677734375,9.490615380859374,10.10248816942236
0.5869186769460333,-0.22505495605468748,3.5194764404296874,9.485826977539062,10.120191579006411
0.5894056204924147,0.0383072265625,3.5817256835937497,9.404424121093749,10.06346954909349
0.5918925640387963,0.33039982910156246,3.6439749267578123,9.404424121093749,10.09113028175337
0.5943795075851778,0.5410895751953124,3.6104561035156246,9.370905297851563,10.056939758450419
0.5968664511315592,0.699106884765625,3.5769372802734374,9.399635717773437,10.081487111045611
0.5993533946779408,0.8714894042968749,3.5577836669921874,9.34696328125,10.03907570366684
0.6018403382243223,1.01514150390625,3.4428619873046875,9.356540087890625,10.021409748777112
0.6043272817707037,1.0726023437499999,3.399766357421875,9.375693701171874,10.030579218124423
0.6068142253170853,1.0773907470703123,3.2130186279296873,9.399635717773437,9.991867250526203
0.6093011688634667,1.0295067138671874,3.0023288818359375,9.332598071289063,9.85754784664179
0.6117881124098483,0.9816226806640624,2.844311572265625,9.327809667968749,9.801108335753131
0.6142750559562298,0.9050082275390624,2.6431986328124997,9.366116894531249,9.773928820409884
0.6167619995026112,0.737414111328125,2.480392919921875,9.366116894531249,9.717009534358196
0.6192489430489928,0.488417138671875,2.2601263671875,9.380482104492186,9.661271500672298
0.6217358865953743,0.2920926025390625,2.059013427734375,9.437942944335937,9.664347955479924
0.6242228301417557,0.0430956298828125,1.9201497314453124,9.481038574218749,9.673620039587474
0.6267097736881373,-0.239420166015625,1.7381904052734374,9.457096557617186,9.618487573468835
0.6291967172345188,-0.5123591552734374,1.6232687255859375,9.481038574218749,9.632632335207328
0.6316836607809002,-0.8283937744140625,1.4891934326171874,9.519345800781249,9.67067101084975
0.6341706043272818,-1.0534487304687499,1.4700398193359374,9.600748657226562,9.769603168880357
0.6366575478736632,-1.2976572998046874,1.4317325927734375,9.600748657226562,9.793270519299657
0.6391444914200447,-1.5083470458984374,1.43652099609375,9.634267480468749,9.856866300620416
0.6416314349664263,-1.7334020019531249,1.3934253662109375,9.6151138671875,9.868978236400997
0.6441183785128077,-1.9201497314453124,1.4604630126953124,9.6151138671875,9.91313985988304
0.6466053220591892,-2.0446482177734375,1.4700398193359374,9.667786303710937,9.99038014387331
0.6490922656055708,-2.1260510742187497,1.6519991455078125,9.682151513671874,10.04953990392813
0.6515792091519522,-2.1499930908203124,1.8148048583984373,9.634267480468749,10.036687543699829
0.6540661526983337,-2.0925322509765625,1.9823989746093749,9.672574707031249,10.092933090980539
0.6565530962447153,-2.0542250244140625,2.0925322509765625,9.639055883789062,10.075213645532015
0.6590400397910967,-1.9488801513671874,2.2649147705078123,9.648632690429688,10.100697280727003
0.6615269833374782,-1.8148048583984373,2.5474305664062498,9.595960253906249,10.092837676257155
0.6640139268838597,-1.608903515625,2.6862942626953124,9.595960253906249,10.0939189903094
0.6665008704302412,-1.446097802734375,2.839523168945312,9.581595043945311,10.09757665324744
0.6689878139766227,-1.197100830078125,3.0645781249999997,9.543287817382812,10.094505032294027
0.6714747575230042,-0.93852705078125,3.1938650146484373,9.533711010742186,10.098180647680561
0.6739617010693857,-0.6416460449218749,3.356670727539062,9.524134204101562,10.118699538864607
0.6764486446157671,-0.33518823242187495,3.4763808105468748,9.4618849609375,10.085873373442078
0.6789355881621487,-0.08140285644531249,3.5769372802734374,9.428366137695312,10.084403540045736
0.6814225317085302,0.1580173095703125,3.5960908935546874,9.423577734375,10.087648710211862
0.6839094752549116,0.40222587890625,3.6583401367187496,9.375693701171874,10.07218301024079
0.6863964188012932,0.59376201171875,3.6152445068359373,9.380482104492186,10.070550664361203
0.6888833623476747,0.7757213378906249,3.5673604736328124,9.356540087890625,10.04353756199482
0.6913703058940561,0.9337386474609375,3.5242648437499997,9.34696328125,10.032847707988504
0.6938572494404377,1.0678139404296874,3.438073583984375,9.34696328125,10.016301670841534
0.6963441929868192,1.0869675537109373,3.289633081054687,9.380482104492186,9.99983143775373
0.6988311365332006,1.0726023437499999,3.1459809814453124,9.351751684570312,9.92486431611522
0.7013180800795822,1.0678139404296874,3.0023288818359375,9.370905297851563,9.897882168796752
0.7038050236259636,0.93852705078125,2.786850732421875,9.361328491210937,9.812331076263485
0.7062919671723451,0.842758984375,2.5953145996093747,9.375693701171874,9.764708544287654
0.7087789107187267,0.6177040283203125,2.3511060302734372,9.394847314453125,9.704247209035762
0.7112658542651081,0.40222587890625,2.2170307373046874,9.380482104492186,9.647303014859325
0.7137527978114896,0.181959326171875,2.0446482177734375,9.390058911132812,9.611810541483313
0.7162397413578712,-0.0383072265625,1.8531120849609375,9.466673364257812,9.64641883957894
0.7187266849042526,-0.3447650390625,1.7190367919921874,9.490615380859374,9.651203589800968
0.7212136284506341,-0.612915625,1.5945383056640625,9.552864624023437,9.704403149937537
0.7237005719970157,-0.9002198242187499,1.5322890624999999,9.562441430664062,9.726180731297056
0.7261875155433971,-1.216254443359375,1.4604630126953124,9.548076220703125,9.735398635844295
0.7286744590897786,-1.3934253662109375,1.388636962890625,9.610325463867188,9.809602560112221
0.7311614026361601,-1.656787548828125,1.388636962890625,9.591171850585937,9.831776800971943
0.7336483461825416,-1.7956512451171873,1.43652099609375,9.648632690429688,9.918874369661989
0.7361352897289231,-2.0254946044921875,1.4604630126953124,9.629479077148437,9.947987128133889
0.7386222332753046,-2.0781670410156248,1.599326708984375,9.634267480468749,9.984775113023431
0.7411091768216861,-2.1452046874999997,1.7286135986328124,9.600748657226562,9.9882121975801
0.7435961203680675,-2.1452046874999997,1.8435352783203125,9.624690673828125,10.031709527321732
0.7460830639144491,-2.1164742675781247,2.0446482177734375,9.672574707031249,10.110328932476188
0.7485700074608306,-2.0446482177734375,2.2170307373046874,9.658209497070311,10.118143224618686
0.7510569510072121,-1.9201497314453124,2.370259643554687,9.605537060546874,10.078266120249703
0.7535438945535936,-1.7334020019531249,2.5857377929687497,9.591171850585937,10.083714588475521
0.7560308380999751,-1.5849614990234373,2.7820623291015623,9.576806640625,10.097880925635424
0.7585177816463566,-1.3072341064453123,2.9927520751953125,9.548076220703125,10.091143914789651
0.7610047251927381,-1.0630255371093749,3.1268273681640624,9.552864624023437,10.107635490448047
0.7634916687391196,-0.7613561279296874,3.2609026611328122,9.533711010742186,10.104691729848364
0.7659786122855011,-0.488417138671875,3.418919970703125,9.495403784179686,10.10397239169006
0.7684655558318826,-0.22505495605468748,3.5338416503906247,9.485826977539062,10.125196293953424
0.770952499378264,0.0430956298828125,3.5721488769531247,9.466673364257812,10.118300717906184
0.7734394429246456,0.3112462158203125,3.6487633300781246,9.394847314453125,10.083328027376297
0.7759263864710271,0.507570751953125,3.6487633300781246,9.375693701171874,10.073466845399107
0.7784133300174085,0.7038952880859375,3.5865140869140624,9.390058911132812,10.076296850865765
0.7809002735637901,2.987963671875,0.09576806640624999,8.59997236328125,9.104758265664675
0.7833872171101716,1.3168109130859373,-0.7613561279296874,8.719682446289061,8.851356737725572
0.785874160656553,-0.24899697265624998,-1.5322890624999999,8.8489693359375,8.984106386937505
0.7883611042029346,-1.637633935546875,-2.059013427734375,9.006986645507812,9.383346398529753
0.790848047749316,-2.882618798828125,-2.446874096679687,9.212887988281249,9.958613812623534
0.7933349912956975,-3.9408559326171875,-2.6575638427734374,9.370905297851563,10.50746673377381
0.7958219348420791,-4.764461303710937,-2.7150246826171873,9.452308154296874,10.9278351005845
0.7983088783884605,-5.444414575195312,-2.5665841796874997,9.557653027343749,11.295031465609753
0.800795821934842,-5.889736083984375,-2.31758720703125,9.6917283203125,11.575396297143776
0.8032827654812236,-6.124367846679687,-2.001552587890625,9.7683427734375,11.701906461038915
0.805769709027605,-6.2201359130859375,-1.5610194824218748,9.868899243164062,11.769538855600345
0.8082566525739865,-6.129156249999999,-1.0678139404296874,9.94072529296875,11.727096925435495
0.8107435961203681,-5.951985327148437,-0.5602431884765625,9.945513696289062,11.604018461201187
0.8132305396667495,-5.635950708007812,0.009576806640625,9.993397729492187,11.473100290598822
0.815717483213131,-5.200206005859375,0.584185205078125,10.041281762695311,11.32301878012421
0.8182044267595125,-4.697423657226563,1.1635820068359375,9.993397729492187,11.10349991137586
0.820691370305894,-4.11802685546875,1.7190367919921874,10.01733974609375,10.966327017887723
0.8231783138522755,-3.5769372802734374,2.2170307373046874,10.01733974609375,10.865394663141938
0.825665257398657,-2.935291235351562,2.73896669921875,9.955090502929687,10.734137139858136
0.8281522009450385,-2.346317626953125,3.1555577880859373,9.907206469726562,10.659056777890463
0.83063914449142,-1.7669208251953124,3.5242648437499997,9.859322436523437,10.618318642738856
0.8331260880378015,-1.2114660400390624,3.8690298828125,9.787496386718749,10.593966571605584
0.835613031584183,-0.6751648681640625,4.103661645507812,9.725247143554688,10.577160228683004
0.8380999751305644,-0.22505495605468748,4.290409374999999,9.696516723632811,10.605691816662572
0.840586918676946,0.19153613281249998,4.44363828125,9.639055883789062,10.615743289830052
0.8430738622233275,0.5698199951171875,4.548983154296875,9.533711010742186,10.578732825875644
0.8455608057697089,0.9097966308593749,4.6255976074218745,9.528922607421874,10.631286337670796
0.8480477493160905,1.1635820068359375,4.592078784179687,9.442731347656249,10.564387627816178
0.850534692862472,1.3359645263671873,4.5585599609375,9.423577734375,10.553155331415446
0.8530216364088534,1.484405029296875,4.434061474609375,9.34696328125,10.451319631159153
0.855508579955235,1.5705962890624998,4.309562988281249,9.3086560546875,10.377388081673093
0.8579955235016165,1.6232687255859375,4.113238452148437,9.241618408203124,10.245059429917267
0.8604824670479979,1.637633935546875,3.9791631591796874,9.246406811523437,10.198608889373817
0.8629694105943795,1.6232687255859375,3.787627026367187,9.265560424804686,10.140598100311408
0.8654563541407609,1.5322890624999999,3.5529952636718747,9.236830004882812,10.01452513371629
0.8679432976871424,1.4030021728515625,3.361459130859375,9.212887988281249,9.906822279120636
0.870430241233524,1.3168109130859373,3.1316157714843746,9.265560424804686,9.868719182687219
0.8729171847799054,1.1109095703125,2.887407202148437,9.251195214843749,9.754786175389928
0.8754041283262869,0.9816226806640624,2.7437551025390623,9.275137231445312,9.722136895356197
0.8778910718726685,0.7996633544921875,2.4851813232421875,9.313444458007812,9.672426549853244
0.8803780154190499,0.5315127685546874,2.27927998046875,9.246406811523437,9.538011426743486
0.8828649589654315,0.3016694091796875,2.0877438476562498,9.299079248046874,9.535331859317607
0.885351902511813,0.105344873046875,1.93451494140625,9.356540087890625,9.555013763313248
0.8878388460581944,-0.1580173095703125,1.7334020019531249,9.361328491210937,9.521771006008105
0.890325789604576,-0.37828386230468747,1.618480322265625,9.418789331054686,9.564317523839888
0.8928127331509574,-0.5746083984375,1.4987702392578124,9.495403784179686,9.630118382774624
0.8952996766973389,-0.8571241943359375,1.4030021728515625,9.514557397460937,9.65556209917998
0.8977866202437205,-1.0342951171875,1.3407529296874998,9.543287817382812,9.692354057364533
0.9002735637901019,-1.254561669921875,1.2880804931640624,9.572018237304688,9.73943578837093
0.9027605073364834,-1.4125789794921875,1.3120225097656248,9.610325463867188,9.80179258915883
0.905247450882865,-1.608903515625,1.2641384765625,9.6151138671875,9.830413586899464
0.9077343944292464,-1.7956512451171873,1.3072341064453123,9.672574707031249,9.92430984332137
0.9102213379756279,-1.9009961181640624,1.369483349609375,9.672574707031249,9.952284780352338
0.9127082815220094,-2.01112939453125,1.455674609375,9.686939916992188,10.000021748243515
0.9151952250683909,-2.0542250244140625,1.5418658691406248,9.682151513671874,10.01704790559815
0.9176821686147724,-2.0925322509765625,1.7429788085937499,9.672574707031249,10.048650049219775
0.9201691121611539,-2.059013427734375,1.905784521484375,9.677363110351562,10.075857666100347
0.9226560557075354,-2.0446482177734375,2.020706201171875,9.658209497070311,10.076946490638804
0.9251429992539169,-1.9632453613281249,2.1787235107421874,9.667786303710937,10.102834280500593
0.9276299428002984,-1.8626888916015625,2.360682836914062,9.662997900390625,10.120077163063042
0.9301168863466799,-1.7381904052734374,2.5234885498046875,9.634267480468749,10.109817517205622
0.9326038298930613,-1.5610194824218748,2.710236279296875,9.629479077148437,10.124674306433622
0.9350907734394429,-1.4030021728515625,2.863465185546875,9.581595043945311,10.098257847372613
0.9375777169858244,-1.16837041015625,3.0933085449218747,9.581595043945311,10.136104318502879
0.9400646605322058,-0.9193734375,3.19865341796875,9.548076220703125,10.111497946507244
0.9425516040785874,-0.70868369140625,3.327940307617187,9.495403784179686,10.086630373427107
0.9450385476249689,-0.44053310546874996,3.39018955078125,9.457096557617186,10.056049418501042
0.9475254911713503,-0.16280571289062498,3.5769372802734374,9.509768994140625,10.161530019100379
0.9500124347177319,0.076614453125,3.6343981201171873,9.437942944335937,10.11382650090852
0.9524993782641133,0.24899697265624998,3.6631285400390623,9.418789331054686,10.109109884457201
0.9549863218104948,0.5267243652343749,3.6583401367187496,9.447519750976562,10.1447779945128
0.9574732653568764,0.6464344482421874,3.6535517333984373,9.418789331054686,10.123236153882932
0.9599602089032578,0.7805097412109374,3.5482068603515624,9.327809667968749,10.01034467847248
0.9624471524496393,0.8906430175781249,3.4955344238281247,9.337386474609374,10.009934668575323
0.9649340959960209,0.9911994873046874,3.394977954101562,9.299079248046874,9.948930927186334
0.9674210395424023,1.0534487304687499,3.2513258544921873,9.351751684570312,9.956712992231886
0.9699079830887838,1.0342951171875,3.1411925781249996,9.342174877929686,9.91025169469101
0.9723949266351654,0.928950244140625,2.920926025390625,9.337386474609374,9.827590934614204
0.9748818701815468,0.86191259765625,2.7533319091796873,9.337386474609374,9.772948178739295
0.9773688137279283,0.7230489013671875,2.5761609863281247,9.34696328125,9.722403392283368
0.9798557572743098,0.5793968017578125,2.370259643554687,9.404424121093749,9.715813114771255
0.9823427008206913,0.39264907226562495,2.2026655273437497,9.390058911132812,9.652932977797178
0.9848296443670728,0.1771709228515625,2.0638018310546875,9.447519750976562,9.6719334664203
0.9873165879134543,-0.05746083984375,1.8818425048828125,9.423577734375,9.609810106193953
0.9898035314598358,-0.3495534423828125,1.70467158203125,9.452308154296874,9.61115093292441
0.9922904750062173,-0.622492431640625,1.5418658691406248,9.452308154296874,9.597446359821857
0.9947774185525988,-0.8667010009765624,1.4939818359375,9.504980590820312,9.66063188321943
0.9972643620989803,-1.1156979736328125,1.4221557861328125,9.576806640625,9.74589834137
0.9997513056453617,-1.35990654296875,1.407790576171875,9.581595043945311,9.779477680230418
1.0022382491917432,-1.599326708984375,1.369483349609375,9.557653027343749,9.786831047791784
1.0047251927381249,-1.7621324218749999,1.388636962890625,9.619902270507811,9.8780536028638
1.0072121362845063,-1.944091748046875,1.455674609375,9.634267480468749,9.935672658578314
1.0096990798308878,-2.01112939453125,1.5418658691406248,9.643844287109374,9.971244878849406
1.0121860233772693,-2.1021090576171875,1.70467158203125,9.619902270507811,9.993362166299312
1.0146729669236507,-2.1547814941406247,1.867477294921875,9.65342109375,10.065738599218493
1.0171599104700322,-2.1595698974609374,1.93451494140625,9.572018237304688,10.001481057115342
1.0196468540164139,-2.04943662109375,2.1595698974609374,9.624690673828125,10.074651516195173
1.0221337975627953,-1.9584569580078124,2.3415292236328122,9.591171850585937,10.065231752372508
1.0246207411091768,-1.8339584716796873,2.4947581298828125,9.591171850585937,10.07858121314375
1.0271076846555582,-1.62805712890625,2.6671406494140624,9.595960253906249,10.09191074342653
1.0295946282019397,-1.407790576171875,2.901772412109375,9.586383447265625,10.114390986907999
1.0320815717483212,-1.1635820068359375,3.0262708984374997,9.562441430664062,10.0971542898107
1.0345685152947028,-0.9145850341796874,3.21780703125,9.552864624023437,10.121658480704921
1.0370554588410843,-0.6512228515624999,3.39018955078125,9.543287817382812,10.148488496225966
1.0395424023874658,-0.3495534423828125,3.4572271972656248,9.428366137695312,10.048318044779156
1.0420293459338472,-0.0718260498046875,3.5769372802734374,9.442731347656249,10.097762850871993
1.0445162894802287,0.1867477294921875,3.6056677001953124,9.423577734375,10.091557441471089
1.0470032330266101,0.4070142822265625,3.6200329101562496,9.404424121093749,10.08531070150844
1.0494901765729918,0.6272808349609375,3.6487633300781246,9.423577734375,10.124760362627866
1.0519771201193733,0.8092401611328125,3.6056677001953124,9.323021264648437,10.028680606326486
1.0544640636657547,0.9002198242187499,3.5338416503906247,9.323021264648437,10.010852013841724
1.0569510072121362,1.0103531005859374,3.42849677734375,9.3852705078125,10.04284352386988
1.0594379507585177,1.0582371337890624,3.27526787109375,9.337386474609374,9.951584378126286
1.0619248943048991,1.0821791503906248,3.1411925781249996,9.370905297851563,9.94243776081652
1.0644118378512808,1.01514150390625,2.96881005859375,9.356540087890625,9.868596042663048
1.0668987813976623,0.9337386474609375,2.806004345703125,9.361328491210937,9.817331580945234
1.0693857249440437,0.8283937744140625,2.6096798095703124,9.380482104492186,9.771904086034874
1.0718726684904252,0.6272808349609375,2.384624853515625,9.409212524414063,9.726931544300298
1.0743596120368066,0.45010991210937495,2.1978771240234374,9.409212524414063,9.67298005347241
1.076846555583188,0.15322890625,2.001552587890625,9.433154541015625,9.644381600418242
1.0793334991295698,-0.028730419921875,1.8818425048828125,9.380482104492186,9.567423956473899
1.0818204426759512,-0.3016694091796875,1.7334020019531249,9.481038574218749,9.642913427934205
1.0843073862223327,-0.55545478515625,1.599326708984375,9.495403784179686,9.645157798866624
1.0867943297687142,-0.8810662109374999,1.4796166259765624,9.485826977539062,9.640874258890108
1.0892812733150956,-1.158793603515625,1.3838485595703125,9.567229833984374,9.736001548256565
1.0917682168614773,-1.3742717529296875,1.388636962890625,9.557653027343749,9.755289173402275
1.0942551604078588,-1.6328455322265625,1.388636962890625,9.5384994140625,9.776372958254457
1.0967421039542402,-1.8004396484374998,1.39821376953125,9.6151138671875,9.88164962705893
1.0992290475006217,-1.9632453613281249,1.4125789794921875,9.595960253906249,9.896068154404963
1.1017159910470031,-2.0829554443359375,1.5275006591796874,9.65342109375,9.99302258879367
1.1042029345933846,-2.1643583007812497,1.66636435546875,9.643844287109374,10.023220523032982
1.1066898781397663,-2.1404162841796874,1.8195932617187498,9.667786303710937,10.067690575394868
1.1091768216861477,-2.1404162841796874,1.9871873779296874,9.610325463867188,10.044334276896539
1.1116637652325292,-2.1212626708984375,2.1452046874999997,9.639055883789062,10.100151325649913
1.1141507087789106,-1.9393033447265624,2.3367408203125,9.662997900390625,10.128908309740789
1.116637652325292,-1.8004396484374998,2.5474305664062498,9.629479077148437,10.122146645626417
1.1191245958716736,-1.5610194824218748,2.73896669921875,9.586383447265625,10.091455197439975
1.1216115394180552,-1.4030021728515625,2.9496564453125,9.586383447265625,10.1275681108748
1.1240984829644367,-1.1109095703125,3.1747114013671873,9.576806640625,10.15027772956493
1.1265854265108182,-0.8762778076171874,3.2417490478515623,9.495403784179686,10.071717465754428
1.1290723700571996,-0.584185205078125,3.375824340820312,9.481038574218749,10.081049289619159
1.131559313603581,-0.32561142578124996,3.5290532470703124,9.481038574218749,10.12177514406839
1.1340462571499625,-0.028730419921875,3.6008792968749996,9.4618849609375,10.123952990887853
1.1365332006963442,0.239420166015625,3.6487633300781246,9.433154541015625,10.117074698226828
1.1390201442427257,0.47884033203125,3.6727053466796873,9.414000927734374,10.116395904396635
1.1415070877891071,0.6655880615234374,3.6679169433593746,9.380482104492186,10.09406096096727
1.1439940313354886,0.8475473876953125,3.5960908935546874,9.356540087890625,10.059574976379489
1.14648097488187,0.948103857421875,3.4859576171874997,9.337386474609374,10.011872332860815
1.1489679184282515,1.0199299072265624,3.361459130859375,9.342174877929686,9.980776320202432
1.1514548619746332,1.1156979736328125,3.27526787109375,9.294290844726563,9.917459548803581
1.1539418055210147,1.0917559570312498,3.0885201416015624,9.356540087890625,9.913411630266145
1.1564287490673961,1.01514150390625,2.916137622070312,9.351751684570312,9.848331354786485
1.1589156926137776,0.9145850341796874,2.767697119140625,9.370905297851563,9.81379025806784
1.161402636160159,0.7900865478515624,2.5713725830078125,9.404424121093749,9.781584062060203
1.1638895797065405,0.5458779785156249,2.360682836914062,9.380482104492186,9.688356451773803
1.1663765232529222,0.37828386230468747,2.1356278808593747,9.3852705078125,9.63261686307512
1.1688634667993036,0.16280571289062498,1.9680337646484374,9.466673364257812,9.670448137728387
1.171350410345685,-0.143652099609375,1.8052280517578123,9.4618849609375,9.633626070104171
1.1738373538920666,-0.45010991210937495,1.6615759521484375,9.457096557617186,9.612497535907718
1.176324297438448,-0.70868369140625,1.5705962890624998,9.519345800781249,9.674034822788974
1.1788112409848295,-1.005564697265625,1.47482822265625,9.533711010742186,9.699377520391558
1.1812981845312112,-1.24498486328125,1.4221557861328125,9.562441430664062,9.74745097472724
1.1837851280775926,-1.4987702392578124,1.4173673828125,9.586383447265625,9.805814098072329
1.186272071623974,-1.6903063720703124,1.37906015625,9.629479077148437,9.873490256401597
1.1887590151703555,-1.8770541015625,1.3838485595703125,9.595960253906249,9.875263142345418
1.191245958716737,-1.9776105712890624,1.5322890624999999,9.639055883789062,9.958426164487033
1.1937329022631185,-2.0733786376953125,1.6328455322265625,9.648632690429688,10.003059347129355
1.1962198458095001,-2.1547814941406247,1.7429788085937499,9.629479077148437,10.020375527490838
1.1987067893558816,-2.1547814941406247,1.89620771484375,9.610325463867188,10.029807700388774
1.201193732902263,-2.1164742675781247,2.04943662109375,9.667786303710937,10.106717855140772
1.2036806764486445,-2.059013427734375,2.2170307373046874,9.6151138671875,10.079939298662744
1.206167619995026,-1.8626888916015625,2.442085693359375,9.667786303710937,10.14393831087449
1.2086545635414074,-1.695094775390625,2.6240450195312497,9.6151138671875,10.109865144553844
1.2111415070877891,-1.5083470458984374,2.839523168945312,9.557653027343749,10.083984035535801
1.2136284506341706,-1.2785036865234374,3.0071172851562498,9.591171850585937,10.132517135964369
1.216115394180552,-1.0486603271484374,3.189076611328125,9.533711010742186,10.107499381696837
1.2186023377269335,-0.7709329345703124,3.2321722412109373,9.457096557617186,10.023869027803315
1.221089281273315,-0.45010991210937495,3.4428619873046875,9.504980590820312,10.119315867610691
1.2235762248196966,-0.1867477294921875,3.5098996337890624,9.447519750976562,10.080173589717358
1.226063168366078,0.0909796630859375,3.6152445068359373,9.423577734375,10.093665709696895
1.2285501119124596,0.354341845703125,3.6343981201171873,9.399635717773437,10.084024963573315
1.231037055458841,0.5458779785156249,3.6679169433593746,9.394847314453125,10.100235320659523
1.2335239990052225,0.7326257080078125,3.6296097167968746,9.428366137695312,10.129407443218968
1.236010942551604,0.9050082275390624,3.5817256835937497,9.394847314453125,10.095095582822166
1.2384978860979856,0.9959878906249999,3.4524387939453125,9.323021264648437,9.991498936861133
1.240984829644367,1.0678139404296874,3.31357509765625,9.332598071289063,9.960792804762677
1.2434717731907485,1.0726023437499999,3.1699229980468746,9.351751684570312,9.932479407037707
1.24595871673713,1.0534487304687499,2.96881005859375,9.323021264648437,9.840849195715814
1.2484456602835114,0.9433154541015625,2.829946362304687,9.361328491210937,9.825116364696452
1.250932603829893,0.8571241943359375,2.6288334228515624,9.370905297851563,9.770327177270984
1.2534195473762746,0.679953271484375,2.418143676757812,9.390058911132812,9.720234649811228
1.255906490922656,0.507570751953125,2.288856787109375,9.394847314453125,9.682956651871473
1.2583934344690375,0.2825157958984375,2.068590234375,9.437942944335937,9.666108200988868
1.260880378015419,-0.0047884033203125,1.8914193115234375,9.3852705078125,9.573964301459727
1.2633673215618004,-0.27293898925781246,1.7477672119140624,9.457096557617186,9.62111538331153
1.2658542651081819,-0.507570751953125,1.599326708984375,9.485826977539062,9.63308815687456
1.2683412086545636,-0.842758984375,1.4891934326171874,9.5384994140625,9.690764204001953
1.270828152200945,-1.0630255371093749,1.426944189453125,9.533711010742186,9.6983420566975
1.2733150957473265,-1.369483349609375,1.4125789794921875,9.595960253906249,9.795576410436958
1.275802039293708,-1.5753846923828123,1.3407529296874998,9.552864624023437,9.7742865659023
1.2782889828400894,-1.7717092285156248,1.4125789794921875,9.562441430664062,9.82723862937047
1.2807759263864709,-1.944091748046875,1.4939818359375,9.624690673828125,9.932076571282021
1.2832628699328525,-2.0254946044921875,1.5658078857421873,9.619902270507811,9.954742709985062
1.285749813479234,-2.1404162841796874,1.6519991455078125,9.6151138671875,9.988037731472659
1.2882367570256155,-2.1835119140624997,1.8243816650390623,9.624690673828125,10.03647165618763
1.290723700571997,-2.1212626708984375,1.9536685546875,9.643844287109374,10.065798963546511
1.2932106441183784,-2.0638018310546875,2.1212626708984375,9.648632690429688,10.092331054401669
1.2956975876647598,-2.0063409912109376,2.31758720703125,9.562441430664062,10.041757851595943
1.2981845312111415,-1.8195932617187498,2.5378537597656248,9.629479077148437,10.123165939630166
1.300671474757523,-1.6472107421875,2.6719290527343746,9.562441430664062,10.064432135341987
1.3031584183039044,-1.3934253662109375,2.849099975585937,9.562441430664062,10.074685654498825
1.305645361850286,-1.1444283935546875,3.0693665283203124,9.562441430664062,10.107967814948157
1.3081323053966674,-0.8762778076171874,3.2225954345703123,9.476250170898437,10.047502248444061
1.3106192489430488,-0.603338818359375,3.35188232421875,9.481038574218749,10.074186085782477
1.3131061924894305,-0.316034619140625,3.5242648437499997,9.481038574218749,10.119803012668351
1.315593136035812,-0.0430956298828125,3.5386300537109374,9.447519750976562,10.088577171010465
1.3180800795821934,0.201112939453125,3.6535517333984373,9.414000927734374,10.100113868190688
1.3205670231285749,0.43574470214843747,3.6679169433593746,9.404424121093749,10.103795385806421
1.3230539666749563,0.6272808349609375,3.6822821533203123,9.366116894531249,10.083492886128013
1.3255409102213378,0.8188169677734375,3.5913024902343746,9.375693701171874,10.073308651146915
1.3280278537677195,0.9528922607421875,3.5003228271484375,9.34696328125,10.026264814768986
1.330514797314101,1.0199299072265624,3.4428619873046875,9.34696328125,10.012955520740045
1.3330017408604824,1.1013327636718748,3.2609026611328122,9.337386474609374,9.95154290539604
1.3354886844068639,1.0726023437499999,3.0645781249999997,9.327809667968749,9.876747849059313
1.3379756279532453,1.0199299072265624,2.959233251953125,9.323021264648437,9.834431552266109
1.3404625714996268,0.9145850341796874,2.7246014892578123,9.380482104492186,9.810879857215127
1.3429495150460085,0.7661445312499999,2.5617957763671875,9.390058911132812,9.763348882280187
1.34543645859239,0.603338818359375,2.327164013671875,9.34696328125,9.651188147440937
1.3479234021387714,0.4070142822265625,2.1452046874999997,9.409212524414063,9.659236207216326
1.3504103456851528,0.1484405029296875,2.001552587890625,9.437942944335937,9.648990328813795
1.3528972892315343,-0.13407529296874998,1.7956512451171873,9.457096557617186,9.626994072833451
1.3553842327779158,-0.40222587890625,1.608903515625,9.471461767578125,9.615557404277016
1.3578711763242974,-0.689530078125,1.5610194824218748,9.533711010742186,9.685240275258355
1.360358119870679,-0.9433154541015625,1.4939818359375,9.5384994140625,9.700762693939517
1.3628450634170604,-1.1731588134765625,1.388636962890625,9.557653027343749,9.728995097513256
1.3653320069634418,-1.43652099609375,1.3742717529296875,9.605537060546874,9.80910585347401
1.3678189505098233,-1.675941162109375,1.426944189453125,9.65342109375,9.90118615681596
1.370305894056205,-1.8435352783203125,1.4317325927734375,9.643844287109374,9.922308863043591
1.3727928376025864,-2.0159177978515626,1.446097802734375,9.639055883789062,9.95321665360382
1.3752797811489679,-2.0877438476562498,1.5801730957031248,9.634267480468749,9.983723317030986
1.3777667246953493,-2.1978771240234374,1.6903063720703124,9.610325463867188,10.002307484036926
1.3802536682417308,-2.1356278808593747,1.89620771484375,9.662997900390625,10.076211518536642
1.3827406117881123,-2.1068974609374997,1.9967641845703124,9.643844287109374,10.07123710145381
1.385227555334494,-2.0159177978515626,2.250549560546875,9.682151513671874,10.142630616653205
1.3877144988808754,-1.93451494140625,2.384624853515625,9.586383447265625,10.06615772519668
1.3902014424272569,-1.7238251953125,2.6001030029296874,9.595960253906249,10.090320219120235
1.3926883859736383,-1.5035586425781249,2.7724855224609373,9.557653027343749,10.064596164527417
1.3951753295200198,-1.3120225097656248,2.959233251953125,9.524134204101562,10.059204583034091
1.3976622730664012,-1.0342951171875,3.1411925781249996,9.519345800781249,10.077440234362944
1.400149216612783,-0.7422025146484375,3.303998291015625,9.5384994140625,10.12177061347743
1.4026361601591644,-0.4836287353515625,3.423708374023437,9.471461767578125,10.082869819585598
1.4051231037055458,-0.2059013427734375,3.5434184570312497,9.452308154296874,10.096748940543822
1.4076100472519273,0.0718260498046875,3.5769372802734374,9.447519750976562,10.10224077784393
1.4100969907983087,0.3016694091796875,3.6487633300781246,9.414000927734374,10.100885690806589
1.4125839343446902,0.5698199951171875,3.6200329101562496,9.356540087890625,10.04859072277073
1.4150708778910719,0.718260498046875,3.5721488769531247,9.332598071289063,10.018659216801435
1.4175578214374533,0.9002198242187499,3.5529952636718747,9.351751684570312,10.044373083744693
1.4200447649838348,0.9911994873046874,3.438073583984375,9.380482104492186,10.039734603326046
1.4225317085302163,1.0486603271484374,3.299209887695312,9.351751684570312,9.97194734917234
1.4250186520765977,0.9959878906249999,3.4620156005859375,9.437942944335937,10.102094382726413
1.4275055956229792,1.0773907470703123,3.0645781249999997,9.342174877929686,9.89083623137709
1.4299925391693609,0.9720458740234375,2.863465185546875,9.361328491210937,9.837620503475556
1.4324794827157423,0.8379705810546875,2.6192566162109374,9.289502441406249,9.688010916858557
1.4349664262621238,0.718260498046875,2.461239306640625,9.370905297851563,9.715321053311097
1.4374533698085052,0.4740519287109375,2.231395947265625,9.370905297851563,9.644569415266318
1.4399403133548867,0.26815058593749996,2.0829554443359375,9.423577734375,9.654761801082179
1.4424272569012682,0.076614453125,1.924938134765625,9.476250170898437,9.67008655072721
1.4449142004476498,-0.258573779296875,1.70467158203125,9.442731347656249,9.598851020092706
1.4474011439940313,-0.5506663818359374,1.6041151123046875,9.4618849609375,9.612683588448327
1.4498880875404128,-0.833182177734375,1.5370774658203123,9.5001921875,9.659733499256738
1.4523750310867942,-1.1013327636718748,1.4413093994140624,9.519345800781249,9.690626972287607
1.4548619746331757,-1.2976572998046874,1.3742717529296875,9.552864624023437,9.738057293092666
1.4573489181795571,-1.5466542724609373,1.388636962890625,9.605537060546874,9.827858071562046
1.4598358617259388,-1.7573440185546874,1.39821376953125,9.619902270507811,9.878551484857386
1.4623228052723203,-1.915361328125,1.43652099609375,9.586383447265625,9.880837473994971
1.4648097488187017,-2.0350714111328125,1.5275006591796874,9.624690673828125,9.955372643908342
1.4672966923650832,-2.1021090576171875,1.608903515625,9.677363110351562,10.032885416583804
1.4697836359114647,-2.1643583007812497,1.7812860351562498,9.634267480468749,10.033769813904494
1.4722705794578461,-2.1835119140624997,1.915361328125,9.639055883789062,10.067161051008283
1.4747575230042278,-2.0733786376953125,2.1068974609374997,9.586383447265625,10.031782667311155
1.4772444665506093,-2.0159177978515626,2.3319524169921872,9.600748657226562,10.08346673629898
1.4797314100969907,-1.8052280517578123,2.4756045166015626,9.610325463867188,10.086913381353359
1.4822183536433722,-1.6328455322265625,2.6671406494140624,9.629479077148437,10.124558808812788
1.4847052971897536,-1.426944189453125,2.882618798828125,9.567229833984374,10.093440818445016
1.487192240736135,-1.16837041015625,3.0933085449218747,9.557653027343749,10.113475098130637
1.4896791842825168,-0.8810662109374999,3.2130186279296873,9.548076220703125,10.112641884682528
1.4921661278288982,-0.63206923828125,3.3327287109375,9.504980590820312,10.092137940721946
1.4946530713752797,-0.36391865234375,3.447650390625,9.481038574218749,10.094989967668333
1.4971400149216612,-0.086191259765625,3.5577836669921874,9.447519750976562,10.095587303345388
1.4996269584680426,0.16759411621093748,3.6056677001953124,9.428366137695312,10.095692912250247
1.5021139020144243,0.39743747558593745,3.7014357666015623,9.380482104492186,10.092176563753508
1.5046008455608058,0.6081272216796875,3.6104561035156246,9.428366137695312,10.114311643389316
1.5070877891071872,0.7709329345703124,3.5865140869140624,9.370905297851563,10.063363602023962
1.5095747326535687,0.9433154541015625,3.5434184570312497,9.390058911132812,10.080618272810517
1.5120616761999501,1.0199299072265624,3.4093431640625,9.299079248046874,9.956744080644581
1.5145486197463316,1.0773907470703123,3.2561142578125,9.332598071289063,9.942858625266222
1.5170355632927133,1.0390835205078124,3.1172505615234374,9.294290844726563,9.858031645936073
1.5195225068390947,1.0295067138671874,2.920926025390625,9.318232861328125,9.81942750763186
1.5220094503854762,0.9576806640625,2.786850732421875,9.390058911132812,9.841590095795713
1.5244963939318577,0.8283937744140625,2.5665841796874997,9.404424121093749,9.783495471778993
1.5269833374782391,0.5889736083984375,2.384624853515625,9.366116894531249,9.682844173352063
1.5294702810246206,0.38786066894531246,2.1930887207031247,9.423577734375,9.683175685238714
1.5319572245710023,0.1867477294921875,2.0159177978515626,9.433154541015625,9.647963716600975
1.5344441681173837,-0.08140285644531249,1.848323681640625,9.466673364257812,9.645767540361904
1.5369311116637652,-0.36391865234375,1.714248388671875,9.442731347656249,9.603971034296064
1.5394180552101466,-0.6464344482421874,1.5322890624999999,9.5001921875,9.644658566603969
1.541904998756528,-0.8858546142578124,1.47482822265625,9.533711010742186,9.68769850482002
1.5443919423029095,-1.16837041015625,1.35990654296875,9.528922607421874,9.696123002477515
1.5468788858492912,-1.4221557861328125,1.3024457031249999,9.533711010742186,9.726794822857455
1.5493658293956727,-1.62805712890625,1.407790576171875,9.610325463867188,9.848390723503758
1.5518527729420541,-1.8195932617187498,1.4173673828125,9.624690673828125,9.897197608557036
1.5543397164884356,-1.9919757812499999,1.47482822265625,9.605537060546874,9.92015262085062
1.556826660034817,-2.068590234375,1.6136919189453125,9.677363110351562,10.026685590792916
1.5593136035811985,-2.1643583007812497,1.66636435546875,9.658209497070311,10.037042777065196
1.5618005471275802,-2.1547814941406247,1.8531120849609375,9.629479077148437,10.040118275406853
1.5642874906739617,-2.1212626708984375,1.9823989746093749,9.648632690429688,10.075999891241956
1.5667744342203431,-2.020706201171875,2.24097275390625,9.658209497070311,10.118607766116037
1.5692613777667246,-1.9536685546875,2.375048046875,9.658209497070311,10.136009310169296
1.571748321313106,-1.7764976318359373,2.5665841796874997,9.629479077148437,10.122754836731964
1.5742352648594875,1.7717092285156248,0.0383072265625,8.724470849609375,8.902629535126016
1.5767222084058692,0.105344873046875,-0.7757213378906249,8.815450512695312,8.85014174339124
1.5792091519522506,-1.3551181396484375,-1.37906015625,8.98304462890625,9.188756329987314
1.581696095498632,-2.6240450195312497,-1.7477672119140624,9.0788126953125,9.610678563355245
1.5841830390450136,-3.6918589599609373,-1.8626888916015625,9.241618408203124,10.124571264501947
1.586669982591395,-4.568136767578125,-2.039859814453125,9.299079248046874,10.55944015804701
1.5891569261377765,-5.195417602539062,-1.9105729248046874,9.423577734375,10.92915688795699
1.5916438696841582,-5.5545478515625,-1.6041151123046875,9.533711010742186,11.149790704993913
1.5941308132305396,-5.798756420898437,-1.2737152832031249,9.605537060546874,11.292221609281123
1.596617756776921,-5.793968017578124,-0.8571241943359375,9.6917283203125,11.324059568369531
1.5991047003233025,-5.61200869140625,-0.4070142822265625,9.710881933593749,11.223258444255535
1.601591643869684,-5.204994409179688,0.1580173095703125,9.753977563476562,11.056989399403431
1.6040785874160655,-4.740519287109374,0.7038952880859375,9.811438403320311,10.919355073913211
1.6065655309624471,-4.218583325195312,1.20667763671875,9.821015209960937,10.756619168905123
1.6090524745088286,-3.5721488769531247,1.7860744384765623,9.811438403320311,10.593140848730629
1.61153941805521,-2.940079638671875,2.2601263671875,9.777919580078125,10.457530817160631
1.6140263616015915,-2.24097275390625,2.6958710693359373,9.82580361328125,10.432453994770526
1.616513305147973,-1.6424223388671875,2.9831752685546875,9.758765966796874,10.33587920870011
1.6190002486943544,-1.0582371337890624,3.2609026611328122,9.749189160156249,10.334410543287955
1.6214871922407361,-0.4836287353515625,3.4955344238281247,9.725247143554688,10.345679758481015
1.6239741357871176,-0.01915361328125,3.706224169921875,9.701305126953125,10.385171429729112
1.626461079333499,0.373495458984375,3.768473413085937,9.672574707031249,10.387472848875138
1.6289480228798805,0.6177040283203125,3.754108203125,9.600748657226562,10.327112928917316
1.631434966426262,0.842758984375,3.744531396484375,9.591171850585937,10.330650296688688
1.6339219099726436,0.967257470703125,3.6535517333984373,9.533711010742186,10.255519144324023
1.636408853519025,1.01514150390625,3.5577836669921874,9.504980590820312,10.199656510193874
1.6388957970654066,0.9433154541015625,3.356670727539062,9.490615380859374,10.110828983148165
1.641382740611788,0.8379705810546875,3.2225954345703123,9.514557397460937,10.080382854793026
1.6438696841581695,0.6560112548828124,3.0837317382812497,9.514557397460937,10.02330058762056
1.646356627704551,0.5027823486328125,2.916137622070312,9.437942944335937,9.89097648068638
1.6488435712509326,0.22505495605468748,2.7341782958984373,9.428366137695312,9.819392481892475
1.651330514797314,-0.0,2.6048914062499997,9.437942944335937,9.790823574086891
1.6538174583436955,-0.2154781494140625,2.4756045166015626,9.423577734375,9.745710126578834
1.656304401890077,-0.45489831542968745,2.403778466796875,9.485826977539062,9.796223601093686
1.6587913454364585,-0.6512228515624999,2.308010400390625,9.447519750976562,9.747134586933779
1.66127828898284,-0.8188169677734375,2.3127988037109373,9.418789331054686,9.733092622386268
1.6637652325292216,-0.9337386474609375,2.2936451904296873,9.4618849609375,9.780590122040625
1.666252176075603,-1.0582371337890624,2.3367408203125,9.490615380859374,9.831175097619274
1.6687391196219845,1.2737152832031249,-0.948103857421875,8.681375219726561,8.82539105381772
1.671226063168366,-0.5602431884765625,-1.7334020019531249,8.762778076171875,8.950130420437903
1.6737130067147474,-2.1835119140624997,-2.3127988037109373,8.94473740234375,9.493423501676665
1.676199950261129,-3.5817256835937497,-2.6719290527343746,9.05965908203125,10.101751650975805
1.6786868938075106,-4.659116430664063,-2.825157958984375,9.208099584960937,10.69943836723472
1.681173837353892,-5.559336254882812,-2.8203695556640622,9.3852705078125,11.266943087199218
1.6836607809002735,-6.1818286865234375,-2.6048914062499997,9.5001921875,11.62988034105748
1.686147724446655,-6.564900952148437,-2.308010400390625,9.591171850585937,11.849701008350499
1.6886346679930364,-6.694187841796874,-1.8531120849609375,9.696516723632811,11.927640664958856
1.6911216115394179,-6.56968935546875,-1.3120225097656248,9.749189160156249,11.82915510820613
1.6936085550857995,-6.320692382812499,-0.6560112548828124,9.849745629882811,11.721731610051155
1.696095498632181,-2.384624853515625,-2.7581203125,8.973467822265624,9.685906674517677
1.6985824421785625,-3.7014357666015623,-3.1124621582031247,9.169792358398437,10.366925258564669
1.701069385724944,-4.774038110351563,-3.2561142578125,9.318232861328125,10.96463330882316
1.7035563292713254,-5.635950708007812,-3.246537451171875,9.452308154296874,11.473886667068944
1.7060432728177068,-6.2584431396484375,-3.0454245117187497,9.605537060546874,11.862085112252798
1.7085302163640885,-6.698976245117187,-2.7820623291015623,9.715670336914062,12.124784683912626
1.71101715991047,-6.83783994140625,-2.308010400390625,9.816226806640625,12.18364788526047
1.7135041034568514,-6.871358764648437,-1.838746875,9.926360083007811,12.211846127443794
1.715991047003233,-6.7085530517578125,-1.2497732666015624,9.95987890625,12.073351029988512
1.7184779905496144,-6.411672045898437,-0.584185205078125,10.01733974609375,11.907892608125806
1.7209649340959958,-5.961562133789062,0.0430956298828125,10.031704956054687,11.669498045489135
1.7234518776423775,-5.430049365234375,0.6751648681640625,10.022128149414062,11.418596076197938
1.725938821188759,-4.826710546875,1.2928688964843749,10.05564697265625,11.228743506087486
1.7284257647351404,-4.180276098632812,1.89620771484375,10.065223779296874,11.062506121397492
1.7309127082815219,-3.5338416503906247,2.427720483398437,10.007762939453125,10.887478248329101
1.7333996518279033,-2.8203695556640622,2.9640216552734375,10.026916552734374,10.829541281095205
1.7358865953742848,-2.1547814941406247,3.423708374023437,9.911994873046874,10.705722987316486
1.7383735389206665,-1.5514426757812498,3.754108203125,9.86411083984375,10.667754470258897
1.740860482467048,-0.9337386474609375,4.094084838867187,9.792284790039062,10.65468159725267
1.7433474260134294,-0.4070142822265625,4.319139794921875,9.744400756835937,10.666488424211549
1.7458343695598109,0.1005564697265625,4.486733911132812,9.682151513671874,10.671689216174334
1.7483213131061923,0.4836287353515625,4.630386010742187,9.595960253906249,10.665684439204226
1.7508082566525738,0.8858546142578124,4.6830584472656245,9.548076220703125,10.671529146962222
1.7532952001989555,1.149216796875,4.668693237304687,9.476250170898437,10.626227603986601
1.755782143745337,1.3551181396484375,4.6255976074218745,9.414000927734374,10.576195528902389
1.7582690872917184,1.5418658691406248,4.548983154296875,9.394847314453125,10.551481135764051
1.7607560308380998,1.62805712890625,4.4005426513671875,9.342174877929686,10.454261192992298
1.7632429743844813,1.6424223388671875,4.285620971679688,9.284714038085937,10.35712378129859
1.765729917930863,1.675941162109375,4.074931225585937,9.265560424804686,10.259846648844935
1.7682168614772444,1.656787548828125,3.897760302734375,9.236830004882812,10.161520993366459
1.770703805023626,1.5753846923828123,3.7158009765625,9.184157568359375,10.031837521953278
1.7731907485700074,1.4987702392578124,3.5146880371093747,9.255983618164063,10.013619573760836
1.7756776921163888,1.3215993164062498,3.21780703125,9.2320416015625,9.865672758432042
1.7781646356627703,1.158793603515625,3.0550013183593747,9.222464794921875,9.784155178874649
1.780651579209152,1.005564697265625,2.8107927490234372,9.255983618164063,9.725479370091284
1.7831385227555334,0.7900865478515624,2.6623522460937497,9.3086560546875,9.714084299605737
1.7856254663019149,0.6512228515624999,2.4564509033203126,9.284714038085937,9.626222364554563
1.7881124098482963,0.43574470214843747,2.231395947265625,9.265560424804686,9.540419870458043
1.7905993533946778,0.2346317626953125,2.0877438476562498,9.332598071289063,9.566144113367745
1.7930862969410593,-0.0383072265625,1.867477294921875,9.299079248046874,9.484820175001298
1.795573240487441,-0.2059013427734375,1.714248388671875,9.3852705078125,9.542764033854924
1.7980601840338224,-0.45489831542968745,1.5801730957031248,9.409212524414063,9.551814477854728
1.8005471275802039,-0.6560112548828124,1.5370774658203123,9.418789331054686,9.565905621803672
1.8030340711265853,-0.8667010009765624,1.3742717529296875,9.414000927734374,9.553177845271064
1.8055210146729668,-1.0103531005859374,1.4413093994140624,9.533711010742186,9.694835316241825
1.8080079582193482,-1.2497732666015624,1.3263877197265623,9.557653027343749,9.729849381775983
1.81049490176573,-1.4125789794921875,1.3263877197265623,9.567229833984374,9.761484029215296
1.8129818453121114,-1.5705962890624998,1.3168109130859373,9.595960253906249,9.812401178029138
1.8154687888584928,-1.714248388671875,1.369483349609375,9.600748657226562,9.848274313917088
1.8179557324048743,-1.8052280517578123,1.455674609375,9.639055883789062,9.914092758192295
1.8204426759512558,-1.8818425048828125,1.455674609375,9.634267480468749,9.923680248112609
1.8229296194976372,-1.9680337646484374,1.637633935546875,9.624690673828125,9.959401205520598
1.825416563044019,-2.0063409912109376,1.7429788085937499,9.65342109375,10.012587982808322
1.8279035065904004,-2.0159177978515626,1.8435352783203125,9.672574707031249,10.05093271060984
1.8303904501367818,-1.9536685546875,2.0063409912109376,9.706093530273437,10.102003593990842
1.8328773936831633,-1.9393033447265624,2.1164742675781247,9.648632690429688,10.066601888572748
1.8353643372295447,-1.8722656982421875,2.308010400390625,9.634267480468749,10.082231932382
1.8378512807759262,-1.7429788085937499,2.480392919921875,9.605537060546874,10.072569999059075
1.8403382243223079,-1.5705962890624998,2.6336218261718747,9.643844287109374,10.119608157459353
1.8428251678686893,-1.4221557861328125,2.8203695556640622,9.600748657226562,10.106996897683574
1.8453121114150708,-1.20667763671875,2.978386865234375,9.5384994140625,10.065278451688679
1.8477990549614522,-0.9911994873046874,3.1220389648437497,9.567229833984374,10.11244235671662
1.8502859985078337,-0.7757213378906249,3.23696064453125,9.5001921875,10.066444725310868
1.8527729420542152,-0.5458779785156249,3.366247534179687,9.519345800781249,10.11175304799572
1.8552598856005968,-0.32561142578124996,3.4907460205078125,9.481038574218749,10.108482726211403
1.8577468291469783,-0.086191259765625,3.5290532470703124,9.447519750976562,10.085498262307606
1.8602337726933598,0.15322890625,3.5913024902343746,9.433154541015625,10.09481734697354
1.8627207162397412,0.3399766357421875,3.6056677001953124,9.433154541015625,10.104495448648885
1.8652076597861227,0.5458779785156249,3.6008792968749996,9.3852705078125,10.06715535704632
1.8676946033325041,0.6655880615234374,3.5434184570312497,9.356540087890625,10.027146366019425
1.8701815468788858,0.8283937744140625,3.5146880371093747,9.323021264648437,9.997899466626711
1.8726684904252673,0.9241618408203125,3.404554760742187,9.313444458007812,9.959182491515913
1.8751554339716487,1.01514150390625,3.342305517578125,9.34696328125,9.97833859050804
1.8776423775180302,1.01514150390625,3.1794998046874996,9.366116894531249,9.943031578094509
1.8801293210644117,0.9864110839843749,2.96881005859375,9.370905297851563,9.87930696415073
1.8826162646107931,0.9241618408203125,2.8203695556640622,9.318232861328125,9.779469474183168
1.8851032081571748,0.8044517578125,2.6431986328124997,9.356540087890625,9.755946087358918
1.8875901517035563,0.6655880615234374,2.4516625,9.342174877929686,9.681419727052914
1.8900770952499377,0.47884033203125,2.2649147705078123,9.3852705078125,9.666562444119386
1.8925640387963192,0.2346317626953125,2.0829554443359375,9.409212524414063,9.639866999951021
1.8950509823427006,0.0430956298828125,1.915361328125,9.399635717773437,9.592894134589098
1.897537925889082,-0.2154781494140625,1.7908628417968748,9.466673364257812,9.636987347535122
1.9000248694354638,-0.488417138671875,1.6472107421875,9.509768994140625,9.66372396400294
1.9025118129818452,-0.7326257080078125,1.4987702392578124,9.504980590820312,9.6502698765366
1.9049987565282267,-0.9528922607421875,1.43652099609375,9.533711010742186,9.688304385657345
1.9074857000746082,-1.24498486328125,1.4030021728515625,9.557653027343749,9.739976067625566
1.9099726436209896,-1.446097802734375,1.388636962890625,9.610325463867188,9.81722297756516
1.9124595871673713,-1.675941162109375,1.37906015625,9.576806640625,9.819664511852118
1.9149465307137528,-1.8818425048828125,1.4173673828125,9.65342109375,9.93673992435657
1.9174334742601342,-1.9728221679687499,1.5179238525390624,9.619902270507811,9.936731848181136
1.9199204178065157,-2.0781670410156248,1.618480322265625,9.686939916992188,10.03867828747098
1.9224073613528971,-2.0973206542968748,1.7525556152343749,9.65342109375,10.032883131218426
1.9248943048992786,-2.1308394775390624,1.848323681640625,9.605537060546874,10.01114976077633
1.9273812484456603,-2.1212626708984375,2.0254946044921875,9.624690673828125,10.061662600119735
1.9298681919920417,-2.0446482177734375,2.1978771240234374,9.6151138671875,10.072818119361186
1.9323551355384232,-1.915361328125,2.379836450195312,9.605537060546874,10.079611736991385
1.9348420790848047,-1.7429788085937499,2.6096798095703124,9.557653027343749,10.059678684072317
1.9373290226311861,-1.5705962890624998,2.7629087158203123,9.576806640625,10.090374755532713
1.9398159661775676,-1.2928688964843749,2.9496564453125,9.5384994140625,10.067519764119709
1.9423029097239493,-1.0534487304687499,3.1172505615234374,9.572018237304688,10.12178533789064
1.9447898532703307,-0.7996633544921875,3.27526787109375,9.567229833984374,10.143901015103477
1.9472767968167122,-0.5219359619140624,3.418919970703125,9.504980590820312,10.114647148876854
1.9497637403630936,-0.2346317626953125,3.5194764404296874,9.471461767578125,10.106945853891732
1.952250683909475,0.0143652099609375,3.5673604736328124,9.442731347656249,10.094129106173792
1.9547376274558566,0.3016694091796875,3.6679169433593746,9.433154541015625,10.125661644085353
1.9572245710022382,0.5027823486328125,3.6152445068359373,9.3852705078125,10.070058859764387
1.9597115145486197,0.699106884765625,3.6535517333984373,9.366116894531249,10.077764453834448
1.9621984580950012,0.8283937744140625,3.6056677001953124,9.366116894531249,10.070313872553497
1.9646854016413826,0.9959878906249999,3.4859576171874997,9.361328491210937,10.038842737460172
1.967172345187764,1.0534487304687499,3.39018955078125,9.370905297851563,10.02082858446621
1.9696592887341455,1.0678139404296874,3.2130186279296873,9.34696328125,9.941299607990643
1.9721462322805272,1.0678139404296874,3.0502129150390624,9.356540087890625,9.898932662401103
1.9746331758269087,1.0295067138671874,2.882618798828125,9.34696328125,9.835400235592381
1.9771201193732901,0.8667010009765624,2.6671406494140624,9.342174877929686,9.754026928334326
1.9796070629196716,0.7422025146484375,2.480392919921875,9.342174877929686,9.694299616773229
1.982094006466053,0.5267243652343749,2.308010400390625,9.332598071289063,9.628174142872115
1.9845809500124345,0.3064578125,2.0638018310546875,9.394847314453125,9.623738901829896
1.9870678935588162,0.0430956298828125,1.9297265380859374,9.452308154296874,9.647374315786411
1.9895548371051976,-0.1484405029296875,1.7477672119140624,9.452308154296874,9.613680577892062
1.992041780651579,-0.4836287353515625,1.6041151123046875,9.4618849609375,9.609076389601514
1.9945287241979606,-0.7134720947265625,1.5466542724609373,9.490615380859374,9.642248813211559
1.997015667744342,-0.9720458740234375,1.39821376953125,9.5001921875,9.651607458136121
1.9995026112907235,-1.2641384765625,1.388636962890625,9.5384994140625,9.721590907598536
2.001989554837105,-1.4891934326171874,1.35990654296875,9.572018237304688,9.782156000629561
2.0044764983834864,-1.6903063720703124,1.3838485595703125,9.586383447265625,9.832137105700607
2.006963441929868,-1.867477294921875,1.43652099609375,9.600748657226562,9.885617775258385
2.0094503854762498,-2.020706201171875,1.5179238525390624,9.600748657226562,9.927825600442382
2.011937329022631,-2.0733786376953125,1.5753846923828123,9.624690673828125,9.970727479533249
2.0144242725690127,-2.1835119140624997,1.7669208251953124,9.629479077148437,10.030782660321242
2.016911216115394,-2.1787235107421874,1.8626888916015625,9.634267480468749,10.051644439014657
2.0193981596617756,-2.1260510742187497,2.039859814453125,9.548076220703125,9.9923411045242
2.021885103208157,-2.0254946044921875,2.231395947265625,9.643844287109374,10.103736383156111
2.0243720467545385,-1.867477294921875,2.427720483398437,9.634267480468749,10.109421747942793
2.02685899030092,-1.7429788085937499,2.6288334228515624,9.576806640625,10.082855038342435
2.0293459338473014,-1.5322890624999999,2.7916391357421872,9.600748657226562,10.115114117720182
2.031832877393683,-1.2641384765625,3.0310593017578125,9.543287817382812,10.092557106308861
2.0343198209400644,-0.9911994873046874,3.1507693847656246,9.533711010742186,10.089671440436314
2.036806764486446,-0.7326257080078125,3.323151904296875,9.509768994140625,10.10028639836437
2.0392937080328277,-0.4740519287109375,3.447650390625,9.514557397460937,10.13103256912492
2.041780651579209,-0.19632453613281248,3.4763808105468748,9.447519750976562,10.068733600037225
2.0442675951255906,0.076614453125,3.5913024902343746,9.437942944335937,10.098420191858317
2.046754538671972,0.32082302246093747,3.6200329101562496,9.394847314453125,10.073267679568652
2.0492414822183536,0.584185205078125,3.6439749267578123,9.361328491210937,10.062519403262257
2.0517284257647352,0.718260498046875,3.5960908935546874,9.332598071289063,10.027220682621373
2.0542153693111165,0.8571241943359375,3.5386300537109374,9.361328491210937,10.044452979724678
2.056702312857498,0.9911994873046874,3.447650390625,9.342174877929686,10.007247428210734
2.0591892564038794,1.0773907470703123,3.337517114257812,9.279925634765624,9.920524738975086
2.061676199950261,1.0726023437499999,3.1842882080078123,9.327809667968749,9.914544890277458
2.0641631434966423,1.0486603271484374,3.0262708984374997,9.342174877929686,9.875942257946091
2.066650087043024,1.0007762939453124,2.863465185546875,9.351751684570312,9.831390828831166
2.0691370305894057,0.8379705810546875,2.5617957763671875,9.332598071289063,9.714030011007493
2.071623974135787,0.6512228515624999,2.437297290039062,9.370905297851563,9.704554362964403
2.0741109176821686,0.49320554199218747,2.288856787109375,9.399635717773437,9.686860622791608
2.07659786122855,0.296881005859375,2.0829554443359375,9.394847314453125,9.627564477925656
2.0790848047749315,-0.01915361328125,1.8770541015625,9.447519750976562,9.632202676760212
2.081571748321313,-0.296881005859375,1.7190367919921874,9.452308154296874,9.611938163952681
2.0840586918676944,-0.565031591796875,1.618480322265625,9.504980590820312,9.658332945449768
2.086545635414076,-0.8092401611328125,1.4987702392578124,9.543287817382812,9.6940973913966
2.0890325789604574,-1.13006318359375,1.37906015625,9.495403784179686,9.661342698511643
2.091519522506839,-1.3551181396484375,1.407790576171875,9.552864624023437,9.750663669908887
2.0940064660532203,-1.5945383056640625,1.35990654296875,9.591171850585937,9.817457699491824
2.096493409599602,-1.7908628417968748,1.3742717529296875,9.562441430664062,9.825278555028849
2.0989803531459836,-1.9536685546875,1.4700398193359374,9.619902270507811,9.925742168025993
2.101467296692365,-2.0781670410156248,1.5562310791015623,9.6151138671875,9.959470272103161
2.1039542402387466,-2.1116858642578125,1.695094775390625,9.648632690429688,10.021410892768108
2.106441183785128,-2.1978771240234374,1.8339584716796873,9.648632690429688,10.064302277007565
2.1089281273315095,-2.1547814941406247,1.9728221679687499,9.65342109375,10.085814265946864
2.111415070877891,-2.0542250244140625,2.1212626708984375,9.639055883789062,10.081219871656637
2.1139020144242724,-1.9919757812499999,2.3223756103515623,9.619902270507811,10.094746935053086
2.116388957970654,-1.8100164550781248,2.50912333984375,9.600748657226562,10.086933839449918
2.1188759015170353,-1.6424223388671875,2.7150246826171873,9.624690673828125,10.134277514125248
2.121362845063417,-1.4125789794921875,2.901772412109375,9.581595043945311,10.110520564794852
2.1238497886097982,-1.149216796875,3.0310593017578125,9.509768994140625,10.047075497820776
2.12633673215618,-0.9002198242187499,3.1699229980468746,9.543287817382812,10.09619482334162
2.1288236757025616,-0.5985504150390625,3.3710359375,9.447519750976562,10.04876984194345
2.131310619248943,-0.36391865234375,3.4668040039062498,9.509768994140625,10.128517814021087
2.1337975627953245,-0.0718260498046875,3.5817256835937497,9.437942944335937,10.094983153749498
2.1362845063417057,0.2059013427734375,3.6439749267578123,9.423577734375,10.10567988537158
2.1387714498880874,0.4261678955078125,3.6679169433593746,9.409212524414063,10.10784418697354
2.141258393434469,0.6703764648437499,3.6152445068359373,9.418789331054686,10.111033078356208
2.1437453369808503,0.82360537109375,3.5913024902343746,9.375693701171874,10.07369901088235
2.146232280527232,0.93852705078125,3.4955344238281247,9.342174877929686,10.018773646661357
2.1487192240736133,1.0582371337890624,3.39018955078125,9.313444458007812,9.967622519635908
2.151206167619995,1.0438719238281249,3.19865341796875,9.342174877929686,9.929616494681975
2.153693111166376,1.0486603271484374,3.0980969482421874,9.342174877929686,9.898187946905391
2.156180054712758,1.01514150390625,2.935291235351562,9.351751684570312,9.854019813210668
2.1586669982591395,0.86191259765625,2.710236279296875,9.351751684570312,9.774637261069035
2.161153941805521,0.8092401611328125,2.6001030029296874,9.356540087890625,9.744754880474858
2.1636408853519025,0.5889736083984375,2.308010400390625,9.414000927734374,9.710675331154102
2.1661278288982837,0.40222587890625,2.1787235107421874,9.418789331054686,9.67585728794675
2.1686147724446654,0.16759411621093748,2.020706201171875,9.471461767578125,9.686068828680558
2.171101715991047,-0.1149216796875,1.8100164550781248,9.471461767578125,9.643544710053972
2.1735886595374283,-0.38307226562499996,1.6711527587890624,9.476250170898437,9.63009933517573
2.17607560308381,-0.6560112548828124,1.6041151123046875,9.504980590820312,9.661686814005515
2.178562546630191,-0.9576806640625,1.465251416015625,9.543287817382812,9.70249742756277
2.181049490176573,1.695094775390625,-1.5705962890624998,8.743624462890624,9.04384253228863
2.1835364337229546,-0.3687070556640625,-2.5043349365234375,8.8872765625,9.240742560289737
2.186023377269336,-2.2936451904296873,-3.289633081054687,9.04050546875,9.89005728992756
2.1885103208157175,-4.027047192382812,-3.7110125732421873,9.222464794921875,10.72579042784322
2.1909972643620987,-5.45877978515625,-3.9504327392578125,9.390058911132812,11.557569031797959
2.1934842079084804,-6.655880615234374,-3.9504327392578125,9.5384994140625,12.28371428614828
2.1959711514548617,-7.570465649414062,-3.7397429931640622,9.619902270507811,12.800005761639301
2.1984580950012433,-8.14028564453125,-3.39018955078125,9.80665,13.188177273121859
2.200945038547625,-8.480262280273436,-2.868253588867187,9.868899243164062,13.324297327213998
2.2034319820940063,-8.513781103515624,-2.1930887207031247,9.95987890625,13.285077893735462
2.205918925640388,-8.341398583984375,-1.4317325927734375,9.983820922851562,13.088371509613978
2.208405869186769,-7.848193041992187,-0.5267243652343749,10.079588989257813,12.785526456649075
2.210892812733151,-7.240065820312499,0.2346317626953125,10.050858569335936,12.389243848085178
2.2133797562795325,-6.411672045898437,1.2018892333984375,10.070012182617187,11.998300776008788
2.2158666998259138,-5.549759448242187,1.9776105712890624,10.05564697265625,11.654475944619666
2.2183536433722955,-4.548983154296875,2.7533319091796873,9.988609326171874,11.315758949848284
2.2208405869186767,-3.4715924072265625,3.4859576171874997,9.950302099609374,11.100106586165351
2.2233275304650584,-2.379836450195312,4.151545678710937,9.830592016601562,10.933411747893338
2.2258144740114396,-1.2928688964843749,4.7117888671875,9.82580361328125,10.973553706945607
2.2283014175578213,-0.316034619140625,5.118803149414062,9.696516723632811,10.969250664226681
2.230788361104203,0.622492431640625,5.482721801757812,9.600748657226562,11.073486802365275
2.233275304650584,1.4317325927734375,5.6311623046875,9.528922607421874,11.160654693035658
2.235762248196966,2.1308394775390624,5.679046337890624,9.4618849609375,11.23918641187889
2.238249191743347,2.6862942626953124,5.664681127929687,9.399635717773437,11.298581361115858
2.240736135289729,3.1124621582031247,5.5832782714843745,9.361328491210937,11.33555856865614
2.2432230788361105,3.4620156005859375,5.3390697021484375,9.294290844726563,11.263882972113471
2.2457100223824917,3.6056677001953124,5.027823486328125,9.260772021484375,11.137403063901935
2.2481969659288734,3.5865140869140624,4.639962817382812,9.241618408203124,10.945311738144643
2.2506839094752547,3.4572271972656248,4.290409374999999,9.236830004882812,10.755420077231033
2.2531708530216363,3.227383837890625,3.821145849609375,9.188945971679686,10.462021320543794
2.2556577965680176,2.89219560546875,3.3327287109375,9.17458076171875,10.18060942352174
2.2581447401143993,2.422932080078125,2.940079638671875,9.2320416015625,9.987254892080474
2.260631683660781,1.924938134765625,2.403778466796875,9.227253198242186,9.72757623072582
2.263118627207162,1.3072341064453123,2.0350714111328125,9.227253198242186,9.539003000415432
2.265605570753544,0.7326257080078125,1.6519991455078125,9.327809667968749,9.501256485678288
2.268092514299925,0.1580173095703125,1.3311761230468748,9.361328491210937,9.456821371954298
2.2705794578463068,-0.430956298828125,1.0103531005859374,9.394847314453125,9.458842042303612
2.2730664013926885,-0.97683427734375,0.852335791015625,9.447519750976562,9.536053216668423
2.2755533449390697,-1.5370774658203123,0.689530078125,9.476250170898437,9.624831227924172
2.2780402884854514,-1.9871873779296874,0.5889736083984375,9.5001921875,9.723654415178943
2.2805272320318326,-2.35589443359375,0.55545478515625,9.533711010742186,9.836178843277393
2.2830141755782143,-2.7054478759765623,0.6751648681640625,9.624690673828125,10.020477352686507
2.2855011191245955,-2.9735984619140625,0.7661445312499999,9.65342109375,10.130044623234362
2.287988062670977,-3.1124621582031247,0.833182177734375,9.629479077148437,10.154234610485428
2.290475006217359,-3.1316157714843746,1.1635820068359375,9.658209497070311,10.219684492005669
2.29296194976374,-3.0980969482421874,1.3168109130859373,9.662997900390625,10.232581497573493
2.295448893310122,-3.0406361083984375,1.656787548828125,9.710881933593749,10.309783744281242
2.297935836856503,-2.839523168945312,1.89620771484375,9.6917283203125,10.27560671491263
2.3004227804028847,-2.6048914062499997,2.1883003173828124,9.610325463867188,10.19472770793153
2.3029097239492664,-2.2936451904296873,2.528276953125,9.619902270507811,10.207620305703264
2.3053966674956476,-1.9776105712890624,2.8203695556640622,9.624690673828125,10.222528971299864
2.3078836110420293,-1.62805712890625,3.1172505615234374,9.624690673828125,10.247072345073725
2.3103705545884106,-1.2018892333984375,3.31357509765625,9.576806640625,10.20487839658493
2.3128574981347922,-0.814028564453125,3.5290532470703124,9.504980590820312,10.171603381781752
2.315344441681174,-0.38786066894531246,3.6727053466796873,9.476250170898437,10.170472838737485
2.317831385227555,0.033518823242187495,3.845087866210937,9.485826977539062,10.235562400679406
2.320318328773937,0.316034619140625,3.878606689453125,9.442731347656249,10.213160286413597
2.322805272320318,0.679953271484375,3.88818349609375,9.409212524414063,10.2036066016036
2.3252922158666998,0.9576806640625,3.9647979492187497,9.380482104492186,10.228891413303133
2.327779159413081,1.1252747802734375,3.83072265625,9.327809667968749,10.146364501735473
2.3302661029594627,1.3455413330078123,3.7110125732421873,9.327809667968749,10.12867854161861
2.3327530465058444,1.4604630126953124,3.6487633300781246,9.361328491210937,10.152876300375747
2.3352399900522256,1.4317325927734375,3.414131567382812,9.34696328125,10.053450907904477
2.3377269335986073,1.4413093994140624,3.2704794677734372,9.303867651367186,9.966712698183073
2.3402138771449885,1.3551181396484375,3.0214824951171875,9.351751684570312,9.920733904836249
2.34270082069137,1.2641384765625,2.85388837890625,9.337386474609374,9.84527862192838
2.345187764237752,0.9576806640625,2.518700146484375,9.366116894531249,9.746032442191195
2.347674707784133,0.74699091796875,2.3319524169921872,9.375693701171874,9.690182138888694
2.350161651330515,0.5267243652343749,2.1260510742187497,9.390058911132812,9.64213348184223
2.352648594876896,0.19153613281249998,1.89620771484375,9.399635717773437,9.590904097886074
2.3551355384232777,-0.12449848632812499,1.7286135986328124,9.495403784179686,9.652269052978692
2.357622481969659,-0.45489831542968745,1.5897499023437498,9.452308154296874,9.59585153455231
2.3601094255160406,-0.7805097412109374,1.4173673828125,9.509768994140625,9.646441420332387
2.3625963690624223,-1.0917559570312498,1.3407529296874998,9.586383447265625,9.741062420813615
2.3650833126088036,-1.3742717529296875,1.3168109130859373,9.581595043945311,9.768806345602313
2.3675702561551852,-1.6328455322265625,1.235408056640625,9.610325463867188,9.826025296119427
2.3700571997015665,-1.915361328125,1.2593500732421874,9.600748657226562,9.870610234605026
2.372544143247948,-2.0542250244140625,1.3168109130859373,9.600748657226562,9.90596821168879
2.37503108679433,-2.212242333984375,1.426944189453125,9.648632690429688,10.001314846504687
2.377518030340711,-2.221819140625,1.5945383056640625,9.639055883789062,10.019502534192313
2.3800049738870928,-2.3511060302734372,1.6903063720703124,9.610325463867188,10.037090749739374
2.382491917433474,-2.288856787109375,1.9009961181640624,9.634267480468749,10.083241617574636
2.3849788609798557,-2.1787235107421874,2.0781670410156248,9.639055883789062,10.09836683416843
2.387465804526237,-2.0829554443359375,2.3127988037109373,9.662997900390625,10.151909678109291
2.3899527480726186,-1.9105729248046874,2.528276953125,9.605537060546874,10.11478202801421
2.3924396916190003,-1.68551796875,2.73896669921875,9.639055883789062,10.161412683934106
2.3949266351653815,-1.4939818359375,2.8730419921875,9.581595043945311,10.114015799925431
2.397413578711763,-1.24498486328125,3.0885201416015624,9.567229833984374,10.130194009551774
2.3999005222581444,-0.9097966308593749,3.2561142578125,9.495403784179686,10.079320562124554
2.402387465804526,-0.6081272216796875,3.399766357421875,9.481038574218749,10.090506550645976
2.404874409350908,-0.316034619140625,3.5194764404296874,9.4618849609375,10.100191053106382
2.407361352897289,0.028730419921875,3.6248213134765623,9.4618849609375,10.132493375555597
2.4098482964436707,0.24899697265624998,3.6535517333984373,9.375693701171874,10.065489165420857
2.412335239990052,0.4740519287109375,3.6439749267578123,9.390058911132812,10.08347583189938
2.4148221835364336,0.7422025146484375,3.6343981201171873,9.361328491210937,10.06946797942272
2.417309127082815,0.8667010009765624,3.6008792968749996,9.380482104492186,10.085184522280935
2.4197960706291965,1.01514150390625,3.5242648437499997,9.380482104492186,10.071961054062085
2.4222830141755782,1.1156979736328125,3.399766357421875,9.34696328125,10.00844222816227
2.4247699577219595,1.120486376953125,3.27526787109375,9.34696328125,9.967376381445234
2.427256901268341,1.0965443603515623,3.0980969482421874,9.332598071289063,9.894341867711804
2.4297438448147224,1.0678139404296874,2.9448680419921875,9.361328491210937,9.871521945297014
2.432230788361104,0.9337386474609375,2.748543505859375,9.337386474609374,9.778197453599615
2.4347177319074857,0.7565677246093749,2.437297290039062,9.34696328125,9.68909363062346
2.437204675453867,0.565031591796875,2.327164013671875,9.337386474609374,9.639592274701041
2.4396916190002487,0.3399766357421875,2.1356278808593747,9.380482104492186,9.62652248068079
2.44217856254663,0.105344873046875,1.93451494140625,9.428366137695312,9.625358883036045
2.4446655060930116,-0.16280571289062498,1.8100164550781248,9.4618849609375,9.634829125719804
2.4471524496393933,-0.47884033203125,1.618480322265625,9.490615380859374,9.639530430707989
2.4496393931857745,-0.7709329345703124,1.5083470458984374,9.490615380859374,9.640603129881463
2.452126336732156,-1.0295067138671874,1.407790576171875,9.485826977539062,9.644826168887846
2.4546132802785374,-1.2832920898437499,1.407790576171875,9.524134204101562,9.712767125384566
2.457100223824919,-1.5275006591796874,1.388636962890625,9.600748657226562,9.820180530811951
2.4595871673713003,-1.7573440185546874,1.3407529296874998,9.595960253906249,9.847249850215238
2.462074110917682,-1.9201497314453124,1.4221557861328125,9.6151138671875,9.907568659877251
2.4645610544640637,-2.0829554443359375,1.4987702392578124,9.634267480468749,9.970161758887931
2.467047998010445,-2.1452046874999997,1.608903515625,9.677363110351562,10.042003308277474
2.4695349415568266,-2.2026655273437497,1.7717092285156248,9.629479077148437,10.035813684649364
2.472021885103208,-2.1595698974609374,1.9393033447265624,9.643844287109374,10.071165386334354
2.4745088286495895,-2.0925322509765625,2.1021090576171875,9.629479077148437,10.075932761225275
2.4769957721959712,-2.0350714111328125,2.288856787109375,9.65342109375,10.127631502654713
2.4794827157423525,-1.905784521484375,2.4516625,9.6151138671875,10.104111951835106
2.481969659288734,-1.6807295654296874,2.7246014892578123,9.610325463867188,10.129494590986729
2.4844566028351154,-1.455674609375,2.89219560546875,9.572018237304688,10.104816530940349
2.486943546381497,-1.1875240234375,3.0071172851562498,9.5384994140625,10.071541031291952
2.4894304899278783,-0.9241618408203125,3.2513258544921873,9.524134204101562,10.106152940553345
2.49191743347426,-0.689530078125,3.356670727539062,9.485826977539062,10.085811992574746
2.4944043770206417,-0.39743747558593745,3.4859576171874997,9.466673364257812,10.095927973266052
2.496891320567023,-0.1580173095703125,3.5098996337890624,9.437942944335937,10.070706625154807
2.4993782641134046,0.105344873046875,3.5960908935546874,9.3852705078125,10.051182505645757
2.501865207659786,0.4213794921875,3.7110125732421873,9.399635717773437,10.114461262076194
2.5043521512061675,0.603338818359375,3.6152445068359373,9.375693701171874,10.066659970026835
2.506839094752549,0.8188169677734375,3.6008792968749996,9.370905297851563,10.072271791342764
2.5093260382989304,0.9002198242187499,3.5482068603515624,9.284714038085937,9.980284686560418
2.511812981845312,1.0103531005859374,3.418919970703125,9.332598071289063,9.99035604541523
2.5142999253916933,1.0917559570312498,3.3327287109375,9.323021264648437,9.960810069040935
2.516786868938075,1.120486376953125,3.1268273681640624,9.375693701171874,9.946666350563454
2.5192738124844563,1.0342951171875,2.9640216552734375,9.337386474609374,9.850988627472162
2.521760756030838,0.9433154541015625,2.7964275390625,9.332598071289063,9.788117172745855
2.5242476995772196,0.8044517578125,2.5761609863281247,9.332598071289063,9.714995358637854
2.526734643123601,0.622492431640625,2.370259643554687,9.366116894531249,9.681413806223631
2.5292215866699825,0.44053310546874996,2.2170307373046874,9.452308154296874,9.718818042897752
2.5317085302163638,0.1484405029296875,2.020706201171875,9.418789331054686,9.634255580850763
2.5341954737627455,-0.047884033203124995,1.8818425048828125,9.452308154296874,9.637933053181403
2.536682417309127,-0.33518823242187495,1.6903063720703124,9.485826977539062,9.641078789763284
2.5391693608555084,-0.6560112548828124,1.5849614990234373,9.495403784179686,9.649100825700467
2.54165630440189,-0.9050082275390624,1.47482822265625,9.519345800781249,9.675334756643224
2.5441432479482713,-1.1348515869140625,1.5035586425781249,9.600748657226562,9.783810683738233
2.546630191494653,-1.4173673828125,1.388636962890625,9.591171850585937,9.794274877704776
2.549117135041034,-1.6519991455078125,1.3359645263671873,9.581595043945311,9.814319435326496
2.551604078587416,-1.8052280517578123,1.3742717529296875,9.591171850585937,9.855863667747531
2.5540910221337976,-1.9632453613281249,1.47482822265625,9.662997900390625,9.970104265155577
2.556577965680179,-2.1116858642578125,1.608903515625,9.605537060546874,9.96564749193128
2.5590649092265605,-2.1930887207031247,1.66636435546875,9.605537060546874,9.99263481388125
2.5615518527729417,-2.1691467041015624,1.8291700683593748,9.643844287109374,10.052601314928818
2.5640387963193234,-2.1547814941406247,2.001552587890625,9.634267480468749,10.073152730640006
2.566525739865705,-2.0350714111328125,2.1787235107421874,9.619902270507811,10.071289464551805
2.5690126834120863,-1.9728221679687499,2.3511060302734372,9.586383447265625,10.065707847440507
2.571499626958468,-1.8052280517578123,2.5665841796874997,9.567229833984374,10.06866869881794
2.5739865705048492,-1.5466542724609373,2.7724855224609373,9.600748657226562,10.112031951591867
2.576473514051231,-1.369483349609375,2.9544448486328125,9.572018237304688,10.110774557063559
2.5789604575976126,-1.1061211669921875,3.1124621582031247,9.509768994140625,10.067106388840491
2.581447401143994,-0.8571241943359375,3.227383837890625,9.519345800781249,10.088043060794558
2.5839343446903755,-0.5458779785156249,3.42849677734375,9.485826977539062,10.101162624544397
2.5864212882367568,-0.2537853759765625,3.5098996337890624,9.457096557617186,10.090613348871663
2.5889082317831384,0.009576806640625,3.5865140869140624,9.437942944335937,10.096432143653466
2.5913951753295197,0.258573779296875,3.6296097167968746,9.423577734375,10.101719873933073
2.5938821188759014,0.47884033203125,3.6104561035156246,9.399635717773437,10.08056709544831
2.596369062422283,0.6703764648437499,3.5913024902343746,9.370905297851563,10.057868774361818
2.5988560059686643,0.8667010009765624,3.5817256835937497,9.361328491210937,10.060536795716546
2.601342949515046,0.9624690673828125,3.4955344238281247,9.303867651367186,9.985342301994105
2.603829893061427,1.0678139404296874,3.3327287109375,9.313444458007812,9.949248963840413
2.606316836607809,1.0726023437499999,3.2800562744140622,9.394847314453125,10.008616338586876
2.6088037801541906,1.0773907470703123,3.0837317382812497,9.313444458007812,9.869671723413715
2.611290723700572,1.005564697265625,2.882618798828125,9.337386474609374,9.823819912638989
2.6137776672469535,0.8954314208984374,2.6958710693359373,9.3852705078125,9.80575447157585
2.6162646107933347,0.699106884765625,2.499546533203125,9.351751684570312,9.705243061244685
2.6187515543397164,0.5410895751953124,2.3223756103515623,9.370905297851563,9.66954355206301
2.6212384978860976,0.33039982910156246,2.1260510742187497,9.399635717773437,9.642738658913204
2.6237254414324793,0.0718260498046875,1.944091748046875,9.418789331054686,9.61760074909767
2.626212384978861,-0.1867477294921875,1.7860744384765623,9.447519750976562,9.616681655297846
2.6286993285252422,-0.430956298828125,1.675941162109375,9.490615380859374,9.647086732156847
2.631186272071624,-0.737414111328125,1.5131354492187499,9.5001921875,9.648160967702825
2.633673215618005,-1.0199299072265624,1.4173673828125,9.5384994140625,9.697018015121277
2.636160159164387,-1.2832920898437499,1.3838485595703125,9.543287817382812,9.728114811672791
2.6386471027107685,-1.4508862060546874,1.3838485595703125,9.548076220703125,9.756324468523024
2.6411340462571498,-1.7525556152343749,1.3934253662109375,9.629479077148437,9.88635184144936
2.6436209898035314,-1.9105729248046874,1.4604630126953124,9.639055883789062,9.934517574762065
2.6461079333499127,-2.0302830078125,1.5035586425781249,9.634267480468749,9.960012428139896
2.6485948768962944,-2.1021090576171875,1.6328455322265625,9.634267480468749,9.995206696584425
2.6510818204426756,0.7230489013671875,-1.235408056640625,8.834604125976561,8.949819151407638
2.6535687639890573,-1.0917559570312498,-2.0159177978515626,8.968679418945312,9.257054939732244
2.656055707535439,-2.7533319091796873,-2.5426421630859375,9.117119921875,9.857369904871147
2.65854265108182,-4.165910888671875,-2.887407202148437,9.241618408203124,10.540372132245256
2.661029594628202,-5.3390697021484375,-2.978386865234375,9.428366137695312,11.237016580473647
2.663516538174583,-6.268019946289062,-2.863465185546875,9.466673364257812,11.709202001053054
2.666003481720965,-6.8569935546875,-2.5426421630859375,9.591171850585937,12.06125894117195
2.6684904252673465,-7.225700610351562,-2.1978771240234374,9.672574707031249,12.271923835562259
2.6709773688137277,-7.287949853515625,-1.656787548828125,9.792284790039062,12.3186037950143
2.6734643123601094,-7.192181787109375,-1.0773907470703123,9.811438403320311,12.21280365939161
2.6759512559064906,-6.83783994140625,-0.3016694091796875,9.840168823242188,11.986491645457939
2.6784381994528723,-6.287173559570312,0.39743747558593745,9.883264453125,11.720299661935455
2.6809251429992536,-5.607220288085937,1.1635820068359375,9.883264453125,11.422511050384633
2.6834120865456352,-4.774038110351563,1.8291700683593748,9.907206469726562,11.14854443646626
2.685899030092017,-3.878606689453125,2.4899697265625,9.86411083984375,10.887801511388387
2.688385973638398,-2.9735984619140625,3.1268273681640624,9.816226806640625,10.722762979867058
2.69087291718478,-2.001552587890625,3.6343981201171873,9.801861596679688,10.643850488336778
2.693359860731161,-1.1731588134765625,4.036623999023437,9.715670336914062,10.58607032881992
2.6958468042775428,-0.32561142578124996,4.4005426513671875,9.662997900390625,10.622821040102986
2.6983337478239244,0.4740519287109375,4.6447512207031245,9.6151138671875,10.688725546683248
2.7008206913703057,1.1109095703125,4.817133740234374,9.591171850585937,10.790249070906027
2.7033076349166874,1.66636435546875,4.797980126953124,9.495403784179686,10.768476052275355
2.7057945784630686,2.0638018310546875,4.80755693359375,9.495403784179686,10.841336388666479
2.7082815220094503,2.360682836914062,4.630386010742187,9.414000927734374,10.753451145207348
2.7107684655558315,2.5234885498046875,4.448426684570312,9.394847314453125,10.6967121346178
2.713255409102213,2.6144682128906247,4.228160131835938,9.423577734375,10.654416898754743
2.715742352648595,2.499546533203125,3.8690298828125,9.375693701171874,10.446088142646406
2.718229296194976,2.2840683837890623,3.5769372802734374,9.366116894531249,10.282781451088923
2.720716239741358,2.01112939453125,3.1938650146484373,9.390058911132812,10.120208571362925
2.723203183287739,1.608903515625,2.8730419921875,9.351751684570312,9.914544890277458
2.7256901268341207,1.1875240234375,2.47081611328125,9.313444458007812,9.708521681712817
2.7281770703805024,0.7709329345703124,2.1691467041015624,9.380482104492186,9.658829097060266
2.7306640139268836,0.296881005859375,1.9009961181640624,9.394847314453125,9.589842576121988
2.7331509574732653,-0.2346317626953125,1.656787548828125,9.476250170898437,9.62285375278405
2.7356379010196465,-0.6607996582031249,1.4891934326171874,9.437942944335937,9.57753205625395
2.7381248445660282,-1.1109095703125,1.35990654296875,9.466673364257812,9.628155091426885
2.74061178811241,-1.4891934326171874,1.2593500732421874,9.476250170898437,9.674863150875982
2.743098731658791,-1.8243816650390623,1.2306196533203124,9.533711010742186,9.784397724296355
2.745585675205173,-2.0973206542968748,1.2401964599609374,9.5384994140625,9.844786044313537
2.748072618751554,-2.3223756103515623,1.369483349609375,9.548076220703125,9.92142492975528
2.7505595622979357,-2.365471240234375,1.5322890624999999,9.562441430664062,9.969134870905982
2.753046505844317,-2.480392919921875,1.618480322265625,9.543287817382812,9.992305537570736
2.7555334493906987,-2.365471240234375,1.85790048828125,9.6151138671875,10.074604860326435
2.7580203929370803,-2.29843359375,2.04943662109375,9.581595043945311,10.064290885845661
2.7605073364834616,-2.0973206542968748,2.2936451904296873,9.562441430664062,10.054842032642883
2.7629942800298433,-1.8626888916015625,2.50912333984375,9.567229833984374,10.0646508403285
2.7654812235762245,-1.6807295654296874,2.7198130859375,9.548076220703125,10.069160571313917
2.767968167122606,-1.3168109130859373,2.925714428710937,9.524134204101562,10.050021305297163
2.770455110668988,-1.0007762939453124,3.1268273681640624,9.533711010742186,10.083166576882954
2.772942054215369,-0.6607996582031249,3.299209887695312,9.5001921875,10.07844698705033
2.775428997761751,-0.33518823242187495,3.404554760742187,9.447519750976562,10.047834279840538
2.777915941308132,-0.0047884033203125,3.4572271972656248,9.428366137695312,10.042237342781691
2.7804028848545137,0.239420166015625,3.5242648437499997,9.466673364257812,10.104240163927987
2.782889828400895,0.5363011718749999,3.5673604736328124,9.481038574218749,10.144149650986824
2.7853767719472766,0.7565677246093749,3.5098996337890624,9.390058911132812,10.053108798562658
2.7878637154936583,0.9097966308593749,3.4428619873046875,9.380482104492186,10.033666981011917
2.7903506590400395,1.0390835205078124,3.39018955078125,9.361328491210937,10.010372164568855
2.792837602586421,1.0486603271484374,3.2034418212890623,9.390058911132812,9.976719618124164
2.7953245461328025,1.0821791503906248,3.1411925781249996,9.390058911132812,9.960492401530784
2.797811489679184,0.9864110839843749,2.901772412109375,9.370905297851563,9.859368948344958
2.800298433225566,0.8714894042968749,2.6862942626953124,9.332598071289063,9.750541390498263
2.802785376771947,0.7134720947265625,2.499546533203125,9.437942944335937,9.789358626699798
2.8052723203183287,0.5027823486328125,2.2744915771484373,9.409212524414063,9.693264793360717
2.80775926386471,0.2154781494140625,2.068590234375,9.437942944335937,9.66438117062686
2.8102462074110917,-0.01915361328125,1.9632453613281249,9.418789331054686,9.621241690783354
2.812733150957473,-0.3064578125,1.7717092285156248,9.5001921875,9.668842825317089
2.8152200945038546,-0.5793968017578125,1.675941162109375,9.548076220703125,9.711345887625267
2.8177070380502363,-0.8906430175781249,1.5849614990234373,9.509768994140625,9.681996398474112
2.8201939815966175,-1.1827356201171875,1.4939818359375,9.514557397460937,9.703486370515693
2.822680925142999,-1.4030021728515625,1.455674609375,9.600748657226562,9.81130870193385
2.8251678686893804,-1.6424223388671875,1.4508862060546874,9.600748657226562,9.847689916999183
2.827654812235762,-1.8435352783203125,1.4604630126953124,9.605537060546874,9.889282924226716
2.8301417557821438,-1.9823989746093749,1.5418658691406248,9.610325463867188,9.933056507158668
2.832628699328525,-2.0446482177734375,1.6519991455078125,9.619902270507811,9.97257274755737
2.8351156428749067,-2.1643583007812497,1.7669208251953124,9.634267480468749,10.031229532908078
2.837602586421288,-2.1116858642578125,1.944091748046875,9.65342109375,10.071109607555051
2.8400895299676696,-2.0638018310546875,2.1404162841796874,9.65342109375,10.100950385023367
2.842576473514051,-1.944091748046875,2.29843359375,9.591171850585937,10.052505517390903
2.8450634170604325,-1.8148048583984373,2.5043349365234375,9.643844287109374,10.127632634647178
2.847550360606814,-1.6136919189453125,2.7341782958984373,9.6151138671875,10.125717122357944
2.8500373041531954,-1.4125789794921875,2.829946362304687,9.567229833984374,10.076500507770811
2.852524247699577,-1.1827356201171875,3.0406361083984375,9.543287817382812,10.085567602083563
2.8550111912459584,-0.8906430175781249,3.2034418212890623,9.548076220703125,10.11044232481947
2.85749813479234,-0.679953271484375,3.323151904296875,9.514557397460937,10.101112686234764
2.8599850783387217,-0.3016694091796875,3.4859576171874997,9.528922607421874,10.151023150377407
2.862472021885103,-0.062249243164062495,3.5386300537109374,9.466673364257812,10.106615764480665
2.8649589654314846,0.19632453613281248,3.5721488769531247,9.414000927734374,10.070859168412042
2.867445908977866,0.411802685546875,3.6104561035156246,9.409212524414063,10.086538308896035
2.8699328525242476,0.6368576416015624,3.5769372802734374,9.399635717773437,10.077361737554051
2.8724197960706292,0.8283937744140625,3.5242648437499997,9.34696328125,10.023592246067073
2.8749067396170105,0.9624690673828125,3.438073583984375,9.375693701171874,10.032463757858977
2.877393683163392,1.0582371337890624,3.404554760742187,9.394847314453125,10.048582736491225
2.8798806267097734,1.0773907470703123,3.2800562744140622,9.318232861328125,9.937253324894717
2.882367570256155,1.0390835205078124,3.0741549316406247,9.351751684570312,9.898756622737269
2.8848545138025363,1.0103531005859374,2.89219560546875,9.375693701171874,9.863530868119708
2.887341457348918,0.8667010009765624,2.6815058593749996,9.361328491210937,9.776303770818187
2.8898284008952997,0.7278373046875,2.4851813232421875,9.409212524414063,9.759054958400275
2.892315344441681,0.5410895751953124,2.3415292236328122,9.390058911132812,9.692715996461272
2.8948022879880626,0.26815058593749996,2.1116858642578125,9.485826977539062,9.721730060737787
2.897289231534444,0.08140285644531249,1.944091748046875,9.4618849609375,9.659885411529302
2.8997761750808255,-0.19632453613281248,1.7621324218749999,9.5001921875,9.664228142751332
2.902263118627207,-0.49320554199218747,1.6472107421875,9.495403784179686,9.649831499070002
2.9047500621735884,-0.74699091796875,1.5322890624999999,9.485826977539062,9.637780794892192
2.90723700571997,-1.0390835205078124,1.4125789794921875,9.533711010742186,9.693643255878612
2.9097239492663514,-1.2785036865234374,1.4317325927734375,9.600748657226562,9.7907509759416
2.912210892812733,-1.5227122558593749,1.455674609375,9.591171850585937,9.819787097997363
2.9146978363591143,-1.7334020019531249,1.39821376953125,9.629479077148437,9.88365071939116
2.917184779905496,-1.915361328125,1.4987702392578124,9.619902270507811,9.922572294595945
2.9196717234518776,-2.01112939453125,1.5658078857421873,9.643844287109374,9.974975108270304
2.922158666998259,-2.1116858642578125,1.6615759521484375,9.658209497070311,10.025021821590386
2.9246456105446406,-2.1643583007812497,1.7669208251953124,9.634267480468749,10.031229532908078
2.927132554091022,-2.1835119140624997,1.9536685546875,9.6151138671875,10.051614784670619
2.9296194976374035,-2.0925322509765625,2.1356278808593747,9.662997900390625,10.114995110717285
2.932106441183785,-2.020706201171875,2.288856787109375,9.629479077148437,10.10192982754239
2.9345933847301664,-1.8339584716796873,2.5330653564453125,9.600748657226562,10.097237174351545
2.937080328276548,-1.6903063720703124,2.70065947265625,9.581595043945311,10.09740861829741
2.9395672718229293,-1.4604630126953124,2.863465185546875,9.600748657226562,10.124562205820443
2.942054215369311,-1.20667763671875,3.1076737548828124,9.543287817382812,10.108810486459413
2.9445411589156922,-0.9097966308593749,3.1938650146484373,9.528922607421874,10.091029169492774
2.947028102462074,-0.6416460449218749,3.323151904296875,9.567229833984374,10.14824787449915
2.9495150460084556,-0.3687070556640625,3.4620156005859375,9.5001921875,10.118060511334813
2.952001989554837,-0.01915361328125,3.6200329101562496,9.442731347656249,10.112872017163376
2.9544889331012185,0.2059013427734375,3.5865140869140624,9.442731347656249,10.103002225210034
2.9569758766475998,0.40222587890625,3.6152445068359373,9.399635717773437,10.078934969961434
2.9594628201939814,0.6512228515624999,3.6343981201171873,9.428366137695312,10.125563141097297
2.961949763740363,0.833182177734375,3.6104561035156246,9.356540087890625,10.063519674200062
2.9644367072867444,0.9816226806640624,3.5003228271484375,9.409212524414063,10.087077044964065
2.966923650833126,1.0773907470703123,3.42849677734375,9.394847314453125,10.058753254554777
2.9694105943795073,1.0103531005859374,3.23696064453125,9.361328491210937,9.956565608806352
2.971897537925889,1.0917559570312498,3.0885201416015624,9.34696328125,9.904373292431355
2.97438448147227,0.9624690673828125,2.925714428710937,9.303867651367186,9.800413506490065
2.976871425018652,0.9433154541015625,2.786850732421875,9.370905297851563,9.821926855360392
2.9793583685650336,0.7852981445312499,2.5570073730468748,9.390058911132812,9.763615428526721
2.981845312111415,0.565031591796875,2.370259643554687,9.356540087890625,9.66862109578697
2.9843322556577965,0.33518823242187495,2.1547814941406247,9.404424121093749,9.653943623621123
2.9868191992041777,0.1388636962890625,1.9776105712890624,9.481038574218749,9.686088949810713
2.9893061427505594,-0.12449848632812499,1.8339584716796873,9.471461767578125,9.648185920868121
2.991793086296941,-0.38307226562499996,1.70467158203125,9.509768994140625,9.668937681317136
2.9942800298433223,-0.6655880615234374,1.5227122558593749,9.471461767578125,9.616145178629585
2.996766973389704,-0.9576806640625,1.465251416015625,9.557653027343749,9.716627262458312
2.9992539169360852,-1.2210428466796874,1.4221557861328125,9.543287817382812,9.725626719079129
3.001740860482467,-1.4604630126953124,1.3455413330078123,9.591171850585937,9.794590913241633
3.0042278040288486,-1.7190367919921874,1.37906015625,9.572018237304688,9.822445089796766
3.00671474757523,-1.867477294921875,1.4413093994140624,9.634267480468749,9.918868590575524
3.0092016911216115,-2.039859814453125,1.465251416015625,9.595960253906249,9.919195681571415
3.0116886346679927,-2.1404162841796874,1.5849614990234373,9.658209497070311,10.018707277501791
3.0141755782143744,-2.1499930908203124,1.7381904052734374,9.662997900390625,10.050736520201559
3.0166625217607557,-2.1691467041015624,1.8435352783203125,9.639055883789062,10.050632720238799
3.0191494653071373,-2.1499930908203124,2.01112939453125,9.643844287109374,10.083196138434223
3.021636408853519,-2.039859814453125,2.29843359375,9.629479077148437,10.10795193621036
3.0241233523999003,-1.9105729248046874,2.379836450195312,9.6151138671875,10.087830545248881
3.026610295946282,-1.7429788085937499,2.6288334228515624,9.605537060546874,10.11014750208165
3.029097239492663,-1.5322890624999999,2.7916391357421872,9.562441430664062,10.078762074289932
3.031584183039045,-1.3072341064453123,2.9735984619140625,9.572018237304688,10.108149284465732
3.0340711265854265,-1.024718310546875,3.1555577880859373,9.548076220703125,10.108083502142051
3.036558070131808,-0.7996633544921875,3.308786694335937,9.504980590820312,10.096147131505319
3.0390450136781895,-0.469263525390625,3.4763808105468748,9.504980590820312,10.131637963728837
3.0415319572245707,-0.229843359375,3.5290532470703124,9.481038574218749,10.119147060712685
3.0440189007709524,0.0526724365234375,3.5913024902343746,9.4618849609375,10.120646964297697
3.0465058443173336,0.316034619140625,3.6391865234374996,9.390058911132812,10.075552728630285
3.0489927878637153,0.5410895751953124,3.6296097167968746,9.414000927734374,10.103972391690062
3.051479731410097,0.7230489013671875,3.5721488769531247,9.3852705078125,10.068085707705356
3.0539666749564782,0.8858546142578124,3.5769372802734374,9.3852705078125,10.082783405857079
3.05645361850286,0.948103857421875,3.4811692138671875,9.370905297851563,10.041479279535332
3.058940562049241,1.0295067138671874,3.31357509765625,9.351751684570312,9.974714210019698
3.061427505595623,1.0917559570312498,3.1938650146484373,9.375693701171874,9.964754747594265
3.0639144491420045,1.0103531005859374,2.9975404785156248,9.299079248046874,9.822369223851204
3.0664013926883857,0.9576806640625,2.887407202148437,9.414000927734374,9.893315221538305
3.0688883362347674,0.86191259765625,2.6527754394531247,9.370905297851563,9.777217240067174
3.0713752797811487,0.7038952880859375,2.437297290039062,9.375693701171874,9.712853290090163
3.0738622233275303,0.5267243652343749,2.2649147705078123,9.394847314453125,9.6783486988475
3.0763491668739116,0.27293898925781246,2.0973206542968748,9.418789331054686,9.653333210947757
3.0788361104202933,0.01915361328125,1.93451494140625,9.5001921875,9.695172330539657
3.081323053966675,-0.2537853759765625,1.7573440185546874,9.514557397460937,9.67881539684419
3.083809997513056,-0.5410895751953124,1.5897499023437498,9.5001921875,9.647472947866868
3.086296941059438,-0.7852981445312499,1.5370774658203123,9.533711010742186,9.688701974366
3.088783884605819,-1.1061211669921875,1.4317325927734375,9.572018237304688,9.741503753967939
3.091270828152201,-1.3551181396484375,1.37906015625,9.557653027343749,9.751250354598309
3.0937577716985825,-1.5753846923828123,1.3838485595703125,9.605537060546874,9.8317453174072
3.0962447152449637,-1.7573440185546874,1.37906015625,9.576806640625,9.83388480439065
3.0987316587913454,-1.924938134765625,1.4413093994140624,9.672574707031249,9.967018665108185
3.1012186023377266,-2.0159177978515626,1.599326708984375,9.639055883789062,9.97663113583809
3.1037055458841083,-2.1212626708984375,1.675941162109375,9.672574707031249,10.04326817131258
3.1061924894304895,-2.1739351074218747,1.8148048583984373,9.658209497070311,10.0648160050071
3.108679432976871,-2.1499930908203124,1.9105729248046874,9.662997900390625,10.081978358165893
3.111166376523253,-2.0973206542968748,2.1356278808593747,9.65342109375,10.106839228250424
3.113653320069634,-1.9823989746093749,2.3127988037109373,9.65342109375,10.122622328934161
3.116140263616016,-1.838746875,2.47081611328125,9.624690673828125,10.105473413098796
3.118627207162397,-1.66636435546875,2.6623522460937497,9.572018237304688,10.074146255775263
3.1211141507087787,-1.4221557861328125,2.89219560546875,9.5384994140625,10.068281560047595
3.1236010942551604,-1.1875240234375,3.0933085449218747,9.557653027343749,10.115705731753025
3.1260880378015417,-0.9193734375,3.2561142578125,9.562441430664062,10.1433630366063
3.1285749813479233,-0.6177040283203125,3.308786694335937,9.543287817382812,10.119484671692767
3.1310619248943046,-0.3495534423828125,3.5529952636718747,9.481038574218749,10.130945434587057
3.1335488684406863,-0.12449848632812499,3.5577836669921874,9.447519750976562,10.095987021550028
3.136035811987068,0.1867477294921875,3.6583401367187496,9.442731347656249,10.128351424314218
3.138522755533449,0.4070142822265625,3.6631285400390623,9.409212524414063,10.105317988879696
3.141009699079831,0.612915625,3.6631285400390623,9.423577734375,10.129066767477946
3.143496642626212,0.8188169677734375,3.6008792968749996,9.332598071289063,10.036641853608458
3.1459835861725938,0.928950244140625,3.5051112304687497,9.356540087890625,10.03461985878645
3.148470529718975,1.0103531005859374,3.414131567382812,9.327809667968749,9.984244635880808
3.1509574732653567,1.0486603271484374,3.308786694335937,9.327809667968749,9.952677583052756
3.1534444168117384,1.0726023437499999,3.1555577880859373,9.380482104492186,9.95497188617155
3.1559313603581196,1.0390835205078124,2.9735984619140625,9.380482104492186,9.895222427413481
3.1584183039045013,0.9576806640625,2.7964275390625,9.332598071289063,9.78951204073904
3.1609052474508825,0.7757213378906249,2.5953145996093747,9.366116894531249,9.749951135622583
3.163392190997264,0.6464344482421874,2.398990063476562,9.404424121093749,9.727087121535583
3.165879134543646,0.4213794921875,2.2026655273437497,9.423577734375,9.686749373117536
3.168366078090027,0.1771709228515625,1.9871873779296874,9.428366137695312,9.637136049540171
3.170853021636409,-0.086191259765625,1.85790048828125,9.5001921875,9.680541036380752
3.17333996518279,-0.4070142822265625,1.6472107421875,9.490615380859374,9.641096626552335
3.1758269087291717,-0.6368576416015624,1.5801730957031248,9.524134204101562,9.67531224332257
3.178313852275553,-0.9145850341796874,1.4700398193359374,9.519345800781249,9.675506567101811
3.1808007958219346,-1.1923124267578125,1.4413093994140624,9.5384994140625,9.7201827544502
3.1832877393683163,-1.446097802734375,1.37906015625,9.591171850585937,9.797121170890025
3.1857746829146976,-1.6615759521484375,1.3742717529296875,9.629479077148437,9.867944304306643
3.1882616264610792,-1.85790048828125,1.407790576171875,9.581595043945311,9.861066479690287
3.1907485700074605,-2.0063409912109376,1.4939818359375,9.639055883789062,9.958352485724383
3.193235513553842,-2.0877438476562498,1.6041151123046875,9.696516723632811,10.047601516712414
3.195722457100224,-2.1739351074218747,1.6615759521484375,9.6151138671875,9.996861666294112
3.198209400646605,-2.1835119140624997,1.8291700683593748,9.643844287109374,10.055710817831171
3.2006963441929868,-2.1068974609374997,2.0733786376953125,9.672574707031249,10.114179024975622
3.203183287739368,-2.0063409912109376,2.212242333984375,9.610325463867188,10.06368599662867
3.2056702312857497,-1.905784521484375,2.360682836914062,9.605537060546874,10.073290441577148
3.208157174832131,-1.7477672119140624,2.5953145996093747,9.610325463867188,10.106864183288577
3.2106441183785126,-1.5801730957031248,2.77727392578125,9.610325463867188,10.127613390758084
3.2131310619248943,-1.3215993164062498,2.9496564453125,9.5384994140625,10.071249623088969
3.2156180054712755,-1.0869675537109373,3.1459809814453124,9.552864624023437,10.116121654238565
3.218104949017657,-0.814028564453125,3.2321722412109373,9.514557397460937,10.081487111045611
3.2205918925640384,-0.5363011718749999,3.4332851806640625,9.476250170898437,10.09328407309408
3.22307883611042,-0.26336218261718747,3.5242648437499997,9.519345800781249,10.154198481563018
3.225565779656802,0.0430956298828125,3.6104561035156246,9.457096557617186,10.122940571238333
3.228052723203183,0.239420166015625,3.6008792968749996,9.34696328125,10.019449900448313
