Time (s),Acceleration x (m/s^2),Acceleration y (m/s^2),Acceleration z (m/s^2),Absolute acceleration (m/s^2)
0.0,0.967257470703125,3.303998291015625,9.418789331054686,10.028239336217238
0.002486943546381497,0.9145850341796874,3.356670727539062,9.394847314453125,10.018326218473332
0.004973887092762994,0.8762778076171874,3.4668040039062498,9.3852705078125,10.043400584584779
0.007460830639144491,0.7709329345703124,3.4572271972656248,9.409212524414063,10.053856862553236
0.009947774185525988,0.6368576416015624,3.438073583984375,9.390058911132812,10.019937324110474
0.012434717731907486,0.4644751220703125,3.438073583984375,9.404424121093749,10.02393536278658
0.014921661278288981,0.26336218261718747,3.385401147460937,9.404424121093749,9.998674593058455
0.01740860482467048,-0.0,3.308786694335937,9.380482104492186,9.946934899822795
0.019895548371051976,-0.22026655273437498,3.23696064453125,9.404424121093749,9.948347833580588
0.022382491917433474,-0.45968671875,3.0837317382812497,9.423577734375,9.925952378935056
0.02486943546381497,-0.7422025146484375,2.935291235351562,9.437942944335937,9.91168836423052
0.027356379010196465,-0.9576806640625,2.786850732421875,9.481038574218749,9.92843299342567
0.029843322556577963,-1.16837041015625,2.6384102294921874,9.485826977539062,9.914999314282657
0.032330266102959464,-1.426944189453125,2.4899697265625,9.509768994140625,9.93336928141354
0.03481720964934096,-1.5945383056640625,2.2936451904296873,9.519345800781249,9.92075123882576
0.03730415319572245,-1.7286135986328124,2.1260510742187497,9.504980590820312,9.892060158300485
0.03979109674210395,-1.8722656982421875,2.001552587890625,9.557653027343749,9.942852860120132
0.04227804028848545,-1.9393033447265624,1.886630908203125,9.572018237304688,9.947050154792048
0.04476498383486695,-1.9393033447265624,1.8148048583984373,9.605537060546874,9.965979949732676
0.04725192738124844,-1.93451494140625,1.6424223388671875,9.605537060546874,9.935101480069214
0.04973887092762994,-1.8770541015625,1.62805712890625,9.624690673828125,9.940250131764751
0.05222581447401144,-1.8148048583984373,1.6041151123046875,9.586383447265625,9.887641253888575
0.05471275802039293,-1.6472107421875,1.6041151123046875,9.624690673828125,9.895512068082999
0.05719970156677443,-1.4987702392578124,1.6424223388671875,9.624690673828125,9.878184749040129
0.059686645113155926,-1.2785036865234374,1.656787548828125,9.619902270507811,9.844899001641778
0.062173588659537427,-1.0438719238281249,1.7908628417968748,9.552864624023437,9.775176767527217
0.06466053220591893,-0.833182177734375,1.7956512451171873,9.567229833984374,9.769874238272761
0.06714747575230041,-0.5985504150390625,1.9584569580078124,9.567229833984374,9.783951295463062
0.06963441929868192,-0.3495534423828125,2.0925322509765625,9.524134204101562,9.757561742986617
0.07212136284506342,-0.105344873046875,2.2170307373046874,9.519345800781249,9.774674792916777
0.0746083063914449,0.1484405029296875,2.39420166015625,9.495403784179686,9.793718864507948
0.0770952499378264,0.3687070556640625,2.5522189697265625,9.490615380859374,9.834711326202367
0.0795821934842079,0.5219359619140624,2.710236279296875,9.476250170898437,9.87001089864691
0.0820691370305894,0.7278373046875,2.8730419921875,9.476250170898437,9.928919111988986
0.0845560805769709,0.842758984375,3.0023288818359375,9.428366137695312,9.930675175781888
0.0870430241233524,0.9050082275390624,3.1124621582031247,9.423577734375,9.96545422416701
0.0895299676697339,0.9576806640625,3.265691064453125,9.442731347656249,10.037283780325142
0.09201691121611538,0.9816226806640624,3.327940307617187,9.375693701171874,9.997119693014145
0.09450385476249688,0.928950244140625,3.423708374023437,9.418789331054686,10.064706654902402
0.09699079830887838,0.82360537109375,3.418919970703125,9.34696328125,9.986644188835552
0.09947774185525989,0.7326257080078125,3.4811692138671875,9.404424121093749,10.054773621172213
0.10196468540164137,0.5363011718749999,3.4332851806640625,9.390058911132812,10.01240592631295
0.10445162894802287,0.32561142578124996,3.414131567382812,9.418789331054686,10.023767237061557
0.10693857249440437,0.0909796630859375,3.303998291015625,9.375693701171874,9.941243100554546
0.10942551604078586,0.06703764648437499,3.380612744140625,9.773131176757811,10.341524528327904
0.11191245958716736,-0.3591302490234375,3.1316157714843746,9.394847314453125,9.90954832158663
0.11439940313354886,-0.6272808349609375,3.0119056884765625,9.394847314453125,9.885758098601942
0.11688634667993036,-0.8714894042968749,2.858676782226562,9.4618849609375,9.922640462148076
0.11937329022631185,-1.1013327636718748,2.6910826660156246,9.428366137695312,9.866557038709425
0.12186023377269335,-1.2976572998046874,2.5570073730468748,9.5001921875,9.923500026351011
0.12434717731907485,-1.5322890624999999,2.403778466796875,9.504980590820312,9.923241240661456
0.12683412086545634,-1.6519991455078125,2.231395947265625,9.548076220703125,9.943540041986479
0.12932106441183785,-1.8243816650390623,2.1068974609374997,9.528922607421874,9.928129301578988
0.13180800795821934,-1.89620771484375,1.9297265380859374,9.562441430664062,9.937793232126872
0.13429495150460083,-1.944091748046875,1.8148048583984373,9.600748657226562,9.962298137384172
0.13678189505098234,-1.9488801513671874,1.695094775390625,9.605537060546874,9.946749336516381
0.13926883859736383,-1.9105729248046874,1.6519991455078125,9.591171850585937,9.918163516761929
0.14175578214374532,-1.89620771484375,1.5801730957031248,9.629479077148437,9.940795642575923
0.14424272569012683,-1.7573440185546874,1.599326708984375,9.605537060546874,9.895071810914777
0.14672966923650832,-1.599326708984375,1.62805712890625,9.65342109375,9.919523917522993
0.1492166127828898,-1.407790576171875,1.62805712890625,9.591171850585937,9.829701002004734
0.15170355632927132,-1.1875240234375,1.6903063720703124,9.639055883789062,9.857928142795078
0.1541904998756528,-1.005564697265625,1.7525556152343749,9.576806640625,9.787636945493817
0.15667744342203432,-0.718260498046875,1.8531120849609375,9.572018237304688,9.776167739854731
0.1591643869684158,-0.45489831542968745,2.020706201171875,9.572018237304688,9.793554980911109
0.1616513305147973,-0.2442085693359375,2.1356278808593747,9.514557397460937,9.754350144444254
0.1641382740611788,0.0383072265625,2.31758720703125,9.533711010742186,9.811438403320311
0.1666252176075603,0.2442085693359375,2.4899697265625,9.552864624023437,9.875059979030674
0.1691121611539418,0.45010991210937495,2.6192566162109374,9.490615380859374,9.85570314396433
0.1715991047003233,0.6512228515624999,2.806004345703125,9.481038574218749,9.90897795114743
0.1740860482467048,0.7852981445312499,2.940079638671875,9.418789331054686,9.898199529223826
0.17657299179308628,0.8954314208984374,3.0550013183593747,9.428366137695312,9.951327474822106
0.1790599353394678,0.9241618408203125,3.1747114013671873,9.414000927734374,9.977789387303325
0.18154687888584928,0.9911994873046874,3.289633081054687,9.433154541015625,10.039350916582514
0.18403382243223076,0.9097966308593749,3.327940307617187,9.351751684570312,9.967857150383422
0.18652076597861228,0.8954314208984374,3.4093431640625,9.351751684570312,9.994032109701045
0.18900770952499377,0.814028564453125,3.4668040039062498,9.418789331054686,10.069506689408156
0.19149465307137528,0.6560112548828124,3.4859576171874997,9.418789331054686,10.064583634614502
0.19398159661775677,0.45489831542968745,3.399766357421875,9.390058911132812,9.996927033693058
0.19646854016413826,0.24899697265624998,3.39018955078125,9.409212524414063,10.004432268360299
0.19895548371051977,0.01915361328125,3.2800562744140622,9.390058911132812,9.946473866590587
0.20144242725690126,-0.181959326171875,3.189076611328125,9.457096557617186,9.981983476714227
0.20392937080328274,-0.49320554199218747,3.1076737548828124,9.437942944335937,9.948650908237747
0.20641631434966426,-0.699106884765625,2.9640216552734375,9.399635717773437,9.880654150211853
0.20890325789604575,-0.9576806640625,2.786850732421875,9.495403784179686,9.94215179343654
0.21139020144242723,-1.1875240234375,2.6719290527343746,9.533711010742186,9.972014029544583
0.21387714498880875,-1.3838485595703125,2.4851813232421875,9.485826977539062,9.903134680141662
0.21636408853519024,-1.5658078857421873,2.3127988037109373,9.562441430664062,9.961981668141119
0.21885103208157172,-1.7669208251953124,2.1356278808593747,9.557653027343749,9.951464567545116
0.22133797562795324,-1.8148048583984373,2.0542250244140625,9.605537060546874,9.988978894087975
0.22382491917433472,-1.924938134765625,1.9393033447265624,9.595960253906249,9.977411361675486
0.22631186272071624,-1.9536685546875,1.7956512451171873,9.591171850585937,9.95147032770222
0.22879880626709773,-1.944091748046875,1.7094599853515624,9.619902270507811,9.962141630215035
0.2312857498134792,-1.9488801513671874,1.599326708984375,9.586383447265625,9.912352261924116
0.23377269335986073,-1.8435352783203125,1.5658078857421873,9.619902270507811,9.91931934920866
0.23625963690624222,-1.675941162109375,1.618480322265625,9.643844287109374,9.92128973301484
0.2387465804526237,-1.4939818359375,1.618480322265625,9.648632690429688,9.896846622763265
0.24123352399900522,-1.3311761230468748,1.6807295654296874,9.629479077148437,9.86527997777656
0.2437204675453867,-1.0869675537109373,1.7286135986328124,9.586383447265625,9.801446374602424
0.2462074110917682,-0.86191259765625,1.7812860351562498,9.600748657226562,9.80256334048798
0.2486943546381497,-0.622492431640625,1.9201497314453124,9.524134204101562,9.735687143512607
0.2511812981845312,-0.38307226562499996,2.1212626708984375,9.543287817382812,9.78370288004728
0.2536682417309127,-0.0909796630859375,2.1883003173828124,9.5001921875,9.749389066889728
0.2561551852772942,0.12449848632812499,2.365471240234375,9.5001921875,9.791047219828426
0.2586421288236757,0.3399766357421875,2.50912333984375,9.514557397460937,9.845714119198155
0.26112907237005717,0.5746083984375,2.729389892578125,9.452308154296874,9.855245985821446
0.2636160159164387,0.7038952880859375,2.829946362304687,9.433154541015625,9.8736249465328
0.2661029594628202,0.8379705810546875,2.9975404785156248,9.437942944335937,9.937917821938019
0.26858990300920166,0.9097966308593749,3.0980969482421874,9.3852705078125,9.925181968863127
0.2710768465555832,0.9528922607421875,3.227383837890625,9.404424121093749,9.988353375159987
0.2735637901019647,0.97683427734375,3.3327287109375,9.394847314453125,10.016208959880375
0.27605073364834615,0.93852705078125,3.399766357421875,9.390058911132812,10.030575789287994
0.27853767719472766,0.842758984375,3.438073583984375,9.342174877929686,9.990336537097061
0.2810246207411092,0.699106884765625,3.4811692138671875,9.332598071289063,9.985222896467144
0.28351156428749064,0.5985504150390625,3.447650390625,9.337386474609374,9.971526562745456
0.28599850783387215,0.36391865234375,3.35188232421875,9.323021264648437,9.913943584770932
0.28848545138025367,0.16280571289062498,3.31357509765625,9.34696328125,9.918266391310189
0.2909723949266351,-0.0718260498046875,3.265691064453125,9.409212524414063,9.960079188413614
0.29345933847301664,-0.316034619140625,3.1555577880859373,9.428366137695312,9.947437401707274
0.29594628201939815,-0.55545478515625,3.0358477050781247,9.447519750976562,9.938839507300303
0.2984332255657796,-0.8762778076171874,2.849099975585937,9.466673364257812,9.924874712184254
0.30092016911216113,-1.0726023437499999,2.73896669921875,9.471461767578125,9.91771154964397
0.30340711265854264,-1.2976572998046874,2.5761609863281247,9.476250170898437,9.905545779848183
0.30589405620492416,-1.4939818359375,2.389413256835937,9.481038574218749,9.89097416253214
0.3083809997513056,-3.5434184570312497,6.603208178710937,9.452308154296874,12.062516406488818
0.31086794329768713,-2.01112939453125,6.89530078125,9.404424121093749,11.833554299316178
0.31335488684406865,-0.5746083984375,6.981492041015625,9.265560424804686,11.615593653189931
0.3158418303904501,0.6847416748046875,7.058106494140625,9.217676391601563,11.629759090545823
0.3183287739368316,1.8291700683593748,6.785167504882812,9.126696728515624,11.518721907512017
0.32081571748321314,2.6862942626953124,6.478709692382812,9.0788126953125,11.472344838808333
0.3233026610295946,3.4428619873046875,6.062118603515625,9.069235888671875,11.439126725021092
0.3257896045759761,4.017470385742187,5.540182641601562,9.011775048828124,11.31573159514222
0.3282765481223576,4.4196962646484375,5.070919116210937,9.083601098632812,11.303085626234285
0.3307634916687391,4.601655590820312,4.448426684570312,9.088389501953124,11.115869641361256
0.3332504352151206,4.697423657226563,3.9695863525390624,9.1554271484375,11.02929059804313
0.3357373787615021,4.510675927734375,3.356670727539062,9.150638745117186,10.740001170474788
0.3382243223078836,4.3239281982421875,2.839523168945312,9.251195214843749,10.59923864217044
0.3407112658542651,4.017470385742187,2.398990063476562,9.265560424804686,10.38006895982303
0.3431982094006466,3.6152445068359373,1.9871873779296874,9.294290844726563,10.168714216929223
0.34568515294702806,3.1124621582031247,1.6615759521484375,9.313444458007812,9.95934249854883
0.3481720964934096,2.6384102294921874,1.4125789794921875,9.409212524414063,9.873695774226723
0.3506590400397911,2.1116858642578125,1.197100830078125,9.466673364257812,9.772930582595393
0.35314598358617255,1.5801730957031248,1.0342951171875,9.5001921875,9.686091316999748
0.35563292713255407,1.0199299072265624,0.9959878906249999,9.471461767578125,9.578143708914633
0.3581198706789356,0.507570751953125,1.024718310546875,9.528922607421874,9.59729345922297
0.36060681422531704,0.01915361328125,1.120486376953125,9.572018237304688,9.637395380346954
0.36309375777169856,-0.4070142822265625,1.2737152832031249,9.6151138671875,9.7076478061157
0.36558070131808007,-0.8379705810546875,1.37906015625,9.572018237304688,9.70708683099945
0.36806764486446153,-1.197100830078125,1.5514426757812498,9.567229833984374,9.765854364564818
0.37055458841084304,-1.4796166259765624,1.8339584716796873,9.591171850585937,9.876398458101214
0.37304153195722456,-1.7238251953125,2.020706201171875,9.533711010742186,9.896791019911223
0.3755284755036061,-1.9823989746093749,2.221819140625,9.533711010742186,9.987894253771747
0.37801541904998753,-2.1356278808593747,2.375048046875,9.557653027343749,10.077226357562967
0.38050236259636905,-2.212242333984375,2.5617957763671875,9.576806640625,10.15736379066953
0.38298930614275056,-2.288856787109375,2.7198130859375,9.552864624023437,10.192814681885077
0.385476249689132,-2.3319524169921872,2.85388837890625,9.509768994140625,10.198940497732607
0.38796319323551354,-2.3127988037109373,2.9640216552734375,9.533711010742186,10.248224642137947
0.39045013678189505,-2.27927998046875,3.0310593017578125,9.528922607421874,10.255866798002687
0.3929370803282765,-2.2553379638671873,3.0310593017578125,9.495403784179686,10.219420866499581
0.395424023874658,-2.1068974609374997,3.0550013183593747,9.552864624023437,10.248379017727675
0.39791096742103954,-2.0350714111328125,3.0166940917968748,9.495403784179686,10.168807792288444
0.400397910967421,-1.9009961181640624,2.906560815429687,9.524134204101562,10.137603974944149
0.4028848545138025,-1.7286135986328124,2.863465185546875,9.490615380859374,10.062768910673732
0.40537179806018403,-1.62805712890625,2.8107927490234372,9.548076220703125,10.085478938022808
0.4078587416065655,-1.4700398193359374,2.6431986328124997,9.524134204101562,9.992829850481414
0.410345685152947,-1.2306196533203124,2.5330653564453125,9.528922607421874,9.936358029449085
0.4128326286993285,-1.1109095703125,2.389413256835937,9.504980590820312,9.863471590531706
0.41531957224571,-0.948103857421875,2.269703173828125,9.533711010742186,9.845917888043273
0.4178065157920915,-0.74699091796875,2.1835119140624997,9.490615380859374,9.7671643795825
0.420293459338473,-0.5410895751953124,2.1691467041015624,9.519345800781249,9.778339318470765
0.42278040288485447,-0.38786066894531246,2.0350714111328125,9.5384994140625,9.760887388910675
0.425267346431236,-0.17238251953125,2.0446482177734375,9.5001921875,9.71925684746113
0.4277542899776175,-0.0143652099609375,2.0302830078125,9.528922607421874,9.74282410337501
0.43024123352399896,0.1197100830078125,1.9967641845703124,9.466673364257812,9.675706811303492
0.43272817707038047,0.32082302246093747,2.1116858642578125,9.481038574218749,9.718654075892974
0.435215120616762,0.4165910888671875,2.1068974609374997,9.509768994140625,9.749270299265829
0.43770206416314344,0.55545478515625,2.250549560546875,9.490615380859374,9.769610209738934
0.44018900770952496,0.622492431640625,2.27927998046875,9.447519750976562,9.738492876308312
0.4426759512559065,0.7517793212890624,2.4756045166015626,9.490615380859374,9.836949231237316
0.445162894802288,0.7613561279296874,2.5378537597656248,9.414000927734374,9.77976371528864
0.44764983834866945,0.7948749511718749,2.6144682128906247,9.447519750976562,9.834780102742931
0.45013678189505096,0.7948749511718749,2.7964275390625,9.457096557617186,9.893862161427279
0.4526237254414325,0.7517793212890624,2.91134921875,9.399635717773437,9.868853937934041
0.45511066898781394,0.7565677246093749,2.9831752685546875,9.442731347656249,9.931611385311395
0.45759761253419545,0.6368576416015624,3.0980969482421874,9.394847314453125,9.91296869854137
0.46008455608057697,0.4740519287109375,3.1220389648437497,9.399635717773437,9.91589653818349
0.4625714996269584,0.36391865234375,3.2225954345703123,9.414000927734374,9.956955939835265
0.46505844317333994,0.15322890625,3.265691064453125,9.404424121093749,9.956475795961616
0.46754538671972146,-0.009576806640625,3.2417490478515623,9.370905297851563,9.915790170519665
0.4700323302661029,-0.201112939453125,3.2130186279296873,9.414000927734374,9.949238593240304
0.47251927381248443,-0.38307226562499996,3.1507693847656246,9.423577734375,9.94373719445942
0.47500621735886595,-0.6368576416015624,3.0980969482421874,9.447519750976562,9.962902278024517
0.4774931609052474,-0.8379705810546875,3.0119056884765625,9.390058911132812,9.89681650459052
0.4799801044516289,-1.024718310546875,2.877830395507812,9.447519750976562,9.929128101015262
0.48246704799801043,-1.254561669921875,2.729389892578125,9.466673364257812,9.93183763232631
0.4849539915443919,-1.4221557861328125,2.6671406494140624,9.509768994140625,9.978570671479273
0.4874409350907734,-1.5562310791015623,2.5378537597656248,9.528922607421874,9.983131920181854
0.4899278786371549,-1.675941162109375,2.39420166015625,9.5384994140625,9.976169176613743
0.4924148221835364,-1.8004396484374998,2.2457611572265623,9.557653027343749,9.981671077232832
0.4949017657299179,-1.848323681640625,2.1116858642578125,9.610325463867188,10.011686828046205
0.4973887092762994,-1.8531120849609375,1.9823989746093749,9.576806640625,9.953851291127453
0.49987565282268087,-1.8435352783203125,1.8770541015625,9.557653027343749,9.913157207151377
0.5023625963690624,-1.7717092285156248,1.8100164550781248,9.557653027343749,9.887560090798646
0.5048495399154439,-1.7621324218749999,1.7190367919921874,9.610325463867188,9.92061256606163
0.5073364834618254,-1.62805712890625,1.6615759521484375,9.524134204101562,9.804108169409279
0.5098234270082069,-1.4700398193359374,1.6903063720703124,9.629479077148437,9.886608113965792
0.5123103705545884,-1.3120225097656248,1.68551796875,9.576806640625,9.812114925999895
0.5147973141009698,-1.1109095703125,1.7381904052734374,9.576806640625,9.796461166682366
0.5172842576473514,-0.9145850341796874,1.8148048583984373,9.581595043945311,9.794740733933155
0.5197712011937329,-0.6368576416015624,1.9201497314453124,9.572018237304688,9.78346031739943
0.5222581447401143,-0.4213794921875,1.9584569580078124,9.567229833984374,9.774712324620408
0.5247450882864959,-0.2154781494140625,2.1021090576171875,9.543287817382812,9.774437870711457
0.5272320318328774,0.0143652099609375,2.2649147705078123,9.471461767578125,9.738512889123053
0.5297189753792588,0.229843359375,2.379836450195312,9.509768994140625,9.805720566151445
0.5322059189256404,0.4165910888671875,2.5522189697265625,9.5001921875,9.845863161967653
0.5346928624720219,0.603338818359375,2.6958710693359373,9.490615380859374,9.884509034829515
0.5371798060184033,0.7757213378906249,2.839523168945312,9.433154541015625,9.881752881737114
0.5396667495647849,0.8379705810546875,2.9544448486328125,9.452308154296874,9.938665328006234
0.5421536931111663,0.9097966308593749,3.1124621582031247,9.442731347656249,9.984003500589306
0.5446406366575478,0.93852705078125,3.246537451171875,9.423577734375,10.011226486436014
0.5471275802039294,0.928950244140625,3.2800562744140622,9.404424121093749,10.003245011935972
0.5496145237503108,0.8714894042968749,3.3710359375,9.375693701171874,10.00135038141911
0.5521014672966923,0.7278373046875,3.404554760742187,9.404424121093749,10.028157024618082
0.5545884108430739,0.603338818359375,3.4524387939453125,9.394847314453125,10.02728813875242
0.5570753543894553,0.45010991210937495,3.418919970703125,9.380482104492186,9.994251208157113
0.5595622979358368,0.2059013427734375,3.299209887695312,9.361328491210937,9.92782213611727
0.5620492414822184,-0.033518823242187495,3.2800562744140622,9.404424121093749,9.96007458427117
0.5645361850285998,-0.2154781494140625,3.1459809814453124,9.390058911132812,9.905394162931389
0.5670231285749813,-0.44532150878906246,3.1411925781249996,9.447519750976562,9.965993753969045
0.5695100721213628,-0.7038952880859375,2.987963671875,9.485826977539062,9.970170957854343
0.5719970156677443,-0.9433154541015625,2.7964275390625,9.442731347656249,9.893180799479204
0.5744839592141258,-1.1875240234375,2.6479870361328124,9.452308154296874,9.887779229612471
0.5769709027605073,-1.3215993164062498,2.5234885498046875,9.495403784179686,9.913491425261574
0.5794578463068888,-1.5035586425781249,2.408566870117187,9.543287817382812,9.956717597928781
0.5819447898532703,-1.70467158203125,2.2266075439453124,9.528922607421874,9.932978023512122
0.5844317333996518,-1.8243816650390623,2.0925322509765625,9.519345800781249,9.91589653818349
0.5869186769460333,-1.924938134765625,1.9009961181640624,9.5384994140625,9.91474377561117
0.5894056204924147,-1.944091748046875,1.8243816650390623,9.576806640625,9.940980163770258
0.5918925640387963,-2.0063409912109376,1.68551796875,9.548076220703125,9.901117841554502
0.5943795075851778,-1.9393033447265624,1.6615759521484375,9.600748657226562,9.934591430293612
0.5968664511315592,-1.8004396484374998,1.66636435546875,9.648632690429688,9.955624836627331
0.5993533946779408,-1.68551796875,1.618480322265625,9.619902270507811,9.89964489619004
0.6018403382243223,-1.5562310791015623,1.618480322265625,9.591171850585937,9.850477713928129
0.6043272817707037,-1.369483349609375,1.599326708984375,9.528922607421874,9.758775365032427
0.6068142253170853,-1.1348515869140625,1.6998831787109374,9.572018237304688,9.787799756885063
0.6093011688634667,-0.9433154541015625,1.7764976318359373,9.548076220703125,9.757640462643723
0.6117881124098483,-0.6703764648437499,1.9297265380859374,9.562441430664062,9.778217385152066
0.6142750559562298,-0.39743747558593745,2.0254946044921875,9.509768994140625,9.731201943323624
0.6167619995026112,-0.143652099609375,2.1404162841796874,9.514557397460937,9.753400446248602
0.6192489430489928,0.08140285644531249,2.370259643554687,9.519345800781249,9.810336471179419
0.6217358865953743,0.277727392578125,2.5426421630859375,9.519345800781249,9.856982608736924
0.6242228301417557,0.5123591552734374,2.6767174560546874,9.490615380859374,9.874163688684977
0.6267097736881373,0.6607996582031249,2.8107927490234372,9.409212524414063,9.842280853330418
0.6291967172345188,0.7661445312499999,2.96881005859375,9.457096557617186,9.941704376356528
0.6316836607809002,0.8954314208984374,3.0693665283203124,9.414000927734374,9.942143721657263
0.6341706043272818,0.9528922607421875,3.1699229980468746,9.428366137695312,9.992522379287847
0.6366575478736632,0.97683427734375,3.294421484375,9.3852705078125,9.994534537782155
0.6391444914200447,0.9241618408203125,3.418919970703125,9.370905297851563,10.017831850026408
0.6416314349664263,0.833182177734375,3.42849677734375,9.342174877929686,9.986241241997472
0.6441183785128077,0.7661445312499999,3.4668040039062498,9.34696328125,9.998571399220014
0.6466053220591892,0.584185205078125,3.4428619873046875,9.361328491210937,9.991448450440876
0.6490922656055708,0.38307226562499996,3.385401147460937,9.370905297851563,9.97103562280385
0.6515792091519522,0.2346317626953125,3.366247534179687,9.390058911132812,9.977969777463803
0.6540661526983337,0.028730419921875,3.308786694335937,9.361328491210937,9.928915648045413
0.6565530962447153,-0.2537853759765625,3.189076611328125,9.404424121093749,9.933670504873291
0.6590400397910967,-0.5410895751953124,3.0693665283203124,9.361328491210937,9.8665221802779
0.6615269833374782,-0.7757213378906249,2.906560815429687,9.423577734375,9.892100721467527
0.6640139268838597,-1.01514150390625,2.7341782958984373,9.471461767578125,9.91033961281899
0.6665008704302412,-1.177947216796875,2.6096798095703124,9.504980590820312,9.926864781284637
0.6689878139766227,-1.4413093994140624,2.4516625,9.5001921875,9.916737033832328
0.6714747575230042,-1.6232687255859375,2.2936451904296873,9.548076220703125,9.952967855439056
0.6739617010693857,-1.7525556152343749,2.1787235107421874,9.5384994140625,9.939882212220674
0.6764486446157671,-1.8722656982421875,1.9967641845703124,9.586383447265625,9.969513210363154
0.6789355881621487,-1.9776105712890624,1.8914193115234375,9.586383447265625,9.969310817789083
0.6814225317085302,-1.944091748046875,1.7812860351562498,9.595960253906249,9.951629306722348
0.6839094752549116,-1.9632453613281249,1.6711527587890624,9.548076220703125,9.890037583767878
0.6863964188012932,-1.89620771484375,1.6136919189453125,9.605537060546874,9.92300093362093
0.6888833623476747,-1.8052280517578123,1.6041151123046875,9.605537060546874,9.90446242023852
0.6913703058940561,-1.6903063720703124,1.5849614990234373,9.619902270507811,9.89503705293565
0.6938572494404377,-1.4604630126953124,1.6041151123046875,9.567229833984374,9.810098072968284
0.6963441929868192,-1.2497732666015624,1.6903063720703124,9.581595043945311,9.809486858930532
0.6988311365332006,-1.0678139404296874,1.7429788085937499,9.600748657226562,9.815934826485988
0.7013180800795822,-0.814028564453125,1.8100164550781248,9.519345800781249,9.724029336969876
0.7038050236259636,-0.5746083984375,1.9393033447265624,9.524134204101562,9.736539663153426
0.7062919671723451,-0.277727392578125,2.0781670410156248,9.519345800781249,9.74750507718788
0.7087789107187267,-0.01915361328125,2.250549560546875,9.524134204101562,9.786443303014469
0.7112658542651081,0.201112939453125,2.418143676757812,9.514557397460937,9.81909709318723
0.7137527978114896,0.3687070556640625,2.5426421630859375,9.433154541015625,9.776777519054145
0.7162397413578712,0.565031591796875,2.7341782958984373,9.504980590820312,9.906545698948824
0.7187266849042526,0.7134720947265625,2.906560815429687,9.466673364257812,9.928496501953008
0.7212136284506341,-0.9145850341796874,7.431601953125,9.337386474609374,11.968791064708869
0.7237005719970157,0.7996633544921875,7.967903124999999,9.17458076171875,12.177843562930272
0.7261875155433971,2.35589443359375,8.327033374023436,9.0788126953125,12.542510249184794
0.7286744590897786,3.6583401367187496,8.44674345703125,8.939948999023438,12.83174250403926
0.7311614026361601,4.745307690429687,8.44674345703125,8.94473740234375,13.18611949371909
0.7336483461825416,4.228160131835938,12.770671655273437,8.743624462890624,16.04426256875992
0.7361352897289231,6.363788012695312,12.789825268554686,8.59997236328125,16.67444010813814
0.7386222332753046,8.111555224609374,12.531251489257812,8.542511523437499,17.198956223474035
0.7411091768216861,9.404424121093749,11.903970654296874,8.470685473632813,17.37527619294108
0.7435961203680675,10.213664282226562,11.118672509765624,8.398859423828124,17.276708484855412
0.7460830639144491,10.620678564453124,10.060435375976562,8.427589843749999,16.88299273523841
0.7485700074608306,10.639832177734375,8.959102612304687,8.494627490234375,16.298166908766213
0.7510569510072121,10.299855541992187,7.714117749023437,8.532934716796875,15.440388975437859
0.7535438945535936,9.667786303710937,6.45476767578125,8.657433203124999,14.494180467660199
0.7560308380999751,8.67658681640625,5.147533569335937,8.748412866210938,13.353463532273572
0.7585177816463566,7.541735229492187,3.854664672851562,8.863334545898438,12.259482423186148
0.7610047251927381,6.196193896484375,2.6048914062499997,8.954314208984375,11.196339624824034
0.7634916687391196,4.797980126953124,1.5275006591796874,9.126696728515624,10.423553364219385
0.7659786122855011,3.35188232421875,0.5746083984375,9.284714038085937,9.887932276062324
0.7684655558318826,1.944091748046875,-0.32561142578124996,9.428366137695312,9.632216959343413
0.770952499378264,0.55545478515625,-0.9816226806640624,9.543287817382812,9.609706315541295
0.7734394429246456,-0.7709329345703124,-1.5275006591796874,9.658209497070311,9.808598602384476
0.7759263864710271,-1.915361328125,-1.9201497314453124,9.777919580078125,10.147083094314416
0.7784133300174085,-2.9448680419921875,-2.1068974609374997,9.835380419921874,10.480742946005037
0.7809002735637901,-3.763685009765625,-2.1835119140624997,9.873687646484374,10.789937760336038
0.7833872171101716,-4.434061474609375,-2.0973206542968748,9.945513696289062,11.089314576231871
0.785874160656553,-4.8506525634765625,-1.838746875,9.983820922851562,11.25106664194345
0.7883611042029346,-5.118803149414062,-1.4987702392578124,10.012551342773437,11.34458647568127
0.790848047749316,-5.233724829101562,-1.0869675537109373,9.955090502929687,11.29943365709518
0.7933349912956975,-5.118803149414062,-0.5602431884765625,9.969455712890625,11.220787197161044
0.7958219348420791,-4.8698061767578125,-0.009576806640625,9.926360083007811,11.05656946850807
0.7983088783884605,-4.46279189453125,0.6081272216796875,9.840168823242188,10.821980072128632
0.800795821934842,-4.0222587890625,1.20667763671875,9.782707983398437,10.645938764317366
0.8032827654812236,-3.438073583984375,1.8052280517578123,9.749189160156249,10.494088219957586
0.805769709027605,-2.7629087158203123,2.389413256835937,9.701305126953125,10.366208634314967
0.8082566525739865,-2.1116858642578125,2.9831752685546875,9.610325463867188,10.281872757123415
0.8107435961203681,-1.4508862060546874,3.4763808105468748,9.543287817382812,10.259855588080443
0.8132305396667495,-0.8571241943359375,3.907337109375,9.504980590820312,10.312448846063957
0.815717483213131,-0.2442085693359375,4.2521021484374995,9.394847314453125,10.315191058238863
0.8182044267595125,0.32561142578124996,4.5585599609375,9.3852705078125,10.438859814312908
0.820691370305894,0.8475473876953125,4.817133740234374,9.313444458007812,10.519665475579059
0.8231783138522755,1.1923124267578125,4.903325,9.270348828125,10.55478907291589
0.825665257398657,1.4939818359375,5.003881469726562,9.265560424804686,10.635855465118489
0.8281522009450385,1.6711527587890624,4.96078583984375,9.217676391601563,10.600363472649953
0.83063914449142,1.7956512451171873,4.88417138671875,9.260772021484375,10.622682898535608
0.8331260880378015,1.7860744384765623,4.69263525390625,9.184157568359375,10.467073983040146
0.835613031584183,1.6998831787109374,4.44363828125,9.203311181640624,10.36033110966856
0.8380999751305644,1.5179238525390624,4.2137949218749995,9.236830004882812,10.265436620272416
0.840586918676946,1.2737152832031249,3.897760302734375,9.260772021484375,10.128019768649
0.8430738622233275,0.9959878906249999,3.6296097167968746,9.294290844726563,10.02745734874529
0.8455608057697089,0.6847416748046875,3.294421484375,9.342174877929686,9.929668450041342
0.8480477493160905,0.3495534423828125,2.9640216552734375,9.380482104492186,9.843833424774605
0.850534692862472,-0.05746083984375,2.5617957763671875,9.390058911132812,9.733411822299159
0.8530216364088534,-0.4070142822265625,2.308010400390625,9.437942944335937,9.724574008911043
0.855508579955235,-0.7852981445312499,1.9584569580078124,9.490615380859374,9.722346791777074
0.8579955235016165,-1.1348515869140625,1.714248388671875,9.490615380859374,9.710731999689314
0.8604824670479979,-1.4125789794921875,1.426944189453125,9.528922607421874,9.738167956620636
0.8629694105943795,-1.675941162109375,1.2689268798828124,9.490615380859374,9.720634470688946
0.8654563541407609,-1.867477294921875,1.1444283935546875,9.581595043945311,9.828741088317477
0.8679432976871424,-1.9728221679687499,1.0726023437499999,9.639055883789062,9.89716633310037
0.870430241233524,-2.0446482177734375,1.005564697265625,9.65342109375,9.91868365803086
0.8729171847799054,-2.0781670410156248,0.967257470703125,9.619902270507811,9.889230756692655
0.8754041283262869,-1.9967641845703124,1.0199299072265624,9.643844287109374,9.901063420585187
0.8778910718726685,-1.915361328125,1.120486376953125,9.658209497070311,9.909849112247546
0.8803780154190499,-1.7334020019531249,1.20667763671875,9.639055883789062,9.867732857659899
0.8828649589654315,-1.5466542724609373,1.407790576171875,9.6151138671875,9.839940468512061
0.885351902511813,-1.3263877197265623,1.6041151123046875,9.600748657226562,9.823790737582074
0.8878388460581944,-1.024718310546875,1.8004396484374998,9.591171850585937,9.81234977011663
0.890325789604576,-0.7852981445312499,2.01112939453125,9.576806640625,9.817156413609338
0.8928127331509574,-0.488417138671875,2.250549560546875,9.572018237304688,9.845154024245618
0.8952996766973389,-0.2346317626953125,2.446874096679687,9.504980590820312,9.817683073971088
0.8977866202437205,0.01915361328125,2.7054478759765623,9.452308154296874,9.831884077546633
0.9002735637901019,0.28730419921875,2.940079638671875,9.423577734375,9.875749556384564
0.9027605073364834,0.4644751220703125,3.0502129150390624,9.409212524414063,9.902162203058673
0.905247450882865,0.6943184814453125,3.27526787109375,9.423577734375,10.000663732818126
0.9077343944292464,0.8044517578125,3.447650390625,9.399635717773437,10.044231552162987
0.9102213379756279,0.852335791015625,3.5673604736328124,9.313444458007812,10.009634594823149
0.9127082815220094,0.8858546142578124,3.6008792968749996,9.34696328125,10.055684595754812
0.9151952250683909,0.9193734375,3.725377783203125,9.342174877929686,10.099500908212471
0.9176821686147724,0.833182177734375,3.7205893798828122,9.327809667968749,10.07695445443921
0.9201691121611539,0.737414111328125,3.6918589599609373,9.327809667968749,10.05890825853785
0.9226560557075354,0.622492431640625,3.67749375,9.361328491210937,10.076999961749358
0.9251429992539169,0.38307226562499996,3.5529952636718747,9.366116894531249,10.02470275800682
0.9276299428002984,0.1771709228515625,3.42849677734375,9.313444458007812,9.92603784803166
0.9301168863466799,-0.0718260498046875,3.31357509765625,9.342174877929686,9.912677254862015
0.9326038298930613,-0.28730419921875,3.1603461914062496,9.433154541015625,9.952624595909786
0.9350907734394429,-0.5793968017578125,2.91134921875,9.390058911132812,9.84808921984098
0.9375777169858244,-0.8475473876953125,2.7533319091796873,9.437942944335937,9.867823478206159
0.9400646605322058,-1.0965443603515623,2.5474305664062498,9.428366137695312,9.827812577136342
0.9425516040785874,-1.2880804931640624,2.403778466796875,9.4618849609375,9.84705891565199
0.9450385476249689,-1.5131354492187499,2.2457611572265623,9.514557397460937,9.892412472828287
0.9475254911713503,-1.6615759521484375,2.068590234375,9.490615380859374,9.854525889656697
0.9500124347177319,-1.8100164550781248,1.9201497314453124,9.495403784179686,9.855243659262666
0.9524993782641133,-1.93451494140625,1.7238251953125,9.528922607421874,9.87493227423631
0.9549863218104948,-1.9393033447265624,1.6232687255859375,9.576806640625,9.905105968653345
0.9574732653568764,-1.8914193115234375,1.5753846923828123,9.557653027343749,9.86955091846083
0.9599602089032578,-1.9009961181640624,1.5275006591796874,9.595960253906249,9.900984683334164
0.9624471524496393,-1.7860744384765623,1.4939818359375,9.605537060546874,9.883743513842822
0.9649340959960209,-1.618480322265625,1.5131354492187499,9.605537060546874,9.857758348771943
0.9674210395424023,-1.4987702392578124,1.6041151123046875,9.624690673828125,9.871887767316
0.9699079830887838,-1.3072341064453123,1.5945383056640625,9.610325463867188,9.829026856140844
0.9723949266351654,-1.0869675537109373,1.7381904052734374,9.572018237304688,9.789092781412306
0.9748818701815468,-0.8571241943359375,1.7764976318359373,9.562441430664062,9.763753982732014
0.9773688137279283,-0.63206923828125,1.9728221679687499,9.504980590820312,9.728113633191237
0.9798557572743098,-0.38307226562499996,2.0925322509765625,9.5384994140625,9.772840255224617
0.9823427008206913,-0.09576806640624999,2.288856787109375,9.509768994140625,9.78180674703596
0.9848296443670728,0.1580173095703125,2.4851813232421875,9.476250170898437,9.797980045956834
0.9873165879134543,0.36391865234375,2.5665841796874997,9.481038574218749,9.829032688050729
0.9898035314598358,0.5410895751953124,2.7820623291015623,9.428366137695312,9.845137721628411
0.9922904750062173,0.689530078125,2.9544448486328125,9.433154541015625,9.909016131127032
0.9947774185525988,0.814028564453125,3.1268273681640624,9.423577734375,9.96210365384007
0.9972643620989803,0.93852705078125,3.1842882080078123,9.366116894531249,9.937035277120104
0.9997513056453617,0.9576806640625,3.303998291015625,9.356540087890625,9.968871519768808
1.0022382491917432,0.9097966308593749,3.414131567382812,9.34696328125,9.992484518374729
1.0047251927381249,0.86191259765625,3.5051112304687497,9.370905297851563,10.042039840852016
1.0072121362845063,0.7996633544921875,3.5098996337890624,9.370905297851563,10.03856180043201
1.0096990798308878,0.6655880615234374,3.4620156005859375,9.3852705078125,10.025560432771728
1.0121860233772693,0.5267243652343749,3.4763808105468748,9.323021264648437,9.964004596443994
1.0146729669236507,0.26815058593749996,3.385401147460937,9.356540087890625,9.953777578501176
1.0171599104700322,0.062249243164062495,3.323151904296875,9.380482104492186,9.951917305725797
1.0196468540164139,-0.17238251953125,3.2561142578125,9.3852705078125,9.935557271627237
1.0221337975627953,-0.4070142822265625,3.1747114013671873,9.428366137695312,9.95683389106933
1.0246207411091768,-0.699106884765625,2.959233251953125,9.442731347656249,9.920231205964997
1.0271076846555582,-0.9193734375,2.7724855224609373,9.447519750976562,9.888758917828278
1.0295946282019397,-1.177947216796875,2.6575638427734374,9.4618849609375,9.898357047409002
1.0320815717483212,-1.388636962890625,2.446874096679687,9.437942944335937,9.848363949420666
1.0345685152947028,-1.5945383056640625,2.31758720703125,9.5001921875,9.907947036084769
1.0370554588410843,-1.7381904052734374,2.1547814941406247,9.490615380859374,9.886160502433695
1.0395424023874658,-1.838746875,2.04943662109375,9.533711010742186,9.923347528457786
1.0420293459338472,-1.9201497314453124,1.8818425048828125,9.562441430664062,9.933206547698164
1.0445162894802287,-1.9680337646484374,1.7764976318359373,9.581595043945311,9.941632880008815
1.0470032330266101,-1.9919757812499999,1.6903063720703124,9.576806640625,9.92674813705209
1.0494901765729918,-1.93451494140625,1.6472107421875,9.6151138671875,9.9451528880497
1.0519771201193733,-1.8195932617187498,1.6041151123046875,9.591171850585937,9.89316341718303
1.0544640636657547,-1.6903063720703124,1.5801730957031248,9.591171850585937,9.86633975247749
1.0569510072121362,-1.5275006591796874,1.6519991455078125,9.591171850585937,9.8515448995589
1.0594379507585177,-1.3455413330078123,1.6041151123046875,9.595960253906249,9.821716752528816
1.0619248943048991,-1.0726023437499999,1.7094599853515624,9.591171850585937,9.801189045050005
1.0644118378512808,-0.8571241943359375,1.8243816650390623,9.5384994140625,9.749153882071889
1.0668987813976623,-0.6081272216796875,1.9728221679687499,9.586383447265625,9.806150805600796
1.0693857249440437,-0.354341845703125,2.0925322509765625,9.495403784179686,9.729693848709077
1.0718726684904252,-0.105344873046875,2.2361843505859373,9.509768994140625,9.769714648545326
1.0743596120368066,0.1197100830078125,2.360682836914062,9.452308154296874,9.743371254563872
1.076846555583188,0.3495534423828125,2.5809493896484375,9.4618849609375,9.813804276376391
1.0793334991295698,0.5315127685546874,2.6575638427734374,9.447519750976562,9.828569623635255
1.0818204426759512,0.679953271484375,2.839523168945312,9.447519750976562,9.88842038565674
1.0843073862223327,0.82360537109375,2.9927520751953125,9.390058911132812,9.88979762914414
1.0867943297687142,0.9193734375,3.1028853515624997,9.423577734375,9.963782531665872
1.0892812733150956,0.9576806640625,3.2130186279296873,9.342174877929686,9.925566603855062
1.0917682168614773,0.9528922607421875,3.323151904296875,9.375693701171874,9.992746099937108
1.0942551604078588,0.8954314208984374,3.414131567382812,9.299079248046874,9.94640470976262
1.0967421039542402,0.8379705810546875,3.42849677734375,9.356540087890625,10.0000813628327
1.0992290475006217,0.7422025146484375,3.4955344238281247,9.370905297851563,10.029132145017352
1.1017159910470031,0.584185205078125,3.5003228271484375,9.404424121093749,10.05170260689693
1.1042029345933846,0.3591302490234375,3.42849677734375,9.380482104492186,9.993848568030149
1.1066898781397663,0.15322890625,3.375824340820312,9.375693701171874,9.966107638189516
1.1091768216861477,-0.11013327636718749,3.284844677734375,9.366116894531249,9.926050552834543
1.1116637652325292,-0.36391865234375,3.21780703125,9.375693701171874,9.919191058452276
1.1141507087789106,-0.5602431884765625,3.0023288818359375,9.399635717773437,9.883370010870927
1.116637652325292,-0.8379705810546875,2.85388837890625,9.442731347656249,9.900103478145027
1.1191245958716736,-1.01514150390625,2.748543505859375,9.423577734375,9.86857745535612
1.1216115394180552,-1.3120225097656248,2.5426421630859375,9.466673364257812,9.889607516033301
1.1240984829644367,-1.4987702392578124,2.461239306640625,9.5001921875,9.927621203192322
1.1265854265108182,-1.6424223388671875,2.2553379638671873,9.514557397460937,9.915185471792709
1.1290723700571996,-1.8052280517578123,2.1021090576171875,9.519345800781249,9.91441653774044
1.131559313603581,-1.8914193115234375,1.9536685546875,9.600748657226562,9.978409823855511
1.1340462571499625,-1.944091748046875,1.8626888916015625,9.567229833984374,9.93886257717655
1.1365332006963442,-2.001552587890625,1.70467158203125,9.557653027343749,9.91266106329525
1.1390201442427257,-1.944091748046875,1.6807295654296874,9.591171850585937,9.929497573613958
1.1415070877891071,-1.8770541015625,1.6807295654296874,9.610325463867188,9.935116481136804
1.1439940313354886,-1.7669208251953124,1.5801730957031248,9.605537060546874,9.893699936648188
1.14648097488187,-1.618480322265625,1.618480322265625,9.595960253906249,9.865161443264402
1.1489679184282515,-1.4413093994140624,1.5897499023437498,9.600748657226562,9.837634487826783
1.1514548619746332,-1.24498486328125,1.695094775390625,9.562441430664062,9.790996870709161
1.1539418055210147,-0.97683427734375,1.8052280517578123,9.557653027343749,9.77557082299239
1.1564287490673961,-0.7661445312499999,1.9201497314453124,9.567229833984374,9.788045725792992
1.1589156926137776,-0.4836287353515625,1.9680337646484374,9.509768994140625,9.723310134638947
1.161402636160159,-0.2442085693359375,2.1260510742187497,9.490615380859374,9.728900827068202
1.1638895797065405,-0.0,2.2457611572265623,9.495403784179686,9.757363178642143
1.1663765232529222,0.2059013427734375,2.4516625,9.476250170898437,9.790421935663183
1.1688634667993036,0.44053310546874996,2.6384102294921874,9.447519750976562,9.818905611176595
1.171350410345685,0.5889736083984375,2.7820623291015623,9.476250170898437,9.893739334339092
1.1738373538920666,0.7852981445312499,2.863465185546875,9.423577734375,9.880280530453145
1.176324297438448,0.8475473876953125,3.0693665283203124,9.394847314453125,9.919803602967617
1.1788112409848295,0.928950244140625,3.1651345947265623,9.366116894531249,9.930013657636504
1.1812981845312112,0.93852705078125,3.2609026611328122,9.366116894531249,9.961850474307216
1.1837851280775926,0.9816226806640624,3.39018955078125,9.366116894531249,10.009051601397815
1.186272071623974,0.8810662109374999,3.347093920898437,9.332598071289063,9.953728052523806
1.1887590151703555,0.7900865478515624,3.4428619873046875,9.337386474609374,9.983201970958099
1.191245958716737,-0.7326257080078125,7.934384301757812,9.193734375,12.166180437346448
1.1937329022631185,0.7517793212890624,8.259995727539062,9.102754711914063,12.314740960010287
1.1962198458095001,2.020706201171875,8.494627490234375,9.02135185546875,12.554948787210144
1.1987067893558816,3.0789433349609374,8.480262280273436,8.939948999023438,12.70107981658524
1.201193732902263,3.84987626953125,8.188169677734374,8.920795385742187,12.706229191870717
1.2036806764486445,4.434061474609375,7.829039428710937,8.86812294921875,12.633224615251079
1.206167619995026,4.802768530273437,7.278373046874999,8.920795385742187,12.474850302874998
1.2086545635414074,4.92247861328125,6.641515405273437,8.896853369140624,12.144732292178555
1.2111415070877891,4.841075756835937,5.889736083984375,8.896853369140624,11.716612372797913
1.2136284506341706,4.639962817382812,5.123591552734375,8.992621435546875,11.342296311990937
1.216115394180552,4.223371728515625,4.371812231445312,9.045293872070312,10.898025150289966
1.2186023377269335,3.6822821533203123,3.5865140869140624,9.117119921875,10.466334641226808
1.221089281273315,3.0693665283203124,2.887407202148437,9.17458076171875,10.096091490744897
1.2235762248196966,2.408566870117187,2.1356278808593747,9.270348828125,9.8133311473958
1.226063168366078,1.68551796875,1.4891934326171874,9.351751684570312,9.618416058405508
1.2285501119124596,0.9528922607421875,0.9145850341796874,9.409212524414063,9.501460402218086
1.231037055458841,0.296881005859375,0.4836287353515625,9.514557397460937,9.531465656176728
1.2335239990052225,-0.39743747558593745,0.0718260498046875,9.548076220703125,9.556614204036237
1.236010942551604,-0.9720458740234375,-0.22026655273437498,9.600748657226562,9.652345068152977
1.2384978860979856,-1.4939818359375,-0.3591302490234375,9.701305126953125,9.822233830861583
1.240984829644367,-1.8914193115234375,-0.38786066894531246,9.701305126953125,9.891573387321426
1.2434717731907485,-2.1883003173828124,-0.354341845703125,9.715670336914062,9.965363341005977
1.24595871673713,-2.427720483398437,-0.239420166015625,9.773131176757811,10.072995669587216
1.2484456602835114,-2.5139117431640625,-0.01915361328125,9.7683427734375,10.086656515054358
1.250932603829893,-2.518700146484375,0.26336218261718747,9.734823950195311,10.058827337638794
1.2534195473762746,-2.47081611328125,0.584185205078125,9.710881933593749,10.037302055217822
1.255906490922656,-2.3319524169921872,0.967257470703125,9.7683427734375,10.089306697147993
1.2583934344690375,-2.1308394775390624,1.3311761230468748,9.682151513671874,10.00282783433303
1.260880378015419,-1.8435352783203125,1.7764976318359373,9.658209497070311,9.991775460228748
1.2633673215618004,-1.5753846923828123,2.1930887207031247,9.591171850585937,9.964037963262756
1.2658542651081819,-1.2306196533203124,2.5905261962890624,9.6151138671875,10.033726395700624
1.2683412086545636,-0.9145850341796874,2.935291235351562,9.524134204101562,10.008073378968325
1.270828152200945,-0.5698199951171875,3.2704794677734372,9.485826977539062,10.049957423978016
1.2733150957473265,-0.32082302246093747,3.5482068603515624,9.423577734375,10.074547962633119
1.275802039293708,-0.047884033203124995,3.797203833007812,9.375693701171874,10.115566331562409
1.2782889828400894,0.1771709228515625,4.031835595703125,9.351751684570312,10.185398734293445
1.2807759263864709,0.36391865234375,4.103661645507812,9.337386474609374,10.205844495315105
1.2832628699328525,0.49799394531249996,4.2137949218749995,9.342174877929686,10.260618746596522
1.285749813479234,0.5123591552734374,4.189852905273438,9.318232861328125,10.229703951227332
1.2882367570256155,0.5746083984375,4.237736938476562,9.337386474609374,10.270120512803231
1.290723700571997,0.5458779785156249,4.07971962890625,9.313444458007812,10.182452685394992
1.2932106441183784,0.40222587890625,3.9695863525390624,9.3086560546875,10.127708477854037
1.2956975876647598,0.3064578125,3.7205893798828122,9.265560424804686,9.989359924952442
1.2981845312111415,0.16759411621093748,3.6583401367187496,9.380482104492186,10.070004213326529
1.300671474757523,-0.033518823242187495,3.318363500976562,9.332598071289063,9.905051569595855
1.3031584183039044,-0.2442085693359375,3.0789433349609374,9.394847314453125,9.889524050586287
1.305645361850286,-0.4644751220703125,2.81558115234375,9.394847314453125,9.818675594312234
1.3081323053966674,-0.7517793212890624,2.5378537597656248,9.457096557617186,9.820516745771029
1.3106192489430488,-0.93852705078125,2.2936451904296873,9.452308154296874,9.771784418846773
1.3131061924894305,-1.1348515869140625,2.0973206542968748,9.5001921875,9.794911620361752
1.315593136035812,-1.3072341064453123,1.886630908203125,9.524134204101562,9.796804046758234
1.3180800795821934,-1.4317325927734375,1.6615759521484375,9.509768994140625,9.759426170830237
1.3205670231285749,-1.5322890624999999,1.5179238525390624,9.557653027343749,9.7979964270384
1.3230539666749563,-1.5562310791015623,1.3838485595703125,9.591171850585937,9.814655851065716
1.3255409102213378,-1.599326708984375,1.3455413330078123,9.634267480468749,9.858368895822517
1.3280278537677195,-1.5322890624999999,1.3024457031249999,9.610325463867188,9.818484104081444
1.330514797314101,-1.4891934326171874,1.2689268798828124,9.619902270507811,9.816842272358288
1.3330017408604824,-1.4221557861328125,1.3120225097656248,9.629479077148437,9.821954868731694
1.3354886844068639,-1.2641384765625,1.4173673828125,9.610325463867188,9.796189662682147
1.3379756279532453,-1.0630255371093749,1.5035586425781249,9.543287817382812,9.719313465961742
1.3404625714996268,-0.8667010009765624,1.6519991455078125,9.533711010742186,9.71452095773122
1.3429495150460085,-1.3742717529296875,6.507440112304687,9.414000927734374,11.526439742327904
1.34543645859239,0.373495458984375,7.019799267578125,9.275137231445312,11.638094830216641
1.3479234021387714,2.0302830078125,7.307103466796875,9.13627353515625,11.873807488564212
1.3504103456851528,3.4332851806640625,7.48906279296875,9.050082275390624,12.238361730237257
1.3528972892315343,4.601655590820312,7.50821640625,8.987833032226561,12.582912635586103
1.3553842327779158,5.516240625,7.37414111328125,8.892064965820312,12.801393953310482
1.3578711763242974,6.1818286865234375,7.144297753906249,8.882488159179687,12.967443549287628
1.360358119870679,4.76924970703125,11.161768139648437,8.810662109374999,14.998619189007531
1.3628450634170604,6.574477758789062,11.128249316406249,8.686163623046875,15.572768833295221
1.3653320069634418,8.010998754882811,10.884040747070312,8.580818749999999,16.00840074632605
1.3678189505098233,9.045293872070312,10.409988818359375,8.508992700195313,16.204572354815696
1.370305894056205,9.730035546875,9.763554370117188,8.499415893554687,16.193846245203623
1.3727928376025864,10.007762939453125,8.992621435546875,8.585607153320312,15.960426357917056
1.3752797811489679,9.94072529296875,8.020575561523437,8.542511523437499,15.36626678202738
1.3777667246953493,9.504980590820312,7.000645654296875,8.643067993164061,14.630663687726322
1.3802536682417308,8.805873706054687,5.95677373046875,8.690952026367187,13.731686426932557
1.3827406117881123,7.920019091796875,4.88417138671875,8.79150849609375,12.80126767887297
1.385227555334494,6.766013891601562,3.878606689453125,8.920795385742187,11.84918242526019
1.3877144988808754,5.5449710449218745,2.858676782226562,9.054870678710937,10.995881949277296
1.3902014424272569,4.165910888671875,1.9105729248046874,9.126696728515624,10.212820159370741
1.3926883859736383,2.767697119140625,1.0726023437499999,9.260772021484375,9.724840439052207
1.3951753295200198,1.4125789794921875,0.37828386230468747,9.437942944335937,9.550562552767445
1.3976622730664012,0.06703764648437499,-0.2442085693359375,9.490615380859374,9.493993478973312
1.400149216612783,-1.1827356201171875,-0.679953271484375,9.610325463867188,9.706675822337447
1.4026361601591644,-2.2744915771484373,-1.0534487304687499,9.753977563476562,10.070905841633591
1.4051231037055458,-3.227383837890625,-1.2306196533203124,9.782707983398437,10.37457501089386
1.4076100472519273,-4.017470385742187,-1.4030021728515625,9.816226806640625,10.698915464510955
1.4100969907983087,-4.659116430664063,-1.3407529296874998,9.873687646484374,10.999758727957971
1.4125839343446902,-5.085284326171875,-1.2306196533203124,9.907206469726562,11.203895815426856
1.4150708778910719,-5.348646508789062,-1.0390835205078124,9.945513696289062,11.340236184561839
1.4175578214374533,-5.449202978515625,-0.7038952880859375,9.931148486328125,11.34975735137763
1.4200447649838348,-5.353434912109375,-0.430956298828125,9.883264453125,11.248284533211956
1.4225317085302163,-5.1331683593749995,0.08140285644531249,9.878476049804688,11.132849271291285
1.4250186520765977,-4.76924970703125,0.5363011718749999,9.840168823242188,10.948163507405235
1.4275055956229792,-4.242525341796875,1.0295067138671874,9.811438403320311,10.738865344711
1.4299925391693609,-3.6200329101562496,1.5514426757812498,9.7683427734375,10.532432443942769
1.4324794827157423,-3.0119056884765625,1.9919757812499999,9.682151513671874,10.333615113940647
1.4349664262621238,-2.31758720703125,2.50912333984375,9.639055883789062,10.226353637907899
1.4374533698085052,-1.62805712890625,2.882618798828125,9.586383447265625,10.14193318615086
1.4399403133548867,-0.967257470703125,3.299209887695312,9.519345800781249,10.121181619383634
1.4424272569012682,-0.258573779296875,3.6152445068359373,9.485826977539062,10.154691856051327
1.4449142004476498,0.3495534423828125,3.9791631591796874,9.399635717773437,10.213181614134584
1.4474011439940313,0.8906430175781249,4.2521021484374995,9.361328491210937,10.320275615789779
1.4498880875404128,1.3646949462890625,4.4196962646484375,9.351751684570312,10.433185847958327
1.4523750310867942,1.7286135986328124,4.515464331054687,9.251195214843749,10.438492994755197
1.4548619746331757,1.9823989746093749,4.587290380859375,9.241618408203124,10.50621956441498
1.4573489181795571,2.1308394775390624,4.548983154296875,9.188945971679686,10.472366145602628
1.4598358617259388,2.2601263671875,4.553771557617187,9.227253198242186,10.535046662406868
1.4623228052723203,2.2074539306640624,4.405331054687499,9.179369165039063,10.4182826236126
1.4648097488187017,2.1260510742187497,4.299986181640625,9.222464794921875,10.395375473067839
1.4672966923650832,1.9393033447265624,4.13718046875,9.217676391601563,10.287989004376069
1.4697836359114647,1.6998831787109374,3.883395092773437,9.3086560546875,10.22846214307466
1.4722705794578461,1.35990654296875,3.5960908935546874,9.255983618164063,10.022696656091995
1.4747575230042278,0.9576806640625,3.423708374023437,9.289502441406249,9.946546480742452
1.4772444665506093,0.6081272216796875,3.1411925781249996,9.313444458007812,9.84769806619861
1.4797314100969907,0.1292868896484375,2.844311572265625,9.356540087890625,9.780166963618946
1.4822183536433722,-0.26336218261718747,2.5665841796874997,9.337386474609374,9.687285490108833
1.4847052971897536,-0.679953271484375,2.3319524169921872,9.404424121093749,9.713059846203356
1.487192240736135,-1.0534487304687499,2.059013427734375,9.452308154296874,9.731157175131017
1.4896791842825168,-1.4221557861328125,1.838746875,9.543287817382812,9.822314366571684
1.4921661278288982,-1.7764976318359373,1.6615759521484375,9.543287817382812,9.848407020736088
1.4946530713752797,-2.0159177978515626,1.4700398193359374,9.548076220703125,9.868672714934082
1.4971400149216612,-2.2074539306640624,1.350329736328125,9.591171850585937,9.934124054001353
1.4996269584680426,-2.3415292236328122,1.2976572998046874,9.6151138671875,9.980836049742738
1.5021139020144243,-2.39420166015625,1.1875240234375,9.634267480468749,9.998076053969273
1.5046008455608058,-2.418143676757812,1.0965443603515623,9.600748657226562,9.961134631903148
1.5070877891071872,-2.384624853515625,1.197100830078125,9.639055883789062,10.001544101796817
1.5095747326535687,-2.308010400390625,1.2210428466796874,9.586383447265625,9.935623042353575
1.5120616761999501,-2.0925322509765625,1.3215993164062498,9.634267480468749,9.947081273404784
1.5145486197463316,-1.867477294921875,1.446097802734375,9.605537060546874,9.891663789457333
1.5170355632927133,-1.5897499023437498,1.5562310791015623,9.600748657226562,9.855127330623446
1.5195225068390947,-1.3311761230468748,1.7334020019531249,9.581595043945311,9.827699423420649
1.5220094503854762,-1.0199299072265624,1.9201497314453124,9.552864624023437,9.79716563765986
1.5244963939318577,-0.6368576416015624,2.1452046874999997,9.562441430664062,9.820782907783821
1.5269833374782391,-0.37828386230468747,2.250549560546875,9.485826977539062,9.756484277277638
1.5294702810246206,-0.086191259765625,2.50912333984375,9.490615380859374,9.817072332177917
1.5319572245710023,0.239420166015625,2.710236279296875,9.442731347656249,9.826895644582876
1.5344441681173837,0.47884033203125,2.901772412109375,9.481038574218749,9.92671464489046
1.5369311116637652,0.7230489013671875,3.0837317382812497,9.457096557617186,9.97340846689567
1.5394180552101466,0.9002198242187499,3.19865341796875,9.394847314453125,9.965186173980229
1.541904998756528,1.0678139404296874,3.39018955078125,9.3852705078125,10.03578169882234
1.5443919423029095,1.0773907470703123,3.4093431640625,9.34696328125,10.007502895989997
1.5468788858492912,1.139639990234375,3.5386300537109374,9.361328491210937,10.072494878863196
1.5493658293956727,1.1013327636718748,3.5673604736328124,9.351751684570312,10.069471395015654
1.5518527729420541,1.0295067138671874,3.6296097167968746,9.332598071289063,10.066346781747201
1.5543397164884356,0.9337386474609375,3.6056677001953124,9.337386474609374,10.0528351027067
1.556826660034817,0.7852981445312499,3.5146880371093747,9.351751684570312,10.021226708535618
1.5593136035811985,0.5793968017578125,3.5194764404296874,9.356540087890625,10.01335395783706
1.5618005471275802,0.38786066894531246,3.394977954101562,9.390058911132812,9.992473045342432
1.5642874906739617,0.06703764648437499,3.2800562744140622,9.3852705078125,9.942161018319123
1.5667744342203431,-0.181959326171875,3.0885201416015624,9.375693701171874,9.872978184907197
1.5692613777667246,-0.469263525390625,2.9975404785156248,9.3852705078125,9.863506459744263
1.571748321313106,-0.7517793212890624,2.7916391357421872,9.409212524414063,9.843358245117145
1.5742352648594875,-1.005564697265625,2.6575638427734374,9.457096557617186,9.874739552965357
1.5767222084058692,-1.2832920898437499,2.437297290039062,9.442731347656249,9.836281409755278
1.5792091519522506,-1.484405029296875,2.269703173828125,9.466673364257812,9.847482692233363
1.581696095498632,-1.6424223388671875,2.1499930908203124,9.495403784179686,9.873333502642303
1.5841830390450136,-1.8148048583984373,1.9728221679687499,9.576806640625,9.944886596257124
1.586669982591395,-1.9536685546875,1.8291700683593748,9.5384994140625,9.906848895215232
1.5891569261377765,-2.0302830078125,1.7334020019531249,9.562441430664062,9.928092349845857
1.5916438696841582,-2.020706201171875,1.6424223388671875,9.581595043945311,9.929137337997787
1.5941308132305396,-1.9728221679687499,1.599326708984375,9.552864624023437,9.884689967491047
1.596617756776921,-1.924938134765625,1.5658078857421873,9.543287817382812,9.86060259432123
1.5991047003233025,-1.8435352783203125,1.5275006591796874,9.610325463867188,9.904051499647
1.601591643869684,-1.6615759521484375,1.5562310791015623,9.624690673828125,9.890265940974171
1.6040785874160655,-1.4891934326171874,1.5610194824218748,9.572018237304688,9.812135957045458
1.6065655309624471,-1.2593500732421874,1.6711527587890624,9.595960253906249,9.821464623198104
1.6090524745088286,-0.9864110839843749,1.7764976318359373,9.543287817382812,9.757217483890226
1.61153941805521,-0.7852981445312499,1.8770541015625,9.576806640625,9.790569478223212
1.6140263616015915,-0.49320554199218747,1.9967641845703124,9.514557397460937,9.734326961069943
1.616513305147973,-0.2537853759765625,2.1643583007812497,9.5001921875,9.746922871894302
1.6190002486943544,-0.0143652099609375,2.3032219970703123,9.481038574218749,9.756799186868081
1.6214871922407361,0.24899697265624998,2.47081611328125,9.471461767578125,9.791604555573942
1.6239741357871176,0.49320554199218747,2.6767174560546874,9.4618849609375,9.845574389552644
1.626461079333499,0.612915625,2.829946362304687,9.409212524414063,9.844670756631789
1.6289480228798805,0.814028564453125,3.0262708984374997,9.404424121093749,9.912827603861839
1.631434966426262,0.8906430175781249,3.1172505615234374,9.356540087890625,9.902289556682492
1.6339219099726436,0.9720458740234375,3.2225954345703123,9.366116894531249,9.952594646530276
1.636408853519025,0.9528922607421875,3.327940307617187,9.404424121093749,10.021296493022021
1.6388957970654066,0.967257470703125,3.366247534179687,9.351751684570312,9.986113810981001
1.641382740611788,0.8667010009765624,3.4428619873046875,9.318232861328125,9.971656479575332
1.6438696841581695,0.7517793212890624,3.4715924072265625,9.318232861328125,9.972291093212547
1.646356627704551,0.6081272216796875,3.4668040039062498,9.399635717773437,10.037016506217892
1.6488435712509326,0.488417138671875,3.447650390625,9.414000927734374,10.037343173604695
1.651330514797314,-1.8291700683593748,7.6997525390625,9.327809667968749,12.232746441565464
1.6538174583436955,-0.36391865234375,8.073247998046874,9.160215551757812,12.21553596769938
1.656304401890077,0.9337386474609375,8.240842114257813,9.045293872070312,12.271947190482857
1.6587913454364585,2.0159177978515626,8.192958081054687,8.968679418945312,12.313638666349895
1.66127828898284,2.896984008789062,7.934384301757812,8.920795385742187,12.285257869065648
1.6637652325292216,3.6056677001953124,7.613561279296874,8.930372192382812,12.276754555350719
1.666252176075603,4.046200805664062,7.101202124023437,8.911218579101561,12.09167602652818
1.6687391196219845,4.304774584960938,6.507440112304687,8.920795385742187,11.851516837807587
1.671226063168366,4.4196962646484375,5.793968017578124,8.98304462890625,11.567146202300156
1.6737130067147474,4.295197778320312,5.0757075195312495,9.016563452148437,11.203122210586331
1.676199950261129,4.050989208984375,4.338293408203125,9.050082275390624,10.822905915617397
1.6786868938075106,3.687070556640625,3.5434184570312497,9.083601098632812,10.424112075872896
1.681173837353892,3.1938650146484373,2.839523168945312,9.208099584960937,10.15149070458769
1.6836607809002735,2.6240450195312497,2.1068974609374997,9.241618408203124,9.835249868624105
1.686147724446655,2.0446482177734375,1.5179238525390624,9.3086560546875,9.650686851256825
1.6886346679930364,1.426944189453125,0.967257470703125,9.380482104492186,9.537567889516867
1.6911216115394179,0.8475473876953125,0.5315127685546874,9.471461767578125,9.524149852465571
1.6936085550857995,0.2442085693359375,0.22026655273437498,9.5001921875,9.505882745911956
1.696095498632181,-0.27293898925781246,-0.0383072265625,9.576806640625,9.580771814806106
1.6985824421785625,-0.7757213378906249,-0.16280571289062498,9.581595043945311,9.614323318901128
1.701069385724944,-1.1444283935546875,-0.19153613281249998,9.662997900390625,9.732416496487424
1.7035563292713254,-1.4796166259765624,-0.1771709228515625,9.682151513671874,9.79615806474502
1.7060432728177068,-1.68551796875,-0.0143652099609375,9.662997900390625,9.808909501325312
1.7085302163640885,-1.838746875,0.2346317626953125,9.686939916992188,9.862699787066642
1.71101715991047,-1.9393033447265624,0.5219359619140624,9.662997900390625,9.869490515429883
1.7135041034568514,-1.9009961181640624,0.8858546142578124,9.6917283203125,9.916053775248702
1.715991047003233,-1.8052280517578123,1.197100830078125,9.648632690429688,9.888782104539237
1.7184779905496144,-1.70467158203125,1.608903515625,9.6151138671875,9.896711090264118
1.7209649340959958,-1.5370774658203123,2.0159177978515626,9.619902270507811,9.948319023721979
1.7234518776423775,-1.3742717529296875,2.403778466796875,9.572018237304688,9.96445216274484
1.725938821188759,-1.1875240234375,2.7581203125,9.5001921875,9.963487971784897
1.7284257647351404,-0.928950244140625,3.0933085449218747,9.481038574218749,10.016067030326798
1.7309127082815219,-0.7613561279296874,3.380612744140625,9.457096557617186,10.071984957270187
1.7333996518279033,-0.5506663818359374,3.6918589599609373,9.418789331054686,10.13146823057338
1.7358865953742848,-0.40222587890625,3.821145849609375,9.394847314453125,10.150177206509055
1.7383735389206665,-0.27293898925781246,3.9935283691406247,9.366116894531249,10.185622720728063
1.740860482467048,-0.105344873046875,4.0988732421875,9.380482104492186,10.237446161543224
1.7433474260134294,-0.076614453125,4.050989208984375,9.318232861328125,10.1609963588061
1.7458343695598109,-0.076614453125,4.007893579101562,9.327809667968749,10.152689984318561
1.7483213131061923,-0.05746083984375,3.9264907226562498,9.313444458007812,10.107466488473635
1.7508082566525738,-0.1292868896484375,3.864241479492187,9.289502441406249,10.06200441863129
1.7532952001989555,-0.1484405029296875,3.69664736328125,9.299079248046874,10.00800235675533
1.755782143745337,-0.3064578125,3.4715924072265625,9.342174877929686,9.971063217259028
1.7582690872917184,-0.4213794921875,3.294421484375,9.375693701171874,9.946577600930972
1.7607560308380998,-0.5793968017578125,3.0166940917968748,9.361328491210937,9.852442083957001
1.7632429743844813,-0.679953271484375,2.77727392578125,9.466673364257812,9.889059181528596
1.765729917930863,-0.82360537109375,2.50912333984375,9.442731347656249,9.805059971558212
1.7682168614772444,-0.9193734375,2.288856787109375,9.471461767578125,9.787374567480871
1.770703805023626,-1.0773907470703123,2.0638018310546875,9.481038574218749,9.762691292136676
1.7731907485700074,-1.1923124267578125,1.8339584716796873,9.481038574218749,9.730113310988248
1.7756776921163888,-1.2401964599609374,1.6711527587890624,9.519345800781249,9.744166628160642
1.7781646356627703,-1.2737152832031249,1.5610194824218748,9.524134204101562,9.734899320737897
1.780651579209152,-1.235408056640625,1.5035586425781249,9.581595043945311,9.777212549814047
1.7831385227555334,-1.3646949462890625,1.2928688964843749,9.5384994140625,9.721978880454035
1.7856254663019149,-1.1875240234375,1.3407529296874998,9.552864624023437,9.719313465961742
1.7881124098482963,-1.0342951171875,1.4173673828125,9.619902270507811,9.778610145691463
1.7905993533946778,-0.928950244140625,1.4413093994140624,9.572018237304688,9.724394812851944
1.7930862969410593,-0.8188169677734375,1.5658078857421873,9.572018237304688,9.733742789752545
1.795573240487441,-0.612915625,1.68551796875,9.576806640625,9.743298302847315
1.7980601840338224,-0.4836287353515625,1.7717092285156248,9.5384994140625,9.71369247074128
1.8005471275802039,-0.2825157958984375,1.9967641845703124,9.552864624023437,9.763406419310492
1.8030340711265853,-0.09576806640624999,2.1883003173828124,9.528922607421874,9.777432989278761
1.8055210146729668,0.0718260498046875,2.3415292236328122,9.519345800781249,9.803359758848424
1.8080079582193482,0.2442085693359375,2.5617957763671875,9.437942944335937,9.782494694386006
1.81049490176573,0.38307226562499996,2.748543505859375,9.418789331054686,9.819105266116786
1.8129818453121114,0.5123591552734374,2.916137622070312,9.370905297851563,9.827524440882804
1.8154687888584928,0.5698199951171875,3.1028853515624997,9.380482104492186,9.896769010362657
1.8179557324048743,0.6847416748046875,3.2561142578125,9.447519750976562,10.01632570687657
1.8204426759512558,0.6272808349609375,3.308786694335937,9.351751684570312,9.939658455117433
1.8229296194976372,0.603338818359375,3.414131567382812,9.390058911132812,10.009671245534681
1.825416563044019,0.565031591796875,3.4572271972656248,9.351751684570312,9.986337675199318
1.8279035065904004,0.507570751953125,3.4907460205078125,9.313444458007812,9.95907543501533
1.8303904501367818,0.354341845703125,3.4955344238281247,9.337386474609374,9.976527713989562
1.8328773936831633,0.229843359375,3.4907460205078125,9.366116894531249,9.998113893708334
1.8353643372295447,0.028730419921875,3.4093431640625,9.332598071289063,9.935886120905217
1.8378512807759262,-0.16280571289062498,3.337517114257812,9.380482104492186,9.957859744985956
1.8403382243223079,-0.39743747558593745,3.208230224609375,9.390058911132812,9.930956855995396
1.8428251678686893,-0.6416460449218749,3.0741549316406247,9.375693701171874,9.887657486426612
1.8453121114150708,-0.7900865478515624,2.9496564453125,9.437942944335937,9.919651048248122
1.8477990549614522,-1.7094599853515624,7.4794859863281244,9.265560424804686,12.029778636654282
1.8502859985078337,-0.32082302246093747,7.575254052734374,9.141061938476563,11.876296339274901
1.8527729420542152,0.9002198242187499,7.556100439453124,9.117119921875,11.875475790589197
1.8552598856005968,1.93451494140625,7.326257080078125,9.09796630859375,11.840159703915562
1.8577468291469783,2.70065947265625,6.9336080078124995,9.011775048828124,11.686769062659307
1.8602337726933598,3.366247534179687,6.45476767578125,9.006986645507812,11.581081842472118
1.8627207162397412,3.84987626953125,5.913678100585937,9.0021982421875,11.438212673302296
1.8652076597861227,4.1563340820312495,5.276820458984375,9.030928662109375,11.255115266309769
1.8676946033325041,4.237736938476562,4.6255976074218745,9.006986645507812,10.976355315762685
1.8701815468788858,4.209006518554688,3.9600095458984375,9.102754711914063,10.78227966721863
1.8726684904252673,4.103661645507812,3.35188232421875,9.17458076171875,10.594719730579085
1.8751554339716487,3.744531396484375,2.7054478759765623,9.193734375,10.289106635026188
1.8776423775180302,3.375824340820312,2.1164742675781247,9.255983618164063,10.07714672142451
1.8801293210644117,2.9448680419921875,1.6232687255859375,9.332598071289063,9.919911083293067
1.8826162646107931,2.5139117431640625,1.22583125,9.390058911132812,9.797735496554266
1.8851032081571748,1.944091748046875,0.8714894042968749,9.370905297851563,9.61003915746071
1.8875901517035563,1.465251416015625,0.6655880615234374,9.428366137695312,9.564729855370611
1.8900770952499377,0.9720458740234375,0.49320554199218747,9.495403784179686,9.557762181204955
1.8925640387963192,0.51714755859375,0.49799394531249996,9.5001921875,9.527281415302237
1.8950509823427006,0.105344873046875,0.5267243652343749,9.557653027343749,9.572735632529604
1.897537925889082,-0.3112462158203125,0.59376201171875,9.600748657226562,9.624126054487254
1.9000248694354638,-0.6847416748046875,0.7230489013671875,9.586383447265625,9.63796754886584
1.9025118129818452,-0.9241618408203125,0.967257470703125,9.552864624023437,9.646081310437822
1.9049987565282267,-1.16837041015625,1.2114660400390624,9.562441430664062,9.709429720451
1.9074857000746082,-1.3168109130859373,1.5083470458984374,9.567229833984374,9.774507071355233
1.9099726436209896,-1.426944189453125,1.838746875,9.586383447265625,9.864882532911615
1.9124595871673713,-1.5610194824218748,2.0973206542968748,9.528922607421874,9.881088088347186
1.9149465307137528,-1.6328455322265625,2.39420166015625,9.495403784179686,9.927793266694321
1.9174334742601342,-1.608903515625,2.6767174560546874,9.5384994140625,10.036750367235852
1.9199204178065157,-1.637633935546875,2.935291235351562,9.4618849609375,10.041167589339484
1.9224073613528971,-1.6041151123046875,3.1220389648437497,9.481038574218749,10.109916173606525
1.9248943048992786,-1.5753846923828123,3.337517114257812,9.4618849609375,10.15618651024946
1.9273812484456603,-1.5035586425781249,3.399766357421875,9.447519750976562,10.152572546986367
1.9298681919920417,-1.426944189453125,3.4955344238281247,9.423577734375,10.151785455957475
1.9323551355384232,-1.4030021728515625,3.5290532470703124,9.399635717773437,10.137839195041805
1.9348420790848047,-1.3359645263671873,3.5577836669921874,9.428366137695312,10.165466731206564
1.9373290226311861,-1.3120225097656248,3.42849677734375,9.4618849609375,10.149052183943258
1.9398159661775676,-1.2593500732421874,3.380612744140625,9.380482104492186,10.050271122985652
1.9423029097239493,-1.2210428466796874,3.265691064453125,9.404424121093749,10.029899142627833
1.9447898532703307,-1.1827356201171875,3.0933085449218747,9.409212524414063,9.975003841140671
1.9472767968167122,-1.1156979736328125,2.906560815429687,9.433154541015625,9.933643960644218
1.9497637403630936,-1.0726023437499999,2.7341782958984373,9.418789331054686,9.866093411496246
1.952250683909475,-1.0773907470703123,2.5234885498046875,9.442731347656249,9.833307713423702
1.9547376274558566,-1.01514150390625,2.375048046875,9.495403784179686,9.840429793587864
1.9572245710022382,-0.9720458740234375,2.2026655273437497,9.509768994140625,9.809807079064955
1.9597115145486197,-0.8810662109374999,2.0877438476562498,9.495403784179686,9.762051273482237
1.9621984580950012,-0.7900865478515624,1.93451494140625,9.471461767578125,9.69923568258418
1.9646854016413826,-0.699106884765625,1.848323681640625,9.514557397460937,9.717605329401833
1.967172345187764,-0.63206923828125,1.7956512451171873,9.533711010742186,9.721909305914098
1.9696592887341455,-0.5123591552734374,1.7573440185546874,9.548076220703125,9.72196119205888
1.9721462322805272,-0.38307226562499996,1.6998831787109374,9.519345800781249,9.677514745884249
1.9746331758269087,-0.2537853759765625,1.8148048583984373,9.5001921875,9.675307503669439
1.9771201193732901,-0.086191259765625,1.8100164550781248,9.504980590820312,9.676168897491632
1.9796070629196716,-0.009576806640625,1.886630908203125,9.476250170898437,9.662235000271181
1.982094006466053,0.13407529296874998,1.9680337646484374,9.437942944335937,9.641882601625133
1.9845809500124345,0.24899697265624998,2.1595698974609374,9.485826977539062,9.731734433399797
1.9870678935588162,0.3591302490234375,2.3319524169921872,9.418789331054686,9.709818179228122
1.9895548371051976,0.45968671875,2.403778466796875,9.447519750976562,9.759359212669843
1.992041780651579,0.507570751953125,2.5570073730468748,9.433154541015625,9.786742020138165
1.9945287241979606,0.5698199951171875,2.7150246826171873,9.3852705078125,9.786692820297928
1.997015667744342,0.612915625,2.882618798828125,9.380482104492186,9.832527712415796
1.9995026112907235,0.55545478515625,3.0071172851562498,9.380482104492186,9.866343238390636
2.001989554837105,0.565031591796875,3.19865341796875,9.414000927734374,9.958617266237082
2.0044764983834864,0.49799394531249996,3.189076611328125,9.404424121093749,9.942907052361392
2.006963441929868,0.411802685546875,3.366247534179687,9.361328491210937,9.956689963715457
2.0094503854762498,0.26336218261718747,3.375824340820312,9.370905297851563,9.963905645910657
2.011937329022631,0.17238251953125,3.347093920898437,9.337386474609374,9.920662257358291
2.0144242725690127,-0.0383072265625,3.2800562744140622,9.337386474609374,9.896818821376293
2.016911216115394,-0.239420166015625,3.303998291015625,9.361328491210937,9.930166053157759
2.0193981596617756,-0.411802685546875,3.2561142578125,9.3852705078125,9.942593425086262
2.021885103208157,-0.565031591796875,3.21780703125,9.414000927734374,9.964785810918071
2.0243720467545385,-0.7900865478515624,3.0693665283203124,9.457096557617186,9.974062509246867
2.02685899030092,-1.024718310546875,2.896984008789062,9.380482104492186,9.870967960430615
2.0293459338473014,-1.197100830078125,2.7629087158203123,9.414000927734374,9.883831667764948
2.031832877393683,-1.350329736328125,2.6431986328124997,9.4618849609375,9.91650928620193
2.0343198209400644,-1.5035586425781249,2.5139117431640625,9.495403784179686,9.936957978612138
2.036806764486446,-1.6615759521484375,2.2840683837890623,9.466673364257812,9.879053983663166
2.0392937080328277,-1.6998831787109374,2.1643583007812497,9.490615380859374,9.881590458161561
2.041780651579209,-1.8148048583984373,2.0063409912109376,9.504980590820312,9.882488395083026
2.0442675951255906,-1.8291700683593748,1.9201497314453124,9.533711010742186,9.895680055786876
2.046754538671972,-1.8052280517578123,1.8195932617187498,9.572018237304688,9.909253306492833
2.0492414822183536,-1.7621324218749999,1.7477672119140624,9.557653027343749,9.874640868930781
2.0517284257647352,-1.675941162109375,1.68551796875,9.572018237304688,9.862721872643737
2.0542153693111165,-1.5370774658203123,1.6328455322265625,9.562441430664062,9.821867326681083
2.056702312857498,-1.407790576171875,1.62805712890625,9.548076220703125,9.787655686511314
2.0591892564038794,-1.20667763671875,1.70467158203125,9.562441430664062,9.787863006623184
2.061676199950261,-0.9959878906249999,1.7286135986328124,9.581595043945311,9.787086412094627
2.0641631434966423,-0.7565677246093749,1.7956512451171873,9.504980590820312,9.702649851864301
2.066650087043024,-0.59376201171875,1.915361328125,9.533711010742186,9.74232046178855
2.0691370305894057,-0.354341845703125,2.0542250244140625,9.504980590820312,9.730881492774234
2.071623974135787,-0.11013327636718749,2.1499930908203124,9.519345800781249,9.759740985497006
2.0741109176821686,0.09576806640624999,2.3319524169921872,9.490615380859374,9.773379860880443
2.07659786122855,0.3447650390625,2.4899697265625,9.471461767578125,9.799357131263848
2.0790848047749315,0.5123591552734374,2.6288334228515624,9.423577734375,9.796790004123913
2.081571748321313,0.6607996582031249,2.7820623291015623,9.447519750976562,9.870772838860168
2.0840586918676944,0.7948749511718749,2.9496564453125,9.428366137695312,9.910922629090274
2.086545635414076,0.86191259765625,3.0789433349609374,9.370905297851563,9.901345943214054
2.0890325789604574,0.9002198242187499,3.1938650146484373,9.380482104492186,9.950106229403275
2.091519522506839,0.9050082275390624,3.289633081054687,9.404424121093749,10.004195057539246
2.0940064660532203,0.8667010009765624,3.380612744140625,9.351751684570312,9.981731949957554
2.096493409599602,0.7900865478515624,3.394977954101562,9.327809667968749,9.957818298391615
2.0989803531459836,0.6607996582031249,3.404554760742187,9.332598071289063,9.956155687181775
2.101467296692365,0.5027823486328125,3.4093431640625,9.380482104492186,9.99349065207621
2.1039542402387466,0.36391865234375,3.4763808105468748,9.361328491210937,9.992603837129733
2.106441183785128,0.1292868896484375,3.366247534179687,9.366116894531249,9.953516124627994
2.1089281273315095,-0.09576806640624999,3.2561142578125,9.375693701171874,9.925476510509055
2.111415070877891,-0.3591302490234375,3.1794998046874996,9.370905297851563,9.902123996652131
2.1139020144242724,-0.55545478515625,3.0885201416015624,9.418789331054686,9.927793266694321
2.116388957970654,-0.8379705810546875,2.868253588867187,9.366116894531249,9.831236902180025
2.1188759015170353,-1.0582371337890624,2.7246014892578123,9.423577734375,9.86646524457489
2.121362845063417,-1.2832920898437499,2.5857377929687497,9.447519750976562,9.878689587538151
2.1238497886097982,-1.4508862060546874,2.43250888671875,9.4618849609375,9.876711865843848
2.12633673215618,-1.6232687255859375,2.288856787109375,9.490615380859374,9.896749317567187
2.1288236757025616,-1.7525556152343749,2.1212626708984375,9.528922607421874,9.918244429417557
2.131310619248943,-1.8195932617187498,2.0254946044921875,9.528922607421874,9.910293340217278
2.1337975627953245,-1.9584569580078124,1.8531120849609375,9.543287817382812,9.916850327659718
2.1362845063417057,-1.944091748046875,1.7717092285156248,9.552864624023437,9.90836358033706
2.1387714498880874,-1.9297265380859374,1.68551796875,9.543287817382812,9.881252840615883
2.141258393434469,-1.8531120849609375,1.637633935546875,9.605537060546874,9.918780748046732
2.1437453369808503,-1.7621324218749999,1.618480322265625,9.595960253906249,9.889744305103777
2.146232280527232,-1.6328455322265625,1.5753846923828123,9.600748657226562,9.865211413869648
2.1487192240736133,-1.4796166259765624,1.5945383056640625,9.5384994140625,9.783393523730247
2.151206167619995,-1.2593500732421874,1.66636435546875,9.595960253906249,9.820650995056303
2.153693111166376,-1.0295067138671874,1.8052280517578123,9.581595043945311,9.8043712689243
2.156180054712758,-0.7852981445312499,1.8435352783203125,9.543287817382812,9.751392611500316
2.1586669982591395,-0.5219359619140624,1.9536685546875,9.5001921875,9.713026797520428
2.161153941805521,-0.3064578125,2.1499930908203124,9.509768994140625,9.7545934309604
2.1636408853519025,-0.0383072265625,2.250549560546875,9.471461767578125,9.735246724288952
2.1661278288982837,0.16759411621093748,2.418143676757812,9.476250170898437,9.781350823413144
2.1686147724446654,0.44053310546874996,2.6192566162109374,9.476250170898437,9.84143749357945
2.171101715991047,0.6177040283203125,2.7533319091796873,9.399635717773437,9.814048425372292
2.1735886595374283,0.7565677246093749,2.887407202148437,9.404424121093749,9.866747595958316
2.17607560308381,0.833182177734375,3.0597897216796874,9.409212524414063,9.929238944238442
2.178562546630191,0.9002198242187499,3.1603461914062496,9.390058911132812,9.94843656742089
2.181049490176573,0.9576806640625,3.2704794677734372,9.380482104492186,9.98031225544296
2.1835364337229546,0.9433154541015625,3.356670727539062,9.366116894531249,9.994059640660954
2.186023377269336,0.8714894042968749,3.394977954101562,9.294290844726563,9.933237709679828
2.1885103208157175,0.8379705810546875,3.4763808105468748,9.375693701171874,10.034493042144463
2.1909972643620987,0.6368576416015624,3.4859576171874997,9.332598071289063,9.982728831573167
2.1934842079084804,0.5219359619140624,3.4524387939453125,9.323021264648437,9.955424464851545
2.1959711514548617,0.32082302246093747,3.4093431640625,9.327809667968749,9.936527634135173
2.1984580950012433,0.0430956298828125,3.323151904296875,9.351751684570312,9.924739562437425
2.200945038547625,-0.1580173095703125,3.23696064453125,9.370905297851563,9.91548031038691
2.2034319820940063,-0.40222587890625,3.1364041748046874,9.390058911132812,9.908179608784799
2.205918925640388,-0.6512228515624999,2.9975404785156248,9.433154541015625,9.919362112425405
2.208405869186769,-0.9576806640625,2.8012159423828122,9.423577734375,9.877640422995112
2.210892812733151,-1.1013327636718748,2.7198130859375,9.485826977539062,9.929311684431195
2.2133797562795325,-1.3072341064453123,2.5330653564453125,9.524134204101562,9.941549851346851
2.2158666998259138,-1.5370774658203123,2.3367408203125,9.442731347656249,9.848255688255525
2.2183536433722955,-1.7190367919921874,2.212242333984375,9.5001921875,9.904683500038326
2.2208405869186767,-1.8339584716796873,2.1021090576171875,9.528922607421874,9.928878699238782
2.2233275304650584,-1.8818425048828125,1.9584569580078124,9.572018237304688,9.949895376577906
2.2258144740114396,-1.9680337646484374,1.8052280517578123,9.548076220703125,9.914522920141245
2.2283014175578213,-1.9680337646484374,1.7334020019531249,9.595960253906249,9.947878798704771
2.230788361104203,-1.8722656982421875,1.6519991455078125,9.576806640625,9.896954352400133
2.233275304650584,-1.8195932617187498,1.618480322265625,9.548076220703125,9.853738260579576
2.235762248196966,-1.6998831787109374,1.5801730957031248,9.581595043945311,9.858677062355058
2.238249191743347,-1.5179238525390624,1.637633935546875,9.600748657226562,9.856993076400094
2.240736135289729,-1.3311761230468748,1.6519991455078125,9.581595043945311,9.813668765221598
2.2432230788361105,-1.1540052001953125,1.7286135986328124,9.528922607421874,9.752958475954452
2.2457100223824917,-0.9337386474609375,1.7956512451171873,9.557653027343749,9.769593781061022
2.2481969659288734,-0.6272808349609375,1.905784521484375,9.533711010742186,9.742542867474873
2.2506839094752547,-0.411802685546875,2.0159177978515626,9.495403784179686,9.715770635628047
2.2531708530216363,-0.2059013427734375,2.1835119140624997,9.471461767578125,9.722073218018004
2.2556577965680176,0.09576806640624999,2.35589443359375,9.476250170898437,9.765179333029879
2.2581447401143993,0.277727392578125,2.499546533203125,9.447519750976562,9.776527748711619
2.260631683660781,0.5027823486328125,2.6910826660156246,9.423577734375,9.81318161052952
2.263118627207162,0.6512228515624999,2.839523168945312,9.447519750976562,9.886486356358699
2.265605570753544,0.7757213378906249,2.93050283203125,9.366116894531249,9.844477442943617
2.268092514299925,0.8954314208984374,3.0645781249999997,9.375693701171874,9.904396442588245
2.2705794578463068,0.948103857421875,3.19865341796875,9.361328491210937,9.938045870949633
2.2730664013926885,0.9624690673828125,3.303998291015625,9.390058911132812,10.000797856533628
2.2755533449390697,0.9193734375,3.385401147460937,9.327809667968749,9.965652093499033
2.2780402884854514,0.8762778076171874,3.418919970703125,9.337386474609374,9.982167236548039
2.2805272320318326,0.7230489013671875,3.414131567382812,9.3086560546875,9.94133651063268
2.2830141755782143,0.5793968017578125,3.4668040039062498,9.318232861328125,9.959111120643394
2.2855011191245955,0.3687070556640625,3.361459130859375,9.323021264648437,9.917362445853296
2.287988062670977,0.21068974609375,3.375824340820312,9.342174877929686,9.9356334271653
2.290475006217359,-0.023942016601562498,3.2417490478515623,9.303867651367186,9.85248513744437
2.29296194976374,-0.3016694091796875,3.1603461914062496,9.3852705078125,9.907678587176004
2.295448893310122,-0.5458779785156249,3.0214824951171875,9.394847314453125,9.883850226385212
2.297935836856503,-0.7805097412109374,2.91134921875,9.409212524414063,9.88020394826098
2.3004227804028847,-1.0438719238281249,2.7964275390625,9.409212524414063,9.871319866369149
2.3029097239492664,-1.2018892333984375,2.6288334228515624,9.466673364257812,9.898141617496128
2.3053966674956476,-1.4796166259765624,2.437297290039062,9.4618849609375,9.882153128438825
2.3078836110420293,-1.6328455322265625,2.250549560546875,9.504980590820312,9.903323375941069
2.3103705545884106,-1.7525556152343749,2.0973206542968748,9.495403784179686,9.880936096142092
2.3128574981347922,-1.886630908203125,1.9967641845703124,9.528922607421874,9.916995989250262
2.315344441681174,-2.844311572265625,6.526593725585937,9.442731347656249,11.825891479418871
2.317831385227555,-1.2928688964843749,6.76122548828125,9.342174877929686,11.604391907235005
2.320318328773937,0.17238251953125,6.828263134765624,9.236830004882812,11.48799032510659
2.322805272320318,1.4221557861328125,6.766013891601562,9.141061938476563,11.461260158658003
2.3252922158666998,2.499546533203125,6.49307490234375,9.141061938476563,11.487678961485605
2.327779159413081,3.4524387939453125,6.196193896484375,9.030928662109375,11.483458752870469
2.3302661029594627,2.3223756103515623,10.194510668945313,8.963891015625,13.772175514231519
2.3327530465058444,4.477157104492187,10.13226142578125,8.844180932617187,14.174878966239852
2.3352399900522256,6.358999609374999,9.897629663085937,8.75320126953125,14.66350849710101
2.3377269335986073,7.848193041992187,9.528922607421874,8.67658681640625,15.088991313710967
2.3402138771449885,8.920795385742187,8.8489693359375,8.643067993164061,15.250818763499167
2.34270082069137,9.648632690429688,8.116343627929687,8.609549169921875,15.26746487111615
2.345187764237752,10.084377392578125,7.302315063476562,8.628702783203124,15.148365733737577
2.347674707784133,10.117896215820313,6.421248852539062,8.647856396484375,14.778013429231986
2.350161651330515,9.892841259765625,5.5641246582031245,8.762778076171875,14.339249318398211
2.352648594876896,9.342174877929686,4.65432802734375,8.777143286132812,13.637347436405822
2.3551355384232777,8.56166513671875,3.778050219726562,8.8489693359375,12.879442211697034
2.357622481969659,7.613561279296874,3.0166940917968748,8.939948999023438,12.123920434505951
2.3601094255160406,6.56968935546875,2.3127988037109373,9.083601098632812,11.446469562834181
2.3625963690624223,5.353434912109375,1.66636435546875,9.145850341796875,10.727656500742103
2.3650833126088036,4.07971962890625,1.1013327636718748,9.212887988281249,10.135795538162606
2.3675702561551852,2.834734765625,0.6655880615234374,9.351751684570312,9.794589742758458
2.3700571997015665,1.5849614990234373,0.3687070556640625,9.418789331054686,9.558328321891473
2.372544143247948,0.3447650390625,0.105344873046875,9.476250170898437,9.483104859479816
2.37503108679433,-0.7709329345703124,-0.0047884033203125,9.6151138671875,9.645971967479115
2.377518030340711,-1.7621324218749999,0.009576806640625,9.639055883789062,9.798806086368739
2.3800049738870928,-2.7437551025390623,-0.0143652099609375,9.667786303710937,10.049601506337808
2.382491917433474,-3.4907460205078125,0.11013327636718749,9.734823950195311,10.342351495648886
2.3849788609798557,-4.161122485351562,0.27293898925781246,9.763554370117188,10.616799422057001
2.387465804526237,-4.6255976074218745,0.47884033203125,9.758765966796874,10.810132028984647
2.3899527480726186,-4.955997436523437,0.689530078125,9.753977563476562,10.962547177926767
2.3924396916190003,-5.181052392578125,1.005564697265625,9.792284790039062,11.123996838558378
2.3949266351653815,-5.209782812499999,1.2593500732421874,9.734823950195311,11.11281228590188
2.397413578711763,-5.1523219726562495,1.4604630126953124,9.734823950195311,11.110633252099706
2.3999005222581444,-4.965574243164062,1.7238251953125,9.686939916992188,11.021129970369877
2.402387465804526,-4.7022120605468745,1.944091748046875,9.686939916992188,10.941987750979848
2.404874409350908,-4.328716601562499,2.1835119140624997,9.667786303710937,10.815341127755353
2.407361352897289,-3.912125512695312,2.346317626953125,9.634267480468749,10.659692412018753
2.4098482964436707,-3.3710359375,2.5139117431640625,9.624690673828125,10.503252168314763
2.412335239990052,-2.8203695556640622,2.7629087158203123,9.639055883789062,10.416311599279329
2.4148221835364336,-2.2936451904296873,2.8107927490234372,9.548076220703125,10.214064991662255
2.417309127082815,-1.68551796875,2.91134921875,9.552864624023437,10.127889593662335
2.4197960706291965,-1.149216796875,2.959233251953125,9.4618849609375,9.980231845989348
2.4222830141755782,-0.59376201171875,3.0597897216796874,9.495403784179686,9.993876099495674
2.4247699577219595,-0.16280571289062498,3.0358477050781247,9.452308154296874,9.92919968740508
2.427256901268341,0.33039982910156246,3.0789433349609374,9.394847314453125,9.892027707647093
2.4297438448147224,0.7613561279296874,3.0597897216796874,9.418789331054686,9.932550969273821
2.432230788361104,1.158793603515625,3.0837317382812497,9.428366137695312,9.987306547596877
2.4347177319074857,1.407790576171875,3.0454245117187497,9.380482104492186,9.962425873030819
2.437204675453867,1.6807295654296874,3.0597897216796874,9.342174877929686,9.973133733327087
2.4396916190002487,1.848323681640625,3.0741549316406247,9.318232861328125,9.984798076765461
2.44217856254663,2.020706201171875,3.0310593017578125,9.370905297851563,10.054075797582268
2.4446655060930116,2.0254946044921875,3.0262708984374997,9.327809667968749,10.013439825824488
2.4471524496393933,2.0063409912109376,3.0502129150390624,9.284714038085937,9.976728811043952
2.4496393931857745,1.915361328125,2.987963671875,9.342174877929686,9.993636343771072
2.452126336732156,1.7956512451171873,2.9831752685546875,9.279925634765624,9.911645567905836
2.4546132802785374,1.5801730957031248,2.987963671875,9.327809667968749,9.92133595432994
2.457100223824919,1.369483349609375,2.9831752685546875,9.342174877929686,9.902073054547426
2.4595871673713003,1.0773907470703123,2.93050283203125,9.351751684570312,9.85920266757305
2.462074110917682,0.814028564453125,2.935291235351562,9.337386474609374,9.821678233188837
2.4645610544640637,0.5219359619140624,2.9640216552734375,9.414000927734374,9.88338277052208
2.467047998010445,0.1771709228515625,2.844311572265625,9.414000927734374,9.835899111083434
2.4695349415568266,-0.1580173095703125,2.8012159423828122,9.418789331054686,9.827785746991692
2.472021885103208,-0.507570751953125,2.7820623291015623,9.447519750976562,9.86170007231697
2.4745088286495895,-0.8044517578125,2.6815058593749996,9.447519750976562,9.853590500401483
2.4769957721959712,-1.1061211669921875,2.6144682128906247,9.447519750976562,9.864815128393229
2.4794827157423525,-1.35990654296875,2.6001030029296874,9.476250170898437,9.920141064163646
2.481969659288734,-1.6903063720703124,2.480392919921875,9.533711010742186,9.995055292743851
2.4844566028351154,-1.8291700683593748,2.370259643554687,9.528922607421874,9.98821104978672
2.486943546381497,-2.0542250244140625,2.29843359375,9.509768994140625,9.99691671255322
2.4894304899278783,-2.1835119140624997,2.1787235107421874,9.519345800781249,10.006623051257865
2.49191743347426,-2.24097275390625,2.0829554443359375,9.605537060546874,10.081021996225303
2.4944043770206417,-2.2840683837890623,2.0159177978515626,9.5384994140625,10.013184509514948
2.496891320567023,-2.29843359375,1.9393033447265624,9.557653027343749,10.019602079865212
2.4993782641134046,-2.250549560546875,1.8626888916015625,9.586383447265625,10.02164312023642
2.501865207659786,-2.1116858642578125,1.8339584716796873,9.576806640625,9.976865554725645
2.5043521512061675,-2.0446482177734375,1.7860744384765623,9.610325463867188,9.986440995453663
2.506839094752549,-1.8100164550781248,1.8291700683593748,9.557653027343749,9.898017685260445
2.5093260382989304,-1.6424223388671875,1.7956512451171873,9.586383447265625,9.890432858642196
2.511812981845312,-1.369483349609375,1.848323681640625,9.591171850585937,9.863182171309772
2.5142999253916933,-1.158793603515625,1.8914193115234375,9.572018237304688,9.825670601177615
2.516786868938075,-0.842758984375,1.9393033447265624,9.572018237304688,9.802789057401263
2.5192738124844563,-0.5506663818359374,2.020706201171875,9.490615380859374,9.718964313286847
2.521760756030838,-0.296881005859375,2.1404162841796874,9.509768994140625,9.752190857604257
2.5242476995772196,-0.0383072265625,2.2361843505859373,9.5001921875,9.759899563666032
2.526734643123601,0.1580173095703125,2.384624853515625,9.490615380859374,9.786888446770648
2.5292215866699825,0.4213794921875,2.5043349365234375,9.457096557617186,9.792136102547946
2.5317085302163638,0.6177040283203125,2.6336218261718747,9.457096557617186,9.836371154546114
2.5341954737627455,0.7517793212890624,2.8012159423828122,9.423577734375,9.859807311483614
2.536682417309127,0.9720458740234375,2.920926025390625,9.414000927734374,9.904549232266652
2.5391693608555084,1.0342951171875,2.987963671875,9.361328491210937,9.880898967919887
2.54165630440189,1.0678139404296874,3.1220389648437497,9.399635717773437,9.961952897711411
2.5441432479482713,1.0821791503906248,3.2513258544921873,9.3086560546875,9.919340152958753
2.546630191494653,1.0821791503906248,3.294421484375,9.380482104492186,10.000888417683196
2.549117135041034,0.9959878906249999,3.318363500976562,9.3852705078125,10.004340593347477
2.551604078587416,0.8667010009765624,3.423708374023437,9.361328491210937,10.005369597161797
2.5540910221337976,0.6943184814453125,3.361459130859375,9.327809667968749,9.939291667114194
2.556577965680179,0.507570751953125,3.375824340820312,9.370905297851563,9.9733486928722
2.5590649092265605,0.27293898925781246,3.308786694335937,9.361328491210937,9.93262483942836
2.5615518527729417,0.0143652099609375,3.2609026611328122,9.356540087890625,9.90850820966227
2.5640387963193234,-0.19153613281249998,3.208230224609375,9.366116894531249,9.902200409317798
2.566525739865705,-0.469263525390625,3.0023288818359375,9.380482104492186,9.86040726763689
2.5690126834120863,-0.6847416748046875,2.896984008789062,9.3852705078125,9.846049462256879
2.571499626958468,-0.9576806640625,2.7964275390625,9.418789331054686,9.871714729383944
2.5739865705048492,-1.197100830078125,2.710236279296875,9.4618849609375,9.914923000256026
2.576473514051231,-1.407790576171875,2.528276953125,9.428366137695312,9.862461492168219
2.5789604575976126,-1.599326708984375,2.3319524169921872,9.485826977539062,9.898321142749126
2.581447401143994,-1.7429788085937499,2.2170307373046874,9.5384994140625,9.946666350563454
2.5839343446903755,-1.9201497314453124,2.0781670410156248,9.524134204101562,9.935536501833731
2.5864212882367568,-2.0254946044921875,1.9536685546875,9.4618849609375,9.871510331677566
2.5889082317831384,-2.0063409912109376,1.8626888916015625,9.548076220703125,9.932812974996843
2.5913951753295197,-2.001552587890625,1.8195932617187498,9.567229833984374,9.9422844003008
2.5938821188759014,-1.9823989746093749,1.7334020019531249,9.581595043945311,9.936878372057533
2.596369062422283,-1.8435352783203125,1.6136919189453125,9.519345800781249,9.829576206863273
2.5988560059686643,-1.7621324218749999,1.618480322265625,9.562441430664062,9.857224525223348
2.601342949515046,-1.5897499023437498,1.5849614990234373,9.572018237304688,9.8317313246794
2.603829893061427,-1.3934253662109375,1.6136919189453125,9.552864624023437,9.787893460055026
2.606316836607809,-1.1731588134765625,1.7525556152343749,9.557653027343749,9.787567837681657
2.6088037801541906,-0.9097966308593749,1.838746875,9.543287817382812,9.761304336268413
2.611290723700572,-0.6655880615234374,1.9488801513671874,9.572018237304688,9.791050732548017
2.6137776672469535,-0.44532150878906246,2.0302830078125,9.490615380859374,9.715561777139131
2.6162646107933347,-0.17238251953125,2.1452046874999997,9.5001921875,9.740907066785308
2.6187515543397164,0.0718260498046875,2.3032219970703123,9.485826977539062,9.761705998288772
2.6212384978860976,0.239420166015625,2.4564509033203126,9.433154541015625,9.75068600925093
2.6237254414324793,0.4644751220703125,2.6431986328124997,9.457096557617186,9.830509216292864
2.626212384978861,0.6416460449218749,2.7916391357421872,9.414000927734374,9.840140861723217
2.6286993285252422,0.7900865478515624,2.906560815429687,9.3852705078125,9.85675580663853
2.631186272071624,0.833182177734375,3.1076737548828124,9.418789331054686,9.95316136566022
2.633673215618005,0.9911994873046874,3.23696064453125,9.399635717773437,9.990672763368812
2.636160159164387,0.9193734375,3.303998291015625,9.3852705078125,9.992244729260278
2.6386471027107685,0.9193734375,3.380612744140625,9.356540087890625,9.990927507480517
2.6411340462571498,0.8762778076171874,3.4428619873046875,9.361328491210937,10.012773470927405
2.6436209898035314,0.7565677246093749,3.4763808105468748,9.313444458007812,9.969847839072349
2.6461079333499127,0.6416460449218749,3.4715924072265625,9.332598071289063,9.978028374839658
2.6485948768962944,0.4836287353515625,3.394977954101562,9.351751684570312,9.960674255910442
2.6510818204426756,0.2537853759765625,3.418919970703125,9.380482104492186,9.987335244990547
2.6535687639890573,-0.01915361328125,3.27526787109375,9.390058911132812,9.9448958186029
2.656055707535439,-0.22026655273437498,3.1699229980468746,9.375693701171874,9.899523298926768
2.65854265108182,-0.430956298828125,3.0693665283203124,9.380482104492186,9.879280273854512
2.661029594628202,-0.7230489013671875,2.925714428710937,9.428366137695312,9.89831766809771
2.663516538174583,-0.967257470703125,2.8012159423828122,9.471461767578125,9.924262480667506
2.666003481720965,-1.216254443359375,2.6527754394531247,9.476250170898437,9.915432905557367
2.6684904252673465,-1.4317325927734375,2.499546533203125,9.447519750976562,9.876903387901988
2.6709773688137277,-1.618480322265625,2.2840683837890623,9.466673364257812,9.871897057857428
2.6734643123601094,-1.7477672119140624,2.1356278808593747,9.524134204101562,9.91588266420509
2.6759512559064906,-1.85790048828125,2.0254946044921875,9.548076220703125,9.935803044220389
2.6784381994528723,-1.9009961181640624,1.89620771484375,9.543287817382812,9.913815224448909
2.6809251429992536,-1.9488801513671874,1.8243816650390623,9.576806640625,9.941917709176776
2.6834120865456352,-1.9584569580078124,1.695094775390625,9.557653027343749,9.902405331282846
2.685899030092017,-1.915361328125,1.6328455322265625,9.595960253906249,9.920546695819615
2.688385973638398,-1.7956512451171873,1.5849614990234373,9.586383447265625,9.881053281178373
2.69087291718478,-1.695094775390625,1.5801730957031248,9.581595043945311,9.85785254992678
2.693359860731161,-1.4939818359375,1.6136919189453125,9.595960253906249,9.844716173152433
2.6958468042775428,-1.3407529296874998,1.618480322265625,9.557653027343749,9.786001653541643
2.6983337478239244,-1.024718310546875,1.7334020019531249,9.581595043945311,9.790898513543203
2.7008206913703057,-0.8475473876953125,1.8243816650390623,9.543287817382812,9.753001968600593
2.7033076349166874,-0.5985504150390625,1.9201497314453124,9.543287817382812,9.752926737955132
2.7057945784630686,-0.3687070556640625,2.0877438476562498,9.481038574218749,9.715179448273041
2.7082815220094503,-0.11013327636718749,2.1883003173828124,9.514557397460937,9.763584899369684
2.7107684655558315,0.143652099609375,2.3127988037109373,9.442731347656249,9.722903349112286
2.713255409102213,0.36391865234375,2.5378537597656248,9.476250170898437,9.816947376498097
2.715742352648595,0.5363011718749999,2.6958710693359373,9.4618849609375,9.853050633354739
2.718229296194976,0.6703764648437499,2.825157958984375,9.390058911132812,9.828739921901173
2.720716239741358,0.8283937744140625,2.9640216552734375,9.418789331054686,9.908847212527169
2.723203183287739,0.9002198242187499,3.1316157714843746,9.366116894531249,9.91673125350031
2.7256901268341207,0.97683427734375,3.27526787109375,9.394847314453125,9.997236662933402
2.7281770703805024,0.9433154541015625,3.361459130859375,9.375693701171874,10.004643117701834
2.7306640139268836,0.9050082275390624,3.404554760742187,9.3852705078125,10.024636428101559
2.7331509574732653,0.8188169677734375,3.414131567382812,9.332598071289063,9.971165546030305
2.7356379010196465,0.6847416748046875,3.4524387939453125,9.356540087890625,9.99665179965058
2.7381248445660282,0.5602431884765625,3.4332851806640625,9.361328491210937,9.986780796751248
2.74061178811241,0.36391865234375,3.39018955078125,9.351751684570312,9.953948038121041
2.743098731658791,0.1771709228515625,3.342305517578125,9.399635717773437,9.977752619481976
2.745585675205173,-0.08140285644531249,3.2609026611328122,9.375693701171874,9.926920215686962
2.748072618751554,-0.3399766357421875,3.1124621582031247,9.418789331054686,9.925552743393519
2.7505595622979357,-0.603338818359375,3.0406361083984375,9.442731347656249,9.938544208154717
2.753046505844317,-0.842758984375,2.887407202148437,9.437942944335937,9.905661516390712
2.7555334493906987,-1.0534487304687499,2.710236279296875,9.433154541015625,9.871146818481979
2.7580203929370803,-1.2737152832031249,2.528276953125,9.409212524414063,9.825874785684922
2.7605073364834616,-1.4891934326171874,2.398990063476562,9.485826977539062,9.89715938298547
2.7629942800298433,-1.675941162109375,2.2601263671875,9.519345800781249,9.926474421936536
2.7654812235762245,-1.7908628417968748,2.068590234375,9.5384994140625,9.92316614533643
2.767968167122606,-1.9297265380859374,1.915361328125,9.5384994140625,9.918438617097983
2.770455110668988,-1.9776105712890624,1.8148048583984373,9.543287817382812,9.913566593872662
2.772942054215369,-1.9488801513671874,1.7669208251953124,9.600748657226562,9.95462293741654
2.775428997761751,-1.9488801513671874,1.6424223388671875,9.533711010742186,9.86850194406171
2.777915941308132,-1.867477294921875,1.6232687255859375,9.634267480468749,9.946938357491302
2.7804028848545137,-1.7429788085937499,1.5562310791015623,9.600748657226562,9.881002230442322
2.782889828400895,-1.6232687255859375,1.5562310791015623,9.591171850585937,9.85126560369271
2.7853767719472766,-1.407790576171875,1.6615759521484375,9.567229833984374,9.811961865366019
2.7878637154936583,-1.1731588134765625,1.7238251953125,9.557653027343749,9.782464224147464
2.7903506590400395,-0.9433154541015625,1.8004396484374998,9.567229833984374,9.780762427842385
2.792837602586421,-0.7613561279296874,1.7860744384765623,9.543287817382812,9.738791887021852
2.7953245461328025,-0.5123591552734374,1.9823989746093749,9.519345800781249,9.737061264743916
2.797811489679184,-0.26336218261718747,2.1404162841796874,9.485826977539062,9.727880291030639
2.800298433225566,-0.0383072265625,2.2744915771484373,9.466673364257812,9.736153448034518
2.802785376771947,0.181959326171875,2.398990063476562,9.452308154296874,9.753686070651822
2.8052723203183287,0.43574470214843747,2.6384102294921874,9.481038574218749,9.85094789501819
2.80775926386471,0.6177040283203125,2.748543505859375,9.409212524414063,9.821880166230667
2.8102462074110917,0.7661445312499999,2.940079638671875,9.423577734375,9.901255629479802
2.812733150957473,0.8571241943359375,3.0550013183593747,9.380482104492186,9.902582463801638
2.8152200945038546,0.8906430175781249,3.1555577880859373,9.351751684570312,9.909896543787637
2.8177070380502363,0.97683427734375,3.2609026611328122,9.332598071289063,9.934036346370243
2.8201939815966175,0.967257470703125,3.35188232421875,9.332598071289063,9.963337236602474
2.822680925142999,0.8954314208984374,3.447650390625,9.380482104492186,10.034018893654082
2.8251678686893804,0.7805097412109374,3.4428619873046875,9.332598071289063,9.977969777463803
2.827654812235762,0.6368576416015624,3.4668040039062498,9.332598071289063,9.97605655644529
2.8301417557821438,0.45010991210937495,3.385401147460937,9.327809667968749,9.93335658597134
2.832628699328525,0.28730419921875,3.375824340820312,9.323021264648437,9.919549343798364
2.8351156428749067,0.08140285644531249,3.31357509765625,9.3852705078125,9.953376756541479
2.837602586421288,-0.16759411621093748,3.2561142578125,9.3852705078125,9.935475346078489
2.8400895299676696,-0.469263525390625,3.0358477050781247,9.366116894531249,9.857014011693087
2.842576473514051,-0.6560112548828124,2.9735984619140625,9.447519750976562,9.92614064097033
2.8450634170604325,-0.9576806640625,2.839523168945312,9.442731347656249,9.906826908011787
2.847550360606814,-1.16837041015625,2.6767174560546874,9.437942944335937,9.879507719285261
2.8500373041531954,-1.3742717529296875,2.4756045166015626,9.452308154296874,9.867287875465358
2.852524247699577,-1.5897499023437498,2.3032219970703123,9.437942944335937,9.844130400412777
2.8550111912459584,-1.675941162109375,2.1691467041015624,9.5384994140625,9.924562825376132
2.85749813479234,-1.8818425048828125,2.01112939453125,9.509768994140625,9.900589829734876
2.8599850783387217,-1.89620771484375,1.924938134765625,9.528922607421874,9.904612893937028
2.862472021885103,-1.9680337646484374,1.8243816650390623,9.586383447265625,9.95491200144609
2.8649589654314846,-1.9728221679687499,1.66636435546875,9.543287817382812,9.88651302720089
2.867445908977866,-1.89620771484375,1.6041151123046875,9.567229833984374,9.884365214197516
2.8699328525242476,-1.848323681640625,1.5801730957031248,9.586383447265625,9.889994693755195
2.8724197960706292,-1.695094775390625,1.608903515625,9.6151138671875,9.895066017926734
2.8749067396170105,-1.4508862060546874,1.656787548828125,9.6151138671875,9.864098055263494
2.877393683163392,-1.350329736328125,1.66636435546875,9.610325463867188,9.846751549797672
2.8798806267097734,-1.1348515869140625,1.6998831787109374,9.543287817382812,9.759704570887019
2.882367570256155,-0.9097966308593749,1.8004396484374998,9.514557397460937,9.726053429154472
2.8848545138025363,-0.6368576416015624,1.9297265380859374,9.543287817382812,9.757242158154456
2.887341457348918,-0.39264907226562495,2.01112939453125,9.5384994140625,9.7561153031096
2.8898284008952997,-0.17238251953125,2.1883003173828124,9.528922607421874,9.778483526106355
2.892315344441681,0.105344873046875,2.389413256835937,9.5001921875,9.796634363578985
2.8948022879880626,0.2920926025390625,2.5378537597656248,9.447519750976562,9.786809962368066
2.897289231534444,0.507570751953125,2.6910826660156246,9.418789331054686,9.808830024338153
2.8997761750808255,0.699106884765625,2.849099975585937,9.466673364257812,9.910803483712044
2.902263118627207,0.8379705810546875,2.9831752685546875,9.394847314453125,9.892658158428228
2.9047500621735884,0.8858546142578124,3.0980969482421874,9.356540087890625,9.895846882132611
2.90723700571997,0.948103857421875,3.1938650146484373,9.342174877929686,9.918462890290716
2.9097239492663514,0.9911994873046874,3.303998291015625,9.327809667968749,9.945195540185146
2.912210892812733,0.9097966308593749,3.423708374023437,9.332598071289063,9.982329172097543
2.9146978363591143,0.842758984375,3.447650390625,9.356540087890625,10.007066420186577
2.917184779905496,0.7278373046875,3.4715924072265625,9.366116894531249,10.01528065837556
2.9196717234518776,0.5506663818359374,3.42849677734375,9.313444458007812,9.939721891921181
2.922158666998259,0.38307226562499996,3.447650390625,9.375693701171874,9.996832996247448
2.9246456105446406,0.1771709228515625,3.375824340820312,9.409212524414063,9.998042800747026
2.927132554091022,-0.08140285644531249,3.246537451171875,9.351751684570312,9.899590467123511
2.9296194976374035,-0.2920926025390625,3.1794998046874996,9.361328491210937,9.890854776854402
2.932106441183785,-0.5458779785156249,3.0597897216796874,9.375693701171874,9.877445433234188
2.9345933847301664,-0.7996633544921875,2.882618798828125,9.380482104492186,9.84593302498921
2.937080328276548,-1.0199299072265624,2.7629087158203123,9.423577734375,9.873081530273073
2.9395672718229293,-1.2497732666015624,2.6431986328124997,9.476250170898437,9.91704338660805
2.942054215369311,-1.4987702392578124,2.403778466796875,9.423577734375,9.84013620146233
2.9445411589156922,-1.6472107421875,2.2553379638671873,9.514557397460937,9.915979781646245
2.947028102462074,-1.8004396484374998,2.1356278808593747,9.5001921875,9.902330077946587
2.9495150460084556,-1.8914193115234375,1.944091748046875,9.504980590820312,9.884412768025149
2.952001989554837,-1.93451494140625,1.8914193115234375,9.543287817382812,9.919382916085809
2.9544889331012185,-1.9584569580078124,1.7812860351562498,9.548076220703125,9.908294157511088
2.9569758766475998,-1.93451494140625,1.6807295654296874,9.586383447265625,9.92300093362093
2.9594628201939814,-1.8818425048828125,1.5705962890624998,9.572018237304688,9.880872281924002
2.961949763740363,-1.7764976318359373,1.5849614990234373,9.543287817382812,9.83577089783574
2.9644367072867444,-1.6041151123046875,1.6041151123046875,9.5384994140625,9.804557188324173
2.966923650833126,-1.4221557861328125,1.6472107421875,9.605537060546874,9.848968094716748
2.9694105943795073,-1.2497732666015624,1.675941162109375,9.591171850585937,9.816378632888837
2.971897537925889,-1.005564697265625,1.7573440185546874,9.548076220703125,9.760388203155308
2.97438448147227,-0.8283937744140625,1.8626888916015625,9.557653027343749,9.772644347538538
2.976871425018652,-0.507570751953125,2.0159177978515626,9.514557397460937,9.7390120189633
2.9793583685650336,-0.277727392578125,2.1068974609374997,9.4618849609375,9.697598487744704
2.981845312111415,-0.0383072265625,2.269703173828125,9.509768994140625,9.776948719452854
2.9843322556577965,0.21068974609375,2.418143676757812,9.490615380859374,9.796100720080279
2.9868191992041777,0.4165910888671875,2.5522189697265625,9.447519750976562,9.795049731872112
2.9893061427505594,0.6081272216796875,2.767697119140625,9.409212524414063,9.826659981429989
2.991793086296941,0.7230489013671875,2.9448680419921875,9.394847314453125,9.872092157207726
2.9942800298433223,0.86191259765625,2.978386865234375,9.414000927734374,9.91146281395349
2.996766973389704,0.948103857421875,3.21780703125,9.366116894531249,9.94873502998466
2.9992539169360852,0.9911994873046874,3.2609026611328122,9.399635717773437,9.99845559153304
3.001740860482467,0.9002198242187499,3.3710359375,9.34696328125,9.976973569418169
3.0042278040288486,0.9145850341796874,3.4428619873046875,9.361328491210937,10.016198658609497
3.00671474757523,0.852335791015625,3.5242648437499997,9.375693701171874,10.052390331047258
3.0092016911216115,0.6703764648437499,3.5051112304687497,9.390058911132812,10.045318098354041
3.0116886346679927,0.5027823486328125,3.447650390625,9.327809667968749,9.957264509287915
3.0141755782143744,0.3064578125,3.404554760742187,9.380482104492186,9.983904748265218
3.0166625217607557,0.1197100830078125,3.3710359375,9.404424121093749,9.991066351761466
3.0191494653071373,-0.16280571289062498,3.21780703125,9.390058911132812,9.92743643369508
3.021636408853519,-0.39264907226562495,3.1316157714843746,9.375693701171874,9.892665111705474
3.0241233523999003,-0.679953271484375,2.959233251953125,9.418789331054686,9.896109859619433
3.026610295946282,-0.9050082275390624,2.868253588867187,9.414000927734374,9.882779568995078
3.029097239492663,-1.158793603515625,2.6623522460937497,9.433154541015625,9.869920298184422
3.031584183039045,-1.369483349609375,2.50912333984375,9.471461767578125,9.893420672047666
3.0340711265854265,-1.5705962890624998,2.327164013671875,9.5001921875,9.906367480019219
3.036558070131808,-1.7094599853515624,2.1739351074218747,9.495403784179686,9.889941370777352
3.0390450136781895,-1.85790048828125,2.0877438476562498,9.548076220703125,9.948679717135269
3.0415319572245707,-1.8626888916015625,1.944091748046875,9.548076220703125,9.920426510391389
3.0440189007709524,-1.9776105712890624,1.8148048583984373,9.543287817382812,9.913566593872662
3.0465058443173336,-1.9776105712890624,1.7429788085937499,9.572018237304688,9.928366020356759
3.0489927878637153,-1.9105729248046874,1.656787548828125,9.586383447265625,9.914332124805837
3.051479731410097,-1.867477294921875,1.5658078857421873,9.610325463867188,9.91451366954301
3.0539666749564782,-1.7094599853515624,1.6041151123046875,9.600748657226562,9.882803929770137
3.05645361850286,-1.5562310791015623,1.5753846923828123,9.543287817382812,9.79683798304141
3.058940562049241,-1.37906015625,1.618480322265625,9.548076220703125,9.78197551543009
3.061427505595623,-1.16837041015625,1.7238251953125,9.595960253906249,9.819323597573884
3.0639144491420045,-0.9241618408203125,1.7477672119140624,9.543287817382812,9.745927749602776
3.0664013926883857,-0.6272808349609375,1.8914193115234375,9.509768994140625,9.716308691052971
3.0688883362347674,-0.45968671875,2.0254946044921875,9.485826977539062,9.710553728806095
3.0713752797811487,-0.1388636962890625,2.2074539306640624,9.543287817382812,9.796248177111403
3.0738622233275303,0.105344873046875,2.308010400390625,9.471461767578125,9.749184456419044
3.0763491668739116,0.32561142578124996,2.47081611328125,9.452308154296874,9.775330404136565
3.0788361104202933,0.5027823486328125,2.6575638427734374,9.447519750976562,9.827057805549213
3.081323053966675,0.6560112548828124,2.786850732421875,9.423577734375,9.848893597107319
3.083809997513056,0.7996633544921875,3.0119056884765625,9.3852705078125,9.889102075598688
3.086296941059438,0.9002198242187499,3.0645781249999997,9.390058911132812,9.918429370151792
3.088783884605819,0.948103857421875,3.227383837890625,9.356540087890625,9.942824034339548
3.091270828152201,0.928950244140625,3.327940307617187,9.375693701171874,9.992085249103216
3.0937577716985825,0.9576806640625,3.414131567382812,9.361328491210937,10.010390488591176
3.0962447152449637,0.8762778076171874,3.418919970703125,9.332598071289063,9.97768827546859
3.0987316587913454,0.7709329345703124,3.5194764404296874,9.366116894531249,10.035197939570923
3.1012186023377266,0.5315127685546874,3.438073583984375,9.361328491210937,9.986857709629465
3.1037055458841083,0.411802685546875,3.394977954101562,9.366116894531249,9.970937891827575
3.1061924894304895,0.201112939453125,3.35188232421875,9.318232861328125,9.904798089197017
3.108679432976871,-0.05746083984375,3.284844677734375,9.337386474609374,9.898499506550145
3.111166376523253,-0.229843359375,3.23696064453125,9.380482104492186,9.925935054028466
3.113653320069634,-0.5363011718749999,3.0645781249999997,9.437942944335937,9.93750597744341
3.116140263616016,-0.7661445312499999,2.89219560546875,9.409212524414063,9.873451939045811
3.118627207162397,-1.0103531005859374,2.7437551025390623,9.466673364257812,9.90792158003489
3.1211141507087787,-1.254561669921875,2.6048914062499997,9.476250170898437,9.907507331485803
3.1236010942551604,-1.446097802734375,2.43250888671875,9.476250170898437,9.889773285596164
3.1260880378015417,-1.6424223388671875,2.2936451904296873,9.495403784179686,9.905607120384147
3.1285749813479233,-1.7717092285156248,2.1021090576171875,9.557653027343749,9.945177096040913
3.1310619248943046,-1.85790048828125,1.9632453613281249,9.548076220703125,9.923300161210916
3.1335488684406863,-1.9536685546875,1.838746875,9.528922607421874,9.899402858260325
3.136035811987068,-1.9536685546875,1.7669208251953124,9.567229833984374,9.923241240661456
3.138522755533449,-1.9393033447265624,1.7094599853515624,9.634267480468749,9.975081994129344
3.141009699079831,-1.886630908203125,1.6136919189453125,9.581595043945311,9.897996836694489
3.143496642626212,-1.7669208251953124,1.62805712890625,9.572018237304688,9.868946871514959
3.1459835861725938,-1.5897499023437498,1.5849614990234373,9.610325463867188,9.86903051098955
3.148470529718975,-1.4508862060546874,1.5897499023437498,9.586383447265625,9.825025350243637
3.1509574732653567,-1.3024457031249999,1.637633935546875,9.562441430664062,9.788692243161192
3.1534444168117384,-1.0342951171875,1.7812860351562498,9.557653027343749,9.777089429864786
3.1559313603581196,-0.7900865478515624,1.8722656982421875,9.557653027343749,9.771302215621182
3.1584183039045013,-0.5458779785156249,1.9297265380859374,9.490615380859374,9.700185956291042
3.1609052474508825,-0.316034619140625,2.1308394775390624,9.552864624023437,9.792730838966868
3.163392190997264,-0.023942016601562498,2.269703173828125,9.519345800781249,9.786218380574594
3.165879134543646,0.17238251953125,2.39420166015625,9.428366137695312,9.7291317880361
3.168366078090027,0.39743747558593745,2.5809493896484375,9.447519750976562,9.801779723296123
3.170853021636409,0.5985504150390625,2.767697119140625,9.423577734375,9.839828619363805
3.17333996518279,0.7805097412109374,2.916137622070312,9.471461767578125,9.940907508958787
3.1758269087291717,0.833182177734375,3.0550013183593747,9.423577734375,9.941380332342183
3.178313852275553,0.9193734375,3.1268273681640624,9.380482104492186,9.930545877270722
3.1808007958219346,0.97683427734375,3.2704794677734372,9.380482104492186,9.982168385036363
3.1832877393683163,0.9433154541015625,3.31357509765625,9.361328491210937,9.975173938037978
3.1857746829146976,0.8858546142578124,3.4332851806640625,9.375693701171874,10.023762662172487
3.1882616264610792,0.8475473876953125,3.4572271972656248,9.361328491210937,10.015249751666701
3.1907485700074605,0.6560112548828124,3.438073583984375,9.342174877929686,9.976318568752935
3.193235513553842,0.5219359619140624,3.4332851806640625,9.342174877929686,9.966749506731228
3.195722457100224,0.33039982910156246,3.394977954101562,9.394847314453125,9.994908474708163
3.198209400646605,0.11013327636718749,3.318363500976562,9.394847314453125,9.964277280619196
3.2006963441929868,-0.15322890625,3.21780703125,9.356540087890625,9.895585056194344
3.203183287739368,-0.38786066894531246,3.1555577880859373,9.409212524414063,9.931830706473756
3.2056702312857497,-0.6703764648437499,2.9640216552734375,9.414000927734374,9.892332507802694
3.208157174832131,-0.8714894042968749,2.839523168945312,9.452308154296874,9.908002576330212
3.2106441183785126,-1.1013327636718748,2.6862942626953124,9.4618849609375,9.897291434334049
3.2131310619248943,-1.3359645263671873,2.528276953125,9.481038574218749,9.902882308360452
3.2156180054712755,-1.5083470458984374,2.389413256835937,9.504980590820312,9.91610117711012
3.218104949017657,-1.6998831787109374,2.2266075439453124,9.524134204101562,9.927563463093847
3.2205918925640384,-1.8195932617187498,2.059013427734375,9.533711010742186,9.921799311114368
3.22307883611042,-1.9201497314453124,1.8914193115234375,9.576806640625,9.94885256876854
3.225565779656802,-1.9201497314453124,1.8339584716796873,9.586383447265625,9.947317541177801
3.228052723203183,-1.9632453613281249,1.7334020019531249,9.581595043945311,9.933074973808909
3.2305396667495647,-3.9695863525390624,5.942408520507812,9.567229833984374,11.941596272322595
3.233026610295946,-2.24097275390625,6.387730029296875,9.390058911132812,11.575761753140737
3.2355135538423276,-0.612915625,6.636727001953124,9.299079248046874,11.440921541697543
3.238000497388709,0.9050082275390624,6.732495068359374,9.198522778320312,11.434961785711149
3.2404874409350906,2.3032219970703123,6.665457421875,9.121908325195312,11.530063560270802
3.2429743844814722,3.418919970703125,6.526593725585937,9.05965908203125,11.677451010711271
3.2454613280278535,4.338293408203125,6.301538769531249,9.04050546875,11.843180303029367
3.247948271574235,5.046977099609375,5.908889697265625,8.997409838867187,11.888664311308371
