Time (s),Acceleration x (m/s^2),Acceleration y (m/s^2),Acceleration z (m/s^2),Absolute acceleration (m/s^2)
0.0,0.8858546142578124,3.4907460205078125,9.284714038085937,9.958712815736934
0.002486943546381497,0.9720458740234375,3.438073583984375,9.327809667968749,9.9886563837159
0.004973887092762994,0.93852705078125,3.342305517578125,9.284714038085937,9.912504928972867
0.007460830639144491,0.9624690673828125,3.2321722412109373,9.313444458007812,9.905227497383374
0.009947774185525988,0.9097966308593749,3.0980969482421874,9.299079248046874,9.843719290577452
0.012434717731907486,0.8044517578125,2.96881005859375,9.270348828125,9.767309925960863
0.014921661278288981,0.622492431640625,2.7437551025390623,9.303867651367186,9.719961016604735
0.01740860482467048,0.430956298828125,2.6096798095703124,9.3086560546875,9.677149868863706
0.019895548371051976,0.27293898925781246,2.43250888671875,9.375693701171874,9.689954982042833
0.022382491917433474,0.01915361328125,2.2649147705078123,9.3852705078125,9.654714303560787
0.02486943546381497,-0.239420166015625,2.0638018310546875,9.342174877929686,9.570414383065144
0.027356379010196465,-0.469263525390625,1.9393033447265624,9.399635717773437,9.609071617277698
0.029843322556577963,-0.7230489013671875,1.8291700683593748,9.418789331054686,9.621967330828957
0.032330266102959464,-1.005564697265625,1.7621324218749999,9.495403784179686,9.709735529726021
0.03481720964934096,-1.2689268798828124,1.6519991455078125,9.466673364257812,9.693151251723867
0.03730415319572245,-1.47482822265625,1.599326708984375,9.5001921875,9.746107726054039
0.03979109674210395,-1.6903063720703124,1.5275006591796874,9.533711010742186,9.80214463939411
0.04227804028848545,-1.8435352783203125,1.5753846923828123,9.552864624023437,9.855845056428398
0.04476498383486695,-1.9632453613281249,1.62805712890625,9.524134204101562,9.859717780012579
0.04725192738124844,-2.020706201171875,1.66636435546875,9.5384994140625,9.89156179724425
0.04973887092762994,-2.0638018310546875,1.7429788085937499,9.528922607421874,9.904424222705087
0.05222581447401144,-2.1068974609374997,1.85790048828125,9.557653027343749,9.961904563202445
0.05471275802039293,-1.9823989746093749,2.0159177978515626,9.533711010742186,9.944117653093903
0.05719970156677443,-1.924938134765625,2.1356278808593747,9.562441430664062,9.98531819137775
0.059686645113155926,-1.7669208251953124,2.370259643554687,9.543287817382812,9.99071981119379
0.062173588659537427,-1.5945383056640625,2.518700146484375,9.548076220703125,10.002607777599145
0.06466053220591893,-1.426944189453125,2.6336218261718747,9.519345800781249,9.97948285824243
0.06714747575230041,-1.1731588134765625,2.7916391357421872,9.457096557617186,9.93006676543214
0.06963441929868192,-0.928950244140625,2.93050283203125,9.4618849609375,9.94877190504674
0.07212136284506342,-0.6943184814453125,3.1076737548828124,9.428366137695312,9.951572857940777
0.0746083063914449,-0.411802685546875,3.2704794677734372,9.399635717773437,9.960861861696175
0.0770952499378264,-0.19632453613281248,3.3710359375,9.409212524414063,9.996784830383953
0.0795821934842079,0.105344873046875,3.4332851806640625,9.3852705078125,9.994090612900196
0.0820691370305894,0.33518823242187495,3.5242648437499997,9.356540087890625,10.003881059686316
0.0845560805769709,0.5123591552734374,3.5529952636718747,9.370905297851563,10.034946604191264
0.0870430241233524,0.6847416748046875,3.5529952636718747,9.275137231445312,9.955943810961978
0.0895299676697339,0.8475473876953125,3.5338416503906247,9.303867651367186,9.9884096160791
0.09201691121611538,0.9576806640625,3.4811692138671875,9.279925634765624,9.957545437339267
0.09450385476249688,0.948103857421875,3.366247534179687,9.275137231445312,9.912552347804882
0.09699079830887838,0.9864110839843749,3.299209887695312,9.323021264648437,9.938637643598879
0.09947774185525989,0.9576806640625,3.189076611328125,9.318232861328125,9.895293100518781
0.10196468540164137,0.8762778076171874,3.0358477050781247,9.351751684570312,9.871144495670913
0.10445162894802287,0.7278373046875,2.85388837890625,9.294290844726563,9.74978298875
0.10693857249440437,0.5602431884765625,2.6671406494140624,9.294290844726563,9.685626153241682
0.10942551604078586,0.37828386230468747,2.5234885498046875,9.332598071289063,9.675147539014784
0.11191245958716736,0.143652099609375,2.384624853515625,9.399635717773437,9.698464994243613
0.11439940313354886,-0.06703764648437499,2.2074539306640624,9.418789331054686,9.67424102267666
0.11688634667993036,-0.33518823242187495,2.0063409912109376,9.370905297851563,9.589140807469137
0.11937329022631185,-0.603338818359375,1.915361328125,9.457096557617186,9.667952319240662
0.12186023377269335,-0.8379705810546875,1.8100164550781248,9.476250170898437,9.68388721350158
0.12434717731907485,-1.1252747802734375,1.6711527587890624,9.447519750976562,9.659949498802774
0.12683412086545634,-1.350329736328125,1.6328455322265625,9.562441430664062,9.794379053508436
0.12932106441183785,-1.5705962890624998,1.5514426757812498,9.509768994140625,9.762656062843275
0.13180800795821934,-1.7525556152343749,1.5849614990234373,9.552864624023437,9.840771141673534
0.13429495150460083,-1.848323681640625,1.599326708984375,9.576806640625,9.883793390500605
0.13678189505098234,-2.0254946044921875,1.637633935546875,9.557653027343749,9.906220504853243
0.13926883859736383,-2.059013427734375,1.68551796875,9.481038574218749,9.847365107702338
0.14175578214374532,-2.068590234375,1.7812860351562498,9.543287817382812,9.926045932908101
0.14424272569012683,-2.04943662109375,1.9201497314453124,9.533711010742186,9.938752994787448
0.14672966923650832,-2.001552587890625,2.020706201171875,9.5384994140625,9.95351382103912
0.1492166127828898,-1.848323681640625,2.2170307373046874,9.548076220703125,9.974832592009943
0.15170355632927132,-1.7238251953125,2.360682836914062,9.504980590820312,9.944297501199653
0.1541904998756528,-1.5418658691406248,2.50912333984375,9.533711010742186,9.978211058567373
0.15667744342203432,-1.3120225097656248,2.7246014892578123,9.504980590820312,9.974442960550148
0.1591643869684158,-1.0869675537109373,2.89219560546875,9.4618849609375,9.953570258813082
0.1616513305147973,-0.833182177734375,3.0406361083984375,9.457096557617186,9.968768017417469
0.1641382740611788,-0.5315127685546874,3.1794998046874996,9.418789331054686,9.955165357438021
0.1666252176075603,-0.3064578125,3.337517114257812,9.428366137695312,10.006349229626442
0.1691121611539418,0.0047884033203125,3.4332851806640625,9.418789331054686,10.025021821590386
0.1715991047003233,0.201112939453125,3.5051112304687497,9.361328491210937,9.9980359207562
0.1740860482467048,0.4165910888671875,3.5194764404296874,9.366116894531249,10.014210314951791
0.17657299179308628,0.6177040283203125,3.5673604736328124,9.332598071289063,10.010245040740472
0.1790599353394678,0.74699091796875,3.5338416503906247,9.3086560546875,9.98484400409108
0.18154687888584928,0.9337386474609375,3.5529952636718747,9.327809667968749,10.025152188734504
0.18403382243223076,0.9433154541015625,3.4524387939453125,9.323021264648437,9.986385891451038
0.18652076597861228,1.005564697265625,3.394977954101562,9.342174877929686,9.990658993231781
0.18900770952499377,0.97683427734375,3.23696064453125,9.299079248046874,9.894695259637555
0.19149465307137528,0.93852705078125,3.1076737548828124,9.361328491210937,9.90822589125789
0.19398159661775677,0.8044517578125,2.96881005859375,9.327809667968749,9.821863824982827
0.19646854016413826,0.6943184814453125,2.7533319091796873,9.342174877929686,9.764176678327985
0.19895548371051977,0.49320554199218747,2.6048914062499997,9.356540087890625,9.724893488430155
0.20144242725690126,0.2537853759765625,2.4899697265625,9.361328491210937,9.690140730485545
0.20392937080328274,0.05746083984375,2.250549560546875,9.361328491210937,9.62822653415212
0.20641631434966426,-0.16759411621093748,2.1356278808593747,9.414000927734374,9.654657306226673
0.20890325789604575,-0.430956298828125,1.9584569580078124,9.375693701171874,9.5877478776855
0.21139020144242723,-0.737414111328125,1.8339584716796873,9.423577734375,9.628655179371615
0.21387714498880875,-0.97683427734375,1.7429788085937499,9.447519750976562,9.656490551835736
0.21636408853519024,-1.2401964599609374,1.6136919189453125,9.481038574218749,9.697019197381891
0.21885103208157172,-1.4221557861328125,1.62805712890625,9.495403784179686,9.738366912353806
0.22133797562795324,-1.6424223388671875,1.5705962890624998,9.519345800781249,9.786841590486608
0.22382491917433472,-1.8004396484374998,1.5753846923828123,9.514557397460937,9.81071976596205
0.22631186272071624,-1.9536685546875,1.5897499023437498,9.514557397460937,9.842302984726459
0.22879880626709773,-2.0446482177734375,1.6424223388671875,9.533711010742186,9.887860390903628
0.2312857498134792,-2.068590234375,1.714248388671875,9.495403784179686,9.868151099391904
0.23377269335986073,-7.015010864257812,8.508992700195313,9.452308154296874,14.524443660306561
0.23625963690624222,-5.219359619140625,8.33182177734375,9.289502441406249,13.526116389127663
0.2387465804526237,-3.4428619873046875,7.996633544921875,9.165003955078124,12.641073696960833
0.24123352399900522,-1.7190367919921874,7.570465649414062,9.083601098632812,11.949010275343488
0.2437204675453867,-0.11013327636718749,7.019799267578125,9.035717065429687,11.442634923047708
0.2462074110917682,1.3311761230468748,6.4643444824218745,8.935160595703124,11.108414573151023
0.2486943546381497,2.6001030029296874,5.7843912109375,8.959102612304687,10.976576739804612
0.2511812981845312,3.6487633300781246,5.118803149414062,8.949525805664061,10.936618840739632
0.2536682417309127,4.53940634765625,4.46279189453125,8.968679418945312,10.998178576602987
0.2561551852772942,5.214571215820312,3.782838623046875,8.949525805664061,11.027040997435526
0.2586421288236757,5.655104321289063,3.1938650146484373,8.973467822265624,11.07718842367927
0.26112907237005717,5.837063647460937,2.6048914062499997,8.973467822265624,11.017254468337455
0.2636160159164387,5.894524487304687,2.1404162841796874,9.0021982421875,10.971161013888178
0.2661029594628202,5.80354482421875,1.695094775390625,9.107543115234375,10.931688818299115
0.26858990300920166,5.501875415039062,1.3407529296874998,9.131485131835937,10.744871903099526
0.2710768465555832,5.05655390625,1.0486603271484374,9.13627353515625,10.494756786021469
0.2735637901019647,4.515464331054687,0.8475473876953125,9.241618408203124,10.320623309774229
0.27605073364834615,3.902548706054687,0.679953271484375,9.275137231445312,10.085652855253072
0.27853767719472766,3.1842882080078123,0.59376201171875,9.361328491210937,9.905892985419111
0.2810246207411092,2.427720483398437,0.5889736083984375,9.34696328125,9.675042079388492
0.28351156428749064,-2.389413256835937,7.144297753906249,9.212887988281249,11.900739102804923
0.28599850783387215,-1.4173673828125,6.833051538085937,9.169792358398437,11.523220709339109
0.28848545138025367,-0.507570751953125,6.382941625976562,9.160215551757812,11.176274908194065
0.2909723949266351,0.2537853759765625,5.894524487304687,9.117119921875,10.859636348347221
0.29345933847301664,0.8906430175781249,5.238513232421875,9.04050546875,10.486467708505014
0.29594628201939815,1.5227122558593749,4.687846850585937,9.117119921875,10.364190097568784
0.2984332255657796,1.8626888916015625,3.9839515624999997,9.050082275390624,10.06208075651262
0.30092016911216113,2.1930887207031247,3.361459130859375,9.093177905273437,9.939563875858243
0.30340711265854264,2.2840683837890623,2.7198130859375,9.126696728515624,9.793413336450138
0.30589405620492416,2.3032219970703123,2.1021090576171875,9.165003955078124,9.680960259938185
0.3083809997513056,2.212242333984375,1.5801730957031248,9.198522778320312,9.591860323208124
0.31086794329768713,2.0350714111328125,1.149216796875,9.265560424804686,9.555774425986444
0.31335488684406865,1.7238251953125,0.7996633544921875,9.279925634765624,9.472489354509301
0.3158418303904501,1.4173673828125,0.4836287353515625,9.332598071289063,9.451995229143254
0.3183287739368316,1.01514150390625,0.32561142578124996,9.3852705078125,9.445625314311776
0.32081571748321314,0.5985504150390625,0.1484405029296875,9.4618849609375,9.481959934331545
0.3233026610295946,0.2154781494140625,0.15322890625,9.485826977539062,9.489511229688985
0.3257896045759761,-0.19632453613281248,0.22026655273437498,9.504980590820312,9.50955922793544
0.3282765481223576,-0.584185205078125,0.36391865234375,9.543287817382812,9.56807459757516
0.3307634916687391,-0.8762778076171874,0.584185205078125,9.619902270507811,9.67737851094375
0.3332504352151206,-1.1635820068359375,0.852335791015625,9.595960253906249,9.70375456108753
0.3357373787615021,-1.4221557861328125,1.1252747802734375,9.595960253906249,9.765819146681908
0.3382243223078836,-1.5658078857421873,1.4939818359375,9.610325463867188,9.85099444638041
0.3407112658542651,-1.62805712890625,1.8052280517578123,9.6151138671875,9.917652595892696
0.3431982094006466,-1.6472107421875,2.2457611572265623,9.581595043945311,9.978161653864044
0.34568515294702806,-1.62805712890625,2.50912333984375,9.548076220703125,10.005599905347385
0.3481720964934096,-1.5418658691406248,2.887407202148437,9.581595043945311,10.125286874730849
0.3506590400397911,-1.4173673828125,3.208230224609375,9.557653027343749,10.180884188667063
0.35314598358617255,-1.2401964599609374,3.4620156005859375,9.5001921875,10.187113962130594
0.35563292713255407,-1.01514150390625,3.687070556640625,9.476250170898437,10.218821794319144
0.3581198706789356,-0.833182177734375,3.835511059570312,9.447519750976562,10.230394277566853
0.36060681422531704,-0.59376201171875,3.9887399658203124,9.414000927734374,10.241387274626236
0.36309375777169856,-0.3591302490234375,3.9839515624999997,9.375693701171874,10.193354549229797
0.36558070131808007,-0.16759411621093748,4.00310517578125,9.375693701171874,10.195909533452575
0.36806764486446153,0.023942016601562498,4.027047192382812,9.337386474609374,10.168798773014212
0.37055458841084304,0.201112939453125,3.9408559326171875,9.34696328125,10.145763375768988
0.37304153195722456,0.3064578125,3.816357446289062,9.323021264648437,10.07855277556134
0.3755284755036061,0.39264907226562495,3.6391865234374996,9.275137231445312,9.971259825541763
0.37801541904998753,0.38786066894531246,3.414131567382812,9.323021264648437,9.936068425640066
0.38050236259636905,0.411802685546875,3.1842882080078123,9.299079248046874,9.837791810408332
0.38298930614275056,0.3495534423828125,2.9735984619140625,9.332598071289063,9.801115353979243
0.385476249689132,0.277727392578125,2.767697119140625,9.332598071289063,9.738309227382128
0.38796319323551354,0.143652099609375,2.5234885498046875,9.351751684570312,9.68730560871191
0.39045013678189505,-0.06703764648437499,2.24097275390625,9.394847314453125,9.658654616026158
0.3929370803282765,-0.2059013427734375,2.0542250244140625,9.370905297851563,9.595629313139776
0.395424023874658,-0.4261678955078125,1.85790048828125,9.423577734375,9.61442825212844
0.39791096742103954,-0.6607996582031249,1.6519991455078125,9.428366137695312,9.59478219614596
0.400397910967421,-0.842758984375,1.5131354492187499,9.433154541015625,9.590840744591212
0.4028848545138025,-1.024718310546875,1.47482822265625,9.4618849609375,9.630806452023043
0.40537179806018403,-1.24498486328125,1.43652099609375,9.514557397460937,9.702596680868284
0.4078587416065655,-1.4317325927734375,1.3934253662109375,9.504980590820312,9.712679779560359
0.410345685152947,-1.5801730957031248,1.4221557861328125,9.5384994140625,9.772535247543786
0.4128326286993285,-1.6807295654296874,1.4796166259765624,9.490615380859374,9.751199799992833
0.41531957224571,-1.7334020019531249,1.6136919189453125,9.605537060546874,9.893180799479204
0.4178065157920915,-1.7669208251953124,1.7477672119140624,9.576806640625,9.894034812020314
0.420293459338473,-1.7477672119140624,1.838746875,9.543287817382812,9.87471633328124
0.42278040288485447,-1.6711527587890624,2.0063409912109376,9.557653027343749,9.90792042294016
0.425267346431236,-1.599326708984375,2.1499930908203124,9.519345800781249,9.889300313343583
0.4277542899776175,-1.4604630126953124,2.389413256835937,9.552864624023437,9.954871694216498
0.43024123352399896,-1.2785036865234374,2.5857377929687497,9.509768994140625,9.937621341767823
0.43272817707038047,-1.0917559570312498,2.7820623291015623,9.490615380859374,9.950054380762134
0.435215120616762,-0.9002198242187499,2.959233251953125,9.490615380859374,9.981945575827691
0.43770206416314344,-0.6703764648437499,3.1507693847656246,9.524134204101562,10.054147634599865
0.44018900770952496,-0.4261678955078125,3.289633081054687,9.428366137695312,9.994868328776048
0.4426759512559065,-0.17238251953125,3.418919970703125,9.414000927734374,10.017092540577643
0.445162894802288,0.0143652099609375,3.5051112304687497,9.361328491210937,9.996023320179532
0.44764983834866945,0.239420166015625,3.6152445068359373,9.356540087890625,10.033551578399678
0.45013678189505096,0.43574470214843747,3.6391865234374996,9.356540087890625,10.04880064555586
0.4526237254414325,0.612915625,3.6727053466796873,9.366116894531249,10.07911582475975
0.45511066898781394,0.699106884765625,3.6104561035156246,9.323021264648437,10.022118998137413
0.45759761253419545,0.7661445312499999,3.4907460205078125,9.303867651367186,9.966656334830262
0.46008455608057697,0.86191259765625,3.4332851806640625,9.323021264648437,9.97241525202661
0.4625714996269584,0.8379705810546875,3.361459130859375,9.303867651367186,9.927917981999435
0.46505844317333994,0.833182177734375,3.1842882080078123,9.332598071289063,9.896022973557617
0.46754538671972146,0.6655880615234374,3.0358477050781247,9.299079248046874,9.804705687450626
0.4700323302661029,0.603338818359375,2.829946362304687,9.303867651367186,9.743437145967413
0.47251927381248443,0.44532150878906246,2.6527754394531247,9.342174877929686,9.721715909662061
0.47500621735886595,0.229843359375,2.427720483398437,9.323021264648437,9.63666852270265
0.4774931609052474,-0.023942016601562498,2.2553379638671873,9.399635717773437,9.666450960836748
0.4799801044516289,-0.19632453613281248,2.1787235107421874,9.433154541015625,9.683479955802678
0.48246704799801043,-0.45968671875,2.0063409912109376,9.409212524414063,9.631718246605788
0.4849539915443919,-0.689530078125,1.8435352783203125,9.442731347656249,9.645685530591416
0.4874409350907734,-0.967257470703125,1.7477672119140624,9.509768994140625,9.717303307172791
0.4899278786371549,-1.2306196533203124,1.637633935546875,9.471461767578125,9.690451880727085
0.4924148221835364,-1.4221557861328125,1.5658078857421873,9.519345800781249,9.751524285460968
0.4949017657299179,-1.637633935546875,1.4891934326171874,9.5001921875,9.754649844358378
0.4973887092762994,-1.8004396484374998,1.5275006591796874,9.543287817382812,9.831031662896184
0.49987565282268087,-1.886630908203125,1.5801730957031248,9.524134204101562,9.836943404020817
0.5023625963690624,-1.9393033447265624,1.675941162109375,9.591171850585937,9.927751694577791
0.5048495399154439,-2.001552587890625,1.6998831787109374,9.519345800781249,9.874905572116
0.5073364834618254,-1.9871873779296874,1.8339584716796873,9.524134204101562,9.900578250212765
0.5098234270082069,-2.01112939453125,1.9823989746093749,9.567229833984374,9.9752911652924
0.5123103705545884,-1.8195932617187498,2.1547814941406247,9.557653027343749,9.965075730604173
0.5147973141009698,-1.7764976318359373,2.308010400390625,9.524134204101562,9.959517467325778
0.5172842576473514,-1.5658078857421873,2.4516625,9.514557397460937,9.949331928252134
0.5197712011937329,-1.35990654296875,2.6431986328124997,9.471461767578125,9.926954862031218
0.5222581447401143,-1.1252747802734375,2.839523168945312,9.485826977539062,9.96544272001523
0.5247450882864959,-0.8667010009765624,2.9975404785156248,9.481038574218749,9.981308130263153
0.5272320318328774,-0.689530078125,3.1076737548828124,9.442731347656249,9.964851388728109
0.5297189753792588,-0.39264907226562495,3.294421484375,9.380482104492186,9.949916116398208
0.5322059189256404,-0.1149216796875,3.394977954101562,9.442731347656249,10.035151100272872
0.5346928624720219,0.086191259765625,3.5003228271484375,9.404424121093749,10.035082554564578
0.5371798060184033,0.33518823242187495,3.5673604736328124,9.375693701171874,10.037033639386976
0.5396667495647849,0.5123591552734374,3.6104561035156246,9.351751684570312,10.037587596094461
0.5421536931111663,0.6703764648437499,3.6056677001953124,9.366116894531249,10.058548098551393
0.5446406366575478,0.8475473876953125,3.6152445068359373,9.34696328125,10.057537074236036
0.5471275802039294,0.9193734375,3.5625720703124997,9.356540087890625,10.05395492779113
0.5496145237503108,0.9911994873046874,3.4572271972656248,9.3086560546875,9.979277221403184
0.5521014672966923,0.9528922607421875,3.2704794677734372,9.299079248046874,9.903378942116978
0.5545884108430739,0.9050082275390624,3.1603461914062496,9.303867651367186,9.867562070522087
0.5570753543894553,0.814028564453125,2.9927520751953125,9.332598071289063,9.834459530017895
0.5595622979358368,0.6943184814453125,2.85388837890625,9.351751684570312,9.802143469812933
0.5620492414822184,0.5267243652343749,2.7054478759765623,9.3086560546875,9.708139075591568
0.5645361850285998,0.3495534423828125,2.5330653564453125,9.342174877929686,9.68580606655562
0.5670231285749813,0.1484405029296875,2.365471240234375,9.3852705078125,9.67991690440063
0.5695100721213628,-0.0909796630859375,2.2026655273437497,9.394847314453125,9.65003465207928
0.5719970156677443,-0.40222587890625,2.0542250244140625,9.399635717773437,9.629889809101298
0.5744839592141258,-0.679953271484375,1.9009961181640624,9.437942944335937,9.651470857502375
0.5769709027605073,-0.8906430175781249,1.7573440185546874,9.466673364257812,9.66950916902502
0.5794578463068888,-1.0917559570312498,1.675941162109375,9.457096557617186,9.666301523781502
0.5819447898532703,-1.3742717529296875,1.5610194824218748,9.476250170898437,9.70178962753026
0.5844317333996518,-1.5753846923828123,1.5801730957031248,9.524134204101562,9.782020051048525
0.5869186769460333,-1.7525556152343749,1.5610194824218748,9.495403784179686,9.78115156991262
0.5894056204924147,-5.80354482421875,8.087613208007811,9.342174877929686,13.651624495966741
0.5918925640387963,-4.151545678710937,7.690175732421874,9.184157568359375,12.677652959377241
0.5943795075851778,-2.5713725830078125,7.240065820312499,9.165003955078124,11.959423378227699
0.5968664511315592,-1.16837041015625,6.718129858398437,9.074024291992187,11.350606814672844
0.5993533946779408,0.26336218261718747,6.081272216796875,9.069235888671875,10.922557897232332
0.6018403382243223,1.47482822265625,5.410895751953125,8.968679418945312,10.577812706068348
0.6043272817707037,2.446874096679687,4.69263525390625,8.949525805664061,10.397212636925955
0.6068142253170853,3.375824340820312,4.065354418945312,8.992621435546875,10.430270217725436
0.6093011688634667,3.9839515624999997,3.418919970703125,8.98304462890625,10.404613141455105
0.6117881124098483,4.50109912109375,2.829946362304687,9.026140258789061,10.475671705564523
0.6142750559562298,4.826710546875,2.3415292236328122,9.0021982421875,10.479478374427067
0.6167619995026112,4.965574243164062,1.9105729248046874,9.121908325195312,10.560133898707848
0.6192489430489928,4.912901806640625,1.5658078857421873,9.117119921875,10.47426532825072
0.6217358865953743,4.826710546875,1.24498486328125,9.188945971679686,10.453891623867264
0.6242228301417557,4.46279189453125,1.0199299072265624,9.208099584960937,10.283280919828398
0.6267097736881373,4.127603662109375,0.9002198242187499,9.265560424804686,10.183227273761592
0.6291967172345188,3.67749375,0.8379705810546875,9.3086560546875,10.043765853526876
0.6316836607809002,3.1411925781249996,0.852335791015625,9.356540087890625,9.9064832069619
0.6341706043272818,2.5617957763671875,0.8714894042968749,9.437942944335937,9.818200364738692
0.6366575478736632,1.9536685546875,0.9816226806640624,9.433154541015625,9.683223043153172
0.6391444914200447,1.3407529296874998,1.1252747802734375,9.485826977539062,9.645971967479115
0.6416314349664263,0.7709329345703124,1.2880804931640624,9.4618849609375,9.58022734388335
0.6441183785128077,0.201112939453125,1.4604630126953124,9.490615380859374,9.604435378161023
0.6466053220591892,-0.3447650390625,1.68551796875,9.519345800781249,9.67356078339256
0.6490922656055708,-0.8858546142578124,1.8195932617187498,9.548076220703125,9.760195569354673
0.6515792091519522,-1.3024457031249999,1.9919757812499999,9.562441430664062,9.85416756695135
0.6540661526983337,-1.7286135986328124,2.1308394775390624,9.581595043945311,9.966721900332857
0.6565530962447153,-2.0350714111328125,2.2840683837890623,9.572018237304688,10.048980901839172
0.6590400397910967,-2.370259643554687,2.437297290039062,9.576806640625,10.162370505438917
0.6615269833374782,-2.5665841796874997,2.4756045166015626,9.576806640625,10.21915835604671
0.6640139268838597,-2.729389892578125,2.5905261962890624,9.586383447265625,10.29850196666369
0.6665008704302412,-2.7724855224609373,2.5474305664062498,9.2320416015625,9.97028939378878
0.6689878139766227,-2.916137622070312,2.6384102294921874,9.524134204101562,10.304086544069795
0.6714747575230042,-2.93050283203125,2.6384102294921874,9.495403784179686,10.281621876544872
0.6739617010693857,-2.877830395507812,2.6575638427734374,9.533711010742186,10.307094595475107
0.6764486446157671,-2.729389892578125,2.6862942626953124,9.567229833984374,10.30522356612306
0.6789355881621487,-2.6623522460937497,2.6815058593749996,9.5001921875,10.224101171035961
0.6814225317085302,-2.422932080078125,2.6240450195312497,9.528922607421874,10.176275260989856
0.6839094752549116,-2.3032219970703123,2.5809493896484375,9.528922607421874,10.137381189338344
0.6863964188012932,-2.0733786376953125,2.6096798095703124,9.447519750976562,10.01823123754001
0.6888833623476747,-1.8100164550781248,2.6575638427734374,9.485826977539062,10.015973172581791
0.6913703058940561,-1.5658078857421873,2.6001030029296874,9.457096557617186,9.932218546779527
0.6938572494404377,-1.2880804931640624,2.6431986328124997,9.471461767578125,9.917370537802134
0.6963441929868192,-1.0295067138671874,2.6719290527343746,9.404424121093749,9.830680647145119
0.6988311365332006,-0.737414111328125,2.6815058593749996,9.428366137695312,9.829971580421171
0.7013180800795822,-0.4644751220703125,2.7820623291015623,9.428366137695312,9.841224312475955
0.7038050236259636,-0.2059013427734375,2.806004345703125,9.375693701171874,9.788753144770517
0.7062919671723451,0.0383072265625,2.906560815429687,9.433154541015625,9.870864592936218
0.7087789107187267,0.2537853759765625,2.901772412109375,9.375693701171874,9.817755472964917
0.7112658542651081,0.4836287353515625,2.978386865234375,9.351751684570312,9.82649198048429
0.7137527978114896,0.6655880615234374,3.0454245117187497,9.380482104492186,9.884890613300588
0.7162397413578712,0.8092401611328125,3.0502129150390624,9.394847314453125,9.910692434302886
0.7187266849042526,0.8954314208984374,3.0933085449218747,9.351751684570312,9.890683229862463
0.7212136284506341,1.0103531005859374,3.1268273681640624,9.327809667968749,9.889686343864232
0.7237005719970157,1.0582371337890624,3.1028853515624997,9.337386474609374,9.896188635656118
0.7261875155433971,1.1156979736328125,3.1459809814453124,9.323021264648437,9.902560467125204
0.7286744590897786,1.0582371337890624,3.0885201416015624,9.327809667968749,9.882654284060527
0.7311614026361601,0.9959878906249999,3.0741549316406247,9.3086560546875,9.85360329861479
0.7336483461825416,0.9193734375,2.940079638671875,9.34696328125,9.84149573897938
0.7361352897289231,0.7661445312499999,2.91134921875,9.394847314453125,9.865398510864507
0.7386222332753046,0.622492431640625,2.844311572265625,9.375693701171874,9.817394640421051
0.7411091768216861,0.44532150878906246,2.6815058593749996,9.390058911132812,9.775581377831058
0.7435961203680675,-3.1268273681640624,8.973467822265624,9.112331518554686,13.165665947895743
0.7460830639144491,-1.6711527587890624,8.394071020507813,9.035717065429687,12.445776903312812
0.7485700074608306,-0.3016694091796875,7.704540942382812,8.98304462890625,11.838329543065155
0.7510569510072121,0.8571241943359375,6.900089184570312,8.949525805664061,11.333133052505259
0.7535438945535936,1.9393033447265624,5.985504150390625,8.882488159179687,10.885116136044592
0.7560308380999751,2.6910826660156246,5.090072729492187,8.86812294921875,10.573285721539452
0.7585177816463566,3.327940307617187,4.0988732421875,8.90643017578125,10.353764871902909
0.7610047251927381,3.758896606445312,3.2561142578125,8.94473740234375,10.234251851247512
0.7634916687391196,3.9504327392578125,2.403778466796875,8.987833032226561,10.107680859624487
0.7659786122855011,4.017470385742187,1.608903515625,9.045293872070312,10.027261842348523
0.7684655558318826,3.912125512695312,0.948103857421875,9.074024291992187,9.92680934657275
0.770952499378264,3.6487633300781246,0.36391865234375,9.145850341796875,9.853552105661821
0.7734394429246456,3.23696064453125,-0.06703764648437499,9.255983618164063,9.805898276038347
0.7759263864710271,2.806004345703125,-0.32082302246093747,9.303867651367186,9.723093184475944
0.7784133300174085,2.27927998046875,-0.5698199951171875,9.390058911132812,9.679515401648251
0.7809002735637901,1.6807295654296874,-0.5793968017578125,9.466673364257812,9.632157448440353
0.7833872171101716,1.13006318359375,-0.5793968017578125,9.528922607421874,9.61317374809365
0.785874160656553,0.5458779785156249,-0.39743747558593745,9.543287817382812,9.567145952677613
0.7883611042029346,-0.023942016601562498,-0.16759411621093748,9.6151138671875,9.616604166072806
0.790848047749316,-0.5267243652343749,0.1005564697265625,9.643844287109374,9.658741263464279
0.7933349912956975,-0.9145850341796874,0.55545478515625,9.701305126953125,9.760139188010866
0.7958219348420791,-1.2880804931640624,0.8954314208984374,9.686939916992188,9.813141889416386
0.7983088783884605,-1.5705962890624998,1.4221557861328125,9.648632690429688,9.878532916282476
0.800795821934842,-1.7429788085937499,1.8195932617187498,9.682151513671874,10.004646555426019
0.8032827654812236,-1.915361328125,2.2744915771484373,9.624690673828125,10.073559029393238
0.805769709027605,-1.93451494140625,2.7054478759765623,9.591171850585937,10.15147150592574
0.8082566525739865,-1.89620771484375,3.1028853515624997,9.562441430664062,10.230532113123669
0.8107435961203681,-1.7956512451171873,3.4668040039062498,9.533711010742186,10.302171568748896
0.8132305396667495,-1.6519991455078125,3.7158009765625,9.548076220703125,10.377959220893954
0.815717483213131,-1.4604630126953124,3.9456443359374997,9.519345800781249,10.407641707515605
0.8182044267595125,-1.254561669921875,4.122815258789062,9.5001921875,10.43193089706681
0.820691370305894,-1.0390835205078124,4.199429711914062,9.433154541015625,10.37782776223335
0.8231783138522755,-0.8092401611328125,4.309562988281249,9.394847314453125,10.367755728712023
0.825665257398657,-0.612915625,4.209006518554688,9.332598071289063,10.256158549712135
0.8281522009450385,-0.4165910888671875,4.113238452148437,9.3086560546875,10.185448259356399
0.83063914449142,-0.2346317626953125,4.007893579101562,9.246406811523437,10.080391953176031
0.8331260880378015,-0.1197100830078125,3.816357446289062,9.289502441406249,10.043593493900097
0.835613031584183,0.009576806640625,3.5960908935546874,9.299079248046874,9.970197404835494
0.8380999751305644,0.05746083984375,3.385401147460937,9.313444458007812,9.909817876719117
0.840586918676946,0.023942016601562498,3.1124621582031247,9.327809667968749,9.833413807435171
0.8430738622233275,0.009576806640625,2.81558115234375,9.294290844726563,9.711407274284547
0.8455608057697089,-0.047884033203124995,2.5570073730468748,9.337386474609374,9.681289467972226
0.8480477493160905,-0.13407529296874998,2.29843359375,9.3852705078125,9.663543639570232
0.850534692862472,-0.2537853759765625,2.0542250244140625,9.366116894531249,9.592100559836318
0.8530216364088534,-0.4261678955078125,1.8243816650390623,9.394847314453125,9.579830040077923
0.855508579955235,-0.612915625,1.6472107421875,9.437942944335937,9.600194571626531
0.8579955235016165,-0.7517793212890624,1.5179238525390624,9.399635717773437,9.551042696840332
0.8604824670479979,-0.948103857421875,1.3742717529296875,9.442731347656249,9.58919699867349
0.8629694105943795,-1.0821791503906248,1.3455413330078123,9.481038574218749,9.636995674908052
0.8654563541407609,-1.1923124267578125,1.37906015625,9.548076220703125,9.720554271949407
0.8679432976871424,-1.3646949462890625,1.3742717529296875,9.504980590820312,9.700292324419825
0.870430241233524,-1.39821376953125,1.4413093994140624,9.528922607421874,9.738210338064269
0.8729171847799054,-1.47482822265625,1.5705962890624998,9.562441430664062,9.802151656878241
0.8754041283262869,-6.45476767578125,8.350975390624999,9.433154541015625,14.15581930930946
0.8778910718726685,-4.6064439941406246,8.259995727539062,9.275137231445312,13.246698696364342
0.8803780154190499,-2.89219560546875,7.948749511718749,9.17458076171875,12.478795870341079
0.8828649589654315,-1.2306196533203124,7.52737001953125,9.141061938476563,11.905239918000014
0.885351902511813,0.354341845703125,7.015010864257812,9.054870678710937,11.459782658386263
0.8878388460581944,1.7094599853515624,6.517016918945312,8.997409838867187,11.240424670442023
0.890325789604576,2.877830395507812,5.7843912109375,8.911218579101561,11.006857227701488
0.8928127331509574,3.9743747558593747,5.233724829101562,8.94473740234375,11.09936293143231
0.8952996766973389,4.778826513671874,4.525041137695312,8.896853369140624,11.066489055594689
0.8977866202437205,5.3390697021484375,3.897760302734375,8.939948999023438,11.1184930978578
0.9002735637901019,5.80354482421875,3.308786694335937,8.959102612304687,11.175630699568389
0.9027605073364834,5.923254907226562,2.7533319091796873,8.959102612304687,11.087439060301314
0.905247450882865,5.928043310546875,2.2361843505859373,9.011775048828124,11.016093112905597
0.9077343944292464,5.755660791015624,1.7621324218749999,9.0788126953125,10.893006094280176
0.9102213379756279,5.396530541992187,1.407790576171875,9.112331518554686,10.683585629415715
0.9127082815220094,4.927267016601562,1.0630255371093749,9.193734375,10.48488127274186
0.9151952250683909,4.295197778320312,0.8379705810546875,9.255983618164063,10.238366636789404
0.9176821686147724,3.5960908935546874,0.6368576416015624,9.342174877929686,10.030637508164364
0.9201691121611539,2.849099975585937,0.4740519287109375,9.380482104492186,9.81506701019899
0.9226560557075354,2.0638018310546875,0.4644751220703125,9.418789331054686,9.653424656549431
0.9251429992539169,1.2593500732421874,0.44053310546874996,9.485826977539062,9.57919336227205
0.9276299428002984,0.47884033203125,0.4644751220703125,9.5001921875,9.52358529137205
0.9301168863466799,-0.2825157958984375,0.6272808349609375,9.581595043945311,9.60626150003209
0.9326038298930613,-0.97683427734375,0.70868369140625,9.610325463867188,9.685803699296871
0.9350907734394429,-1.6903063720703124,0.9002198242187499,9.624690673828125,9.81336853125633
0.9375777169858244,-2.2649147705078123,1.0295067138671874,9.624690673828125,9.941045898618322
0.9400646605322058,-2.7629087158203123,1.22583125,9.662997900390625,10.12471506998523
0.9425516040785874,-3.2321722412109373,1.43652099609375,9.634267480468749,10.26302293938245
0.9450385476249689,-3.5625720703124997,1.6472107421875,9.662997900390625,10.429705240719999
0.9475254911713503,-3.763685009765625,1.8052280517578123,9.667786303710937,10.530444681294734
0.9500124347177319,-3.864241479492187,2.059013427734375,9.619902270507811,10.56950416062834
0.9524993782641133,-3.88818349609375,2.2601263671875,9.639055883789062,10.636613202789716
0.9549863218104948,-3.84987626953125,2.408566870117187,9.634267480468749,10.650908484431909
0.9574732653568764,-3.7110125732421873,2.6336218261718747,9.619902270507811,10.641902928338137
0.9599602089032578,-3.4811692138671875,2.8012159423828122,9.605537060546874,10.593946010480504
0.9624471524496393,-3.227383837890625,2.9544448486328125,9.514557397460937,10.472418692463991
0.9649340959960209,-2.868253588867187,3.1124621582031247,9.543287817382812,10.439762530905726
0.9674210395424023,-2.4851813232421875,3.189076611328125,9.476250170898437,10.302701254708133
0.9699079830887838,-2.0254946044921875,3.284844677734375,9.452308154296874,10.209748400105362
0.9723949266351654,-1.6615759521484375,3.423708374023437,9.442731347656249,10.180755815710649
0.9748818701815468,-1.16837041015625,3.4907460205078125,9.442731347656249,10.134869140695887
0.9773688137279283,-0.737414111328125,3.5290532470703124,9.428366137695312,10.094160907112734
0.9798557572743098,-0.316034619140625,3.5434184570312497,9.399635717773437,10.050315610415787
0.9823427008206913,0.1005564697265625,3.5290532470703124,9.332598071289063,9.978061694762651
0.9848296443670728,0.45489831542968745,3.6152445068359373,9.342174877929686,10.027619696189557
0.9873165879134543,0.7757213378906249,3.5290532470703124,9.3086560546875,9.985341153870838
0.9898035314598358,1.0965443603515623,3.5769372802734374,9.284714038085937,10.010135094505909
0.9922904750062173,1.3120225097656248,3.4620156005859375,9.289502441406249,10.000090534276415
0.9947774185525988,1.465251416015625,3.356670727539062,9.284714038085937,9.9809876692782
0.9972643620989803,1.5897499023437498,3.3327287109375,9.284714038085937,9.992011818534802
0.9997513056453617,1.6903063720703124,3.2609026611328122,9.342174877929686,10.038269434851065
1.0022382491917432,1.6328455322265625,3.1268273681640624,9.289502441406249,9.936704158386961
1.0047251927381249,1.599326708984375,2.9831752685546875,9.299079248046874,9.895961573613913
1.0072121362845063,1.465251416015625,2.8730419921875,9.284714038085937,9.828898553247896
1.0096990798308878,1.3072341064453123,2.7246014892578123,9.3086560546875,9.78689898940364
1.0121860233772693,1.1156979736328125,2.5617957763671875,9.327809667968749,9.737330885311046
1.0146729669236507,0.8714894042968749,2.418143676757812,9.370905297851563,9.717035490546898
1.0171599104700322,0.5793968017578125,2.3367408203125,9.361328491210937,9.66594689803123
1.0196468540164139,0.258573779296875,2.1499930908203124,9.375693701171874,9.622523736947024
1.0221337975627953,-0.0430956298828125,2.0254946044921875,9.380482104492186,9.596766650223403
1.0246207411091768,-0.39264907226562495,1.944091748046875,9.418789331054686,9.625344590276475
1.0271076846555582,-0.689530078125,1.7956512451171873,9.428366137695312,9.622572584770124
1.0295946282019397,-0.9864110839843749,1.7429788085937499,9.452308154296874,9.662148384163912
1.0320815717483212,-1.2976572998046874,1.6807295654296874,9.528922607421874,9.76263962246285
1.0345685152947028,-1.6136919189453125,1.637633935546875,9.490615380859374,9.76512298046106
1.0370554588410843,-1.7621324218749999,1.6711527587890624,9.576806640625,9.879933585169004
1.0395424023874658,-2.0063409912109376,1.5849614990234373,9.524134204101562,9.861371074254189
1.0420293459338472,-2.1930887207031247,1.6519991455078125,9.509768994140625,9.898204162147405
1.0445162894802287,-2.288856787109375,1.7477672119140624,9.557653027343749,9.982098327006783
1.0470032330266101,-2.360682836914062,1.8052280517578123,9.533711010742186,9.986156288167171
1.0494901765729918,-2.31758720703125,1.93451494140625,9.576806640625,10.04135369124293
1.0519771201193733,-2.2649147705078123,2.0254946044921875,9.600748657226562,10.070096429018395
1.0544640636657547,-2.1978771240234374,2.1739351074218747,9.5001921875,9.990510963060043
1.0569510072121362,-2.0733786376953125,2.288856787109375,9.504980590820312,9.994119290813911
1.0594379507585177,-1.915361328125,2.4756045166015626,9.5384994140625,10.03893409740125
1.0619248943048991,-1.66636435546875,2.6671406494140624,9.533711010742186,10.03902659849452
1.0644118378512808,-1.4125789794921875,2.786850732421875,9.481038574218749,9.982585277568502
1.0668987813976623,-1.177947216796875,2.940079638671875,9.437942944335937,9.955219482654963
1.0693857249440437,-0.8906430175781249,3.0789433349609374,9.437942944335937,9.967341875605628
1.0718726684904252,-0.6368576416015624,3.19865341796875,9.428366137695312,9.976525415714084
1.0743596120368066,-0.296881005859375,3.323151904296875,9.366116894531249,9.942616486252284
1.076846555583188,-0.047884033203124995,3.423708374023437,9.361328491210937,9.96787555256142
1.0793334991295698,0.181959326171875,3.4811692138671875,9.390058911132812,10.016229562390347
1.0818204426759512,0.44532150878906246,3.5290532470703124,9.327809667968749,9.983013636607883
1.0843073862223327,0.6464344482421874,3.5482068603515624,9.337386474609374,10.009717058735385
1.0867943297687142,0.8379705810546875,3.5529952636718747,9.380482104492186,10.065754544547868
1.0892812733150956,0.9002198242187499,3.4955344238281247,9.284714038085937,9.961680149910151
1.0917682168614773,1.0342951171875,3.447650390625,9.3086560546875,9.980337526851729
1.0942551604078588,1.1061211669921875,3.366247534179687,9.284714038085937,9.937858988055176
1.0967421039542402,1.0582371337890624,3.227383837890625,9.303867651367186,9.904434640228814
1.0992290475006217,1.0534487304687499,3.0837317382812497,9.289502441406249,9.844491417554387
1.1017159910470031,0.928950244140625,2.9831752685546875,9.289502441406249,9.800874392006966
1.1042029345933846,0.7661445312499999,2.8012159423828122,9.337386474609374,9.778577318549054
1.1066898781397663,0.5746083984375,2.6144682128906247,9.3086560546875,9.685901940048776
1.1091768216861477,0.39743747558593745,2.4564509033203126,9.318232861328125,9.64476911311819
1.1116637652325292,0.181959326171875,2.3319524169921872,9.380482104492186,9.667706852413078
1.1141507087789106,-0.06703764648437499,2.1356278808593747,9.390058911132812,9.630088620884793
1.116637652325292,-0.33518823242187495,2.01112939453125,9.428366137695312,9.64629880416014
1.1191245958716736,-0.6368576416015624,1.905784521484375,9.433154541015625,9.644791697734039
1.1216115394180552,-0.8954314208984374,1.7477672119140624,9.423577734375,9.626022281938802
1.1240984829644367,-1.1635820068359375,1.7190367919921874,9.490615380859374,9.714977657527559
1.1265854265108182,-1.369483349609375,1.6328455322265625,9.476250170898437,9.712928831121035
1.1290723700571996,-1.5897499023437498,1.5562310791015623,9.528922607421874,9.785168674161895
1.131559313603581,-1.8195932617187498,1.5275006591796874,9.509768994140625,9.802034698153495
1.1340462571499625,-1.944091748046875,1.6136919189453125,9.552864624023437,9.881331735095822
1.1365332006963442,-2.0925322509765625,1.5897499023437498,9.495403784179686,9.852344340206187
1.1390201442427257,-2.0877438476562498,1.675941162109375,9.481038574218749,9.851778803754321
1.1415070877891071,-2.1452046874999997,1.8100164550781248,9.581595043945311,9.984238894632025
1.1439940313354886,-2.1308394775390624,1.8914193115234375,9.528922607421874,9.945768444382688
1.14648097488187,-2.001552587890625,2.1212626708984375,9.557653027343749,9.992732332657168
1.1489679184282515,-1.8914193115234375,2.2266075439453124,9.562441430664062,9.99877663925135
1.1514548619746332,-1.7621324218749999,2.379836450195312,9.4618849609375,9.914433882774977
1.1539418055210147,-1.5418658691406248,2.6001030029296874,9.528922607421874,9.996912125376538
1.1564287490673961,-1.3551181396484375,2.6815058593749996,9.514557397460937,9.977656103306293
1.1589156926137776,-1.1156979736328125,2.8730419921875,9.428366137695312,9.9193366856701
1.161402636160159,-0.8283937744140625,3.0933085449218747,9.4618849609375,9.989097107025735
1.1638895797065405,-0.5458779785156249,3.1747114013671873,9.428366137695312,9.963476465362817
1.1663765232529222,-0.3016694091796875,3.294421484375,9.380482104492186,9.946741268468008
1.1688634667993036,-0.062249243164062495,3.404554760742187,9.370905297851563,9.970392880346756
1.171350410345685,0.22505495605468748,3.4524387939453125,9.366116894531249,9.984694739510418
1.1738373538920666,0.38786066894531246,3.5577836669921874,9.327809667968749,9.990810463695242
1.176324297438448,0.5889736083984375,3.6056677001953124,9.303867651367186,9.99548311737749
1.1788112409848295,0.7805097412109374,3.5913024902343746,9.323021264648437,10.021246156720018
1.1812981845312112,0.82360537109375,3.5577836669921874,9.303867651367186,9.994903886609796
1.1837851280775926,0.967257470703125,3.4763808105468748,9.356540087890625,10.028242765852543
1.186272071623974,0.967257470703125,3.394977954101562,9.342174877929686,9.986876076796346
1.1887590151703555,0.9528922607421875,3.2513258544921873,9.303867651367186,9.901569408272028
1.191245958716737,0.9433154541015625,3.1507693847656246,9.332598071289063,9.895179559874167
1.1937329022631185,0.8283937744140625,2.9927520751953125,9.284714038085937,9.79023574783079
1.1962198458095001,0.6703764648437499,2.806004345703125,9.303867651367186,9.740894120504441
1.1987067893558816,0.5315127685546874,2.6048914062499997,9.337386474609374,9.708488617581516
1.201193732902263,0.33039982910156246,2.422932080078125,9.380482104492186,9.693977946356192
1.2036806764486445,0.12449848632812499,2.346317626953125,9.375693701171874,9.665626656241328
1.206167619995026,-0.17238251953125,2.1212626708984375,9.380482104492186,9.618883280541732
1.2086545635414074,-0.43574470214843747,1.9919757812499999,9.404424121093749,9.622943105305513
1.2111415070877891,-0.6751648681640625,1.848323681640625,9.399635717773437,9.603400421629763
1.2136284506341706,-0.9241618408203125,1.7286135986328124,9.442731347656249,9.644032112421478
1.216115394180552,-1.197100830078125,1.656787548828125,9.4618849609375,9.680147849766596
1.2186023377269335,-1.4317325927734375,1.5945383056640625,9.4618849609375,9.701529654619163
1.221089281273315,-1.62805712890625,1.5562310791015623,9.457096557617186,9.721579114868064
1.2235762248196966,-1.7669208251953124,1.618480322265625,9.543287817382812,9.839503550559709
1.226063168366078,-1.93451494140625,1.5705962890624998,9.495403784179686,9.816914677552964
1.2285501119124596,-1.9871873779296874,1.6136919189453125,9.557653027343749,9.89452609655286
1.231037055458841,-2.0781670410156248,1.7477672119140624,9.557653027343749,9.9359045822964
1.2335239990052225,-2.0542250244140625,1.838746875,9.581595043945311,9.97034573660355
1.236010942551604,-2.0638018310546875,1.9009961181640624,9.485826977539062,9.89211694668777
1.2384978860979856,-1.9536685546875,2.0829554443359375,9.514557397460937,9.933897859060265
1.240984829644367,-1.7812860351562498,2.2601263671875,9.548076220703125,9.972307187960833
1.2434717731907485,-1.6519991455078125,2.461239306640625,9.524134204101562,9.974764781138886
1.24595871673713,-1.4508862060546874,2.6001030029296874,9.476250170898437,9.933021882096929
1.2484456602835114,-1.2641384765625,2.7820623291015623,9.519345800781249,9.99779282470803
1.250932603829893,-1.0007762939453124,2.940079638671875,9.437942944335937,9.935813428843979
1.2534195473762746,-0.7326257080078125,3.0885201416015624,9.423577734375,9.943817899022525
1.255906490922656,-0.488417138671875,3.2561142578125,9.447519750976562,10.004821877793253
1.2583934344690375,-0.1771709228515625,3.385401147460937,9.390058911132812,9.983262834348228
1.260880378015419,0.033518823242187495,3.4524387939453125,9.361328491210937,9.977721596527322
1.2633673215618004,0.3112462158203125,3.5290532470703124,9.34696328125,9.995839815070855
1.2658542651081819,0.5027823486328125,3.5865140869140624,9.361328491210937,10.037447110998263
1.2683412086545636,0.6847416748046875,3.5913024902343746,9.370905297851563,10.058836455519119
1.270828152200945,0.833182177734375,3.5482068603515624,9.303867651367186,9.992292917008431
1.2733150957473265,0.9145850341796874,3.5051112304687497,9.294290844726563,9.975275075358654
1.275802039293708,0.9576806640625,3.418919970703125,9.279925634765624,9.935954197115242
1.2782889828400894,0.9959878906249999,3.27526787109375,9.313444458007812,9.922682055678647
1.2807759263864709,0.9576806640625,3.2130186279296873,9.246406811523437,9.835480663492222
1.2832628699328525,0.8906430175781249,3.0645781249999997,9.303867651367186,9.835997018256256
1.285749813479234,0.7805097412109374,2.896984008789062,9.318232861328125,9.789339888942463
1.2882367570256155,0.565031591796875,2.729389892578125,9.318232861328125,9.726165407979213
1.290723700571997,0.4644751220703125,2.5905261962890624,9.294290844726563,9.659731125608523
1.2932106441183784,0.2059013427734375,2.379836450195312,9.34696328125,9.647369562407667
1.2956975876647598,-0.033518823242187495,2.2266075439453124,9.351751684570312,9.613228606255516
1.2981845312111415,-0.24899697265624998,2.0781670410156248,9.452308154296874,9.681265784314714
1.300671474757523,-0.5746083984375,1.905784521484375,9.423577734375,9.631511136353039
1.3031584183039044,-0.8379705810546875,1.8195932617187498,9.433154541015625,9.643522122517744
1.305645361850286,-1.0582371337890624,1.7334020019531249,9.447519750976562,9.663341956942093
1.3081323053966674,-1.3120225097656248,1.608903515625,9.4618849609375,9.686962403289145
1.3106192489430488,-1.5466542724609373,1.5753846923828123,9.476250170898437,9.730020229627913
1.3131061924894305,-1.7094599853515624,1.5466542724609373,9.524134204101562,9.799159413836328
1.315593136035812,-1.8531120849609375,1.5753846923828123,9.519345800781249,9.825161871606694
1.3180800795821934,-1.9680337646484374,1.6519991455078125,9.567229833984374,9.906267953767227
1.3205670231285749,-2.068590234375,1.6903063720703124,9.548076220703125,9.914734525218998
1.3230539666749563,-2.0781670410156248,1.7812860351562498,9.562441430664062,9.946458882652001
1.3255409102213378,-5.8610056640625,8.37012900390625,9.313444458007812,13.82572582574245
1.3280278537677195,-4.065354418945312,8.111555224609374,9.217676391601563,12.934063273921874
1.330514797314101,-2.35589443359375,7.68059892578125,9.102754711914063,12.140921784865586
1.3330017408604824,-0.7038952880859375,7.192181787109375,9.011775048828124,11.551408440796235
1.3354886844068639,0.7757213378906249,6.60799658203125,9.006986645507812,11.197909217999205
1.3379756279532453,2.1116858642578125,5.961562133789062,8.959102612304687,10.966538190429034
1.3404625714996268,3.19865341796875,5.272032055664062,8.935160595703124,10.85646353815267
1.3429495150460085,4.165910888671875,4.61602080078125,8.920795385742187,10.873962105869193
1.34543645859239,4.879382983398437,3.9552211425781247,8.930372192382812,10.918044700396653
1.3479234021387714,5.382165332031249,3.3327287109375,8.930372192382812,10.94652144822776
1.3504103456851528,5.741295581054687,2.767697119140625,8.978256225585938,11.010527105666196
1.3528972892315343,5.851428857421874,2.308010400390625,9.030928662109375,11.005626024079202
1.3553842327779158,5.7843912109375,1.85790048828125,9.05965908203125,10.908180351834947
1.3578711763242974,5.568913061523437,1.446097802734375,9.083601098632812,10.752478805417974
1.360358119870679,5.157110375976562,1.1252747802734375,9.150638745117186,10.56391121719434
1.3628450634170604,4.6830584472656245,0.9241618408203125,9.212887988281249,10.376050145076942
1.3653320069634418,4.103661645507812,0.7900865478515624,9.3086560546875,10.203693115650733
1.3678189505098233,3.404554760742187,0.6272808349609375,9.318232861328125,9.940520007662423
1.370305894056205,2.7054478759765623,0.59376201171875,9.375693701171874,9.77627914466339
1.3727928376025864,1.9393033447265624,0.6560112548828124,9.447519750976562,9.666792522574012
1.3752797811489679,1.22583125,0.7038952880859375,9.471461767578125,9.576362505918429
1.3777667246953493,0.47884033203125,0.7661445312499999,9.476250170898437,9.519221754313572
1.3802536682417308,-0.2537853759765625,0.9816226806640624,9.495403784179686,9.549381295605887
1.3827406117881123,-0.9624690673828125,1.0678139404296874,9.567229833984374,9.67462970936487
1.385227555334494,-1.5179238525390624,1.2880804931640624,9.619902270507811,9.823734721229913
1.3877144988808754,-2.1356278808593747,1.407790576171875,9.619902270507811,9.954159956821247
1.3902014424272569,-2.6001030029296874,1.5753846923828123,9.610325463867188,10.079718650651522
1.3926883859736383,-2.978386865234375,1.7812860351562498,9.648632690429688,10.253773990725158
1.3951753295200198,-3.289633081054687,1.9009961181640624,9.619902270507811,10.343016568843227
1.3976622730664012,-3.4811692138671875,2.1404162841796874,9.639055883789062,10.469542458768998
1.400149216612783,-3.6296097167968746,2.2170307373046874,9.6151138671875,10.513786504651947
1.4026361601591644,-3.6727053466796873,2.39420166015625,9.6151138671875,10.567468042629978
1.4051231037055458,-3.6391865234374996,2.480392919921875,9.600748657226562,10.562689163693369
1.4076100472519273,-3.5386300537109374,2.6336218261718747,9.552864624023437,10.522123792525614
1.4100969907983087,-3.356670727539062,2.7437551025390623,9.572018237304688,10.50804280402018
1.4125839343446902,-3.1172505615234374,2.829946362304687,9.533711010742186,10.421971651908603
1.4150708778910719,-2.877830395507812,2.91134921875,9.509768994140625,10.353432685865268
1.4175578214374533,-2.5330653564453125,2.959233251953125,9.524134204101562,10.289927787755646
1.4200447649838348,-2.221819140625,3.0454245117187497,9.466673364257812,10.189651384408267
1.4225317085302163,-1.7573440185546874,3.1364041748046874,9.457096557617186,10.117408978951925
1.4250186520765977,-1.37906015625,3.1459809814453124,9.4618849609375,10.066095085195009
1.4275055956229792,-1.005564697265625,3.2561142578125,9.414000927734374,10.011835690206887
1.4299925391693609,-0.679953271484375,3.189076611328125,9.3852705078125,9.935584964617709
1.4324794827157423,-0.277727392578125,3.2225954345703123,9.366116894531249,9.908905061686955
1.4349664262621238,0.1149216796875,3.227383837890625,9.361328491210937,9.902710969724273
1.4374533698085052,0.4261678955078125,3.323151904296875,9.332598071289063,9.915762422245797
1.4399403133548867,0.74699091796875,3.323151904296875,9.356540087890625,9.957217303386727
1.4424272569012682,0.948103857421875,3.323151904296875,9.390058911132812,10.00577062789443
1.4449142004476498,1.1540052001953125,3.289633081054687,9.332598071289063,9.96246960197498
1.4474011439940313,1.350329736328125,3.289633081054687,9.337386474609374,9.99158958229367
1.4498880875404128,1.43652099609375,3.23696064453125,9.337386474609374,9.98640540748674
1.4523750310867942,1.5035586425781249,3.1459809814453124,9.370905297851563,9.998587451664834
1.4548619746331757,1.4891934326171874,3.1028853515624997,9.332598071289063,9.94700866315696
1.4573489181795571,1.446097802734375,3.0310593017578125,9.303867651367186,9.891434305499002
1.4598358617259388,1.3407529296874998,2.91134921875,9.337386474609374,9.872201318257238
1.4623228052723203,1.2018892333984375,2.81558115234375,9.332598071289063,9.821884835153625
1.4648097488187017,1.0486603271484374,2.6384102294921874,9.342174877929686,9.764073354427682
1.4672966923650832,0.7948749511718749,2.5330653564453125,9.318232861328125,9.689051034335574
1.4697836359114647,0.5363011718749999,2.437297290039062,9.337386474609374,9.665134412060928
1.4722705794578461,0.2920926025390625,2.35589443359375,9.390058911132812,9.68549239973068
1.4747575230042278,-0.009576806640625,2.212242333984375,9.409212524414063,9.665784406300842
1.4772444665506093,-0.26336218261718747,2.0877438476562498,9.457096557617186,9.688380118097877
1.4797314100969907,-0.584185205078125,2.001552587890625,9.418789331054686,9.64681696616627
1.4822183536433722,-0.9050082275390624,1.85790048828125,9.481038574218749,9.70365531962533
1.4847052971897536,-1.1252747802734375,1.848323681640625,9.457096557617186,9.701506020372705
1.487192240736135,-1.4125789794921875,1.7238251953125,9.466673364257812,9.725474654886808
1.4896791842825168,-1.675941162109375,1.6998831787109374,9.485826977539062,9.781579373900964
1.4921661278288982,-1.85790048828125,1.6711527587890624,9.504980590820312,9.827980555507567
1.4946530713752797,-1.9967641845703124,1.7381904052734374,9.519345800781249,9.880603097413587
1.4971400149216612,-2.1164742675781247,1.7477672119140624,9.552864624023437,9.939385095531849
1.4996269584680426,-2.1883003173828124,1.7860744384765623,9.548076220703125,9.957132101925412
1.5021139020144243,-2.231395947265625,1.89620771484375,9.524134204101562,9.964128858512606
1.5046008455608058,-2.2266075439453124,1.9297265380859374,9.519345800781249,9.964916966106587
1.5070877891071872,-2.1595698974609374,2.0446482177734375,9.533711010742186,9.986789980409638
1.5095747326535687,-2.0638018310546875,2.1930887207031247,9.519345800781249,9.984330754216407
1.5120616761999501,-1.9201497314453124,2.346317626953125,9.543287817382812,10.013317320604978
1.5145486197463316,-1.7477672119140624,2.4516625,9.471461767578125,9.938507295144591
1.5170355632927133,-1.5753846923828123,2.6192566162109374,9.548076220703125,10.02537289415787
1.5195225068390947,-1.2641384765625,2.8203695556640622,9.5001921875,9.99030440566645
1.5220094503854762,-1.0438719238281249,2.877830395507812,9.442731347656249,9.926567970989534
1.5244963939318577,-0.7565677246093749,3.0358477050781247,9.442731347656249,9.947559565760775
1.5269833374782391,-0.507570751953125,3.19865341796875,9.437942944335937,9.978165100711749
1.5294702810246206,-4.932055419921875,9.926360083007811,9.284714038085937,14.459035580969488
1.5319572245710023,-2.916137622070312,9.662997900390625,9.102754711914063,13.591818509643263
1.5344441681173837,-0.9433154541015625,9.270348828125,9.02135185546875,12.969734027389876
1.5369311116637652,0.7517793212890624,8.738836059570312,8.911218579101561,12.503689231122511
1.5394180552101466,2.39420166015625,7.996633544921875,8.834604125976561,12.154364635964598
1.541904998756528,3.768473413085937,7.192181787109375,8.825027319335938,11.992079799225362
1.5443919423029095,4.936843823242187,6.382941625976562,8.772354882812499,11.919252532173028
1.5468788858492912,1.4987702392578124,11.975796704101562,8.528146313476562,14.77820349271584
1.5493658293956727,3.821145849609375,10.735600244140624,8.494627490234375,14.213126482369201
1.5518527729420541,5.851428857421874,9.34696328125,8.437166650390624,13.884909914758863
1.5543397164884356,7.474697583007812,7.8529814453124995,8.394071020507813,13.711340191067183
1.556826660034817,8.690952026367187,6.301538769531249,8.394071020507813,13.62726921601868
1.5593136035811985,9.528922607421874,4.802768530273437,8.48505068359375,13.633159454681637
1.5618005471275802,9.916783276367187,3.342305517578125,8.585607153320312,13.536109002014353
1.5642874906739617,9.950302099609374,2.0063409912109376,8.604760766601562,13.30698402707952
1.5667744342203431,9.667786303710937,0.7805097412109374,8.686163623046875,13.02016612630917
1.5692613777667246,9.0788126953125,-0.3016694091796875,8.805873706054687,12.651452727492899
1.571748321313106,8.192958081054687,-1.1156979736328125,8.968679418945312,12.198629210124427
1.5742352648594875,7.1778165771484375,-1.8722656982421875,9.112331518554686,11.749936823832133
1.5767222084058692,5.923254907226562,-2.422932080078125,9.2320416015625,11.233260465850329
1.5792091519522506,4.601655590820312,-2.7341782958984373,9.351751684570312,10.775259843741754
1.581696095498632,3.227383837890625,-2.935291235351562,9.490615380859374,10.44527268101766
1.5841830390450136,1.8291700683593748,-2.868253588867187,9.619902270507811,10.203688621432578
1.586669982591395,0.47884033203125,-2.7581203125,9.6917283203125,10.087919188641047
1.5891569261377765,-0.7996633544921875,-2.365471240234375,9.773131176757811,10.087071362244304
1.5916438696841582,-1.9536685546875,-1.9584569580078124,9.811438403320311,10.193953993426328
1.5941308132305396,-2.9544448486328125,-1.3838485595703125,9.883264453125,10.407819053473306
1.596617756776921,-3.81156904296875,-0.7709329345703124,9.931148486328125,10.665369492728336
1.5991047003233025,-4.496310717773437,-0.1292868896484375,9.90241806640625,10.876185394359924
1.601591643869684,-4.99909306640625,0.5889736083984375,9.888052856445311,11.09555815134314
1.6040785874160655,-5.252878442382812,1.3311761230468748,9.911994873046874,11.296566034168423
1.6065655309624471,-5.410895751953125,2.01112939453125,9.835380419921874,11.40425983063498
1.6090524745088286,-5.348646508789062,2.6192566162109374,9.840168823242188,11.502062735329421
1.61153941805521,-5.161898779296875,3.2609026611328122,9.816226806640625,11.560146793726263
1.6140263616015915,-4.76924970703125,3.787627026367187,9.720458740234374,11.470796806651386
1.616513305147973,-4.319139794921875,4.280832568359375,9.6917283203125,11.441594901111971
1.6190002486943544,-3.758896606445312,4.73094248046875,9.586383447265625,11.331807801470084
1.6214871922407361,-3.1220389648437497,4.979939453125,9.528922607421874,11.195860409679518
1.6239741357871176,-2.4516625,5.238513232421875,9.471461767578125,11.097804193391568
1.626461079333499,-1.7764976318359373,5.324704492187499,9.423577734375,10.968693590434947
1.6289480228798805,-1.1061211669921875,5.348646508789062,9.380482104492186,10.854721001700032
1.631434966426262,-0.4644751220703125,5.329492895507812,9.318232861328125,10.744705455256826
1.6339219099726436,0.2154781494140625,5.200206005859375,9.279925634765624,10.639811705243236
1.636408853519025,0.7565677246093749,5.03740029296875,9.203311181640624,10.518970155848603
1.6388957970654066,1.2114660400390624,4.76924970703125,9.251195214843749,10.478454353449916
1.641382740611788,1.5705962890624998,4.458003491210937,9.179369165039063,10.324794724300128
1.6438696841581695,1.8818425048828125,4.13718046875,9.13627353515625,10.204366102477241
1.646356627704551,2.068590234375,3.749319799804687,9.169792358398437,10.12035357164469
1.6488435712509326,2.1452046874999997,3.42849677734375,9.13627353515625,9.991395668910572
1.651330514797314,2.0829554443359375,2.9831752685546875,9.208099584960937,9.900865418364338
1.6538174583436955,2.0254946044921875,2.6431986328124997,9.255983618164063,9.836786067870458
1.656304401890077,1.8100164550781248,2.2649147705078123,9.260772021484375,9.704014474392844
1.6587913454364585,1.5658078857421873,1.9393033447265624,9.270348828125,9.599584323971461
1.66127828898284,1.216254443359375,1.618480322265625,9.299079248046874,9.516912749731842
1.6637652325292216,0.8188169677734375,1.37906015625,9.34696328125,9.483564241481455
1.666252176075603,0.45489831542968745,1.2210428466796874,9.404424121093749,9.49426517220887
1.6687391196219845,0.0143652099609375,1.0103531005859374,9.409212524414063,9.463313377285532
1.671226063168366,-0.38307226562499996,0.93852705078125,9.5001921875,9.55412104723272
1.6737130067147474,-0.7757213378906249,0.82360537109375,9.495403784179686,9.562570910898764
1.676199950261129,-1.1348515869140625,0.8906430175781249,9.567229833984374,9.67538215293653
1.6786868938075106,-1.5466542724609373,0.9193734375,9.562441430664062,9.730245272909764
1.681173837353892,-1.85790048828125,0.9816226806640624,9.581595043945311,9.809298695508621
1.6836607809002735,-2.1068974609374997,1.0869675537109373,9.619902270507811,9.907726029107112
1.686147724446655,-2.250549560546875,1.3024457031249999,9.610325463867188,9.95588738664317
1.6886346679930364,-2.403778466796875,1.4508862060546874,9.581595043945311,9.98449724755901
1.6911216115394179,-2.4516625,1.695094775390625,9.643844287109374,10.093945113060352
1.6936085550857995,-2.427720483398437,1.9009961181640624,9.639055883789062,10.120227829332485
1.696095498632181,-2.375048046875,2.1739351074218747,9.586383447265625,10.112645285693278
1.6985824421785625,-2.231395947265625,2.408566870117187,9.586383447265625,10.133068135530715
1.701069385724944,-2.04943662109375,2.6623522460937497,9.572018237304688,10.14454745572488
1.7035563292713254,-1.8243816650390623,2.93050283203125,9.519345800781249,10.125915256564488
1.7060432728177068,-1.4987702392578124,3.1794998046874996,9.543287817382812,10.170047866332782
1.7085302163640885,-1.2689268798828124,3.323151904296875,9.466673364257812,10.11293323378877
1.71101715991047,-0.9002198242187499,3.5577836669921874,9.423577734375,10.112963841962507
1.7135041034568514,-0.5793968017578125,3.6439749267578123,9.418789331054686,10.115722731644851
1.715991047003233,-0.28730419921875,3.825934252929687,9.428366137695312,10.179116102936884
1.7184779905496144,0.0383072265625,3.816357446289062,9.390058911132812,10.136037586552133
1.7209649340959958,0.316034619140625,3.8690298828125,9.361328491210937,10.134285432873357
1.7234518776423775,0.5602431884765625,3.864241479492187,9.323021264648437,10.107668383121267
1.725938821188759,0.7565677246093749,3.806780639648437,9.337386474609374,10.111911774562754
1.7284257647351404,0.9145850341796874,3.77326181640625,9.289502441406249,10.068208685202523
1.7309127082815219,1.0630255371093749,3.67749375,9.284714038085937,10.042902884269358
1.7333996518279033,1.0917559570312498,3.5003228271484375,9.332598071289063,10.027042321851344
1.7358865953742848,1.0869675537109373,3.2800562744140622,9.275137231445312,9.897900701072242
1.7383735389206665,1.0630255371093749,3.1364041748046874,9.303867651367186,9.875677582547727
1.740860482467048,0.9433154541015625,2.9544448486328125,9.279925634765624,9.784457480940882
1.7433474260134294,0.842758984375,2.6767174560546874,9.294290844726563,9.70870235158441
1.7458343695598109,0.622492431640625,2.5713725830078125,9.332598071289063,9.700352599175066
1.7483213131061923,0.4261678955078125,2.346317626953125,9.380482104492186,9.678856853699752
1.7508082566525738,0.1580173095703125,2.1212626708984375,9.390058911132812,9.627976482294487
1.7532952001989555,-3.5577836669921874,8.427589843749999,9.126696728515624,12.922023385286543
1.755782143745337,-2.1164742675781247,7.800309008789062,9.13627353515625,12.198187491062457
1.7582690872917184,-0.7805097412109374,7.086836914062499,9.050082275390624,11.521130243773117
1.7607560308380998,0.33039982910156246,6.291961962890625,9.016563452148437,10.99983481131202
1.7632429743844813,1.3407529296874998,5.444414575195312,8.968679418945312,10.577167815860632
1.765729917930863,2.1643583007812497,4.568136767578125,8.978256225585938,10.303465690423415
1.7682168614772444,2.844311572265625,3.706224169921875,8.973467822265624,10.116784601595203
1.770703805023626,3.265691064453125,2.916137622070312,9.0021982421875,10.010403086337064
1.7731907485700074,3.5625720703124997,2.1404162841796874,9.045293872070312,9.954428303919066
1.7756776921163888,3.744531396484375,1.5275006591796874,9.093177905273437,9.951917305725798
1.7781646356627703,3.6679169433593746,0.9959878906249999,9.184157568359375,9.93953504053923
1.780651579209152,3.5194764404296874,0.49799394531249996,9.188945971679686,9.852483973839078
1.7831385227555334,3.289633081054687,0.181959326171875,9.236830004882812,9.806825354999123
1.7856254663019149,2.959233251953125,-0.033518823242187495,9.289502441406249,9.749514888437746
1.7881124098482963,2.528276953125,-0.0526724365234375,9.380482104492186,9.715369434559372
1.7905993533946778,2.0542250244140625,-0.086191259765625,9.4618849609375,9.682692621280724
1.7930862969410593,1.637633935546875,0.033518823242187495,9.504980590820312,9.645082915674552
1.795573240487441,1.149216796875,0.21068974609375,9.567229833984374,9.638307741072047
1.7980601840338224,0.6847416748046875,0.45489831542968745,9.572018237304688,9.607254382698974
1.8005471275802039,0.258573779296875,0.8188169677734375,9.634267480468749,9.672457366733193
1.8030340711265853,-0.1484405029296875,1.1348515869140625,9.591171850585937,9.659218403923965
1.8055210146729668,-0.45489831542968745,1.5322890624999999,9.600748657226562,9.732893558838272
1.8080079582193482,-0.7613561279296874,1.85790048828125,9.586383447265625,9.794396611119042
1.81049490176573,-1.01514150390625,2.231395947265625,9.576806640625,9.885588782583747
1.8129818453121114,-1.120486376953125,2.6048914062499997,9.586383447265625,9.99698437316479
1.8154687888584928,-1.254561669921875,2.959233251953125,9.586383447265625,10.110872070257372
1.8179557324048743,-1.3311761230468748,3.2417490478515623,9.562441430664062,10.184363155087174
1.8204426759512558,-1.3551181396484375,3.4715924072265625,9.524134204101562,10.227288563057886
1.8229296194976372,-1.3215993164062498,3.6487633300781246,9.485826977539062,10.248951753221212
1.825416563044019,-1.3120225097656248,3.778050219726562,9.457096557617186,10.267995998684576
1.8279035065904004,-1.2832920898437499,3.778050219726562,9.457096557617186,10.264364439687744
1.8303904501367818,-1.1635820068359375,3.864241479492187,9.428366137695312,10.255748306432833
1.8328773936831633,-1.1252747802734375,3.787627026367187,9.418789331054686,10.214007748419625
1.8353643372295447,-1.0869675537109373,3.6535517333984373,9.380482104492186,10.125383115918984
1.8378512807759262,-0.9864110839843749,3.5338416503906247,9.3852705078125,10.076921461510844
1.8403382243223079,-0.93852705078125,3.337517114257812,9.3852705078125,10.005156471431471
1.8428251678686893,-0.8906430175781249,3.2034418212890623,9.351751684570312,9.925247808342526
1.8453121114150708,-0.8858546142578124,2.935291235351562,9.370905297851563,9.859743360515832
1.8477990549614522,-0.8906430175781249,2.806004345703125,9.370905297851563,9.82246259723945
1.8502859985078337,-0.9145850341796874,2.528276953125,9.399635717773437,9.776594589287757
1.8527729420542152,-0.8667010009765624,2.365471240234375,9.423577734375,9.754508810251698
1.8552598856005968,-0.9576806640625,2.1547814941406247,9.380482104492186,9.672315134160396
1.8577468291469783,-0.9864110839843749,1.9919757812499999,9.404424121093749,9.663548384993149
1.8602337726933598,-1.005564697265625,1.9009961181640624,9.481038574218749,9.72188454197465
1.8627207162397412,-1.0630255371093749,1.7525556152343749,9.4618849609375,9.681360518597138
1.8652076597861227,-1.0965443603515623,1.6807295654296874,9.509768994140625,9.719206126440918
1.8676946033325041,-1.1252747802734375,1.675941162109375,9.485826977539062,9.698243941960824
1.8701815468788858,-1.1252747802734375,1.6807295654296874,9.524134204101562,9.73654084061512
1.8726684904252673,-1.0965443603515623,1.6903063720703124,9.490615380859374,9.702129945176205
1.8751554339716487,-1.0726023437499999,1.8243816650390623,9.490615380859374,9.723714545118712
1.8776423775180302,-1.0582371337890624,1.944091748046875,9.476250170898437,9.731324465744974
1.8801293210644117,-0.9720458740234375,2.039859814453125,9.5001921875,9.765221597243082
1.8826162646107931,-0.8906430175781249,2.2074539306640624,9.519345800781249,9.812443238848136
1.8851032081571748,-0.7613561279296874,2.375048046875,9.495403784179686,9.81749506763893
1.8875901517035563,-0.6081272216796875,2.5570073730468748,9.485826977539062,9.843221976130163
1.8900770952499377,-0.4836287353515625,2.7341782958984373,9.485826977539062,9.883852546210292
1.8925640387963192,-0.3591302490234375,2.8203695556640622,9.4618849609375,9.879814066079158
1.8950509823427006,-0.2059013427734375,2.9975404785156248,9.418789331054686,9.886416779909958
1.897537925889082,-0.0430956298828125,3.1507693847656246,9.423577734375,9.936449177905537
1.9000248694354638,0.11013327636718749,3.2561142578125,9.394847314453125,9.94371990053925
1.9025118129818452,0.258573779296875,3.375824340820312,9.399635717773437,9.990805873714939
1.9049987565282267,0.3591302490234375,3.447650390625,9.34696328125,9.969001471199416
1.9074857000746082,0.49320554199218747,3.4668040039062498,9.409212524414063,10.039684359467815
1.9099726436209896,0.5506663818359374,3.4668040039062498,9.356540087890625,9.993338075032236
1.9124595871673713,0.6177040283203125,3.4715924072265625,9.361328491210937,10.00339858392506
1.9149465307137528,0.6655880615234374,3.39018955078125,9.380482104492186,9.996491242959554
1.9174334742601342,0.5985504150390625,3.294421484375,9.313444458007812,9.897056289041274
1.9199204178065157,0.5506663818359374,3.1747114013671873,9.337386474609374,9.87769265174176
1.9224073613528971,0.45010991210937495,3.0550013183593747,9.370905297851563,9.866584925365975
1.9248943048992786,0.32082302246093747,2.877830395507812,9.351751684570312,9.789795440504019
1.9273812484456603,0.15322890625,2.6958710693359373,9.361328491210937,9.742980603519166
1.9298681919920417,-0.009576806640625,2.5713725830078125,9.370905297851563,9.717299767794147
1.9323551355384232,-0.201112939453125,2.4133552734375,9.375693701171874,9.683406552884064
1.9348420790848047,-0.4070142822265625,2.212242333984375,9.399635717773437,9.66503121552389
1.9373290226311861,-0.6081272216796875,2.0829554443359375,9.423577734375,9.670177837901681
1.9398159661775676,-0.8475473876953125,1.9393033447265624,9.452308154296874,9.68634933713646
1.9423029097239493,-1.0486603271484374,1.8243816650390623,9.447519750976562,9.679033339469289
1.9447898532703307,-1.2641384765625,1.7094599853515624,9.481038574218749,9.716501015039714
1.9472767968167122,-1.4508862060546874,1.6472107421875,9.524134204101562,9.773817388811548
1.9497637403630936,-1.608903515625,1.5705962890624998,9.533711010742186,9.79525338427517
1.952250683909475,-1.7429788085937499,1.599326708984375,9.509768994140625,9.799567713485942
1.9547376274558566,-1.848323681640625,1.656787548828125,9.519345800781249,9.837641479994941
1.9572245710022382,-1.9105729248046874,1.6711527587890624,9.5001921875,9.833447617374135
1.9597115145486197,-1.9297265380859374,1.7812860351562498,9.552864624023437,9.907272428663413
1.9621984580950012,-1.89620771484375,1.8531120849609375,9.509768994140625,9.87245331309192
1.9646854016413826,-1.8339584716796873,1.9728221679687499,9.504980590820312,9.879275632056505
1.967172345187764,-1.7669208251953124,2.1164742675781247,9.504980590820312,9.896773643955896
1.9696592887341455,-1.6136919189453125,2.346317626953125,9.5384994140625,9.954505466766845
1.9721462322805272,-1.4604630126953124,2.4564509033203126,9.5384994140625,9.957413033712367
1.9746331758269087,-1.2976572998046874,2.6048914062499997,9.5001921875,9.935946120301152
1.9771201193732901,-1.0295067138671874,2.7916391357421872,9.457096557617186,9.914121667510432
1.9796070629196716,-0.7996633544921875,2.9448680419921875,9.409212524414063,9.89166263046082
1.982094006466053,-0.55545478515625,3.1220389648437497,9.452308154296874,9.97004447132222
1.9845809500124345,-0.277727392578125,3.2704794677734372,9.447519750976562,10.001439791290458
1.9870678935588162,-0.0430956298828125,3.418919970703125,9.452308154296874,10.051716293408546
1.9895548371051976,0.143652099609375,3.4572271972656248,9.414000927734374,10.029779124518095
1.992041780651579,0.316034619140625,3.4620156005859375,9.375693701171874,9.999453098914447
1.9945287241979606,0.5458779785156249,3.5577836669921874,9.380482104492186,10.04735049160936
1.997015667744342,0.679953271484375,3.5338416503906247,9.34696328125,10.015792322251576
1.9995026112907235,0.833182177734375,3.5482068603515624,9.3086560546875,9.996751572866575
2.001989554837105,0.8475473876953125,3.438073583984375,9.342174877929686,9.990741613769263
2.0044764983834864,0.9193734375,3.4332851806640625,9.303867651367186,9.959650994061228
2.006963441929868,0.9002198242187499,3.2513258544921873,9.294290844726563,9.88763661601567
2.0094503854762498,0.852335791015625,3.1459809814453124,9.323021264648437,9.87635550885795
2.011937329022631,0.7517793212890624,2.9927520751953125,9.313444458007812,9.811319218326357
2.0144242725690127,0.6560112548828124,2.85388837890625,9.356540087890625,9.804074258291466
2.016911216115394,0.4740519287109375,2.6719290527343746,9.356540087890625,9.742113349282326
2.0193981596617756,0.33039982910156246,2.50912333984375,9.394847314453125,9.72974922819217
2.021885103208157,0.06703764648437499,2.39420166015625,9.423577734375,9.723194585698128
2.0243720467545385,-0.229843359375,2.1452046874999997,9.342174877929686,9.58806354645928
2.02685899030092,-0.43574470214843747,2.0254946044921875,9.418789331054686,9.643966730607637
2.0293459338473014,-0.6943184814453125,1.9009961181640624,9.433154541015625,9.647811616612083
2.031832877393683,-0.9720458740234375,1.7429788085937499,9.466673364257812,9.674748208297784
2.0343198209400644,-1.1923124267578125,1.695094775390625,9.457096557617186,9.681509723212208
2.036806764486446,-1.39821376953125,1.6472107421875,9.557653027343749,9.798828315955832
2.0392937080328277,-1.608903515625,1.5753846923828123,9.5384994140625,9.800682553968128
2.041780651579209,-1.7812860351562498,1.5418658691406248,9.495403784179686,9.783303292961808
2.0442675951255906,-1.924938134765625,1.618480322265625,9.552864624023437,9.878364636980884
2.046754538671972,-2.0302830078125,1.62805712890625,9.557653027343749,9.905622166117976
2.0492414822183536,-2.0302830078125,1.70467158203125,9.557653027343749,9.918502189619671
2.0517284257647352,-2.1116858642578125,1.8291700683593748,9.504980590820312,9.907054878224857
2.0542153693111165,-2.0446482177734375,1.9393033447265624,9.595960253906249,10.001196777979134
2.056702312857498,-1.924938134765625,2.0925322509765625,9.548076220703125,9.962421269972902
2.0591892564038794,-1.8626888916015625,2.2266075439453124,9.504980590820312,9.938412704930345
2.061676199950261,-1.6519991455078125,2.4516625,9.514557397460937,9.963260142154446
2.0641631434966423,-1.4317325927734375,2.6671406494140624,9.519345800781249,9.989066119303557
2.066650087043024,-1.2497732666015624,2.7964275390625,9.5001921875,9.981762960448176
2.0691370305894057,-0.9911994873046874,2.9496564453125,9.495403784179686,9.9922791491041
2.071623974135787,-0.679953271484375,3.1076737548828124,9.485826977539062,10.005043031691448
2.0741109176821686,-0.49320554199218747,3.1794998046874996,9.452308154296874,9.98491863554465
2.07659786122855,-0.2154781494140625,3.366247534179687,9.433154541015625,10.01810650217542
2.0790848047749315,0.062249243164062495,3.4428619873046875,9.414000927734374,10.024000553635547
2.081571748321313,0.316034619140625,3.5386300537109374,9.414000927734374,10.062067084098837
2.0840586918676944,0.4836287353515625,3.5529952636718747,9.390058911132812,10.051411764119369
2.086545635414076,0.6607996582031249,3.5577836669921874,9.332598071289063,10.009588781245014
2.0890325789604574,0.7948749511718749,3.5625720703124997,9.332598071289063,10.021034512683784
2.091519522506839,0.9241618408203125,3.4859576171874997,9.313444458007812,9.987303103904095
2.0940064660532203,0.9911994873046874,3.423708374023437,9.337386474609374,9.994550596710658
2.096493409599602,0.9911994873046874,3.337517114257812,9.370905297851563,9.996767628233606
2.0989803531459836,0.9816226806640624,3.2513258544921873,9.3086560546875,9.908873823182619
2.101467296692365,0.8954314208984374,3.1076737548828124,9.34696328125,9.89066004760832
2.1039542402387466,0.7709329345703124,2.901772412109375,9.313444458007812,9.785441655524838
2.106441183785128,0.6081272216796875,2.7246014892578123,9.323021264648437,9.732008913585144
2.1089281273315095,0.44053310546874996,2.5617957763671875,9.370905297851563,9.724748486111565
2.111415070877891,0.21068974609375,2.446874096679687,9.380482104492186,9.696650325076657
2.1139020144242724,-0.0143652099609375,2.2170307373046874,9.3852705078125,9.643585129723597
2.116388957970654,-0.28730419921875,2.0733786376953125,9.409212524414063,9.639228340885511
2.1188759015170353,-0.5602431884765625,1.9393033447265624,9.442731347656249,9.656083325920092
2.121362845063417,-0.7852981445312499,1.8100164550781248,9.490615380859374,9.69353563210361
2.1238497886097982,-1.0678139404296874,1.6615759521484375,9.466673364257812,9.670520453506226
2.12633673215618,-1.350329736328125,1.608903515625,9.490615380859374,9.720274750582258
2.1288236757025616,-1.5610194824218748,1.5083470458984374,9.466673364257812,9.712352815920534
2.131310619248943,-1.7094599853515624,1.5227122558593749,9.548076220703125,9.818689605645908
2.1337975627953245,-1.886630908203125,1.5753846923828123,9.490615380859374,9.803723446741342
2.1362845063417057,-1.9488801513671874,1.6328455322265625,9.519345800781249,9.853033180262656
2.1387714498880874,-2.04943662109375,1.68551796875,9.591171850585937,9.951469175671065
2.141258393434469,-2.1068974609374997,1.7956512451171873,9.552864624023437,9.945883712869069
2.1437453369808503,-2.01112939453125,1.9393033447265624,9.5001921875,9.902484057237926
2.146232280527232,-1.9823989746093749,2.020706201171875,9.576806640625,9.986409999489599
2.1487192240736133,-1.8818425048828125,2.1883003173828124,9.572018237304688,9.997675861295708
2.151206167619995,-1.7717092285156248,2.288856787109375,9.5384994140625,9.967988265160365
2.153693111166376,-1.5610194824218748,2.5426421630859375,9.548076220703125,10.003377954988979
2.156180054712758,-1.369483349609375,2.6910826660156246,9.543287817382812,10.009583054533005
2.1586669982591395,-1.120486376953125,2.806004345703125,9.519345800781249,9.987346723924926
2.161153941805521,-0.8906430175781249,2.9927520751953125,9.442731347656249,9.945601302704453
2.1636408853519025,-0.603338818359375,3.1555577880859373,9.466673364257812,9.996972905296753
2.1661278288982837,-0.32561142578124996,3.2609026611328122,9.380482104492186,9.936445716587018
2.1686147724446654,-0.1005564697265625,3.423708374023437,9.423577734375,10.026749620378997
2.171101715991047,0.17238251953125,3.4620156005859375,9.361328491210937,9.982471581331849
2.1735886595374283,0.39743747558593745,3.5194764404296874,9.380482104492186,10.026869674750834
2.17607560308381,0.5458779785156249,3.5529952636718747,9.332598071289063,10.000957197755193
2.178562546630191,0.7517793212890624,3.5338416503906247,9.361328491210937,10.034325093314001
2.181049490176573,0.8714894042968749,3.5625720703124997,9.323021264648437,10.018489858210136
2.1835364337229546,0.967257470703125,3.4715924072265625,9.361328491210937,10.03105238631031
2.186023377269336,0.9576806640625,3.337517114257812,9.3086560546875,9.935152252821958
2.1885103208157175,0.9911994873046874,3.284844677734375,9.337386474609374,9.947837310525891
2.1909972643620987,0.9097966308593749,3.1794998046874996,9.323021264648437,9.892202708124104
2.1934842079084804,0.86191259765625,3.0023288818359375,9.356540087890625,9.864163140226802
2.1959711514548617,0.7900865478515624,2.839523168945312,9.351751684570312,9.805222493647806
2.1984580950012433,0.5363011718749999,2.6958710693359373,9.370905297851563,9.765715840159361
2.200945038547625,0.3591302490234375,2.4899697265625,9.3852705078125,9.716595405787794
2.2034319820940063,0.0909796630859375,2.29843359375,9.399635717773437,9.676994673493208
2.205918925640388,-0.1149216796875,2.1883003173828124,9.390058911132812,9.6423581983903
2.208405869186769,-0.37828386230468747,1.9823989746093749,9.418789331054686,9.632579967890328
2.210892812733151,-0.6416460449218749,1.8818425048828125,9.471461767578125,9.677893824321574
2.2133797562795325,-0.9528922607421875,1.7286135986328124,9.418789331054686,9.62339342938603
2.2158666998259138,-1.177947216796875,1.656787548828125,9.476250170898437,9.691843061511266
2.2183536433722955,-1.37906015625,1.6232687255859375,9.495403784179686,9.731366876992952
2.2208405869186767,-1.5945383056640625,1.6041151123046875,9.562441430664062,9.826292475630616
2.2233275304650584,-1.7764976318359373,1.5658078857421873,9.528922607421874,9.818760829616272
2.2258144740114396,-1.9632453613281249,1.5275006591796874,9.509768994140625,9.829714997622727
2.2283014175578213,-2.020706201171875,1.6136919189453125,9.528922607421874,9.873581985224996
2.230788361104203,-2.0638018310546875,1.70467158203125,9.533711010742186,9.902364810326693
2.233275304650584,-2.0877438476562498,1.7908628417968748,9.576806640625,9.963989638868277
2.235762248196966,-2.0254946044921875,1.93451494140625,9.572018237304688,9.973390074926606
2.238249191743347,-1.9632453613281249,2.0781670410156248,9.5384994140625,9.957714681151026
2.240736135289729,-1.8052280517578123,2.2601263671875,9.5384994140625,9.967446542950714
2.2432230788361105,-1.6424223388671875,2.418143676757812,9.509768994140625,9.948903271344644
2.2457100223824917,-1.4891934326171874,2.5426421630859375,9.485826977539062,9.932957248325414
2.2481969659288734,-1.2641384765625,2.729389892578125,9.471461767578125,9.93761557358341
2.2506839094752547,-1.0342951171875,2.940079638671875,9.437942944335937,9.939245529300065
2.2531708530216363,-0.7805097412109374,3.0741549316406247,9.414000927734374,9.933933635133627
2.2556577965680176,-0.488417138671875,3.1938650146484373,9.442731347656249,9.980205425598898
2.2581447401143993,-0.2442085693359375,3.327940307617187,9.428366137695312,10.001445522665206
2.260631683660781,0.023942016601562498,3.399766357421875,9.390058911132812,9.986600565746148
2.263118627207162,0.2537853759765625,3.5051112304687497,9.361328491210937,9.999234114439734
2.265605570753544,0.45010991210937495,3.5577836669921874,9.342174877929686,10.006830417465665
2.268092514299925,0.6943184814453125,3.6296097167968746,9.361328491210937,10.064323920179659
2.2705794578463068,0.8188169677734375,3.5577836669921874,9.323021264648437,10.012342950025085
2.2730664013926885,0.9097966308593749,3.4907460205078125,9.299079248046874,9.974262506605198
2.2755533449390697,1.01514150390625,3.4572271972656248,9.337386474609374,10.008482319646882
2.2780402884854514,1.0103531005859374,3.327940307617187,9.279925634765624,9.910248224222588
2.2805272320318326,1.005564697265625,3.2417490478515623,9.323021264648437,9.921634076638805
2.2830141755782143,0.9097966308593749,3.0933085449218747,9.34696328125,9.887467332165782
2.2855011191245955,0.8092401611328125,2.93050283203125,9.327809667968749,9.81074664277825
2.287988062670977,0.6703764648437499,2.7341782958984373,9.337386474609374,9.752534118607151
2.290475006217359,0.430956298828125,2.5378537597656248,9.318232861328125,9.667258592558259
2.29296194976374,-3.6008792968749996,8.920795385742187,9.107543115234375,13.247424792041476
2.295448893310122,-2.0638018310546875,8.33182177734375,9.088389501953124,12.501094186770052
2.297935836856503,-0.7326257080078125,7.589619262695312,8.978256225585938,11.779140284120158
2.3004227804028847,0.49320554199218747,6.7803791015625,8.9255837890625,11.219752156047504
2.3029097239492664,1.5514426757812498,5.913678100585937,8.935160595703124,10.826618028017371
2.3053966674956476,2.437297290039062,5.003881469726562,8.939948999023438,10.530998810570855
2.3078836110420293,3.1076737548828124,4.074931225585937,8.949525805664061,10.312939096411348
2.3103705545884106,3.5338416503906247,3.1747114013671873,8.954314208984375,10.136398386272406
2.3128574981347922,3.763685009765625,2.346317626953125,8.968679418945312,10.005385638699721
2.315344441681174,3.897760302734375,1.637633935546875,9.030928662109375,9.971562203814171
2.317831385227555,3.878606689453125,1.0103531005859374,9.13627353515625,9.97676788085854
2.320318328773937,3.7158009765625,0.45968671875,9.160215551757812,9.895859625696175
2.322805272320318,3.39018955078125,0.0526724365234375,9.251195214843749,9.852957549839722
2.3252922158666998,2.9544448486328125,-0.239420166015625,9.3086560546875,9.76919361687433
2.327779159413081,2.4756045166015626,-0.43574470214843747,9.34696328125,9.679060581952376
2.3302661029594627,1.9393033447265624,-0.5027823486328125,9.3852705078125,9.59671767104667
2.3327530465058444,1.43652099609375,-0.4213794921875,9.476250170898437,9.593772487927104
2.3352399900522256,0.8810662109374999,-0.201112939453125,9.552864624023437,9.59551700573709
2.3377269335986073,0.3447650390625,-0.009576806640625,9.562441430664062,9.568659298055593
2.3402138771449885,-0.105344873046875,0.3016694091796875,9.610325463867188,9.615636094204385
2.34270082069137,-0.5267243652343749,0.6943184814453125,9.629479077148437,9.66883571107957
2.345187764237752,-0.852335791015625,1.13006318359375,9.639055883789062,9.742428723391761
2.347674707784133,-1.177947216796875,1.5035586425781249,9.600748657226562,9.788903054809998
2.350161651330515,-1.3838485595703125,1.944091748046875,9.600748657226562,9.892871390040732
2.352648594876896,-1.5514426757812498,2.39420166015625,9.6151138671875,10.029436207719336
2.3551355384232777,-1.5897499023437498,2.839523168945312,9.567229833984374,10.10554715368049
2.357622481969659,-1.5945383056640625,3.1699229980468746,9.576806640625,10.213040176837433
2.3601094255160406,-1.5418658691406248,3.4332851806640625,9.528922607421874,10.245250780162676
2.3625963690624223,-1.4987702392578124,3.6918589599609373,9.490615380859374,10.293100364697379
2.3650833126088036,-1.35990654296875,3.9169139160156248,9.437942944335937,10.30855603135699
2.3675702561551852,-1.2306196533203124,4.012681982421875,9.414000927734374,10.307252538410758
2.3700571997015665,-1.0869675537109373,4.146757275390625,9.409212524414063,10.339747322513054
2.372544143247948,-0.9193734375,4.108450048828125,9.370905297851563,10.273192075620843
2.37503108679433,-0.737414111328125,4.07971962890625,9.380482104492186,10.255795256086529
2.377518030340711,-0.6177040283203125,3.9600095458984375,9.34696328125,10.17000277538043
2.3800049738870928,-0.4836287353515625,3.801992236328125,9.327809667968749,10.084496760900285
2.382491917433474,-0.411802685546875,3.6152445068359373,9.332598071289063,10.016833883830728
2.3849788609798557,-0.3687070556640625,3.414131567382812,9.323021264648437,9.935339186629877
2.387465804526237,-0.32561142578124996,3.1268273681640624,9.375693701171874,9.888716022269678
2.3899527480726186,-0.33039982910156246,2.89219560546875,9.356540087890625,9.798918403766173
2.3924396916190003,-0.38786066894531246,2.6527754394531247,9.351751684570312,9.728458922180023
2.3949266351653815,-0.4261678955078125,2.384624853515625,9.414000927734374,9.72067221104331
2.397413578711763,-0.507570751953125,2.1547814941406247,9.399635717773437,9.656803973498237
2.3999005222581444,-0.603338818359375,1.9728221679687499,9.414000927734374,9.637398949070846
2.402387465804526,-0.699106884765625,1.7956512451171873,9.428366137695312,9.623263576191665
2.404874409350908,-0.8188169677734375,1.6615759521484375,9.437942944335937,9.618007220417969
2.407361352897289,-0.967257470703125,1.5370774658203123,9.481038574218749,9.653408030140831
2.4098482964436707,-1.0821791503906248,1.4700398193359374,9.466673364257812,9.641059763818587
2.412335239990052,-1.13006318359375,1.4508862060546874,9.509768994140625,9.685959937133346
2.4148221835364336,-1.235408056640625,1.4939818359375,9.514557397460937,9.710047232743124
2.417309127082815,-1.235408056640625,1.6041151123046875,9.509768994140625,9.722917498459774
2.4197960706291965,-1.3024457031249999,1.70467158203125,9.490615380859374,9.730059111823433
2.4222830141755782,-1.235408056640625,1.8339584716796873,9.552864624023437,9.805450487722464
2.4247699577219595,-1.2114660400390624,1.9393033447265624,9.509768994140625,9.78081048538177
2.427256901268341,-1.1109095703125,2.1164742675781247,9.552864624023437,9.847375585588818
2.4297438448147224,-1.0103531005859374,2.31758720703125,9.533711010742186,9.863248424652262
2.432230788361104,-0.8810662109374999,2.5857377929687497,9.466673364257812,9.852929624613736
2.4347177319074857,-0.74699091796875,2.7341782958984373,9.519345800781249,9.932354749007985
2.437204675453867,-0.5889736083984375,2.91134921875,9.519345800781249,9.972000233642081
2.4396916190002487,-0.4165910888671875,3.1316157714843746,9.476250170898437,9.988988075725484
2.44217856254663,-0.258573779296875,3.23696064453125,9.466673364257812,10.008130654579423
2.4446655060930116,-0.076614453125,3.361459130859375,9.351751684570312,9.937833608625633
2.4471524496393933,0.09576806640624999,3.423708374023437,9.356540087890625,9.963723850509192
2.4496393931857745,0.3016694091796875,3.5338416503906247,9.370905297851563,10.019626107982914
2.452126336732156,0.39743747558593745,3.5817256835937497,9.399635717773437,10.066770437750003
2.4546132802785374,0.5363011718749999,3.5960908935546874,9.380482104492186,10.06046386477083
2.457100223824919,0.6081272216796875,3.5003228271484375,9.356540087890625,10.008342571490475
2.4595871673713003,0.6416460449218749,3.42849677734375,9.332598071289063,9.963116307634309
2.462074110917682,0.699106884765625,3.4332851806640625,9.303867651367186,9.941737818020094
2.4645610544640637,0.6272808349609375,3.246537451171875,9.289502441406249,9.860443310351899
2.467047998010445,0.5602431884765625,3.1172505615234374,9.299079248046874,9.823644860997806
2.4695349415568266,0.45489831542968745,2.9496564453125,9.3086560546875,9.775401944023816
2.472021885103208,0.28730419921875,2.7533319091796873,9.289502441406249,9.693205657257481
2.4745088286495895,0.16759411621093748,2.6096798095703124,9.3852705078125,9.742782918708729
2.4769957721959712,-0.076614453125,2.446874096679687,9.332598071289063,9.648339203181965
2.4794827157423525,-0.239420166015625,2.2457611572265623,9.351751684570312,9.620604178588069
2.481969659288734,-0.45489831542968745,2.0925322509765625,9.447519750976562,9.687169511464639
2.4844566028351154,-0.6847416748046875,1.93451494140625,9.404424121093749,9.62571619512794
2.486943546381497,-0.928950244140625,1.7525556152343749,9.414000927734374,9.620697126921838
2.4894304899278783,-1.1252747802734375,1.6903063720703124,9.481038574218749,9.69605442478562
2.49191743347426,-1.3407529296874998,1.6472107421875,9.476250170898437,9.711345887625267
2.4944043770206417,-1.5370774658203123,1.608903515625,9.5001921875,9.757296206324737
2.496891320567023,-1.6519991455078125,1.5658078857421873,9.428366137695312,9.69922386267327
2.4993782641134046,-1.7621324218749999,1.5753846923828123,9.495403784179686,9.785174532211014
2.501865207659786,-1.867477294921875,1.5897499023437498,9.552864624023437,9.862656778169315
2.5043521512061675,-1.924938134765625,1.7094599853515624,9.552864624023437,9.893677920223176
2.506839094752549,-1.9584569580078124,1.7717092285156248,9.552864624023437,9.91119214684566
2.5093260382989304,-1.905784521484375,1.9201497314453124,9.543287817382812,9.919341308721368
2.511812981845312,-1.8004396484374998,2.039859814453125,9.543287817382812,9.923555479549337
2.5142999253916933,-1.675941162109375,2.2553379638671873,9.572018237304688,9.975914055634535
2.516786868938075,-1.5466542724609373,2.365471240234375,9.524134204101562,9.934622587931306
2.5192738124844563,-1.3551181396484375,2.6288334228515624,9.519345800781249,9.968202185567732
2.521760756030838,-1.13006318359375,2.7581203125,9.495403784179686,9.952234095003647
2.5242476995772196,-0.8906430175781249,2.9544448486328125,9.548076220703125,10.034328520869252
2.526734643123601,-0.6512228515624999,3.0933085449218747,9.466673364257812,9.98050868152682
2.5292215866699825,-0.4070142822265625,3.265691064453125,9.442731347656249,9.999778700471095
2.5317085302163638,-0.21068974609375,3.356670727539062,9.433154541015625,10.014790718577716
2.5341954737627455,0.0526724365234375,3.4811692138671875,9.418789331054686,10.04165852555919
2.536682417309127,0.2920926025390625,3.5098996337890624,9.356540087890625,9.997477479046148
2.5391693608555084,0.49320554199218747,3.5769372802734374,9.356540087890625,10.029086420505411
2.54165630440189,0.612915625,3.5769372802734374,9.351751684570312,10.031221532806597
2.5441432479482713,0.7900865478515624,3.5577836669921874,9.3086560546875,9.99665638694672
2.546630191494653,0.8906430175781249,3.5625720703124997,9.313444458007812,10.011264276470168
2.549117135041034,0.9145850341796874,3.418919970703125,9.337386474609374,9.985602922559869
2.551604078587416,0.9720458740234375,3.342305517578125,9.318232861328125,9.947127374874341
2.5540910221337976,0.9097966308593749,3.1747114013671873,9.265560424804686,9.836520338880039
2.556577965680179,0.8379705810546875,3.1172505615234374,9.3852705078125,9.924855075155829
2.5590649092265605,0.7038952880859375,2.882618798828125,9.294290844726563,9.75647487683512
2.5615518527729417,0.603338818359375,2.7246014892578123,9.337386474609374,9.745473676595882
2.5640387963193234,0.38786066894531246,2.5713725830078125,9.3852705078125,9.738875467114983
2.566525739865705,0.1197100830078125,2.360682836914062,9.342174877929686,9.636565021328654
2.5690126834120863,-0.0909796630859375,2.2457611572265623,9.337386474609374,9.604088017642326
2.571499626958468,-0.3399766357421875,2.0733786376953125,9.423577734375,9.654962475530917
2.5739865705048492,-0.6081272216796875,1.915361328125,9.423577734375,9.63546807637454
2.576473514051231,-0.8379705810546875,1.8435352783203125,9.452308154296874,9.66679608044526
2.5789604575976126,-1.0869675537109373,1.6519991455078125,9.452308154296874,9.656952370358159
2.581447401143994,-1.3168109130859373,1.656787548828125,9.452308154296874,9.686333950807256
2.5839343446903755,-1.5418658691406248,1.5658078857421873,9.524134204101562,9.774366323768028
2.5864212882367568,-1.7525556152343749,1.5658078857421873,9.519345800781249,9.805159355889815
2.5889082317831384,-1.848323681640625,1.5849614990234373,9.543287817382812,9.84899719519238
2.5913951753295197,-5.84185205078125,8.12113203125,9.327809667968749,13.678013527338797
2.5938821188759014,-4.1754876953124995,7.805097412109374,9.188945971679686,12.758956508142463
2.596369062422283,-2.6192566162109374,7.359775903320312,9.131485131835937,12.017105611652077
2.5988560059686643,-1.120486376953125,6.756437084960937,9.083601098632812,11.376147885952266
2.601342949515046,0.3064578125,6.2009822998046875,9.006986645507812,10.939465540221304
2.603829893061427,1.5658078857421873,5.5449710449218745,9.0021982421875,10.688219281794238
2.606316836607809,2.6336218261718747,4.903325,8.997409838867187,10.579789401848126
2.6088037801541906,3.4620156005859375,4.180276098632812,8.973467822265624,10.487296364494412
2.611290723700572,4.218583325195312,3.5865140869140624,8.992621435546875,10.560623506701964
2.6137776672469535,4.7117888671875,3.0023288818359375,8.98304462890625,10.578753416569445
2.6162646107933347,5.042188696289062,2.4516625,8.992621435546875,10.597242855853997
2.6187515543397164,5.166687182617188,1.9919757812499999,9.069235888671875,10.626084112243852
2.6212384978860976,5.1140147460937495,1.618480322265625,9.093177905273437,10.5573912399692
2.6237254414324793,4.975151049804687,1.3263877197265623,9.150638745117186,10.49979151198032
2.626212384978861,4.668693237304687,1.0582371337890624,9.208099584960937,10.378133760071817
2.6286993285252422,4.271255761718749,0.9002198242187499,9.2320416015625,10.21198382523752
2.631186272071624,3.787627026367187,0.842758984375,9.318232861328125,10.093850843684349
2.633673215618005,3.227383837890625,0.8762778076171874,9.351751684570312,9.931723355141527
2.636160159164387,2.6384102294921874,0.9050082275390624,9.390058911132812,9.795583432626518
2.6386471027107685,2.01112939453125,0.948103857421875,9.509768994140625,9.76623001408037
2.6411340462571498,1.3263877197265623,1.0534487304687499,9.476250170898437,9.62644149788593
2.6436209898035314,0.7613561279296874,1.2306196533203124,9.514557397460937,9.62397476899503
2.6461079333499127,0.15322890625,1.3742717529296875,9.5384994140625,9.638209015199953
2.6485948768962944,-0.43574470214843747,1.5514426757812498,9.514557397460937,9.650059600399594
2.6510818204426756,-0.9864110839843749,1.6903063720703124,9.524134204101562,9.723130915286806
2.6535687639890573,-1.4796166259765624,1.886630908203125,9.543287817382812,9.839867067651921
2.656055707535439,-1.905784521484375,2.0254946044921875,9.5384994140625,9.93567381244106
2.65854265108182,-2.231395947265625,2.1787235107421874,9.581595043945311,10.076354876436795
2.661029594628202,-2.5617957763671875,2.269703173828125,9.572018237304688,10.165524247789278
2.663516538174583,-2.806004345703125,2.389413256835937,9.557653027343749,10.243616914505408
2.666003481720965,-2.916137622070312,2.446874096679687,9.548076220703125,10.278949897349067
2.6684904252673465,-3.0406361083984375,2.5761609863281247,9.576806640625,10.372911780358232
2.6709773688137277,-3.0980969482421874,2.5905261962890624,9.562441430664062,10.38023683685724
2.6734643123601094,-3.0550013183593747,2.6623522460937497,9.519345800781249,10.345970085608673
2.6759512559064906,-2.9640216552734375,2.6431986328124997,9.5384994140625,10.332226016570797
2.6784381994528723,-2.896984008789062,2.6575638427734374,9.504980590820312,10.285903847376131
2.6809251429992536,-2.6910826660156246,2.6575638427734374,9.466673364257812,10.19423739567089
2.6834120865456352,-2.5474305664062498,2.6479870361328124,9.495403784179686,10.181548549155094
2.685899030092017,-2.29843359375,2.70065947265625,9.490615380859374,10.131541781956534
2.688385973638398,-2.0542250244140625,2.6767174560546874,9.437942944335937,10.022944867204316
2.69087291718478,-1.7477672119140624,2.6910826660156246,9.409212524414063,9.94132267215797
2.693359860731161,-1.484405029296875,2.767697119140625,9.428366137695312,9.937690559719636
2.6958468042775428,-1.1731588134765625,2.73896669921875,9.394847314453125,9.85603349441113
2.6983337478239244,-0.8906430175781249,2.806004345703125,9.380482104492186,9.831599558849193
2.7008206913703057,-0.5363011718749999,2.8107927490234372,9.394847314453125,9.820963847138646
2.7033076349166874,-0.3064578125,2.863465185546875,9.428366137695312,9.858368895822517
2.7057945784630686,-0.0143652099609375,2.916137622070312,9.399635717773437,9.84160640428956
2.7082815220094503,0.229843359375,2.9735984619140625,9.404424121093749,9.866017881189777
2.7107684655558315,0.49799394531249996,3.0406361083984375,9.375693701171874,9.868996822953093
2.713255409102213,0.6751648681640625,3.0310593017578125,9.361328491210937,9.86294272569466
2.715742352648595,0.8571241943359375,3.1172505615234374,9.3852705078125,9.926490590971682
2.718229296194976,1.024718310546875,3.1364041748046874,9.351751684570312,9.916770559691596
2.720716239741358,1.0773907470703123,3.1124621582031247,9.313444458007812,9.878686105981686
2.723203183287739,1.16837041015625,3.1316157714843746,9.332598071289063,9.913097069824682
2.7256901268341207,1.177947216796875,3.0933085449218747,9.337386474609374,9.906710027848007
2.7281770703805024,1.1731588134765625,3.0693665283203124,9.332598071289063,9.894175015989921
2.7306640139268836,1.1013327636718748,3.0502129150390624,9.366116894531249,9.911653664521976
2.7331509574732653,1.005564697265625,2.96881005859375,9.342174877929686,9.853995381276311
2.7356379010196465,0.8810662109374999,2.863465185546875,9.332598071289063,9.801688492148845
2.7381248445660282,0.737414111328125,2.7581203125,9.337386474609374,9.764107404470161
2.74061178811241,0.5506663818359374,2.7198130859375,9.337386474609374,9.741016521017672
2.743098731658791,0.2825157958984375,2.5905261962890624,9.323021264648437,9.680359840919083
2.745585675205173,0.062249243164062495,2.47081611328125,9.414000927734374,9.733047862890043
2.748072618751554,-0.19632453613281248,2.3319524169921872,9.418789331054686,9.705160372780712
2.7505595622979357,-0.44053310546874996,2.2026655273437497,9.447519750976562,9.710892558743234
2.753046505844317,-0.6943184814453125,2.0446482177734375,9.418789331054686,9.663139083698951
2.7555334493906987,-0.9337386474609375,2.0302830078125,9.471461767578125,9.731521205251957
2.7580203929370803,-1.177947216796875,1.8914193115234375,9.495403784179686,9.753344025624093
2.7605073364834616,-1.4125789794921875,1.85790048828125,9.504980590820312,9.787330056227272
2.7629942800298433,-1.599326708984375,1.7764976318359373,9.528922607421874,9.824161837847806
2.7654812235762245,-1.7812860351562498,1.7573440185546874,9.528922607421874,9.85198477449231
2.767968167122606,-1.924938134765625,1.7621324218749999,9.533711010742186,9.884439444462433
2.770455110668988,-2.0350714111328125,1.7621324218749999,9.509768994140625,9.883437288845998
2.772942054215369,-2.0829554443359375,1.7860744384765623,9.552864624023437,9.939114035354788
2.775428997761751,-2.0925322509765625,1.838746875,9.524134204101562,9.923145349607482
2.777915941308132,-2.059013427734375,1.9823989746093749,9.6151138671875,10.030944953946468
2.7804028848545137,-2.0350714111328125,2.0159177978515626,9.509768994140625,9.931824934926269
2.782889828400895,-1.9297265380859374,2.1164742675781247,9.514557397460937,9.936302647700106
2.7853767719472766,-1.7812860351562498,2.2457611572265623,9.524134204101562,9.946132688240569
2.7878637154936583,-1.5897499023437498,2.446874096679687,9.5384994140625,9.974841786668831
2.7903506590400395,-1.426944189453125,2.5378537597656248,9.514557397460937,9.950058989541178
2.792837602586421,-1.177947216796875,2.729389892578125,9.485826977539062,9.940726446245012
2.7953245461328025,-0.9624690673828125,2.882618798828125,9.471461767578125,9.947081273404786
2.797811489679184,-0.679953271484375,3.0166940917968748,9.4618849609375,9.954398359966298
2.800298433225566,-0.4165910888671875,3.1603461914062496,9.433154541015625,9.957195427405413
2.802785376771947,-0.17238251953125,3.2609026611328122,9.414000927734374,9.964266925660244
2.8052723203183287,0.047884033203124995,3.35188232421875,9.380482104492186,9.96146839119334
2.80775926386471,0.3399766357421875,3.418919970703125,9.34696328125,9.958429618165658
2.8102462074110917,0.49799394531249996,3.4859576171874997,9.351751684570312,9.992755278113195
2.812733150957473,0.6512228515624999,3.4572271972656248,9.356540087890625,9.996066902147795
2.8152200945038546,0.8667010009765624,3.5290532470703124,9.342174877929686,10.024052019795779
2.8177070380502363,0.9337386474609375,3.447650390625,9.351751684570312,10.010665344901035
2.8201939815966175,1.0199299072265624,3.399766357421875,9.337386474609374,9.989266963943393
2.822680925142999,0.9959878906249999,3.3327287109375,9.3086560546875,9.937311008690884
2.8251678686893804,0.967257470703125,3.2130186279296873,9.284714038085937,9.872435894301073
2.827654812235762,0.9097966308593749,3.0789433349609374,9.332598071289063,9.869397586968102
2.8301417557821438,0.8044517578125,2.9448680419921875,9.351751684570312,9.837410735821605
2.832628699328525,-3.892971899414062,9.437942944335937,9.165003955078124,13.719595282907061
2.8351156428749067,-2.327164013671875,8.94473740234375,9.050082275390624,12.935532796709849
2.837602586421288,-0.9097966308593749,8.2743609375,9.006986645507812,12.264525562201948
2.8400895299676696,0.4165910888671875,7.41244833984375,8.911218579101561,11.598610049945673
2.842576473514051,1.5227122558593749,6.555324145507812,8.911218579101561,11.166948725204522
2.8450634170604325,2.5378537597656248,5.592855078125,8.896853369140624,10.810861644792888
2.847550360606814,3.246537451171875,4.69263525390625,8.834604125976561,10.51717933244401
2.8500373041531954,3.768473413085937,3.706224169921875,8.877699755859375,10.332039605907164
2.852524247699577,4.127603662109375,2.887407202148437,8.968679418945312,10.286468920980154
2.8550111912459584,4.1754876953124995,1.9728221679687499,9.026140258789061,10.138931539933962
2.85749813479234,4.161122485351562,1.2306196533203124,9.054870678710937,10.040918686923805
2.8599850783387217,3.9504327392578125,0.5985504150390625,9.107543115234375,9.945427241833126
2.862472021885103,3.5769372802734374,0.1580173095703125,9.184157568359375,9.857393165415822
2.8649589654314846,3.1459809814453124,-0.296881005859375,9.284714038085937,9.807713772143117
2.867445908977866,2.5809493896484375,-0.565031591796875,9.337386474609374,9.70398612055238
2.8699328525242476,2.04943662109375,-0.6751648681640625,9.390058911132812,9.634793428902764
2.8724197960706292,1.426944189453125,-0.6847416748046875,9.481038574218749,9.612238726064405
2.8749067396170105,0.82360537109375,-0.5698199951171875,9.557653027343749,9.609981895155835
2.877393683163392,0.22505495605468748,-0.4165910888671875,9.581595043945311,9.593287312216063
2.8798806267097734,-0.32561142578124996,-0.1292868896484375,9.619902270507811,9.62627953025236
2.882367570256155,-0.8092401611328125,0.2442085693359375,9.658209497070311,9.695128578467978
2.8848545138025363,-1.2401964599609374,0.6416460449218749,9.686939916992188,9.787062984454536
2.887341457348918,-1.5322890624999999,1.0582371337890624,9.672574707031249,9.850201879428049
2.8898284008952997,-1.8148048583984373,1.5658078857421873,9.677363110351562,9.969785743871943
2.892315344441681,-1.9919757812499999,2.020706201171875,9.624690673828125,10.034235976466524
2.8948022879880626,-2.0733786376953125,2.4899697265625,9.629479077148437,10.16000568462875
2.897289231534444,-2.0973206542968748,2.901772412109375,9.567229833984374,10.215229990308588
2.8997761750808255,-1.9728221679687499,3.2800562744140622,9.591171850585937,10.326731038292033
2.902263118627207,-1.8339584716796873,3.6391865234374996,9.552864624023437,10.38577415280793
2.9047500621735884,-1.66636435546875,3.921702319335937,9.509768994140625,10.420759356619845
2.90723700571997,-1.4317325927734375,4.1563340820312495,9.5001921875,10.467980837683088
2.9097239492663514,-1.2114660400390624,4.295197778320312,9.423577734375,10.426897488556408
2.912210892812733,-0.9720458740234375,4.3430818115234375,9.390058911132812,10.391363681314228
2.9146978363591143,-0.70868369140625,4.347870214843749,9.332598071289063,10.320057884518814
2.917184779905496,-0.5267243652343749,4.299986181640625,9.318232861328125,10.276029553147811
2.9196717234518776,-0.2920926025390625,4.161122485351562,9.327809667968749,10.218037562487606
2.922158666998259,-0.12449848632812499,3.9887399658203124,9.265560424804686,10.088416940914815
2.9246456105446406,0.028730419921875,3.801992236328125,9.265560424804686,10.015317288425516
2.927132554091022,0.105344873046875,3.5721488769531247,9.289502441406249,9.953200527985327
2.9296194976374035,0.143652099609375,3.323151904296875,9.303867651367186,9.880583372398155
2.932106441183785,0.1149216796875,3.0119056884765625,9.318232861328125,9.793581904833134
2.9345933847301664,0.076614453125,2.748543505859375,9.3086560546875,9.70625770946247
2.937080328276548,-0.009576806640625,2.4756045166015626,9.3086560546875,9.632226481053783
2.9395672718229293,-0.09576806640624999,2.212242333984375,9.351751684570312,9.610330235568364
2.942054215369311,-0.2537853759765625,1.9919757812499999,9.351751684570312,9.564916837067104
2.9445411589156922,-0.411802685546875,1.7812860351562498,9.390058911132812,9.566387392606
2.947028102462074,-0.5889736083984375,1.5801730957031248,9.370905297851563,9.521433874426496
2.9495150460084556,-0.737414111328125,1.4413093994140624,9.437942944335937,9.575798628676653
2.952001989554837,-0.9816226806640624,1.3646949462890625,9.418789331054686,9.567631255771232
2.9544889331012185,-1.13006318359375,1.2976572998046874,9.428366137695312,9.584103781423178
2.9569758766475998,-1.2401964599609374,1.3359645263671873,9.495403784179686,9.668794211256388
2.9594628201939814,-1.3646949462890625,1.39821376953125,9.509768994140625,9.708403595012523
2.961949763740363,-1.4125789794921875,1.4221557861328125,9.528922607421874,9.737467458819564
2.9644367072867444,-1.4796166259765624,1.5705962890624998,9.552864624023437,9.793531568744832
2.966923650833126,-1.4939818359375,1.7429788085937499,9.543287817382812,9.815513191816578
2.9694105943795073,-1.426944189453125,1.9201497314453124,9.543287817382812,9.838571394079057
2.971897537925889,-1.3742717529296875,2.1212626708984375,9.557653027343749,9.88620804762578
2.97438448147227,-1.2976572998046874,2.3319524169921872,9.514557397460937,9.881736639499696
2.976871425018652,-1.16837041015625,2.5330653564453125,9.481038574218749,9.8828944121232
2.9793583685650336,-1.01514150390625,2.7341782958984373,9.485826977539062,9.924069562156594
2.981845312111415,-0.7996633544921875,2.940079638671875,9.504980590820312,9.981391976779665
2.9843322556577965,-0.6368576416015624,3.0980969482421874,9.447519750976562,9.962902278024517
2.9868191992041777,-0.37828386230468747,3.284844677734375,9.466673364257812,10.027522516697148
2.9893061427505594,-0.1771709228515625,3.447650390625,9.423577734375,10.03601016677888
2.991793086296941,0.01915361328125,3.5290532470703124,9.375693701171874,10.017894791808965
2.9942800298433223,0.1867477294921875,3.5960908935546874,9.380482104492186,10.047894751731608
2.996766973389704,0.39264907226562495,3.6296097167968746,9.332598071289063,10.021258740819222
2.9992539169360852,0.5363011718749999,3.6583401367187496,9.356540087890625,10.060612005200586
3.001740860482467,0.6081272216796875,3.6631285400390623,9.332598071289063,10.044188179182273
3.0042278040288486,0.70868369140625,3.5817256835937497,9.284714038085937,9.976818441567952
3.00671474757523,0.689530078125,3.42849677734375,9.299079248046874,9.934934158933896
3.0092016911216115,0.7230489013671875,3.356670727539062,9.289502441406249,9.903781787568755
3.0116886346679927,0.6512228515624999,3.1507693847656246,9.327809667968749,9.86709035735585
3.0141755782143744,0.603338818359375,2.9927520751953125,9.332598071289063,9.819265220654419
3.0166625217607557,0.45010991210937495,2.7964275390625,9.318232861328125,9.739202717478552
3.0191494653071373,0.3016694091796875,2.6719290527343746,9.337386474609374,9.716840817441588
3.021636408853519,0.1388636962890625,2.5043349365234375,9.351751684570312,9.682264000237886
3.0241233523999003,-0.1005564697265625,2.3032219970703123,9.375693701171874,9.654976724445605
3.026610295946282,-0.3016694091796875,2.1452046874999997,9.361328491210937,9.608713686236282
3.029097239492663,-0.5506663818359374,1.9680337646484374,9.423577734375,9.64262452233254
3.031584183039045,-0.7900865478515624,1.8291700683593748,9.476250170898437,9.683461013167271
3.0340711265854265,-1.024718310546875,1.6998831787109374,9.437942944335937,9.644398242387906
3.036558070131808,-1.254561669921875,1.6519991455078125,9.447519750976562,9.672572336534266
3.0390450136781895,-1.4221557861328125,1.5849614990234373,9.447519750976562,9.684537132899534
3.0415319572245707,-1.599326708984375,1.5753846923828123,9.504980590820312,9.766490612442922
3.0440189007709524,-1.7669208251953124,1.5801730957031248,9.548076220703125,9.837922327973999
3.0465058443173336,-1.8770541015625,1.62805712890625,9.528922607421874,9.847551379577096
3.0489927878637153,-1.915361328125,1.637633935546875,9.567229833984374,9.893550455747027
3.051479731410097,-2.001552587890625,1.7286135986328124,9.548076220703125,9.9075767598251
3.0539666749564782,-1.9393033447265624,1.905784521484375,9.514557397460937,9.895439079433297
3.05645361850286,-1.9009961181640624,2.0159177978515626,9.495403784179686,9.891430828428383
3.058940562049241,-1.7525556152343749,2.1978771240234374,9.504980590820312,9.911950921421369
3.061427505595623,-1.637633935546875,2.360682836914062,9.528922607421874,9.952639570565744
3.0639144491420045,-1.4604630126953124,2.518700146484375,9.495403784179686,9.931741824270574
3.0664013926883857,-1.2114660400390624,2.7437551025390623,9.481038574218749,9.944140710725133
3.0688883362347674,-1.005564697265625,2.959233251953125,9.5001921875,10.00109361016524
3.0713752797811487,-0.7852981445312499,3.0214824951171875,9.442731347656249,9.945412256317674
3.0738622233275303,-0.55545478515625,3.2034418212890623,9.380482104492186,9.927941077254383
3.0763491668739116,-0.26336218261718747,3.294421484375,9.409212524414063,9.972755531222798
3.0788361104202933,0.0,3.4332851806640625,9.380482104492186,9.98903857458092
3.081323053966675,0.2059013427734375,3.5098996337890624,9.399635717773437,10.035683456001921
3.083809997513056,0.40222587890625,3.5960908935546874,9.370905297851563,10.045273588791463
3.086296941059438,0.59376201171875,3.6008792968749996,9.351751684570312,10.038632606440329
3.088783884605819,0.7326257080078125,3.6104561035156246,9.303867651367186,10.006702102970985
3.091270828152201,0.8858546142578124,3.5290532470703124,9.342174877929686,10.025726241429092
3.0937577716985825,0.9624690673828125,3.5338416503906247,9.279925634765624,9.976542652767263
3.0962447152449637,0.948103857421875,3.385401147460937,9.34696328125,9.98626879443588
3.0987316587913454,0.9002198242187499,3.2513258544921873,9.279925634765624,9.87413466237857
3.1012186023377266,0.8714894042968749,3.1124621582031247,9.313444458007812,9.858354940883626
3.1037055458841083,0.7565677246093749,2.93050283203125,9.332598071289063,9.811097203202714
3.1061924894304895,0.5793968017578125,2.786850732421875,9.313444458007812,9.738710660610261
3.108679432976871,0.45489831542968745,2.6815058593749996,9.3086560546875,9.697859748197716
3.111166376523253,0.22026655273437498,2.437297290039062,9.332598071289063,9.648125320211879
3.113653320069634,0.0143652099609375,2.27927998046875,9.361328491210937,9.634821986366976
3.116140263616016,-0.26815058593749996,2.0542250244140625,9.394847314453125,9.62054578750887
3.118627207162397,-0.51714755859375,2.0063409912109376,9.447519750976562,9.672046071822912
3.1211141507087787,-0.7709329345703124,1.8291700683593748,9.409212524414063,9.616313277872008
3.1236010942551604,-1.0199299072265624,1.714248388671875,9.447519750976562,9.655803125520505
3.1260880378015417,-1.2401964599609374,1.6998831787109374,9.471461767578125,9.702385175577096
3.1285749813479233,-1.5083470458984374,1.5705962890624998,9.481038574218749,9.727896790155173
3.1310619248943046,-1.656787548828125,1.5945383056640625,9.481038574218749,9.75590025758801
3.1335488684406863,-1.8435352783203125,1.6232687255859375,9.5384994140625,9.849700236552765
3.136035811987068,-1.9919757812499999,1.5610194824218748,9.514557397460937,9.845382258052037
3.138522755533449,-2.0159177978515626,1.68551796875,9.528922607421874,9.884597181924487
3.141009699079831,-2.1021090576171875,1.8052280517578123,9.5001921875,9.896027607500171
3.143496642626212,-2.0733786376953125,1.848323681640625,9.533711010742186,9.930097937266863
3.1459835861725938,-2.01112939453125,2.039859814453125,9.509768994140625,9.931836478017889
3.148470529718975,-1.9105729248046874,2.1260510742187497,9.485826977539062,9.90713356723282
3.1509574732653567,-1.7764976318359373,2.3415292236328122,9.543287817382812,9.985641957653616
3.1534444168117384,-1.5801730957031248,2.50912333984375,9.519345800781249,9.970486017330561
3.1559313603581196,-1.3934253662109375,2.6527754394531247,9.466673364257812,9.92958993961554
3.1584183039045013,-1.158793603515625,2.829946362304687,9.509768994140625,9.98934959599416
3.1609052474508825,-0.9145850341796874,2.959233251953125,9.4618849609375,9.955942659448464
3.163392190997264,-0.6272808349609375,3.1699229980468746,9.442731347656249,9.9803340807543
3.165879134543646,-0.38307226562499996,3.284844677734375,9.414000927734374,9.977993905836714
3.168366078090027,-0.1197100830078125,3.399766357421875,9.356540087890625,9.955781446241959
3.170853021636409,0.105344873046875,3.4859576171874997,9.351751684570312,9.980894630290837
3.17333996518279,0.33518823242187495,3.5577836669921874,9.323021264648437,9.984432947010932
3.1758269087291717,0.5315127685546874,3.5865140869140624,9.327809667968749,10.00767816831761
3.178313852275553,0.718260498046875,3.5146880371093747,9.342174877929686,10.007255447477837
3.1808007958219346,0.8714894042968749,3.5577836669921874,9.299079248046874,9.99450815520074
3.1832877393683163,0.9720458740234375,3.5625720703124997,9.370905297851563,10.072271791342764
3.1857746829146976,1.005564697265625,3.418919970703125,9.303867651367186,9.963038060783283
3.1882616264610792,1.01514150390625,3.308786694335937,9.241618408203124,9.868439211162341
3.1907485700074605,0.9433154541015625,3.1651345947265623,9.294290844726563,9.863658720528084
3.193235513553842,0.8714894042968749,3.0119056884765625,9.318232861328125,9.83160888746163
3.195722457100224,0.6703764648437499,2.81558115234375,9.299079248046874,9.73908500278675
3.198209400646605,0.5123591552734374,2.6527754394531247,9.337386474609374,9.720417460807756
3.2006963441929868,0.3495534423828125,2.5522189697265625,9.361328491210937,9.709298656384581
3.203183287739368,0.105344873046875,2.370259643554687,9.380482104492186,9.675880984842642
3.2056702312857497,-0.11013327636718749,2.2074539306640624,9.370905297851563,9.628024111720435
3.208157174832131,-0.3687070556640625,2.01112939453125,9.418789331054686,9.638162625585526
3.2106441183785126,-0.6607996582031249,1.886630908203125,9.442731347656249,9.652005370702955
3.2131310619248943,-0.9050082275390624,1.8052280517578123,9.433154541015625,9.64687995185233
3.2156180054712755,-1.1731588134765625,1.6807295654296874,9.457096557617186,9.676664134599383
3.218104949017657,-1.3551181396484375,1.6041151123046875,9.504980590820312,9.734176210537765
3.2205918925640384,-1.5897499023437498,1.6041151123046875,9.485826977539062,9.750969361726767
3.22307883611042,-1.7717092285156248,1.5658078857421873,9.5384994140625,9.827190798876885
3.225565779656802,-1.89620771484375,1.5562310791015623,9.5001921875,9.811784265302137
3.228052723203183,-2.01112939453125,1.618480322265625,9.567229833984374,9.909389824373111
3.2305396667495647,-2.0829554443359375,1.6807295654296874,9.519345800781249,9.888452848148177
3.233026610295946,-2.0638018310546875,1.8148048583984373,9.576806640625,9.963333784625021
3.2355135538423276,-2.0733786376953125,1.924938134765625,9.591171850585937,9.999743159971574
3.238000497388709,-1.9584569580078124,2.0733786376953125,9.495403784179686,9.914491699337612
3.2404874409350906,-1.867477294921875,2.2361843505859373,9.548076220703125,9.982672558649345
