Time (s),Acceleration x (m/s^2),Acceleration y (m/s^2),Acceleration z (m/s^2),Absolute acceleration (m/s^2)
0.0,-0.5363011718749999,2.5378537597656248,9.504980590820312,9.85256193508987
0.002486943546381497,-0.5363011718749999,2.5378537597656248,9.524134204101562,9.871041130025157
0.004973887092762994,-0.5506663818359374,2.5378537597656248,9.524134204101562,9.871832023883819
0.007460830639144491,-0.5506663818359374,2.5426421630859375,9.514557397460937,9.863826088448906
0.009947774185525988,-0.5602431884765625,2.5378537597656248,9.514557397460937,9.863132190423565
0.012434717731907486,-0.5746083984375,2.5378537597656248,9.514557397460937,9.863958586038876
0.014921661278288981,-0.565031591796875,2.5330653564453125,9.528922607421874,9.876033963995244
0.01740860482467048,-0.5602431884765625,2.528276953125,9.543287817382812,9.888397198097607
0.019895548371051976,0.5315127685546874,-4.127603662109375,10.290278735351562,11.099975417352235
0.022382491917433474,2.0781670410156248,-3.5051112304687497,10.242394702148436,11.023213334727771
0.02486943546381497,3.366247534179687,-2.7341782958984373,10.17056865234375,11.056573616051686
0.027356379010196465,4.395754248046875,-1.867477294921875,10.089165795898436,11.16249942053292
0.029843322556577963,5.147533569335937,-0.9193734375,10.007762939453125,11.291486545947455
0.032330266102959464,5.6311623046875,0.0383072265625,9.9215716796875,11.408288256373845
0.03481720964934096,5.856217260742187,0.97683427734375,9.830592016601562,11.484338257264925
0.03730415319572245,5.832275244140624,1.85790048828125,9.739612353515625,11.503359402562603
0.03979109674210395,5.6024318847656245,2.6527754394531247,9.643844287109374,11.464213587927274
0.04227804028848545,5.185840795898438,3.347093920898437,9.548076220703125,11.369333401395012
0.04476498383486695,4.6064439941406246,3.9264907226562498,9.457096557617186,11.228238106058967
0.04725192738124844,3.9169139160156248,4.386177441406249,9.356540087890625,11.051045633300147
0.04973887092762994,3.1411925781249996,4.721365673828124,9.275137231445312,10.871364003703173
0.05222581447401144,2.3223756103515623,4.92247861328125,9.241618408203124,10.725284843611657
0.05471275802039293,1.4987702392578124,5.003881469726562,9.193734375,10.57401975367998
0.05719970156677443,0.6943184814453125,4.984727856445312,9.13627353515625,10.430775813221894
0.059686645113155926,-0.076614453125,4.874594580078124,9.121908325195312,10.342956714006988
0.062173588659537427,-0.7948749511718749,4.687846850585937,9.131485131835937,10.29522972038457
0.06466053220591893,-1.426944189453125,4.429273071289062,9.126696728515624,10.244570407496756
0.06714747575230041,-1.9632453613281249,4.122815258789062,9.141061938476563,10.2181677109913
0.06963441929868192,-2.39420166015625,3.801992236328125,9.165003955078124,10.207087931980988
0.07212136284506342,-2.7198130859375,3.4620156005859375,9.184157568359375,10.184875329702866
0.0746083063914449,-2.93050283203125,3.1220389648437497,9.212887988281249,10.159344429202246
0.0770952499378264,-3.0550013183593747,2.8107927490234372,9.236830004882812,10.126826623984616
0.0795821934842079,-3.0837317382812497,2.5234885498046875,9.289502441406249,10.108029061274562
0.0820691370305894,-3.0166940917968748,2.2649147705078123,9.342174877929686,10.075044099703344
0.0845560805769709,-2.8730419921875,2.04943662109375,9.394847314453125,10.035821681090193
0.0870430241233524,-2.6671406494140624,1.886630908203125,9.447519750976562,9.99643160696038
0.0895299676697339,-2.4133552734375,1.7621324218749999,9.476250170898437,9.936232266282039
0.09201691121611538,-2.1212626708984375,1.6711527587890624,9.509768994140625,9.885758098601942
0.09450385476249688,-1.8004396484374998,1.6232687255859375,9.543287817382812,9.846366164658834
0.09699079830887838,-1.484405029296875,1.62805712890625,9.567229833984374,9.817632861452143
0.09947774185525989,-1.16837041015625,1.6711527587890624,9.591171850585937,9.805529992101857
0.10196468540164137,-0.86191259765625,1.7334020019531249,9.6151138671875,9.808057427714981
0.10445162894802287,-0.584185205078125,1.8100164550781248,9.648632690429688,9.834304485641788
0.10693857249440437,-0.32561142578124996,1.9105729248046874,9.6917283203125,9.883618241127254
0.10942551604078586,-0.11013327636718749,2.0302830078125,9.715670336914062,9.926148725763046
0.11191245958716736,0.08140285644531249,2.1404162841796874,9.720458740234374,9.95365894609705
0.11439940313354886,0.229843359375,2.2457611572265623,9.725247143554688,9.983822071149655
0.11688634667993036,0.32082302246093747,2.370259643554687,9.715670336914062,10.00576375321728
0.11937329022631185,0.38786066894531246,2.4851813232421875,9.701305126953125,10.022069809882263
0.12186023377269335,0.411802685546875,2.5713725830078125,9.686939916992188,10.030869522024723
0.12434717731907485,0.38307226562499996,2.6431986328124997,9.677363110351562,10.039153357867695
0.12683412086545634,0.3399766357421875,2.7246014892578123,9.672574707031249,10.0547371348642
0.12932106441183785,0.27293898925781246,2.77727392578125,9.648632690429688,10.044095725624578
0.13180800795821934,0.1867477294921875,2.8107927490234372,9.629479077148437,10.033060245492036
0.13429495150460083,0.06703764648437499,2.829946362304687,9.600748657226562,10.009368873151061
0.13678189505098234,-0.0526724365234375,2.825157958984375,9.557653027343749,9.966595370028584
0.13926883859736383,-0.17238251953125,2.806004345703125,9.514557397460937,9.921198445284894
0.14175578214374532,-0.3016694091796875,2.786850732421875,9.5001921875,9.905109440923466
0.14424272569012683,-0.430956298828125,2.7581203125,9.485826977539062,9.888066769471806
0.14672966923650832,-0.5410895751953124,2.729389892578125,9.490615380859374,9.890102498027874
0.1492166127828898,-0.6464344482421874,2.6910826660156246,9.5001921875,9.895122789063306
0.15170355632927132,-0.7326257080078125,2.6479870361328124,9.495403784179686,9.884901051410443
0.1541904998756528,-0.8092401611328125,2.6096798095703124,9.476250170898437,9.862282476603571
0.15667744342203432,-0.8762778076171874,2.5713725830078125,9.466673364257812,9.848742272103324
0.1591643869684158,-0.9241618408203125,2.5426421630859375,9.447519750976562,9.827244462341566
0.1616513305147973,-0.948103857421875,2.499546533203125,9.437942944335937,9.809250777538848
0.1641382740611788,-0.9528922607421875,2.4660277099609376,9.433154541015625,9.796616809978904
0.1666252176075603,-0.948103857421875,2.442085693359375,9.423577734375,9.780925353665523
0.1691121611539418,-0.9433154541015625,2.418143676757812,9.423577734375,9.774511762906569
0.1715991047003233,-0.9193734375,2.408566870117187,9.423577734375,9.7698648507139
0.1740860482467048,-0.8762778076171874,2.403778466796875,9.418789331054686,9.760102774886558
0.17657299179308628,-0.8379705810546875,2.384624853515625,9.433154541015625,9.765911886833777
0.1790599353394678,-0.7948749511718749,2.370259643554687,9.457096557617186,9.78195441954006
0.18154687888584928,-0.74699091796875,2.379836450195312,9.471461767578125,9.794396611119042
0.18403382243223076,-0.6943184814453125,2.403778466796875,9.476250170898437,9.80099721316997
0.18652076597861228,-0.6512228515624999,2.4133552734375,9.495403784179686,9.818913784265533
0.18900770952499377,-0.6081272216796875,2.43250888671875,9.5001921875,9.82550608371648
0.19149465307137528,-0.5602431884765625,2.442085693359375,9.5001921875,9.825034685098112
0.19398159661775677,-0.5123591552734374,2.4516625,9.509768994140625,9.834066668465146
0.19646854016413826,-0.4740519287109375,2.480392919921875,9.514557397460937,9.843976672965645
0.19895548371051977,-0.45010991210937495,2.50912333984375,9.519345800781249,9.854757396424295
0.20144242725690126,-0.44053310546874996,2.518700146484375,9.519345800781249,9.85676743764232
0.20392937080328274,-0.4213794921875,2.518700146484375,9.514557397460937,9.851305171088512
0.20641631434966426,-0.4070142822265625,2.5330653564453125,9.509768994140625,9.84976076094634
0.20890325789604575,-0.4213794921875,2.5426421630859375,9.519345800781249,9.86207555846081
0.21139020144242723,-0.4261678955078125,2.5522189697265625,9.528922607421874,9.873996495990333
0.21387714498880875,-0.4213794921875,2.5570073730468748,9.5384994140625,9.884271265719235
0.21636408853519024,-0.430956298828125,2.5570073730468748,9.557653027343749,9.90316825204989
0.21885103208157172,-0.45489831542968745,2.5617957763671875,9.576806640625,9.92395866119527
0.22133797562795324,-0.4644751220703125,2.5665841796874997,9.581595043945311,9.930259567433358
0.22382491917433472,-0.469263525390625,2.5570073730468748,9.572018237304688,9.918771501419501
0.22631186272071624,-0.49799394531249996,2.5570073730468748,9.572018237304688,9.920172267187578
0.22879880626709773,-0.5219359619140624,2.5474305664062498,9.567229833984374,9.914318248638214
0.2312857498134792,-0.5315127685546874,2.5378537597656248,9.5384994140625,9.884643574816637
0.23377269335986073,-0.5602431884765625,2.5378537597656248,9.528922607421874,9.876990442155272
0.23625963690624222,-0.5793968017578125,2.5330653564453125,9.5384994140625,9.886105999127324
0.2387465804526237,-0.59376201171875,2.5330653564453125,9.552864624023437,9.900817943559115
0.24123352399900522,-0.6081272216796875,2.5330653564453125,9.552864624023437,9.901689822585322
0.2437204675453867,-0.6177040283203125,2.518700146484375,9.543287817382812,9.88937566583001
0.2462074110917682,-0.622492431640625,2.5139117431640625,9.528922607421874,9.874594429043844
0.2486943546381497,-0.63206923828125,2.518700146484375,9.519345800781249,9.867183307546965
0.2511812981845312,-0.63206923828125,2.5234885498046875,9.504980590820312,9.854550320275788
0.2536682417309127,-0.63206923828125,2.5139117431640625,9.5001921875,9.847482692233363
0.2561551852772942,-0.6272808349609375,2.5234885498046875,9.514557397460937,9.863482051308416
0.2586421288236757,-0.622492431640625,2.518700146484375,9.519345800781249,9.866574467879005
0.26112907237005717,-0.622492431640625,2.5139117431640625,9.519345800781249,9.86535318955787
0.2636160159164387,-0.612915625,2.5139117431640625,9.519345800781249,9.864753534206463
0.2661029594628202,-0.6081272216796875,2.499546533203125,9.509768994140625,9.851561191573344
0.26858990300920166,-0.59376201171875,2.4899697265625,9.504980590820312,9.843635436038298
0.2710768465555832,-0.584185205078125,2.4851813232421875,9.514557397460937,9.85110151367869
0.2735637901019647,-0.584185205078125,2.480392919921875,9.514557397460937,9.849894611649882
0.27605073364834615,-0.584185205078125,2.4756045166015626,9.514557397460937,9.848689889829453
0.27853767719472766,-0.5793968017578125,2.4756045166015626,9.524134204101562,9.857659494740247
0.2810246207411092,-0.5698199951171875,2.461239306640625,9.528922607421874,9.858131659174768
0.28351156428749064,-0.565031591796875,2.4516625,9.533711010742186,9.860099155180011
0.28599850783387215,-0.5602431884765625,2.461239306640625,9.519345800781249,9.848325534304744
0.28848545138025367,-0.565031591796875,2.4660277099609376,9.504980590820312,9.835914263447732
0.2909723949266351,-0.5793968017578125,2.461239306640625,9.490615380859374,9.821668895144274
0.29345933847301664,-0.5746083984375,2.4660277099609376,9.485826977539062,9.817962157477384
0.29594628201939815,-0.5698199951171875,2.47081611328125,9.485826977539062,9.818886929804899
0.2984332255657796,-0.5746083984375,2.47081611328125,9.485826977539062,9.819165979094816
0.30092016911216113,-0.5746083984375,2.480392919921875,9.495403784179686,9.830829917833356
0.30340711265854264,-0.5746083984375,2.4851813232421875,9.504980590820312,9.841288383784795
0.30589405620492416,-0.5746083984375,2.480392919921875,9.509768994140625,9.844705692435497
0.3083809997513056,-0.5746083984375,2.4756045166015626,9.504980590820312,9.838874354622272
0.31086794329768713,-0.5746083984375,2.4851813232421875,9.514557397460937,9.85053823354467
0.31335488684406865,-0.5793968017578125,2.4899697265625,9.533711010742186,9.870526608516473
0.3158418303904501,-0.5793968017578125,2.4899697265625,9.5384994140625,9.87515169327315
0.3183287739368316,-0.5746083984375,2.4947581298828125,9.5384994140625,9.876080397113116
0.32081571748321314,-0.5602431884765625,2.50912333984375,9.5384994140625,9.878893836703261
0.3233026610295946,-0.565031591796875,2.5139117431640625,9.533711010742186,9.8757611650188
0.3257896045759761,-0.5602431884765625,2.518700146484375,9.519345800781249,9.862842761242135
0.3282765481223576,-0.5602431884765625,2.518700146484375,9.528922607421874,9.872086350735112
0.3307634916687391,-0.565031591796875,2.518700146484375,9.528922607421874,9.872359251256238
0.3332504352151206,-0.5698199951171875,2.5234885498046875,9.528922607421874,9.873857166582187
0.3357373787615021,-0.5746083984375,2.5330653564453125,9.524134204101562,9.871966736639443
0.3382243223078836,-0.584185205078125,2.5378537597656248,9.524134204101562,9.873758473728532
0.3407112658542651,-0.59376201171875,2.5378537597656248,9.504980590820312,9.855856688506973
0.3431982094006466,-0.584185205078125,2.5330653564453125,9.490615380859374,9.840196784681702
0.34568515294702806,-0.5889736083984375,2.528276953125,9.5001921875,9.848488506493213
0.3481720964934096,-0.59376201171875,2.5330653564453125,9.504980590820312,9.854624775122316
0.3506590400397911,-0.584185205078125,2.528276953125,9.5001921875,9.848203303393529
0.35314598358617255,-0.5793968017578125,2.528276953125,9.504980590820312,9.852539826738132
0.35563292713255407,-0.5793968017578125,2.528276953125,9.514557397460937,9.861779123219545
0.3581198706789356,-0.59376201171875,2.518700146484375,9.519345800781249,9.86480350687799
0.36060681422531704,-0.5985504150390625,2.5139117431640625,9.533711010742186,9.87773559517101
0.36309375777169856,-0.59376201171875,2.5043349365234375,9.557653027343749,9.89813003510993
0.36558070131808007,-0.5889736083984375,2.5043349365234375,9.557653027343749,9.897843945868962
0.36806764486446153,-0.5793968017578125,2.5139117431640625,9.552864624023437,9.895083396880686
0.37055458841084304,-0.5793968017578125,2.518700146484375,9.548076220703125,9.89167885639966
0.37304153195722456,-0.565031591796875,2.528276953125,9.533711010742186,9.879427649807369
0.3755284755036061,-0.5698199951171875,2.5234885498046875,9.528922607421874,9.873857166582187
0.37801541904998753,-0.5746083984375,2.5139117431640625,9.528922607421874,9.871691502584994
0.38050236259636905,-0.5602431884765625,2.5139117431640625,9.528922607421874,9.870865754374753
0.38298930614275056,-0.5602431884765625,2.5139117431640625,9.514557397460937,9.85699889176372
0.385476249689132,-0.5698199951171875,2.5043349365234375,9.504980590820312,9.845864326355409
0.38796319323551354,-0.5602431884765625,2.5043349365234375,9.504980590820312,9.84531472002785
0.39045013678189505,-0.55545478515625,2.5043349365234375,9.495403784179686,9.835797706198452
0.3929370803282765,-0.5602431884765625,2.499546533203125,9.509768994140625,9.84872131922721
0.395424023874658,-0.5602431884765625,2.4851813232421875,9.519345800781249,9.854336259458462
0.39791096742103954,-0.5602431884765625,2.4899697265625,9.514557397460937,9.85091996409527
0.400397910967421,-0.5698199951171875,2.4899697265625,9.514557397460937,9.85146925771033
0.4028848545138025,-0.5698199951171875,2.4851813232421875,9.519345800781249,9.854885362655354
0.40537179806018403,-0.5602431884765625,2.4947581298828125,9.514557397460937,9.852131395105802
0.4078587416065655,-0.5506663818359374,2.4947581298828125,9.509768994140625,9.84696693975455
0.410345685152947,-0.5506663818359374,2.4899697265625,9.509768994140625,9.845754873304555
0.4128326286993285,-0.5602431884765625,2.4947581298828125,9.504980590820312,9.842883042519688
0.41531957224571,-0.5698199951171875,2.4947581298828125,9.514557397460937,9.852680621182763
0.4178065157920915,-0.565031591796875,2.4899697265625,9.519345800781249,9.855818302595571
0.420293459338473,-0.5698199951171875,2.4851813232421875,9.519345800781249,9.854885362655354
0.42278040288485447,-0.5746083984375,2.4947581298828125,9.524134204101562,9.862206917110825
0.425267346431236,-0.5746083984375,2.4947581298828125,9.528922607421874,9.866831254075798
0.4277542899776175,-0.5793968017578125,2.4947581298828125,9.533711010742186,9.871735633456275
0.43024123352399896,-0.584185205078125,2.499546533203125,9.528922607421874,9.868605336303384
0.43272817707038047,-0.584185205078125,2.4947581298828125,9.533711010742186,9.87201783410035
0.435215120616762,-0.584185205078125,2.5043349365234375,9.543287817382812,9.883688997208036
0.43770206416314344,-0.584185205078125,2.518700146484375,9.533711010742186,9.878095384135516
0.44018900770952496,-0.5793968017578125,2.5330653564453125,9.528922607421874,9.87686624452039
0.4426759512559065,-0.584185205078125,2.5426421630859375,9.528922607421874,9.879608675528106
0.445162894802288,-0.584185205078125,2.5426421630859375,9.524134204101562,9.874990322074844
0.44764983834866945,-0.584185205078125,2.5378537597656248,9.504980590820312,9.855284373961998
0.45013678189505096,-0.5889736083984375,2.5426421630859375,9.504980590820312,9.85680349366685
0.4526237254414325,-0.5793968017578125,2.5378537597656248,9.509768994140625,9.859620108389679
0.45511066898781394,-0.5746083984375,2.528276953125,9.5001921875,9.847639857483312
0.45759761253419545,-0.5746083984375,2.518700146484375,9.495403784179686,9.840564936225421
0.46008455608057697,-0.5698199951171875,2.50912333984375,9.495403784179686,9.837839589360964
0.4625714996269584,-0.5793968017578125,2.5139117431640625,9.504980590820312,9.848863332292524
0.46505844317333994,-0.5889736083984375,2.518700146484375,9.524134204101562,9.869137382620002
0.46754538671972146,-0.59376201171875,2.50912333984375,9.5384994140625,9.880851397181297
0.4700323302661029,-0.584185205078125,2.5043349365234375,9.543287817382812,9.883688997208036
0.47251927381248443,-0.5985504150390625,2.4947581298828125,9.5384994140625,9.877502305645415
0.47500621735886595,-0.584185205078125,2.4899697265625,9.5384994140625,9.875433796299815
0.4774931609052474,-0.5698199951171875,2.4851813232421875,9.5384994140625,9.87338807645571
0.4799801044516289,-0.5698199951171875,2.4851813232421875,9.543287817382812,9.878014142611576
0.48246704799801043,-0.5602431884765625,2.4851813232421875,9.528922607421874,9.863587820760856
0.4849539915443919,-0.5602431884765625,2.480392919921875,9.514557397460937,9.848503639488163
0.4874409350907734,-0.5602431884765625,2.480392919921875,9.509768994140625,9.843877680535824
0.4899278786371549,-0.55545478515625,2.4756045166015626,9.509768994140625,9.84240082819682
0.4924148221835364,-0.55545478515625,2.4756045166015626,9.509768994140625,9.84240082819682
0.4949017657299179,-0.55545478515625,2.4756045166015626,9.5001921875,9.833147987313476
0.4973887092762994,-0.5602431884765625,2.47081611328125,9.495403784179686,9.827588601508436
0.49987565282268087,-0.5602431884765625,2.4660277099609376,9.485826977539062,9.817131889932895
0.5023625963690624,-0.5506663818359374,2.4660277099609376,9.466673364257812,9.798083012300303
0.5048495399154439,-0.5602431884765625,2.4660277099609376,9.490615380859374,9.821758773454686
0.5073364834618254,-0.565031591796875,2.461239306640625,9.504980590820312,9.834714823326205
0.5098234270082069,-0.5602431884765625,2.4660277099609376,9.509768994140625,9.840267852982864
0.5123103705545884,-0.5602431884765625,2.4660277099609376,9.524134204101562,9.854151279246066
0.5147973141009698,-0.55545478515625,2.4660277099609376,9.548076220703125,9.877022942213136
0.5172842576473514,-0.55545478515625,2.461239306640625,9.552864624023437,9.88045805961567
0.5197712011937329,-0.5602431884765625,2.47081611328125,9.548076220703125,9.878489976319312
0.5222581447401143,-0.5698199951171875,2.4756045166015626,9.552864624023437,9.88486393808088
0.5247450882864959,-0.5746083984375,2.480392919921875,9.5384994140625,9.872461441850463
0.5272320318328774,-0.5746083984375,2.4947581298828125,9.528922607421874,9.866831254075798
0.5297189753792588,-0.5746083984375,2.5043349365234375,9.514557397460937,9.855387904868351
0.5322059189256404,-0.5793968017578125,2.5139117431640625,9.5001921875,9.844242200684691
0.5346928624720219,-0.584185205078125,2.5234885498046875,9.5001921875,9.846975089552302
0.5371798060184033,-0.5793968017578125,2.5234885498046875,9.5001921875,9.846692171197319
0.5396667495647849,-0.5793968017578125,2.5234885498046875,9.509768994140625,9.855932296683097
0.5421536931111663,-0.584185205078125,2.5234885498046875,9.528922607421874,9.874696596506812
0.5446406366575478,-0.5793968017578125,2.5330653564453125,9.519345800781249,9.86762713263742
0.5471275802039294,-0.5746083984375,2.5378537597656248,9.509768994140625,9.859339878482222
0.5496145237503108,-0.5793968017578125,2.5330653564453125,9.514557397460937,9.863007818281867
0.5521014672966923,-0.5746083984375,2.5330653564453125,9.519345800781249,9.867347130127222
0.5545884108430739,-0.5698199951171875,2.5330653564453125,9.509768994140625,9.85783045344041
0.5570753543894553,-0.5746083984375,2.5330653564453125,9.504980590820312,9.853489277583305
0.5595622979358368,-0.584185205078125,2.5330653564453125,9.509768994140625,9.858671247981341
0.5620492414822184,-0.59376201171875,2.5330653564453125,9.5001921875,9.85000634649642
0.5645361850285998,-0.584185205078125,2.5330653564453125,9.485826977539062,9.835578574830432
0.5670231285749813,-0.5793968017578125,2.5330653564453125,9.481038574218749,9.83067714858618
0.5695100721213628,-0.5793968017578125,2.528276953125,9.490615380859374,9.838682092282214
0.5719970156677443,-0.584185205078125,2.5234885498046875,9.5001921875,9.846975089552302
0.5744839592141258,-0.584185205078125,2.528276953125,9.519345800781249,9.866681366112255
0.5769709027605073,-0.584185205078125,2.5330653564453125,9.528922607421874,9.877148298577444
0.5794578463068888,-0.584185205078125,2.528276953125,9.5384994140625,9.885162000574693
0.5819447898532703,-0.584185205078125,2.528276953125,9.543287817382812,9.88978255933579
0.5844317333996518,-0.584185205078125,2.5234885498046875,9.533711010742186,9.879317408160055
0.5869186769460333,-0.584185205078125,2.5234885498046875,9.524134204101562,9.870075944619922
0.5894056204924147,-0.584185205078125,2.5378537597656248,9.533711010742186,9.882996493783425
0.5918925640387963,-0.584185205078125,2.5474305664062498,9.5384994140625,9.890078155230306
0.5943795075851778,-0.5746083984375,2.5522189697265625,9.5384994140625,9.890751617195615
0.5968664511315592,-0.5602431884765625,2.5617957763671875,9.524134204101562,9.87855264539216
0.5993533946779408,-0.5602431884765625,2.5665841796874997,9.504980590820312,9.86133270980791
0.6018403382243223,-0.5602431884765625,2.5617957763671875,9.5001921875,9.85547165941251
0.6043272817707037,-0.5602431884765625,2.5570073730468748,9.509768994140625,9.863461129743902
0.6068142253170853,-0.5602431884765625,2.5522189697265625,9.519345800781249,9.871455747483148
0.6093011688634667,-0.5698199951171875,2.5474305664062498,9.533711010742186,9.884621538220015
0.6117881124098483,-0.565031591796875,2.5426421630859375,9.533711010742186,9.883113654389371
0.6142750559562298,-0.5602431884765625,2.528276953125,9.519345800781249,9.865292760825145
0.6167619995026112,-0.565031591796875,2.5139117431640625,9.514557397460937,9.857272209984126
0.6192489430489928,-0.5746083984375,2.5043349365234375,9.519345800781249,9.860010789076163
0.6217358865953743,-0.5698199951171875,2.499546533203125,9.519345800781249,9.858517747274927
0.6242228301417557,-0.5602431884765625,2.4947581298828125,9.509768994140625,9.84750714032588
0.6267097736881373,-0.5793968017578125,2.4947581298828125,9.504980590820312,9.843991812896554
0.6291967172345188,-0.584185205078125,2.4947581298828125,9.504980590820312,9.844274808858161
0.6316836607809002,-0.5746083984375,2.480392919921875,9.504980590820312,9.840080278159538
0.6341706043272818,-0.5793968017578125,2.480392919921875,9.514557397460937,9.84961177715469
0.6366575478736632,-0.584185205078125,2.4851813232421875,9.514557397460937,9.85110151367869
0.6391444914200447,-0.584185205078125,2.4851813232421875,9.509768994140625,9.846476775229927
0.6416314349664263,-0.584185205078125,2.4756045166015626,9.5001921875,9.834812742288806
0.6441183785128077,-0.584185205078125,2.4660277099609376,9.5001921875,9.832406451096464
0.6466053220591892,-0.584185205078125,2.461239306640625,9.514557397460937,9.845088813614819
0.6490922656055708,-0.5746083984375,2.461239306640625,9.519345800781249,9.849153172276251
0.6515792091519522,-0.5746083984375,2.4660277099609376,9.519345800781249,9.850350854294566
0.6540661526983337,-0.5793968017578125,2.47081611328125,9.524134204101562,9.856458048268392
0.6565530962447153,-0.5746083984375,2.461239306640625,9.519345800781249,9.849153172276251
0.6590400397910967,-0.5698199951171875,2.461239306640625,9.524134204101562,9.853503239413152
0.6615269833374782,-0.5746083984375,2.47081611328125,9.524134204101562,9.856177728457542
0.6640139268838597,-0.5746083984375,2.4660277099609376,9.528922607421874,9.859606155221709
0.6665008704302412,-0.5698199951171875,2.4660277099609376,9.524134204101562,9.854700392750042
0.6689878139766227,-0.5698199951171875,2.480392919921875,9.514557397460937,9.849053067864572
0.6714747575230042,-0.5698199951171875,2.480392919921875,9.514557397460937,9.849053067864572
0.6739617010693857,-0.5698199951171875,2.4756045166015626,9.509768994140625,9.843221976130163
0.6764486446157671,-0.5602431884765625,2.4756045166015626,9.5001921875,9.833419636743287
0.6789355881621487,-0.5602431884765625,2.47081611328125,9.5001921875,9.832215228285062
0.6814225317085302,-0.5602431884765625,2.47081611328125,9.509768994140625,9.841468946138226
0.6839094752549116,-0.5602431884765625,2.4756045166015626,9.514557397460937,9.847298747495735
0.6863964188012932,-0.5602431884765625,2.47081611328125,9.519345800781249,9.85072328160406
0.6888833623476747,-0.5602431884765625,2.4660277099609376,9.514557397460937,9.844895508135584
0.6913703058940561,-0.5602431884765625,2.47081611328125,9.504980590820312,9.836842009901119
0.6938572494404377,-0.565031591796875,2.4756045166015626,9.514557397460937,9.847572334942516
0.6963441929868192,-0.565031591796875,2.4756045166015626,9.519345800781249,9.852198886400851
0.6988311365332006,-0.55545478515625,2.480392919921875,9.524134204101562,9.857485044030696
0.7013180800795822,-0.55545478515625,2.4947581298828125,9.5384994140625,9.874984517306345
0.7038050236259636,-0.5602431884765625,2.4947581298828125,9.548076220703125,9.884505555322798
0.7062919671723451,-0.2825157958984375,-3.265691064453125,10.251971508789062,10.763246402475593
0.7087789107187267,1.0199299072265624,-2.839523168945312,10.204087475585936,10.640796495189736
0.7112658542651081,2.1547814941406247,-2.3319524169921872,10.127473022460936,10.613519453191795
0.7137527978114896,3.1172505615234374,-1.7477672119140624,10.036493359375,10.653785254224832
0.7162397413578712,3.892971899414062,-1.1013327636718748,9.945513696289062,10.736917935284687
0.7187266849042526,4.491522314453125,-0.44532150878906246,9.859322436523437,10.843353856383871
0.7212136284506341,4.893748193359374,0.22505495605468748,9.758765966796874,10.919383421602424
0.7237005719970157,5.109226342773437,0.8762778076171874,9.648632690429688,10.952998192852988
0.7261875155433971,5.142745166015625,1.5035586425781249,9.548076220703125,10.948711154770908
0.7286744590897786,5.023035083007812,2.0877438476562498,9.466673364257812,10.918216905891828
0.7311614026361601,4.764461303710937,2.6096798095703124,9.3852705078125,10.844068550495841
0.7336483461825416,4.376600634765625,3.0645781249999997,9.303867651367186,10.728850146899068
0.7361352897289231,3.88818349609375,3.4428619873046875,9.246406811523437,10.605060513128175
0.7386222332753046,3.327940307617187,3.754108203125,9.203311181640624,10.481862992710072
0.7411091768216861,2.710236279296875,3.9935283691406247,9.169792358398437,10.362371418786838
0.7435961203680675,2.0446482177734375,4.165910888671875,9.160215551757812,10.268639092959917
0.7460830639144491,1.369483349609375,4.266467358398438,9.179369165039063,10.214648629943499
0.7485700074608306,0.689530078125,4.309562988281249,9.188945971679686,10.172733799183533
0.7510569510072121,0.047884033203124995,4.295197778320312,9.217676391601563,10.169394027955272
0.7535438945535936,-0.5458779785156249,4.2329485351562495,9.251195214843749,10.188250535389166
0.7560308380999751,-1.0917559570312498,4.141968872070312,9.270348828125,10.212110683009229
0.7585177816463566,-1.5849614990234373,4.017470385742187,9.279925634765624,10.23568224597082
0.7610047251927381,-2.0159177978515626,3.864241479492187,9.3086560546875,10.278490371839286
0.7634916687391196,-2.365471240234375,3.67749375,9.34696328125,10.319163582902481
0.7659786122855011,-2.6240450195312497,3.4955344238281247,9.380482104492186,10.348807548959075
0.7684655558318826,-2.8107927490234372,3.303998291015625,9.428366137695312,10.378393354052278
0.770952499378264,-2.925714428710937,3.0980969482421874,9.457096557617186,10.372785783923707
0.7734394429246456,-2.959233251953125,2.906560815429687,9.504980590820312,10.370622606436278
0.7759263864710271,-2.920926025390625,2.7341782958984373,9.567229833984374,10.370121816827758
0.7784133300174085,-2.839523168945312,2.5713725830078125,9.586383447265625,10.323448860997466
0.7809002735637901,-2.6862942626953124,2.43250888671875,9.581595043945311,10.244034358391854
0.7833872171101716,-2.4899697265625,2.29843359375,9.581595043945311,10.163154520631556
0.785874160656553,-2.2649147705078123,2.1978771240234374,9.591171850585937,10.097082758769588
0.7883611042029346,-2.0063409912109376,2.1212626708984375,9.605537060546874,10.039497084690046
0.790848047749316,-1.7286135986328124,2.059013427734375,9.629479077148437,9.997725169567737
0.7933349912956975,-1.455674609375,2.01112939453125,9.65342109375,9.967555809885598
0.7958219348420791,-1.1731588134765625,1.9823989746093749,9.667786303710937,9.938425393913807
0.7983088783884605,-0.9816226806640624,-5.813121630859374,10.443507641601562,11.992615146103434
0.800795821934842,0.411802685546875,-5.45877978515625,10.381258398437499,11.736199731164396
0.8032827654812236,1.6519991455078125,-4.92247861328125,10.280701928710936,11.517496647360945
0.805769709027605,2.7533319091796873,-4.228160131835938,10.156203442382813,11.340486897202538
0.8082566525739865,3.69664736328125,-3.4332851806640625,10.046070166015625,11.241715822806182
0.8107435961203681,4.448426684570312,-2.5570073730468748,9.931148486328125,11.178304743175984
0.8132305396667495,5.003881469726562,-1.6136919189453125,9.80665,11.12713869756472
0.815717483213131,5.382165332031249,-0.6416460449218749,9.686939916992188,11.100280098434434
0.8182044267595125,5.578489868164062,0.32082302246093747,9.567229833984374,11.079456815080365
0.820691370305894,5.607220288085937,1.2641384765625,9.4618849609375,11.070963483864606
0.8231783138522755,5.473144995117187,2.1643583007812497,9.380482104492186,11.073987877202827
0.825665257398657,5.195417602539062,2.987963671875,9.294290844726563,11.059119914151644
0.8281522009450385,4.797980126953124,3.73495458984375,9.222464794921875,11.046463505593334
0.83063914449142,4.295197778320312,4.376600634765625,9.179369165039063,11.039210811429799
0.8331260880378015,3.7110125732421873,4.917690209960937,9.165003955078124,11.043214605200104
0.835613031584183,3.0693665283203124,5.358223315429687,9.160215551757812,11.047222136711703
0.8380999751305644,2.379836450195312,5.68862314453125,9.179369165039063,11.058249096409646
0.840586918676946,1.6711527587890624,5.899312890625,9.193734375,11.050764493136175
0.8430738622233275,0.9576806640625,6.0142345703124995,9.208099584960937,11.039803788456522
0.8455608057697089,0.27293898925781246,6.038176586914062,9.236830004882812,11.03870919653732
0.8480477493160905,-0.38307226562499996,5.95677373046875,9.275137231445312,11.029871635646385
0.850534692862472,-0.9959878906249999,5.798756420898437,9.318232861328125,11.020300883601944
0.8530216364088534,-1.5418658691406248,5.57370146484375,9.361328491210937,11.003543497345742
0.855508579955235,-2.020706201171875,5.2816088623046875,9.390058911132812,10.961380026272906
0.8579955235016165,-2.43250888671875,4.946420629882812,9.423577734375,10.917325398077326
0.8604824670479979,-2.7581203125,4.568136767578125,9.476250170898437,10.875404290736823
0.8629694105943795,-3.0023288818359375,4.180276098632812,9.509768994140625,10.8131583405324
0.8654563541407609,-3.1603461914062496,3.778050219726562,9.543287817382812,10.739450352681887
0.8679432976871424,-3.2561142578125,3.375824340820312,9.562441430664062,10.650763172415642
0.870430241233524,-3.2609026611328122,2.978386865234375,9.581595043945311,10.550414118438246
0.8729171847799054,-3.208230224609375,2.6096798095703124,9.600748657226562,10.45359003700708
0.8754041283262869,-3.0980969482421874,2.27927998046875,9.595960253906249,10.338074052966618
0.8778910718726685,-2.925714428710937,1.9632453613281249,9.610325463867188,10.235843530877064
0.8803780154190499,-2.7054478759765623,1.68551796875,9.639055883789062,10.152429136094167
0.8828649589654315,-2.446874096679687,1.4604630126953124,9.648632690429688,10.06062909818673
0.885351902511813,-2.1691467041015624,1.2785036865234374,9.639055883789062,9.96248801410457
0.8878388460581944,-1.8722656982421875,1.1444283935546875,9.639055883789062,9.885671121557555
0.890325789604576,-1.5658078857421873,1.0582371337890624,9.629479077148437,9.813179273997903
0.8928127331509574,-1.254561669921875,1.0103531005859374,9.619902270507811,9.75383299352732
0.8952996766973389,-0.9528922607421875,1.0007762939453124,9.605537060546874,9.7044267771283
0.8977866202437205,-0.6607996582031249,1.0390835205078124,9.576806640625,9.655649961695556
0.9002735637901019,-0.38307226562499996,1.1109095703125,9.557653027343749,9.629620751888213
0.9027605073364834,-0.15322890625,1.197100830078125,9.552864624023437,9.628798056871
0.905247450882865,0.0526724365234375,1.3120225097656248,9.543287817382812,9.633198836165908
0.9077343944292464,0.239420166015625,1.4604630126953124,9.533711010742186,9.647897173150884
0.9102213379756279,0.38786066894531246,1.6232687255859375,9.519345800781249,9.66454249971677
0.9127082815220094,0.49320554199218747,1.7956512451171873,9.514557397460937,9.695071818729419
0.9151952250683909,0.5602431884765625,1.9680337646484374,9.509768994140625,9.7274218398787
0.9176821686147724,0.603338818359375,2.1404162841796874,9.481038574218749,9.738351608210948
0.9201691121611539,0.6081272216796875,2.29843359375,9.476250170898437,9.769950511854145
0.9226560557075354,0.584185205078125,2.47081611328125,9.481038574218749,9.815105555484685
0.9251429992539169,0.5363011718749999,2.6192566162109374,9.471461767578125,9.84158077664424
0.9276299428002984,0.469263525390625,2.7437551025390623,9.457096557617186,9.858249115287462
0.9301168863466799,0.3687070556640625,2.85388837890625,9.457096557617186,9.885206071309158
0.9326038298930613,0.2537853759765625,2.9544448486328125,9.471461767578125,9.924804249725366
0.9350907734394429,0.13407529296874998,3.0358477050781247,9.490615380859374,9.965245996964516
0.9375777169858244,0.15322890625,-3.6056677001953124,10.405200415039062,11.013288080272456
0.9400646605322058,1.6519991455078125,-3.1268273681640624,10.338162768554687,10.926287566972995
0.9425516040785874,2.868253588867187,-2.4899697265625,10.24718310546875,10.928476082521817
0.9450385476249689,3.7924154296875,-1.6998831787109374,10.146626635742187,10.964764005565694
0.9475254911713503,4.438849877929687,-0.833182177734375,10.036493359375,11.005852067553382
0.9500124347177319,4.8123453369140625,0.08140285644531249,9.935936889648437,11.040296007890035
0.9524993782641133,4.927267016601562,1.0007762939453124,9.8449572265625,11.054532836635737
0.9549863218104948,4.817133740234374,1.8914193115234375,9.730035546875,11.020700351010333
0.9574732653568764,4.529829541015625,2.710236279296875,9.600748657226562,10.95623617578192
0.9599602089032578,4.074931225585937,3.438073583984375,9.481038574218749,10.877293179278123
0.9624471524496393,3.4955344238281247,4.060566015625,9.3852705078125,10.80695423235572
0.9649340959960209,2.839523168945312,4.572925170898437,9.3086560546875,10.752935133724373
0.9674210395424023,2.1212626708984375,4.951209033203125,9.241618408203124,10.696809665141203
0.9699079830887838,1.3934253662109375,5.195417602539062,9.179369165039063,10.639305267922467
0.9723949266351654,0.689530078125,5.310339282226562,9.131485131835937,10.58580066570018
0.9748818701815468,0.028730419921875,5.305550878906249,9.093177905273437,10.527847832422578
0.9773688137279283,-0.5793968017578125,5.190629199218749,9.083601098632812,10.478079072843107
0.9798557572743098,-1.1013327636718748,4.989516259765625,9.093177905273437,10.430440584163053
0.9823427008206913,-1.5418658691406248,4.716577270507813,9.117119921875,10.380044661606313
0.9848296443670728,-1.8914193115234375,4.386177441406249,9.13627353515625,10.309583583671134
0.9873165879134543,-2.1499930908203124,4.017470385742187,9.160215551757812,10.230937764719139
0.9898035314598358,-2.31758720703125,3.6200329101562496,9.188945971679686,10.144583619018455
0.9922904750062173,-2.39420166015625,3.21780703125,9.236830004882812,10.070030398115007
0.9947774185525988,-2.398990063476562,2.829946362304687,9.3086560546875,10.02071989842302
0.9972643620989803,-2.3367408203125,2.4660277099609376,9.370905297851563,9.967723733576909
0.9997513056453617,-2.212242333984375,2.1452046874999997,9.428366137695312,9.919173721736312
1.0022382491917432,-2.0350714111328125,1.85790048828125,9.490615380859374,9.882564959572505
1.0047251927381249,-1.8195932617187498,1.6232687255859375,9.5384994140625,9.845247181540357
1.0072121362845063,-1.5897499023437498,1.43652099609375,9.576806640625,9.813568298847226
1.0096990798308878,-1.35990654296875,1.3072341064453123,9.6151138671875,9.798398925010375
1.0121860233772693,-1.1156979736328125,1.2497732666015624,9.65342109375,9.797716774817372
1.0146729669236507,-0.8762778076171874,1.235408056640625,9.6917283203125,9.809367650225079
1.0171599104700322,-0.6607996582031249,1.2593500732421874,9.710881933593749,9.81447129108104
1.0196468540164139,-0.4644751220703125,1.3455413330078123,9.715670336914062,9.819392481892475
1.0221337975627953,-0.296881005859375,1.4604630126953124,9.720458740234374,9.83404335274611
1.0246207411091768,-0.1580173095703125,1.599326708984375,9.720458740234374,9.852417648110206
1.0271076846555582,-0.0383072265625,1.7573440185546874,9.706093530273437,9.863973695300121
1.0295946282019397,0.033518823242187495,1.93451494140625,9.686939916992188,9.878272952568793
1.0320815717483212,0.076614453125,2.1116858642578125,9.672574707031249,9.900696360702845
1.0345685152947028,0.08140285644531249,2.2840683837890623,9.648632690429688,9.915629460689354
1.0370554588410843,0.08140285644531249,2.446874096679687,9.619902270507811,9.92654718238728
1.0395424023874658,0.047884033203124995,2.5905261962890624,9.600748657226562,9.944219106271408
1.0420293459338472,0.0,2.729389892578125,9.595960253906249,9.976573679387934
1.0445162894802287,-0.062249243164062495,2.849099975585937,9.576806640625,9.991820208104096
1.0470032330266101,-0.1388636962890625,2.940079638671875,9.552864624023437,9.996027907764086
1.0494901765729918,-0.2154781494140625,2.9975404785156248,9.5384994140625,10.000732514435393
1.0519771201193733,-0.3016694091796875,3.0310593017578125,9.514557397460937,9.99025161809181
1.0544640636657547,-0.38786066894531246,3.0406361083984375,9.490615380859374,9.9733486928722
1.0569510072121362,-0.4740519287109375,3.0358477050781247,9.4618849609375,9.94828445178152
1.0594379507585177,-0.55545478515625,3.0119056884765625,9.442731347656249,9.92699759235593
1.0619248943048991,-0.622492431640625,2.96881005859375,9.442731347656249,9.917988974357014
1.0644118378512808,-0.679953271484375,2.91134921875,9.433154541015625,9.895589690341968
1.0668987813976623,-0.7278373046875,2.858676782226562,9.423577734375,9.874492260523791
1.0693857249440437,-0.7613561279296874,2.7916391357421872,9.423577734375,9.857825801542232
1.0718726684904252,-0.7900865478515624,2.710236279296875,9.423577734375,9.837348970048852
1.0743596120368066,-0.8092401611328125,2.6384102294921874,9.418789331054686,9.814767987082979
1.076846555583188,-0.814028564453125,2.5809493896484375,9.409212524414063,9.790670180598605
1.0793334991295698,-0.814028564453125,2.5139117431640625,9.418789331054686,9.782432581876215
1.0818204426759512,-0.8044517578125,2.446874096679687,9.442731347656249,9.787722451094517
1.0843073862223327,-0.7852981445312499,2.398990063476562,9.4618849609375,9.792809275916628
1.0867943297687142,-0.7565677246093749,2.3511060302734372,9.485826977539062,9.802092008102994
1.0892812733150956,-0.7230489013671875,2.31758720703125,9.495403784179686,9.800852167060633
1.0917682168614773,-0.699106884765625,2.29843359375,9.509768994140625,9.808529642261558
1.0942551604078588,-0.6655880615234374,2.2936451904296873,9.533711010742186,9.828299006622181
1.0967421039542402,-0.6416460449218749,2.288856787109375,9.552864624023437,9.844175819426377
1.0992290475006217,-0.6272808349609375,2.29843359375,9.552864624023437,9.845481235353926
1.1017159910470031,-0.59376201171875,2.31758720703125,9.552864624023437,9.847892480814037
1.1042029345933846,-0.5602431884765625,2.327164013671875,9.557653027343749,9.852831885699507
1.1066898781397663,-0.5363011718749999,2.3511060302734372,9.567229833984374,9.8664687304437
1.1091768216861477,-0.5219359619140624,2.379836450195312,9.581595043945311,9.886506069596818
1.1116637652325292,-0.507570751953125,2.408566870117187,9.595960253906249,9.906627863739146
1.1141507087789106,-0.49320554199218747,2.442085693359375,9.586383447265625,9.904836285288653
1.116637652325292,-0.488417138671875,2.461239306640625,9.581595043945311,9.90470664947017
1.1191245958716736,-0.4836287353515625,2.480392919921875,9.581595043945311,9.909248678735118
1.1216115394180552,-0.488417138671875,2.518700146484375,9.581595043945311,9.919141359785442
1.1240984829644367,-0.49320554199218747,2.5474305664062498,9.567229833984374,9.912847264716296
1.1265854265108182,-0.49799394531249996,2.5617957763671875,9.543287817382812,9.89369182533941
1.1290723700571996,-0.507570751953125,2.5713725830078125,9.5384994140625,9.892045091938936
1.131559313603581,-0.507570751953125,2.5857377929687497,9.5384994140625,9.89578895663685
1.1340462571499625,-0.51714755859375,2.5953145996093747,9.543287817382812,9.903405567465782
1.1365332006963442,-0.5315127685546874,2.5953145996093747,9.528922607421874,9.890325057970436
1.1390201442427257,-0.5410895751953124,2.6001030029296874,9.509768994140625,9.8736528132271
1.1415070877891071,-0.5506663818359374,2.6096798095703124,9.5001921875,9.867487713293555
1.1439940313354886,-0.55545478515625,2.6001030029296874,9.5001921875,9.865227683314409
1.14648097488187,-0.5602431884765625,2.5713725830078125,9.481038574218749,9.839508211120235
1.1489679184282515,-0.5746083984375,2.5570073730468748,9.4618849609375,9.818132639732783
1.1514548619746332,-0.5746083984375,2.5378537597656248,9.466673364257812,9.817778827365167
1.1539418055210147,-0.5746083984375,2.528276953125,9.471461767578125,9.819926027112022
1.1564287490673961,-0.5793968017578125,2.518700146484375,9.485826977539062,9.831605389233005
1.1589156926137776,-0.5889736083984375,2.499546533203125,9.490615380859374,9.831907398386244
1.161402636160159,-0.5889736083984375,2.480392919921875,9.495403784179686,9.831680017840407
1.1638895797065405,-0.5889736083984375,2.47081611328125,9.5001921875,9.83389413083526
1.1663765232529222,-0.5698199951171875,2.4756045166015626,9.495403784179686,9.829344107012803
1.1688634667993036,-0.5698199951171875,2.461239306640625,9.495403784179686,9.825735940681598
1.171350410345685,-0.5746083984375,2.4564509033203126,9.5001921875,9.829444412143248
1.1738373538920666,-0.5746083984375,2.461239306640625,9.514557397460937,9.844525189448518
1.176324297438448,-0.5793968017578125,2.4660277099609376,9.519345800781249,9.850631339921009
1.1788112409848295,-0.5793968017578125,2.461239306640625,9.519345800781249,9.849433692009486
1.1812981845312112,-0.5746083984375,2.4564509033203126,9.533711010742186,9.861844223487049
1.1837851280775926,-0.5602431884765625,2.4660277099609376,9.5384994140625,9.868036084682718
1.186272071623974,-0.5458779785156249,2.4756045166015626,9.519345800781249,9.85111897019308
1.1887590151703555,-0.55545478515625,2.47081611328125,9.524134204101562,9.855079635484461
1.191245958716737,-0.5698199951171875,2.47081611328125,9.533711010742186,9.865154470601684
1.1937329022631185,-0.5698199951171875,2.4851813232421875,9.519345800781249,9.854885362655354
1.1962198458095001,-0.5698199951171875,2.4947581298828125,9.514557397460937,9.852680621182763
1.1987067893558816,-0.5746083984375,2.50912333984375,9.519345800781249,9.861228078741267
1.201193732902263,-0.5602431884765625,2.528276953125,9.528922607421874,9.87453405686431
1.2036806764486445,-0.5602431884765625,2.5330653564453125,9.5384994140625,9.885001952570796
1.206167619995026,-0.5602431884765625,2.5378537597656248,9.528922607421874,9.876990442155272
1.2086545635414074,-0.5602431884765625,2.5378537597656248,9.533711010742186,9.881610181166716
1.2111415070877891,-0.5746083984375,2.5330653564453125,9.528922607421874,9.876586503940215
1.2136284506341706,-0.5698199951171875,2.5378537597656248,9.533711010742186,9.882157768885227
1.216115394180552,-0.5602431884765625,2.5330653564453125,9.5384994140625,9.885001952570796
1.2186023377269335,-0.5506663818359374,2.5378537597656248,9.543287817382812,9.89031230727564
1.221089281273315,-0.5506663818359374,2.5378537597656248,9.543287817382812,9.89031230727564
1.2235762248196966,-0.5602431884765625,2.5330653564453125,9.5384994140625,9.885001952570796
1.226063168366078,-0.55545478515625,2.5330653564453125,9.5384994140625,9.88473172071185
1.2285501119124596,-0.565031591796875,2.5378537597656248,9.533711010742186,9.881882818675388
1.231037055458841,-0.5746083984375,2.5330653564453125,9.528922607421874,9.876586503940215
1.2335239990052225,-0.5746083984375,2.5330653564453125,9.519345800781249,9.867347130127222
1.236010942551604,-0.5698199951171875,2.5330653564453125,9.504980590820312,9.853211200351366
1.2384978860979856,-0.5746083984375,2.528276953125,9.509768994140625,9.85687909458041
1.240984829644367,-0.5793968017578125,2.5234885498046875,9.519345800781249,9.865173064357977
1.2434717731907485,-0.5698199951171875,2.518700146484375,9.514557397460937,9.858770091868173
1.24595871673713,-0.5746083984375,2.5139117431640625,9.519345800781249,9.862447543020174
1.2484456602835114,-0.584185205078125,2.5139117431640625,9.519345800781249,9.863010143009179
1.250932603829893,-0.5793968017578125,2.5139117431640625,9.504980590820312,9.848863332292524
1.2534195473762746,-0.5746083984375,2.5043349365234375,9.504980590820312,9.84614261107961
1.255906490922656,-0.5793968017578125,2.5043349365234375,9.509768994140625,9.851045652624773
1.2583934344690375,-0.5746083984375,2.499546533203125,9.504980590820312,9.844925785148078
1.260880378015419,-0.5746083984375,2.4947581298828125,9.495403784179686,9.834464192968786
1.2633673215618004,-0.5746083984375,2.4947581298828125,9.490615380859374,9.829840957287956
1.2658542651081819,-0.5793968017578125,2.4947581298828125,9.481038574218749,9.820876296254191
1.2683412086545636,-0.5746083984375,2.499546533203125,9.476250170898437,9.817190279537996
1.270828152200945,-0.5602431884765625,2.499546533203125,9.485826977539062,9.825605261239126
1.2733150957473265,-0.5602431884765625,2.4947581298828125,9.509768994140625,9.84750714032588
1.275802039293708,-0.5698199951171875,2.480392919921875,9.533711010742186,9.86755742321172
1.2782889828400894,-0.5698199951171875,2.4756045166015626,9.548076220703125,9.880236437748334
1.2807759263864709,-0.5602431884765625,2.4756045166015626,9.5384994140625,9.870433689809333
1.2832628699328525,-0.565031591796875,2.4660277099609376,9.543287817382812,9.872937543174823
1.285749813479234,-0.5746083984375,2.4564509033203126,9.548076220703125,9.875732143407625
1.2882367570256155,-0.5746083984375,2.4660277099609376,9.533711010742186,9.864234035858885
1.290723700571997,-0.5698199951171875,2.480392919921875,9.528922607421874,9.862931101973166
1.2932106441183784,-0.5746083984375,2.47081611328125,9.533711010742186,9.865432211188315
1.2956975876647598,-0.584185205078125,2.47081611328125,9.533711010742186,9.865994640979146
1.2981845312111415,-0.5793968017578125,2.4756045166015626,9.533711010742186,9.866912587676655
1.300671474757523,-0.5793968017578125,2.47081611328125,9.533711010742186,9.865712268046552
1.3031584183039044,-0.5746083984375,2.47081611328125,9.552864624023437,9.88394301896382
1.305645361850286,-0.5698199951171875,2.47081611328125,9.548076220703125,9.879037736988462
1.3081323053966674,-1.0199299072265624,-1.0486603271484374,10.28549033203125,10.3889969134512
1.3106192489430488,0.5602431884765625,-0.8810662109374999,10.228029492187499,10.281183657115918
1.3131061924894305,1.9009961181640624,-0.6368576416015624,10.156203442382813,10.352190215602185
1.315593136035812,2.987963671875,-0.316034619140625,10.079588989257813,10.517885670480899
1.3180800795821934,3.7924154296875,0.0430956298828125,9.988609326171874,10.68440865446163
1.3205670231285749,4.3430818115234375,0.44053310546874996,9.888052856445311,10.808793564984759
1.3230539666749563,4.668693237304687,0.8667010009765624,9.792284790039062,10.882863068989643
1.3255409102213378,4.76924970703125,1.3072341064453123,9.706093530273437,10.89324815633461
1.3280278537677195,4.659116430664063,1.7286135986328124,9.595960253906249,10.806383487661845
1.330514797314101,4.3813890380859375,2.1308394775390624,9.495403784179686,10.672382105542907
1.3330017408604824,3.9552211425781247,2.518700146484375,9.409212524414063,10.512892325339772
1.3354886844068639,3.423708374023437,2.839523168945312,9.332598071289063,10.338377900694274
1.3379756279532453,2.829946362304687,3.1364041748046874,9.265560424804686,10.18313495672922
1.3404625714996268,2.1930887207031247,3.394977954101562,9.217676391601563,10.064843342347643
1.3429495150460085,1.5370774658203123,3.5865140869140624,9.179369165039063,9.974292390923557
1.34543645859239,0.8954314208984374,3.73495458984375,9.160215551757812,9.932836058870235
1.3479234021387714,0.28730419921875,3.845087866210937,9.160215551757812,9.938651485812196
1.3504103456851528,-0.2920926025390625,3.892971899414062,9.17458076171875,9.970630895353882
1.3528972892315343,-0.7996633544921875,3.892971899414062,9.169792358398437,9.993987371729444
1.3553842327779158,-1.2210428466796874,3.859453076171875,9.179369165039063,10.032304917050226
1.3578711763242974,-1.5753846923828123,3.7924154296875,9.212887988281249,10.086701978592549
1.360358119870679,-1.848323681640625,3.69664736328125,9.241618408203124,10.123685740055675
1.3628450634170604,-2.039859814453125,3.5817256835937497,9.279925634765624,10.154152191193315
1.3653320069634418,-2.1595698974609374,3.438073583984375,9.332598071289063,10.177498654931817
1.3678189505098233,-2.1978771240234374,3.289633081054687,9.370905297851563,10.171834434435972
1.370305894056205,-2.1835119140624997,3.1364041748046874,9.418789331054686,10.16456333982797
1.3727928376025864,-2.1116858642578125,2.96881005859375,9.466673364257812,10.143517877879548
1.3752797811489679,-1.9919757812499999,2.806004345703125,9.519345800781249,10.122231590713728
1.3777667246953493,-1.8435352783203125,2.6527754394531247,9.576806640625,10.106981017420402
1.3802536682417308,-1.66636435546875,2.5139117431640625,9.610325463867188,10.072481220585573
1.3827406117881123,-1.4700398193359374,2.384624853515625,9.629479077148437,10.028674890516552
1.385227555334494,-1.2689268798828124,2.269703173828125,9.65342109375,9.997513027600016
1.3877144988808754,-1.0630255371093749,2.1787235107421874,9.677363110351562,9.976382921600429
1.3902014424272569,-0.8810662109374999,2.1021090576171875,9.6917283203125,9.956140717814273
1.3926883859736383,-0.7038952880859375,2.04943662109375,9.701305126953125,9.940371230830202
1.3951753295200198,-0.5410895751953124,2.020706201171875,9.701305126953125,9.924280963681273
1.3976622730664012,-0.4070142822265625,1.9967641845703124,9.696516723632811,9.908338125357346
1.400149216612783,-0.3016694091796875,1.9919757812499999,9.667786303710937,9.875477910447785
1.4026361601591644,-0.21068974609375,2.001552587890625,9.639055883789062,9.846928519188571
1.4051231037055458,-0.143652099609375,2.0254946044921875,9.629479077148437,9.841246446247988
1.4076100472519273,-0.105344873046875,2.059013427734375,9.610325463867188,9.828987199061855
1.4100969907983087,-0.08140285644531249,2.1068974609374997,9.581595043945311,9.810841295327313
1.4125839343446902,-0.0718260498046875,2.1643583007812497,9.562441430664062,9.804585251323577
1.4150708778910719,-0.09576806640624999,2.221819140625,9.5384994140625,9.794315845849646
1.4175578214374533,-0.13407529296874998,2.2840683837890623,9.509768994140625,9.78113750480627
1.4200447649838348,-0.181959326171875,2.3415292236328122,9.5001921875,9.786190264906127
1.4225317085302163,-0.2346317626953125,2.403778466796875,9.495403784179686,9.797749537833457
1.4250186520765977,-0.2920926025390625,2.47081611328125,9.476250170898437,9.797426583320794
1.4275055956229792,-0.354341845703125,2.5378537597656248,9.466673364257812,9.80735257014456
1.4299925391693609,-0.4213794921875,2.5761609863281247,9.476250170898437,9.829215808261
1.4324794827157423,-0.4836287353515625,2.6192566162109374,9.481038574218749,9.848070593829352
1.4349664262621238,-0.5363011718749999,2.6575638427734374,9.471461767578125,9.851845133784096
1.4374533698085052,-0.5889736083984375,2.6767174560546874,9.4618849609375,9.850836170851334
1.4399403133548867,-0.622492431640625,2.70065947265625,9.457096557617186,9.854833013034398
1.4424272569012682,-0.6560112548828124,2.7150246826171873,9.4618849609375,9.865544932124568
1.4449142004476498,-0.6943184814453125,2.7150246826171873,9.471461767578125,9.877349097586418
1.4474011439940313,-0.718260498046875,2.710236279296875,9.4618849609375,9.868563514852948
1.4498880875404128,-0.7278373046875,2.7054478759765623,9.4618849609375,9.867951274998072
1.4523750310867942,-0.737414111328125,2.6910826660156246,9.471461767578125,9.873919865059152
1.4548619746331757,-0.7278373046875,2.6719290527343746,9.481038574218749,9.87719820853893
1.4573489181795571,-0.7230489013671875,2.6479870361328124,9.471461767578125,9.861197851781997
1.4598358617259388,-0.718260498046875,2.6192566162109374,9.476250170898437,9.857774630517376
1.4623228052723203,-0.7134720947265625,2.5953145996093747,9.504980590820312,9.878732526633664
1.4648097488187017,-0.6847416748046875,2.5713725830078125,9.5001921875,9.865823823751093
1.4672966923650832,-0.6560112548828124,2.528276953125,9.504980590820312,9.857341992145082
1.4697836359114647,-0.1867477294921875,-4.1754876953124995,10.232817895507813,11.053512305633966
1.4722705794578461,1.2114660400390624,-3.6631285400390623,10.175357055664062,10.882281556607008
1.4747575230042278,2.39420166015625,-3.0071172851562498,10.098742602539062,10.805533679949264
1.4772444665506093,3.3327287109375,-2.2457611572265623,10.022128149414062,10.79785054903486
1.4797314100969907,4.031835595703125,-1.43652099609375,9.931148486328125,10.814203673895474
1.4822183536433722,4.510675927734375,-0.5889736083984375,9.82580361328125,10.827719237364954
1.4847052971897536,4.764461303710937,0.2537853759765625,9.710881933593749,10.819691606502282
1.487192240736135,4.821922143554687,1.0678139404296874,9.595960253906249,10.792294147419605
1.4896791842825168,4.707000463867187,1.8291700683593748,9.504980590820312,10.763195275460657
1.4921661278288982,4.42448466796875,2.50912333984375,9.418789331054686,10.70445500595097
1.4946530713752797,4.012681982421875,3.1124621582031247,9.34696328125,10.637422618253698
1.4971400149216612,3.5146880371093747,3.6200329101562496,9.284714038085937,10.567099178007375
1.4996269584680426,2.9496564453125,4.0222587890625,9.241618408203124,10.501740318366425
1.5021139020144243,2.3367408203125,4.3239281982421875,9.212887988281249,10.441935539423982
1.5046008455608058,1.70467158203125,4.529829541015625,9.193734375,10.389899548662605
1.5070877891071872,1.0726023437499999,4.639962817382812,9.217676391601563,10.375224758760739
1.5095747326535687,0.4740519287109375,4.659116430664063,9.236830004882812,10.35621164734971
1.5120616761999501,-0.09576806640624999,4.620809204101562,9.251195214843749,10.341453578989793
1.5145486197463316,-0.6081272216796875,4.520252734375,9.279925634765624,10.340189712338583
1.5170355632927133,-1.0534487304687499,4.347870214843749,9.3086560546875,10.3278655673533
1.5195225068390947,-1.4317325927734375,4.141968872070312,9.34696328125,10.323346692591747
1.5220094503854762,-1.7334020019531249,3.912125512695312,9.375693701171874,10.305971128702556
1.5244963939318577,-1.9680337646484374,3.6583401367187496,9.428366137695312,10.30294605834483
1.5269833374782391,-2.1116858642578125,3.404554760742187,9.495403784179686,10.305964454276584
1.5294702810246206,-2.1930887207031247,3.1507693847656246,9.528922607421874,10.273137393760843
1.5319572245710023,-2.221819140625,2.916137622070312,9.557653027343749,10.236653277101585
1.5344441681173837,-2.1978771240234374,2.7054478759765623,9.586383447265625,10.200434287810495
1.5369311116637652,-2.1164742675781247,2.4899697265625,9.610325463867188,10.150752094597333
1.5394180552101466,-2.001552587890625,2.308010400390625,9.619902270507811,10.093346544359026
1.541904998756528,-1.848323681640625,2.1643583007812497,9.634267480468749,10.045887575097181
1.5443919423029095,-1.675941162109375,2.039859814453125,9.648632690429688,10.003295438819233
1.5468788858492912,-1.4891934326171874,1.9584569580078124,9.65342109375,9.962017343358564
1.5493658293956727,-1.2928688964843749,1.905784521484375,9.648632690429688,9.919659138330035
1.5518527729420541,-1.0965443603515623,1.8722656982421875,9.648632690429688,9.889585490497645
1.5543397164884356,-0.9193734375,1.867477294921875,9.639055883789062,9.861243192186157
1.556826660034817,-0.74699091796875,1.886630908203125,9.624690673828125,9.836261595859945
1.5593136035811985,-0.5889736083984375,1.915361328125,9.610325463867188,9.817018613108601
1.5618005471275802,-0.45010991210937495,1.9632453613281249,9.591171850585937,9.80038309196266
1.5642874906739617,-0.33039982910156246,2.020706201171875,9.567229833984374,9.783879818088808
1.5667744342203431,-0.229843359375,2.0877438476562498,9.543287817382812,9.771685868297368
1.5692613777667246,-0.1580173095703125,2.1499930908203124,9.533711010742186,9.774409721156859
1.571748321313106,-0.1197100830078125,2.2266075439453124,9.524134204101562,9.781678996801379
1.5742352648594875,-0.086191259765625,2.308010400390625,9.509768994140625,9.78621720909002
1.5767222084058692,-0.0718260498046875,2.379836450195312,9.5001921875,9.793999801436836
1.5792091519522506,-0.076614453125,2.442085693359375,9.481038574218749,9.790798984452804
1.581696095498632,-0.1005564697265625,2.4947581298828125,9.4618849609375,9.78576500556985
1.5841830390450136,-0.13407529296874998,2.5522189697265625,9.457096557617186,9.796349991385139
1.586669982591395,-0.16759411621093748,2.5953145996093747,9.447519750976562,9.798947652877137
1.5891569261377765,-0.22026655273437498,2.6288334228515624,9.447519750976562,9.808920020290062
1.5916438696841582,-0.277727392578125,2.6575638427734374,9.437942944335937,9.808901319900484
1.5941308132305396,-0.33039982910156246,2.6815058593749996,9.437942944335937,9.817046640485787
1.596617756776921,-0.38307226562499996,2.6815058593749996,9.452308154296874,9.832769064629796
1.5991047003233025,-0.44053310546874996,2.6767174560546874,9.452308154296874,9.833870814707147
1.601591643869684,-0.49799394531249996,2.6623522460937497,9.471461767578125,9.851127116555876
1.6040785874160655,-0.5602431884765625,2.6575638427734374,9.495403784179686,9.87619415732928
1.6065655309624471,-0.6081272216796875,2.6527754394531247,9.509768994140625,9.891549048143672
1.6090524745088286,-0.63206923828125,2.6240450195312497,9.533711010742186,9.908419118247622
1.61153941805521,-0.6655880615234374,2.5953145996093747,9.552864624023437,9.921486172116884
1.6140263616015915,-0.689530078125,2.5809493896484375,9.557653027343749,9.923985231330144
1.616513305147973,-0.70868369140625,2.5617957763671875,9.562441430664062,9.924984447804365
1.6190002486943544,-0.7134720947265625,2.5474305664062498,9.557653027343749,9.917014485807082
1.6214871922407361,-0.70868369140625,2.5378537597656248,9.548076220703125,9.90498328099438
1.6239741357871176,-0.7038952880859375,2.5234885498046875,9.5384994140625,9.891735646975995
1.626461079333499,-0.699106884765625,2.50912333984375,9.543287817382812,9.892360321797955
1.6289480228798805,-0.6943184814453125,2.4899697265625,9.552864624023437,9.896426118442593
1.631434966426262,-0.679953271484375,2.499546533203125,9.562441430664062,9.907086122464598
1.6339219099726436,-0.6560112548828124,2.4899697265625,9.567229833984374,9.907683215667088
1.636408853519025,-0.6512228515624999,2.4756045166015626,9.572018237304688,9.90839250637099
1.6388957970654066,-0.6464344482421874,2.4899697265625,9.567229833984374,9.907053721028902
1.641382740611788,-0.63206923828125,2.4899697265625,9.552864624023437,9.892253701058097
1.6438696841581695,-0.6177040283203125,2.4851813232421875,9.5384994140625,9.87626728820487
1.646356627704551,-0.603338818359375,2.499546533203125,9.528922607421874,9.869757679883673
1.6488435712509326,-0.5889736083984375,2.499546533203125,9.528922607421874,9.8688899498005
1.651330514797314,-0.5793968017578125,2.499546533203125,9.533711010742186,9.872946832728399
1.6538174583436955,-0.5746083984375,2.518700146484375,9.533711010742186,9.87753364336473
1.656304401890077,-0.565031591796875,2.518700146484375,9.543287817382812,9.88622544215112
1.6587913454364585,-0.5602431884765625,2.50912333984375,9.543287817382812,9.883517325840545
1.66127828898284,-0.5602431884765625,2.50912333984375,9.548076220703125,9.888140971949152
1.6637652325292216,-0.5506663818359374,2.50912333984375,9.552864624023437,9.892227045693572
1.666252176075603,-0.5602431884765625,2.50912333984375,9.552864624023437,9.892764774808986
1.6687391196219845,-0.5602431884765625,2.5139117431640625,9.552864624023437,9.893980352091418
1.671226063168366,-0.5410895751953124,2.5139117431640625,9.533711010742186,9.874420277522626
1.6737130067147474,-0.5506663818359374,2.5043349365234375,9.519345800781249,9.858644501818073
1.676199950261129,-0.565031591796875,2.5043349365234375,9.519345800781249,9.859457320201349
1.6786868938075106,-0.5698199951171875,2.4947581298828125,9.509768994140625,9.848056624297513
1.681173837353892,-0.5746083984375,2.4851813232421875,9.5001921875,9.836663693569214
1.6836607809002735,-0.5698199951171875,2.480392919921875,9.509768994140625,9.844427367092122
1.686147724446655,-0.5746083984375,2.4756045166015626,9.5001921875,9.834248529176442
1.6886346679930364,-0.5746083984375,2.47081611328125,9.481038574218749,9.814540209456021
1.6911216115394179,-0.5889736083984375,2.461239306640625,9.471461767578125,9.803732801878928
1.6936085550857995,-0.5889736083984375,2.446874096679687,9.471461767578125,9.800136262883596
1.696095498632181,-0.5793968017578125,2.422932080078125,9.471461767578125,9.793614681681786
1.6985824421785625,-0.5746083984375,2.422932080078125,9.471461767578125,9.793332563071713
1.701069385724944,-0.5698199951171875,2.422932080078125,9.471461767578125,9.793052777668525
1.7035563292713254,-0.5746083984375,2.422932080078125,9.476250170898437,9.79796366484788
1.7060432728177068,-0.5602431884765625,2.43250888671875,9.485826977539062,9.808765741009822
1.7085302163640885,-0.55545478515625,2.437297290039062,9.481038574218749,9.805051786921302
1.71101715991047,-1.024718310546875,-5.2816088623046875,10.414777221679687,11.722330159467592
1.7135041034568514,0.8092401611328125,-4.970362646484375,10.381258398437499,11.538193117255688
1.715991047003233,2.4133552734375,-4.477157104492187,10.314220751953124,11.50010300537147
1.7184779905496144,3.763685009765625,-3.83072265625,10.223241088867187,11.547918396098227
1.7209649340959958,4.836287353515624,-3.0502129150390624,10.122684619140625,11.625928698019457
1.7234518776423775,5.626373901367187,-2.1691467041015624,10.022128149414062,11.696338458901495
1.725938821188759,6.148309863281249,-1.2210428466796874,9.911994873046874,11.727757764025341
1.7284257647351404,6.41646044921875,-0.2537853759765625,9.792284790039062,11.710004830173146
1.7309127082815219,6.4356140625,0.718260498046875,9.686939916992188,11.652031216054947
1.7333996518279033,6.234501123046875,1.6807295654296874,9.586383447265625,11.558226668628306
1.7358865953742848,5.846640454101562,2.5809493896484375,9.481038574218749,11.433923071163608
1.7383735389206665,5.305550878906249,3.414131567382812,9.380482104492186,11.304804686537528
1.740860482467048,4.6255976074218745,4.161122485351562,9.313444458007812,11.200506293747697
1.7433474260134294,3.864241479492187,4.802768530273437,9.270348828125,11.132758650142893
1.7458343695598109,3.0502129150390624,5.329492895507812,9.236830004882812,11.091723125350846
1.7483213131061923,2.2074539306640624,5.741295581054687,9.193734375,11.06164904356936
1.7508082566525738,1.369483349609375,6.0333881835937495,9.160215551757812,11.053814118821236
1.7532952001989555,0.55545478515625,6.196193896484375,9.145850341796875,11.061099732654489
1.755782143745337,-0.2154781494140625,6.248866333007812,9.117119921875,11.055163361548459
1.7582690872917184,-0.9002198242187499,6.2009822998046875,9.093177905273437,11.04302773841307
1.7607560308380998,-1.5083470458984374,6.047753393554687,9.09796630859375,11.028300996637231
1.7632429743844813,-2.0350714111328125,5.8083332275390624,9.117119921875,11.00000573638007
1.765729917930863,-2.4564509033203126,5.501875415039062,9.165003955078124,10.968230560105495
1.7682168614772444,-2.7724855224609373,5.128379956054687,9.222464794921875,10.910582653529202
1.770703805023626,-2.9927520751953125,4.707000463867187,9.275137231445312,10.823150604725722
1.7731907485700074,-3.1124621582031247,4.256890551757812,9.323021264648437,10.711081334626225
1.7756776921163888,-3.1364041748046874,3.7924154296875,9.3852705078125,10.597299110805507
1.7781646356627703,-3.0885201416015624,3.327940307617187,9.447519750976562,10.481878305019285
1.780651579209152,-2.959233251953125,2.877830395507812,9.490615380859374,10.349432328982022
1.7831385227555334,-2.767697119140625,2.4516625,9.543287817382812,10.234507253532666
1.7856254663019149,-2.5378537597656248,2.0446482177734375,9.595960253906249,10.134285432873355
1.7881124098482963,-2.2744915771484373,1.695094775390625,9.634267480468749,10.043195114966823
1.7905993533946778,-1.9728221679687499,1.4030021728515625,9.667786303710937,9.966269834681173
1.7930862969410593,-1.66636435546875,1.139639990234375,9.686939916992188,9.895067176524615
1.795573240487441,-1.35990654296875,0.9433154541015625,9.696516723632811,9.8367487730066
1.7980601840338224,-1.0582371337890624,0.82360537109375,9.706093530273437,9.798287771699728
1.8005471275802039,-0.7661445312499999,0.7517793212890624,9.6917283203125,9.75098699750079
1.8030340711265853,-0.5027823486328125,0.7278373046875,9.686939916992188,9.727247410630003
1.8055210146729668,-0.277727392578125,0.7517793212890624,9.682151513671874,9.71526441154355
1.8080079582193482,-0.076614453125,0.8283937744140625,9.672574707031249,9.70828550687588
1.81049490176573,0.0909796630859375,0.948103857421875,9.667786303710937,9.714590585185475
1.8129818453121114,0.2154781494140625,1.0917559570312498,9.662997900390625,9.726864362452154
1.8154687888584928,0.3016694091796875,1.2689268798828124,9.658209497070311,9.745880696387736
1.8179557324048743,0.3591302490234375,1.4604630126953124,9.639055883789062,9.755681681872531
1.8204426759512558,0.37828386230468747,1.66636435546875,9.629479077148437,9.779914935360964
1.8229296194976372,0.3591302490234375,1.8770541015625,9.610325463867188,9.798503056967952
1.825416563044019,0.32561142578124996,2.0829554443359375,9.581595043945311,9.810794553441907
1.8279035065904004,0.26336218261718747,2.288856787109375,9.562441430664062,9.836082103460203
1.8303904501367818,0.1771709228515625,2.4851813232421875,9.543287817382812,9.863156599725215
1.8328773936831633,0.076614453125,2.6767174560546874,9.514557397460937,9.884203993420723
1.8353643372295447,-0.033518823242187495,2.85388837890625,9.490615380859374,9.91047842932783
1.8378512807759262,-0.143652099609375,3.0023288818359375,9.481038574218749,9.946090040123924
1.8403382243223079,-0.2537853759765625,3.1316157714843746,9.466673364257812,9.974433765523614
1.8428251678686893,-0.3687070556640625,3.2130186279296873,9.447519750976562,9.985742988952394
1.8453121114150708,-0.47884033203125,3.284844677734375,9.433154541015625,10.00019485885667
1.8477990549614522,-0.5746083984375,3.323151904296875,9.428366137695312,10.013371131493452
1.8502859985078337,-0.6607996582031249,3.327940307617187,9.428366137695312,10.020275989501693
1.8527729420542152,-0.737414111328125,3.327940307617187,9.442731347656249,10.039130518459206
1.8552598856005968,-0.8092401611328125,3.308786694335937,9.447519750976562,10.04283667457044
1.8577468291469783,-0.8667010009765624,3.246537451171875,9.442731347656249,10.0227915947088
1.8602337726933598,-0.9050082275390624,3.1603461914062496,9.442731347656249,9.998600064281968
1.8627207162397412,-0.93852705078125,3.0741549316406247,9.452308154296874,9.98385652003101
1.8652076597861227,-0.948103857421875,2.9831752685546875,9.476250170898437,9.979857359142326
1.8676946033325041,-0.948103857421875,2.882618798828125,9.481038574218749,9.954822173682432
1.8701815468788858,-0.93852705078125,2.786850732421875,9.485826977539062,9.931177345997622
1.8726684904252673,-0.9241618408203125,2.6862942626953124,9.490615380859374,9.906666052775911
1.8751554339716487,-0.8954314208984374,2.5905261962890624,9.509768994140625,9.896884849542833
1.8776423775180302,-0.86191259765625,2.499546533203125,9.514557397460937,9.875091324500495
1.8801293210644117,-0.8188169677734375,2.4133552734375,9.514557397460937,9.849951643136169
1.8826162646107931,-0.7805097412109374,2.327164013671875,9.528922607421874,9.839982411614884
1.8851032081571748,-0.7326257080078125,2.2649147705078123,9.5384994140625,9.831050321189952
1.8875901517035563,-0.689530078125,2.2170307373046874,9.557653027343749,9.835619370933685
1.8900770952499377,-0.6464344482421874,2.1787235107421874,9.581595043945311,9.84741982543104
1.8925640387963192,-0.603338818359375,2.1452046874999997,9.586383447265625,9.841984986730047
1.8950509823427006,-0.565031591796875,2.1260510742187497,9.581595043945311,9.830885893757111
1.897537925889082,-0.5267243652343749,2.1308394775390624,9.572018237304688,9.820460710743873
1.9000248694354638,-0.5027823486328125,2.1499930908203124,9.562441430664062,9.814048425372292
1.9025118129818452,-0.47884033203125,2.1643583007812497,9.557653027343749,9.811343756531702
1.9049987565282267,-0.45968671875,2.1883003173828124,9.552864624023437,9.81107500141403
1.9074857000746082,-0.44532150878906246,2.221819140625,9.548076220703125,9.813284417369868
1.9099726436209896,-0.44053310546874996,2.2601263671875,9.548076220703125,9.82181246659834
1.9124595871673713,-0.44053310546874996,2.3032219970703123,9.543287817382812,9.82716863344726
1.9149465307137528,-0.43574470214843747,2.3415292236328122,9.543287817382812,9.83600401158845
1.9174334742601342,-0.430956298828125,2.389413256835937,9.528922607421874,9.833381163245868
1.9199204178065157,-0.44053310546874996,2.437297290039062,9.524134204101562,9.840915599413654
1.9224073613528971,-0.45489831542968745,2.4756045166015626,9.519345800781249,9.846496568569474
1.9248943048992786,-0.47884033203125,2.518700146484375,9.509768994140625,9.849306818928863
1.9273812484456603,-0.488417138671875,2.5617957763671875,9.495403784179686,9.847032137947712
1.9298681919920417,-0.49799394531249996,2.5953145996093747,9.490615380859374,9.851671743816782
1.9323551355384232,-0.5123591552734374,2.6240450195312497,9.509768994140625,9.87845283890335
1.9348420790848047,-0.5267243652343749,2.6431986328124997,9.514557397460937,9.888920064345351
1.9373290226311861,-0.5410895751953124,2.6671406494140624,9.524134204101562,9.905329348884832
1.9398159661775676,-0.55545478515625,2.6767174560546874,9.524134204101562,9.90870721616287
1.9423029097239493,-0.5698199951171875,2.6815058593749996,9.509768994140625,9.897013429445078
1.9447898532703307,-0.5793968017578125,2.6862942626953124,9.504980590820312,9.894267711738337
1.9472767968167122,-0.59376201171875,2.6815058593749996,9.509768994140625,9.898420748904401
1.9497637403630936,-0.603338818359375,2.6719290527343746,9.504980590820312,9.891808662952197
1.952250683909475,-0.59376201171875,2.6671406494140624,9.509768994140625,9.89453884181752
1.9547376274558566,-0.5985504150390625,2.6527754394531247,9.514557397460937,9.89556883666057
1.9572245710022382,-0.6081272216796875,2.6288334228515624,9.504980590820312,9.880548563451331
1.9597115145486197,-0.6081272216796875,2.6192566162109374,9.509768994140625,9.882612522062727
1.9621984580950012,-0.612915625,2.5953145996093747,9.533711010742186,9.89964489619004
1.9646854016413826,-0.6177040283203125,2.5617957763671875,9.533711010742186,9.891208293366523
1.967172345187764,-0.6081272216796875,2.5474305664062498,9.5384994140625,9.891521231867188
1.9696592887341455,-0.5985504150390625,2.518700146484375,9.528922607421874,9.874334361640765
1.9721462322805272,-0.5985504150390625,2.4899697265625,9.528922607421874,9.867045043820205
1.9746331758269087,-0.6081272216796875,2.47081611328125,9.5384994140625,9.872067769999797
1.9771201193732901,-0.5985504150390625,2.4564509033203126,9.533711010742186,9.863268184334917
1.9796070629196716,-0.584185205078125,2.437297290039062,9.519345800781249,9.843761217579159
1.982094006466053,-0.584185205078125,2.422932080078125,9.519345800781249,9.840214260541051
1.9845809500124345,-0.584185205078125,2.408566870117187,9.5384994140625,9.855223883490874
1.9870678935588162,-0.5793968017578125,2.398990063476562,9.543287817382812,9.857240807850523
1.9895548371051976,-0.5793968017578125,2.39420166015625,9.5384994140625,9.851440164537
1.992041780651579,-0.5793968017578125,2.39420166015625,9.533711010742186,9.846803942382977
1.9945287241979606,-0.5793968017578125,2.403778466796875,9.524134204101562,9.839867067651921
1.997015667744342,-0.5793968017578125,2.408566870117187,9.519345800781249,9.836403788812499
1.9995026112907235,-0.5746083984375,2.4133552734375,9.504980590820312,9.823396282307577
2.001989554837105,-0.565031591796875,2.418143676757812,9.504980590820312,9.824018300728229
2.0044764983834864,-0.5602431884765625,2.427720483398437,9.514557397460937,9.83536992925662
2.006963441929868,-0.5698199951171875,2.43250888671875,9.519345800781249,9.84173454151516
2.0094503854762498,-0.5602431884765625,2.437297290039062,9.524134204101562,9.847000703158471
2.011937329022631,-0.55545478515625,2.461239306640625,9.5384994140625,9.866569820103463
2.0144242725690127,-0.5602431884765625,2.4756045166015626,9.548076220703125,9.879688743538884
2.016911216115394,-0.565031591796875,2.480392919921875,9.552864624023437,9.885789410150588
2.0193981596617756,-0.565031591796875,2.4899697265625,9.548076220703125,9.883570683476833
2.021885103208157,-0.5602431884765625,2.499546533203125,9.543287817382812,9.881090408820745
2.0243720467545385,-0.5602431884765625,2.50912333984375,9.543287817382812,9.883517325840545
2.02685899030092,-0.5746083984375,2.5139117431640625,9.5384994140625,9.880936096142092
2.0293459338473014,-0.565031591796875,2.518700146484375,9.5384994140625,9.88160322011057
2.031832877393683,-0.5602431884765625,2.528276953125,9.528922607421874,9.87453405686431
2.0343198209400644,-0.5698199951171875,2.5330653564453125,9.519345800781249,9.86706944344218
2.036806764486446,-0.5698199951171875,2.5330653564453125,9.519345800781249,9.86706944344218
2.0392937080328277,-0.5746083984375,2.5378537597656248,9.504980590820312,9.854721332913593
2.041780651579209,-0.5746083984375,2.528276953125,9.490615380859374,9.838401265991465
2.0442675951255906,-0.565031591796875,2.528276953125,9.495403784179686,9.842466056636692
2.046754538671972,-0.5698199951171875,2.5234885498046875,9.490615380859374,9.836893289816416
2.0492414822183536,-0.5793968017578125,2.5139117431640625,9.485826977539062,9.830379766525462
2.0517284257647352,-0.5793968017578125,2.50912333984375,9.485826977539062,9.829156323726044
2.0542153693111165,-0.5793968017578125,2.499546533203125,9.490615380859374,9.83133835410721
2.056702312857498,-0.584185205078125,2.5043349365234375,9.504980590820312,9.846706142664909
2.0591892564038794,-0.584185205078125,2.499546533203125,9.519345800781249,9.859358483204247
2.061676199950261,-0.59376201171875,2.4899697265625,9.533711010742186,9.871380258206287
2.0641631434966423,-0.59376201171875,2.499546533203125,9.528922607421874,9.869176878364463
2.066650087043024,-0.59376201171875,2.4947581298828125,9.533711010742186,9.872589178605757
2.0691370305894057,-0.584185205078125,2.4899697265625,9.543287817382812,9.88005890460361
2.071623974135787,-0.5746083984375,2.499546533203125,9.5384994140625,9.87729106361017
2.0741109176821686,-0.5746083984375,2.5043349365234375,9.557653027343749,9.896999528995638
2.07659786122855,-0.584185205078125,2.4947581298828125,9.572018237304688,9.909017288093814
2.0790848047749315,-0.5793968017578125,2.499546533203125,9.557653027343749,9.896068154404963
2.081571748321313,-0.603338818359375,-5.042188696289062,9.969455712890625,11.188285471421079
2.0840586918676944,0.16759411621093748,-4.572925170898437,9.9215716796875,10.925992723849035
2.086545635414076,0.8475473876953125,-3.859453076171875,9.86411083984375,10.626118636749952
2.0890325789604574,1.4173673828125,-2.987963671875,9.797073193359374,10.340188603615813
2.091519522506839,1.886630908203125,-2.0254946044921875,9.739612353515625,10.125317445560336
2.0940064660532203,2.24097275390625,-0.9911994873046874,9.672574707031249,9.978132930086865
2.096493409599602,2.4756045166015626,0.06703764648437499,9.605537060546874,9.919649892521596
2.0989803531459836,2.5953145996093747,1.0965443603515623,9.548076220703125,9.955090502929687
2.101467296692365,2.6144682128906247,2.068590234375,9.490615380859374,10.05913962033392
2.1039542402387466,2.5330653564453125,2.959233251953125,9.4618849609375,10.232338371726364
2.106441183785128,2.365471240234375,3.73495458984375,9.433154541015625,10.417761015268807
2.1089281273315095,2.1260510742187497,4.3813890380859375,9.404424121093749,10.590555043181459
2.111415070877891,1.8243816650390623,4.88417138671875,9.404424121093749,10.752985243363016
2.1139020144242724,1.484405029296875,5.252878442382812,9.404424121093749,10.873793416782474
2.116388957970654,1.1061211669921875,5.4779333984375,9.404424121093749,10.939581866012755
2.1188759015170353,0.70868369140625,5.568913061523437,9.390058911132812,10.940211680576216
2.121362845063417,0.316034619140625,5.53539423828125,9.380482104492186,10.896509155063871
2.1238497886097982,-0.08140285644531249,5.382165332031249,9.390058911132812,10.823471552182378
2.12633673215618,-0.45010991210937495,5.157110375976562,9.418789331054686,10.747649921065246
2.1288236757025616,-0.7852981445312499,4.8650177734375,9.442731347656249,10.651303507818984
2.131310619248943,-1.0965443603515623,4.50109912109375,9.457096557617186,10.530858375850688
2.1337975627953245,-1.3551181396484375,4.103661645507812,9.466673364257812,10.406454182802346
2.1362845063417057,-1.5610194824218748,3.706224169921875,9.481038574218749,10.298687871182311
2.1387714498880874,-1.7286135986328124,3.294421484375,9.490615380859374,10.193777425346033
2.141258393434469,-1.8531120849609375,2.896984008789062,9.490615380859374,10.09446982530595
2.1437453369808503,-1.9201497314453124,2.5378537597656248,9.476250170898437,9.996349033451096
2.146232280527232,-1.93451494140625,2.2074539306640624,9.471461767578125,9.91583526129909
2.1487192240736133,-1.905784521484375,1.924938134765625,9.481038574218749,9.860400291612317
2.151206167619995,-1.848323681640625,1.6903063720703124,9.485826977539062,9.810930104296071
2.153693111166376,-1.7621324218749999,1.5179238525390624,9.485826977539062,9.76678641837416
2.156180054712758,-1.6424223388671875,1.388636962890625,9.5001921875,9.740611651911397
2.1586669982591395,-1.5035586425781249,1.3168109130859373,9.524134204101562,9.731588354951667
2.161153941805521,-1.3359645263671873,1.3072341064453123,9.533711010742186,9.71521012953977
2.1636408853519025,-1.1635820068359375,1.3311761230468748,9.543287817382812,9.705683660753097
2.1661278288982837,-0.9959878906249999,1.388636962890625,9.567229833984374,9.718651716635307
2.1686147724446654,-0.82360537109375,1.4987702392578124,9.581595043945311,9.733016059965006
2.171101715991047,-0.6607996582031249,1.6328455322265625,9.591171850585937,9.75158541919547
2.1735886595374283,-0.5123591552734374,1.7764976318359373,9.595960253906249,9.772456647868012
2.17607560308381,-0.37828386230468747,1.93451494140625,9.600748657226562,9.801011249776312
2.178562546630191,-0.258573779296875,2.0925322509765625,9.595960253906249,9.824866656360554
2.181049490176573,-0.1580173095703125,2.2553379638671873,9.572018237304688,9.8353979043391
2.1835364337229546,-0.0909796630859375,2.4133552734375,9.562441430664062,9.862699787066642
2.186023377269336,-0.0383072265625,2.5570073730468748,9.552864624023437,9.88923539381794
2.1885103208157175,-0.0047884033203125,2.6862942626953124,9.543287817382812,9.914158671314642
2.1909972643620987,0.009576806640625,2.786850732421875,9.533711010742186,9.932687166943927
2.1934842079084804,0.0047884033203125,2.863465185546875,9.533711010742186,9.954451337667594
2.1959711514548617,-0.028730419921875,2.920926025390625,9.524134204101562,9.962016192547091
2.1984580950012433,-0.062249243164062495,2.959233251953125,9.519345800781249,9.968895670162826
2.200945038547625,-0.1005564697265625,2.9735984619140625,9.524134204101562,9.97805250307087
2.2034319820940063,-0.16759411621093748,2.9735984619140625,9.528922607421874,9.983523509198639
2.205918925640388,-0.2346317626953125,2.9496564453125,9.528922607421874,9.977769854415103
2.208405869186769,-0.3016694091796875,2.91134921875,9.519345800781249,9.95916177099271
2.210892812733151,-0.37828386230468747,2.8730419921875,9.504980590820312,9.936907215085775
2.2133797562795325,-0.45010991210937495,2.825157958984375,9.504980590820312,9.926166050296695
2.2158666998259138,-0.5267243652343749,2.767697119140625,9.509768994140625,9.918331120816106
2.2183536433722955,-0.59376201171875,2.7054478759765623,9.509768994140625,9.904933511039072
2.2208405869186767,-0.6368576416015624,2.6431986328124997,9.519345800781249,9.900001572879662
2.2233275304650584,-0.689530078125,2.5809493896484375,9.528922607421874,9.896318383055458
2.2258144740114396,-0.7422025146484375,2.5234885498046875,9.533711010742186,9.889919345985215
2.2283014175578213,-0.7757213378906249,2.4756045166015626,9.528922607421874,9.875764647606411
2.230788361104203,-0.7948749511718749,2.427720483398437,9.519345800781249,9.856145159663814
2.233275304650584,-0.814028564453125,2.384624853515625,9.519345800781249,9.847183489231915
2.235762248196966,-0.8283937744140625,2.35589443359375,9.528922607421874,9.850727936856327
2.238249191743347,-0.8283937744140625,2.3319524169921872,9.533711010742186,9.8496641545258
2.240736135289729,-0.814028564453125,2.31758720703125,9.519345800781249,9.831164602466593
2.2432230788361105,-0.7996633544921875,2.308010400390625,9.519345800781249,9.827732086482648
2.2457100223824917,-0.7852981445312499,2.31758720703125,9.514557397460937,9.824189844846128
2.2481969659288734,-0.7613561279296874,2.3319524169921872,9.504980590820312,9.816431187581495
2.2506839094752547,-0.7326257080078125,2.346317626953125,9.509768994140625,9.822303861951294
2.2531708530216363,-0.70868369140625,2.370259643554687,9.514557397460937,9.83092904164748
2.2556577965680176,-0.6751648681640625,2.39420166015625,9.5001921875,9.820473552132503
2.2581447401143993,-0.6368576416015624,2.418143676757812,9.5001921875,9.823780234540374
2.260631683660781,-0.603338818359375,2.43250888671875,9.509768994140625,9.834471187390982
2.263118627207162,-0.565031591796875,2.461239306640625,9.519345800781249,9.84859909322808
2.265605570753544,-0.5363011718749999,2.480392919921875,9.514557397460937,9.847170682674882
2.268092514299925,-0.507570751953125,2.4947581298828125,9.514557397460937,9.849276555383817
2.2705794578463068,-0.49320554199218747,2.5234885498046875,9.514557397460937,9.855863667747531
2.2730664013926885,-0.488417138671875,2.5330653564453125,9.528922607421874,9.871946994367805
2.2755533449390697,-0.47884033203125,2.5426421630859375,9.5384994140625,9.883182094100704
2.2780402884854514,-0.4644751220703125,2.5522189697265625,9.5384994140625,9.884964839620068
2.2805272320318326,-0.4644751220703125,2.5570073730468748,9.533711010742186,9.881582336912702
2.2830141755782143,-0.4644751220703125,2.5665841796874997,9.533711010742186,9.88406480790121
2.2855011191245955,-0.469263525390625,2.5713725830078125,9.519345800781249,9.87168221185011
2.287988062670977,-0.47884033203125,2.5809493896484375,9.5001921875,9.856177728457542
2.290475006217359,-0.4836287353515625,2.5713725830078125,9.5001921875,9.853908123873392
2.29296194976374,-0.49799394531249996,2.5713725830078125,9.504980590820312,9.859239877499839
2.295448893310122,-0.507570751953125,2.5761609863281247,9.519345800781249,9.874825465321853
2.297935836856503,-0.51714755859375,2.5570073730468748,9.528922607421874,9.879579665219126
2.3004227804028847,-0.5315127685546874,2.5426421630859375,9.524134204101562,9.872014350190963
2.3029097239492664,-0.5410895751953124,2.5522189697265625,9.509768994140625,9.861151348586814
2.3053966674956476,-0.5506663818359374,2.5378537597656248,9.495403784179686,9.844116425289508
2.3078836110420293,-0.565031591796875,2.50912333984375,9.5001921875,9.842185338313499
2.3103705545884106,-0.5889736083984375,2.5043349365234375,9.504980590820312,9.846991389127574
2.3128574981347922,-0.603338818359375,2.4947581298828125,9.524134204101562,9.863922556168665
2.315344441681174,-0.6081272216796875,2.480392919921875,9.552864624023437,9.888346185276124
2.317831385227555,-0.612915625,2.4756045166015626,9.562441430664062,9.89669487257578
2.320318328773937,-0.6272808349609375,2.4756045166015626,9.562441430664062,9.897594914089378
2.322805272320318,-0.622492431640625,2.4660277099609376,9.548076220703125,9.881019634131972
2.3252922158666998,-0.6177040283203125,2.4660277099609376,9.533711010742186,9.86683822555357
2.327779159413081,-0.63206923828125,2.47081611328125,9.514557397460937,9.850443962442014
2.3302661029594627,-0.622492431640625,2.4756045166015626,9.490615380859374,9.827914064412267
2.3327530465058444,-0.6177040283203125,2.4851813232421875,9.485826977539062,9.825405738380619
2.3352399900522256,-0.612915625,2.4899697265625,9.490615380859374,9.830940703206963
2.3377269335986073,-0.603338818359375,2.4899697265625,9.5001921875,9.839594431091815
2.3402138771449885,-0.5985504150390625,2.4899697265625,9.509768994140625,9.848549038333493
2.34270082069137,-0.5985504150390625,2.4899697265625,9.509768994140625,9.848549038333493
2.345187764237752,-0.603338818359375,2.4947581298828125,9.524134204101562,9.863922556168665
2.347674707784133,-0.6081272216796875,2.50912333984375,9.5384994140625,9.881725037885195
2.350161651330515,-0.5793968017578125,2.5139117431640625,9.5384994140625,9.881215713583831
2.352648594876896,-0.5698199951171875,2.5139117431640625,9.543287817382812,9.885281455004744
2.3551355384232777,-0.5746083984375,2.499546533203125,9.548076220703125,9.886539697971132
2.357622481969659,-0.565031591796875,2.499546533203125,9.557653027343749,9.895237488937262
2.3601094255160406,-0.5506663818359374,2.499546533203125,9.543287817382812,9.880552044351532
2.3625963690624223,-0.5506663818359374,2.4947581298828125,9.5384994140625,9.874716333281242
2.3650833126088036,-0.55545478515625,2.4947581298828125,9.548076220703125,9.884235309892508
2.3675702561551852,-0.5458779785156249,2.5043349365234375,9.548076220703125,9.886123393832216
2.3700571997015665,-0.5458779785156249,2.5043349365234375,9.533711010742186,9.872250091953047
2.372544143247948,-0.5506663818359374,2.5043349365234375,9.528922607421874,9.867892023963975
2.37503108679433,-0.5506663818359374,2.5139117431640625,9.528922607421874,9.870326832214735
2.377518030340711,-0.5458779785156249,2.50912333984375,9.519345800781249,9.859595690332771
2.3800049738870928,-0.5506663818359374,2.5139117431640625,9.514557397460937,9.856459211404525
2.382491917433474,-0.55545478515625,2.518700146484375,9.514557397460937,9.85795023906248
2.3849788609798557,-0.565031591796875,2.5139117431640625,9.504980590820312,9.848028685174386
2.387465804526237,-0.5698199951171875,2.5043349365234375,9.5001921875,9.841241786510645
2.3899527480726186,-0.5746083984375,2.5043349365234375,9.490615380859374,9.83227586031084
2.3924396916190003,-0.5746083984375,2.5139117431640625,9.5001921875,9.843961533011448
2.3949266351653815,-0.5889736083984375,2.518700146484375,9.509768994140625,9.85527506775984
2.397413578711763,-0.59376201171875,2.518700146484375,9.5001921875,9.84632192008248
2.3999005222581444,-0.584185205078125,2.5139117431640625,9.5001921875,9.844525189448518
2.402387465804526,-0.584185205078125,2.50912333984375,9.504980590820312,9.847925076900802
2.404874409350908,-0.5889736083984375,2.5139117431640625,9.495403784179686,9.840189794329271
2.407361352897289,-0.584185205078125,2.5139117431640625,9.504980590820312,9.849146188280546
2.4098482964436707,-0.584185205078125,2.499546533203125,9.514557397460937,9.854735292997908
2.412335239990052,-0.584185205078125,2.499546533203125,9.528922607421874,9.868605336303384
2.4148221835364336,-0.5793968017578125,2.5043349365234375,9.533711010742186,9.874160205532712
2.417309127082815,-0.584185205078125,2.5043349365234375,9.543287817382812,9.883688997208036
2.4197960706291965,-0.5793968017578125,2.5139117431640625,9.543287817382812,9.885838116806918
2.4222830141755782,-0.584185205078125,2.5139117431640625,9.5384994140625,9.881497643491143
2.4247699577219595,-0.584185205078125,2.5234885498046875,9.528922607421874,9.874696596506812
2.427256901268341,-0.5793968017578125,2.518700146484375,9.533711010742186,9.877813357121827
2.4297438448147224,-0.5793968017578125,2.5139117431640625,9.528922607421874,9.871971381874092
2.432230788361104,-0.584185205078125,2.5139117431640625,9.519345800781249,9.863010143009179
2.4347177319074857,-0.59376201171875,2.50912333984375,9.533711010742186,9.876228981623287
2.437204675453867,-0.584185205078125,2.5043349365234375,9.543287817382812,9.883688997208036
2.4396916190002487,-0.5602431884765625,2.5139117431640625,9.543287817382812,9.884734040330056
2.44217856254663,-0.5698199951171875,2.528276953125,9.543287817382812,9.888944409993696
2.4446655060930116,-0.5793968017578125,2.528276953125,9.528922607421874,9.875639273678738
2.4471524496393933,-0.5746083984375,2.518700146484375,9.509768994140625,9.854427003198802
2.4496393931857745,-0.5602431884765625,2.5234885498046875,9.5001921875,9.845583704924039
2.452126336732156,-0.5602431884765625,2.528276953125,9.490615380859374,9.83757272345887
2.4546132802785374,-0.5602431884765625,2.5234885498046875,9.485826977539062,9.83172316224565
2.457100223824919,-0.5602431884765625,2.518700146484375,9.485826977539062,9.830495221805595
2.4595871673713003,-0.55545478515625,2.5139117431640625,9.504980590820312,9.847483856429621
2.462074110917682,-0.5506663818359374,2.5043349365234375,9.524134204101562,9.863268184334919
2.4645610544640637,-0.5506663818359374,2.5043349365234375,9.5384994140625,9.877140173676123
2.467047998010445,-0.5602431884765625,2.50912333984375,9.543287817382812,9.883517325840545
2.4695349415568266,-0.55545478515625,2.50912333984375,9.524134204101562,9.864753534206464
2.472021885103208,-0.5602431884765625,2.5043349365234375,9.519345800781249,9.859184062556993
2.4745088286495895,-0.5602431884765625,2.5043349365234375,9.519345800781249,9.859184062556993
2.4769957721959712,-0.5602431884765625,2.5139117431640625,9.528922607421874,9.870865754374753
2.4794827157423525,-0.5602431884765625,2.518700146484375,9.514557397460937,9.858221205050809
2.481969659288734,-0.565031591796875,2.5043349365234375,9.509768994140625,9.850211190423217
2.4844566028351154,-0.5698199951171875,2.4947581298828125,9.524134204101562,9.861929085690539
2.486943546381497,-0.5698199951171875,2.50912333984375,9.528922607421874,9.870195581629561
2.4894304899278783,-0.5698199951171875,2.5043349365234375,9.524134204101562,9.864356068130576
2.49191743347426,-0.5698199951171875,2.499546533203125,9.519345800781249,9.858517747274927
2.4944043770206417,-0.5698199951171875,2.4947581298828125,9.514557397460937,9.852680621182763
2.496891320567023,-0.5746083984375,2.480392919921875,9.5001921875,9.83545501988543
2.4993782641134046,-0.5793968017578125,2.4851813232421875,9.495403784179686,9.83232016809323
2.501865207659786,-0.5793968017578125,2.4851813232421875,9.5001921875,9.836944569464393
2.5043521512061675,-0.584185205078125,2.47081611328125,9.509768994140625,9.842860912427891
2.506839094752549,-0.584185205078125,2.47081611328125,9.524134204101562,9.856740686313085
2.5093260382989304,-0.584185205078125,2.4756045166015626,9.528922607421874,9.86256843498112
2.511812981845312,-0.5793968017578125,2.4756045166015626,9.533711010742186,9.866912587676655
2.5142999253916933,-0.5746083984375,2.4756045166015626,9.5384994140625,9.871259474162535
2.516786868938075,-0.5698199951171875,2.4851813232421875,9.5384994140625,9.87338807645571
2.5192738124844563,-0.5698199951171875,2.4947581298828125,9.533711010742186,9.87117817637786
2.521760756030838,-0.5793968017578125,2.4947581298828125,9.5384994140625,9.876360152028388
2.5242476995772196,-0.5793968017578125,2.4899697265625,9.533711010742186,9.870526608516473
2.526734643123601,-0.5698199951171875,2.499546533203125,9.524134204101562,9.86314148921227
2.5292215866699825,-0.5602431884765625,2.499546533203125,9.519345800781249,9.857968846407141
2.5317085302163638,-0.5602431884765625,2.5043349365234375,9.514557397460937,9.854560790522573
2.5341954737627455,-0.5698199951171875,2.499546533203125,9.514557397460937,9.853894162617221
2.536682417309127,-0.5746083984375,2.499546533203125,9.509768994140625,9.849548923941699
2.5391693608555084,-0.5746083984375,2.50912333984375,9.5001921875,9.84273977841229
2.54165630440189,-0.565031591796875,2.50912333984375,9.495403784179686,9.837563400501725
2.5441432479482713,-0.565031591796875,2.50912333984375,9.504980590820312,9.846807435212085
2.546630191494653,-0.565031591796875,2.5043349365234375,9.509768994140625,9.850211190423217
2.549117135041034,-0.5746083984375,2.5139117431640625,9.504980590820312,9.848582796313586
2.551604078587416,-0.5698199951171875,2.518700146484375,9.509768994140625,9.854148952428828
2.5540910221337976,-0.565031591796875,2.50912333984375,9.514557397460937,9.856052105374435
2.556577965680179,-0.5698199951171875,2.5043349365234375,9.509768994140625,9.850487024662568
2.5590649092265605,-0.5746083984375,2.518700146484375,9.519345800781249,9.863669181106335
2.5615518527729417,-0.5793968017578125,2.5139117431640625,9.528922607421874,9.871971381874092
2.5640387963193234,-0.5793968017578125,2.518700146484375,9.519345800781249,9.863949288020452
2.566525739865705,-0.565031591796875,2.528276953125,9.519345800781249,9.865565849270032
2.5690126834120863,-0.5746083984375,2.528276953125,9.5384994140625,9.884600661398952
2.571499626958468,-0.5746083984375,2.5330653564453125,9.533711010742186,9.881206431804019
2.5739865705048492,-0.5602431884765625,2.5378537597656248,9.509768994140625,9.85851309570106
2.576473514051231,-0.5602431884765625,2.5426421630859375,9.5001921875,9.850510301460162
2.5789604575976126,-0.565031591796875,2.5474305664062498,9.5001921875,9.852020848020238
2.581447401143994,-0.5698199951171875,2.5522189697265625,9.5001921875,9.853535816939191
2.5839343446903755,-0.5746083984375,2.5474305664062498,9.504980590820312,9.857191959888304
2.5864212882367568,-0.5746083984375,2.5426421630859375,9.524134204101562,9.87442840466194
2.5889082317831384,-0.5698199951171875,2.5378537597656248,9.528922607421874,9.877538285981359
2.5913951753295197,-0.5698199951171875,2.5234885498046875,9.533711010742186,9.87847837089182
2.5938821188759014,-0.5698199951171875,2.5139117431640625,9.524134204101562,9.866791748942045
2.596369062422283,-0.565031591796875,2.5139117431640625,9.524134204101562,9.86651637052734
2.5988560059686643,-0.5698199951171875,2.5234885498046875,9.528922607421874,9.873857166582187
2.601342949515046,-0.584185205078125,2.5234885498046875,9.519345800781249,9.86545545272387
2.603829893061427,-0.584185205078125,2.5139117431640625,9.528922607421874,9.872253575779244
2.606316836607809,-0.584185205078125,2.5139117431640625,9.5384994140625,9.881497643491143
2.6088037801541906,-0.59376201171875,2.5139117431640625,9.543287817382812,9.88669044445034
2.611290723700572,-0.59376201171875,2.518700146484375,9.548076220703125,9.892530680812527
2.6137776672469535,-0.584185205078125,2.518700146484375,9.543287817382812,9.88733862812131
2.6162646107933347,-0.584185205078125,2.528276953125,9.5384994140625,9.885162000574693
2.6187515543397164,-0.584185205078125,2.5234885498046875,9.528922607421874,9.874696596506812
2.6212384978860976,-0.5793968017578125,2.5234885498046875,9.5001921875,9.846692171197319
2.6237254414324793,-0.5746083984375,2.5234885498046875,9.476250170898437,9.82331342134633
2.626212384978861,-0.5793968017578125,2.5234885498046875,9.471461767578125,9.818975666003897
2.6286993285252422,-0.5746083984375,2.518700146484375,9.476250170898437,9.8220844295347
2.631186272071624,-0.5746083984375,2.5139117431640625,9.495403784179686,9.839340429550498
2.633673215618005,-0.584185205078125,2.5139117431640625,9.514557397460937,9.858388665285467
2.636160159164387,-0.584185205078125,2.499546533203125,9.514557397460937,9.854735292997908
2.6386471027107685,-0.5793968017578125,2.4899697265625,9.524134204101562,9.86127690671052
2.6411340462571498,-0.5746083984375,2.4947581298828125,9.519345800781249,9.857582736808395
2.6436209898035314,-0.5746083984375,2.4947581298828125,9.519345800781249,9.857582736808395
2.6461079333499127,-0.5746083984375,2.4851813232421875,9.5384994140625,9.873665585435702
2.6485948768962944,-0.5746083984375,2.480392919921875,9.543287817382812,9.877087942008043
2.6510818204426756,-0.5746083984375,2.4756045166015626,9.5384994140625,9.871259474162535
2.6535687639890573,-0.5746083984375,2.4756045166015626,9.548076220703125,9.880513754381877
2.656055707535439,-0.5698199951171875,2.480392919921875,9.552864624023437,9.886064251710707
2.65854265108182,-0.5746083984375,2.480392919921875,9.533711010742186,9.867835096164724
2.661029594628202,-0.5793968017578125,2.4899697265625,9.519345800781249,9.856652290100149
2.663516538174583,0.354341845703125,-3.758896606445312,9.883264453125,10.579876090577175
2.666003481720965,1.8339584716796873,-3.21780703125,9.840168823242188,10.51411471480672
2.6684904252673465,3.0502129150390624,-2.5234885498046875,9.792284790039062,10.562226786871072
2.6709773688137277,3.9935283691406247,-1.7286135986328124,9.734823950195311,10.663168907496754
2.6734643123601094,4.65432802734375,-0.8810662109374999,9.677363110351562,10.774525689039244
2.6759512559064906,5.03740029296875,-0.01915361328125,9.624690673828125,10.863260980910725
2.6784381994528723,5.176263989257812,0.8379705810546875,9.572018237304688,10.914185114633794
2.6809251429992536,5.104437939453125,1.6519991455078125,9.519345800781249,10.927137426121199
2.6834120865456352,4.817133740234374,2.403778466796875,9.485826977539062,10.907054682018817
2.685899030092017,4.357447021484375,3.0693665283203124,9.457096557617186,10.855645108896613
2.688385973638398,3.778050219726562,3.6296097167968746,9.442731347656249,10.798745550435578
2.69087291718478,3.1220389648437497,4.084508032226562,9.423577734375,10.73471706563029
2.693359860731161,2.403778466796875,4.438849877929687,9.414000927734374,10.681991978260253
2.6958468042775428,1.66636435546875,4.678270043945313,9.414000927734374,10.643608139941854
2.6983337478239244,0.93852705078125,4.8123453369140625,9.418789331054686,10.61852593958108
2.7008206913703057,0.24899697265624998,4.836287353515624,9.414000927734374,10.586552239778104
2.7033076349166874,-0.38786066894531246,4.76924970703125,9.409212524414063,10.556015299161082
2.7057945784630686,-0.967257470703125,4.639962817382812,9.418789331054686,10.544118475440023
2.7082815220094503,-1.455674609375,4.44363828125,9.423577734375,10.519920487284006
2.7107684655558315,-1.848323681640625,4.209006518554688,9.437942944335937,10.497942813994078
2.713255409102213,-2.1643583007812497,3.921702319335937,9.466673364257812,10.47292225318196
2.715742352648595,-2.375048046875,3.6152445068359373,9.471461767578125,10.412465322096699
2.718229296194976,-2.4756045166015626,3.318363500976562,9.485826977539062,10.349930796630446
2.720716239741358,-2.518700146484375,3.0262708984374997,9.514557397460937,10.297036877092786
2.723203183287739,-2.480392919921875,2.73896669921875,9.514557397460937,10.206913837502816
2.7256901268341207,-2.365471240234375,2.4851813232421875,9.504980590820312,10.105257860620805
2.7281770703805024,-2.2170307373046874,2.269703173828125,9.504980590820312,10.020550574659563
2.7306640139268836,-2.0254946044921875,2.0877438476562498,9.519345800781249,9.95385589814847
2.7331509574732653,-1.7956512451171873,1.9393033447265624,9.519345800781249,9.879433451965255
2.7356379010196465,-1.5466542724609373,1.8052280517578123,9.519345800781249,9.811673263629736
2.7381248445660282,-1.3024457031249999,1.7286135986328124,9.533711010742186,9.776303770818185
2.74061178811241,-1.0534487304687499,1.6998831787109374,9.543287817382812,9.750574312028897
2.743098731658791,-0.82360537109375,1.6903063720703124,9.567229833984374,9.750248619139752
2.745585675205173,-0.5985504150390625,1.714248388671875,9.576806640625,9.747416866499895
2.748072618751554,-0.4070142822265625,1.7669208251953124,9.591171850585937,9.76105769350419
2.7505595622979357,-0.24899697265624998,1.838746875,9.595960253906249,9.773711820862262
2.753046505844317,-0.1197100830078125,1.93451494140625,9.581595043945311,9.775665816130127
2.7555334493906987,-0.0143652099609375,2.039859814453125,9.572018237304688,9.78696927333337
2.7580203929370803,0.047884033203124995,2.1404162841796874,9.557653027343749,9.794508979081622
2.7605073364834616,0.08140285644531249,2.2457611572265623,9.562441430664062,9.82295045875859
2.7629942800298433,0.0909796630859375,2.360682836914062,9.543287817382812,9.831350015181183
2.7654812235762245,0.06703764648437499,2.4660277099609376,9.514557397460937,9.829170320119598
2.767968167122606,0.033518823242187495,2.5426421630859375,9.509768994140625,9.843874186667172
2.770455110668988,-0.01915361328125,2.6288334228515624,9.5001921875,9.857219873039213
2.772942054215369,-0.08140285644531249,2.710236279296875,9.495403784179686,9.87495317149749
2.775428997761751,-0.16280571289062498,2.7533319091796873,9.495403784179686,9.887873144760242
2.777915941308132,-0.2537853759765625,2.7964275390625,9.5001921875,9.906465848006683
2.7804028848545137,-0.33039982910156246,2.8203695556640622,9.485826977539062,9.901745397928332
2.782889828400895,-0.411802685546875,2.8203695556640622,9.466673364257812,9.88645388741022
2.7853767719472766,-0.507570751953125,2.81558115234375,9.466673364257812,9.88954143927917
2.7878637154936583,-0.565031591796875,2.8012159423828122,9.471461767578125,9.893162258362201
2.7903506590400395,-0.622492431640625,2.77727392578125,9.481038574218749,9.899032262403136
2.792837602586421,-0.6847416748046875,2.748543505859375,9.504980590820312,9.91806526479267
2.7953245461328025,-0.8044517578125,-2.9735984619140625,10.36210478515625,10.810302771981151
2.797811489679184,0.5458779785156249,-2.7246014892578123,10.275913525390624,10.644991067351826
2.800298433225566,1.7621324218749999,-2.308010400390625,10.204087475585936,10.609214103313407
2.802785376771947,2.8203695556640622,-1.7525556152343749,10.122684619140625,10.653388170605275
2.8052723203183287,3.67749375,-1.1013327636718748,10.031704956054687,10.741135808794077
2.80775926386471,4.338293408203125,-0.373495458984375,9.969455712890625,10.878894050629786
2.8102462074110917,4.7884033203125,0.38786066894531246,9.888052856445311,10.993308489638174
2.812733150957473,5.05655390625,1.16837041015625,9.787496386718749,11.078308189528462
2.8152200945038546,5.128379956054687,1.93451494140625,9.686939916992188,11.130113835338976
2.8177070380502363,4.99909306640625,2.6623522460937497,9.572018237304688,11.122166340428695
2.8201939815966175,4.716577270507813,3.318363500976562,9.447519750976562,11.06857113264294
2.822680925142999,4.290409374999999,3.878606689453125,9.361328491210937,11.003893564412374
2.8251678686893804,3.744531396484375,4.3430818115234375,9.303867651367186,10.92912751664101
2.827654812235762,3.1124621582031247,4.7022120605468745,9.246406811523437,10.83024735972295
2.8301417557821438,2.4133552734375,4.965574243164062,9.222464794921875,10.748724023519085
2.832628699328525,1.675941162109375,5.109226342773437,9.217676391601563,10.671388412986914
2.8351156428749067,0.928950244140625,5.157110375976562,9.212887988281249,10.598869801573702
2.837602586421288,0.19632453613281248,5.104437939453125,9.198522778320312,10.521722829674514
2.8400895299676696,-0.5219359619140624,4.96078583984375,9.188945971679686,10.455550744345405
2.842576473514051,-1.16837041015625,4.745307690429687,9.208099584960937,10.424592675914854
2.8450634170604325,-1.7381904052734374,4.4819455078125,9.2320416015625,10.408637449395862
2.847550360606814,-2.2361843505859373,4.165910888671875,9.251195214843749,10.389415136825953
2.8500373041531954,-2.6431986328124997,3.825934252929687,9.284714038085937,10.384131484590927
2.852524247699577,-2.940079638671875,3.4620156005859375,9.313444458007812,10.361943252731592
2.8550111912459584,-3.1459809814453124,3.0885201416015624,9.342174877929686,10.330168655472896
2.85749813479234,-3.2704794677734372,2.7341782958984373,9.375693701171874,10.299291202849043
2.8599850783387217,-3.294421484375,2.398990063476562,9.409212524414063,10.253860081499129
2.862472021885103,-3.227383837890625,2.0973206542968748,9.433154541015625,10.1881875207861
2.8649589654314846,-3.0933085449218747,1.8339584716796873,9.471461767578125,10.131167230118479
2.867445908977866,-2.882618798828125,1.608903515625,9.528922607421874,10.084563833908906
2.8699328525242476,-2.6192566162109374,1.4317325927734375,9.572018237304688,10.02665929280875
2.8724197960706292,-2.31758720703125,1.3263877197265623,9.595960253906249,9.960570668379638
2.8749067396170105,-1.9823989746093749,1.2641384765625,9.595960253906249,9.879797820654355
2.877393683163392,-1.6328455322265625,1.235408056640625,9.595960253906249,9.811975886286783
2.8798806267097734,-1.2832920898437499,1.2689268798828124,9.591171850585937,9.759487255067079
2.882367570256155,-0.928950244140625,1.3407529296874998,9.595960253906249,9.733602630532182
2.8848545138025363,-0.584185205078125,1.4413093994140624,9.610325463867188,9.735347998922563
2.887341457348918,-0.2825157958984375,1.5801730957031248,9.6151138671875,9.748188388941685
2.8898284008952997,-0.01915361328125,1.7238251953125,9.629479077148437,9.782576729171891
2.892315344441681,0.2154781494140625,1.886630908203125,9.643844287109374,9.82901519231069
2.8948022879880626,0.43574470214843747,2.068590234375,9.648632690429688,9.877502305645415
2.897289231534444,0.584185205078125,2.250549560546875,9.648632690429688,9.92483543808855
2.8997761750808255,0.6847416748046875,2.422932080078125,9.643844287109374,9.967106082504497
2.902263118627207,0.7422025146484375,2.5761609863281247,9.639055883789062,10.004942195287192
2.9047500621735884,0.7422025146484375,2.7246014892578123,9.6151138671875,10.021214124396192
2.90723700571997,0.699106884765625,2.849099975585937,9.581595043945311,10.020632948739706
2.9097239492663514,0.6272808349609375,2.940079638671875,9.567229833984374,10.02843139398794
2.912210892812733,0.5123591552734374,3.0214824951171875,9.552864624023437,10.032402050217613
2.9146978363591143,0.3687070556640625,3.0645781249999997,9.5384994140625,10.025495252065886
2.917184779905496,0.2154781494140625,3.0885201416015624,9.533711010742186,10.023823279283222
2.9196717234518776,0.05746083984375,3.0980969482421874,9.514557397460937,10.006413389341944
2.922158666998259,-0.11013327636718749,3.0837317382812497,9.495403784179686,9.984198705798095
2.9246456105446406,-0.28730419921875,3.0550013183593747,9.466673364257812,9.95155672965866
2.927132554091022,-0.45968671875,3.0071172851562498,9.442731347656249,9.920647234434385
2.9296194976374035,-0.6177040283203125,2.93050283203125,9.437942944335937,9.901725715030022
2.932106441183785,-0.7565677246093749,2.839523168945312,9.442731347656249,9.889411602967481
2.9345933847301664,-0.8810662109374999,2.7629087158203123,9.442731347656249,9.87801182141536
2.937080328276548,-1.0007762939453124,2.6862942626953124,9.457096557617186,9.882024355181862
2.9395672718229293,-1.0917559570312498,2.6001030029296874,9.466673364257812,9.877771574657187
2.942054215369311,-1.149216796875,2.518700146484375,9.471461767578125,9.867782815243462
2.9445411589156922,-1.197100830078125,2.437297290039062,9.495403784179686,9.876039768146917
2.947028102462074,-1.2210428466796874,2.379836450195312,9.504980590820312,9.87416949393602
2.9495150460084556,-1.2114660400390624,2.3223756103515623,9.495403784179686,9.850064541227008
2.952001989554837,-1.1875240234375,2.27927998046875,9.490615380859374,9.832451924266467
2.9544889331012185,-1.1444283935546875,2.2649147705078123,9.490615380859374,9.824018300728229
2.9569758766475998,-1.0869675537109373,2.2361843505859373,9.5001921875,9.820166521605518
2.9594628201939814,-1.0295067138671874,2.2170307373046874,9.514557397460937,9.823538661481921
2.961949763740363,-0.9624690673828125,2.2266075439453124,9.533711010742186,9.837467839681597
2.9644367072867444,-0.8858546142578124,2.2553379638671873,9.5384994140625,9.841456132144934
2.966923650833126,-0.7948749511718749,2.27927998046875,9.533711010742186,9.83456094870091
2.9694105943795073,-0.70868369140625,2.308010400390625,9.519345800781249,9.820747886878477
2.971897537925889,-0.622492431640625,2.3415292236328122,9.509768994140625,9.813560121306372
2.97438448147227,-0.5506663818359374,2.379836450195312,9.509768994140625,9.818480601176585
2.976871425018652,-0.4836287353515625,2.418143676757812,9.514557397460937,9.82894287625481
2.9793583685650336,-0.4165910888671875,2.4564509033203126,9.519345800781249,9.840002218017958
2.981845312111415,-0.3687070556640625,2.4947581298828125,9.5384994140625,9.866242146409316
2.9843322556577965,-0.32561142578124996,2.5330653564453125,9.557653027343749,9.892986116017541
2.9868191992041777,-0.28730419921875,2.5617957763671875,9.557653027343749,9.899195557912503
2.9893061427505594,-0.27293898925781246,2.5953145996093747,9.567229833984374,9.916755530872146
2.991793086296941,-0.26336218261718747,2.6336218261718747,9.567229833984374,9.926591069385424
2.9942800298433223,-0.258573779296875,2.6575638427734374,9.552864624023437,9.91900844352272
2.996766973389704,-0.26815058593749996,2.6719290527343746,9.519345800781249,9.890857095036619
2.9992539169360852,-0.2920926025390625,2.6767174560546874,9.509768994140625,9.883614761306934
3.001740860482467,-0.316034619140625,2.6719290527343746,9.514557397460937,9.887663283755167
3.0042278040288486,-0.3399766357421875,2.6671406494140624,9.490615380859374,9.864127111103748
3.00671474757523,-0.37828386230468747,2.6671406494140624,9.490615380859374,9.86552169079981
3.0092016911216115,-0.411802685546875,2.6479870361328124,9.509768994140625,9.88013780861732
3.0116886346679927,-0.45489831542968745,2.6240450195312497,9.509768994140625,9.875639273678738
3.0141755782143744,-0.49799394531249996,2.6001030029296874,9.509768994140625,9.871384903716919
3.0166625217607557,-0.5410895751953124,2.5713725830078125,9.519345800781249,9.875357176521815
3.0191494653071373,-0.584185205078125,2.5522189697265625,9.514557397460937,9.868226613370963
3.021636408853519,-0.6177040283203125,2.5330653564453125,9.5001921875,9.85147856750765
3.0241233523999003,-0.6416460449218749,2.5043349365234375,9.495403784179686,9.84104141571763
3.026610295946282,-0.6607996582031249,2.4851813232421875,9.509768994140625,9.851319136013794
3.029097239492663,-0.679953271484375,2.47081611328125,9.528922607421874,9.867503978985175
3.031584183039045,-0.699106884765625,2.437297290039062,9.5384994140625,9.869758841452466
3.0340711265854265,-0.7038952880859375,2.427720483398437,9.548076220703125,9.876996245744877
3.036558070131808,-0.70868369140625,2.422932080078125,9.552864624023437,9.88079222350391
3.0390450136781895,-0.7230489013671875,2.4133552734375,9.552864624023437,9.8794891525076
3.0415319572245707,-0.70868369140625,2.4133552734375,9.528922607421874,9.855297169975621
3.0440189007709524,-0.6847416748046875,2.422932080078125,9.504980590820312,9.832808706455998
3.0465058443173336,-0.679953271484375,2.418143676757812,9.504980590820312,9.831297540239383
3.0489927878637153,-0.6703764648437499,2.422932080078125,9.504980590820312,9.831818778901438
3.051479731410097,-0.6464344482421874,2.437297290039062,9.490615380859374,9.819881663406665
3.0539666749564782,-0.622492431640625,2.437297290039062,9.490615380859374,9.818334645696599
3.05645361850286,-0.603338818359375,2.446874096679687,9.509768994140625,9.838034198794986
3.058940562049241,-0.584185205078125,2.4516625,9.519345800781249,9.847327852904565
3.061427505595623,-0.5698199951171875,2.4564509033203126,9.528922607421874,9.856937248734733
3.0639144491420045,-0.55545478515625,2.461239306640625,9.533711010742186,9.861940710593052
3.0664013926883857,-0.5363011718749999,2.4564509033203126,9.528922607421874,9.855056369479241
3.0688883362347674,-0.5267243652343749,2.4564509033203126,9.543287817382812,9.868431079090634
3.0713752797811487,-0.5267243652343749,2.47081611328125,9.552864624023437,9.881274884725162
3.0738622233275303,-0.5123591552734374,2.4947581298828125,9.5384994140625,9.872654207591774
3.0763491668739116,-0.49799394531249996,2.499546533203125,9.528922607421874,9.863878390341771
3.0788361104202933,-0.49799394531249996,2.499546533203125,9.5384994140625,9.873130299620598
3.081323053966675,-0.49799394531249996,2.5139117431640625,9.533711010742186,9.872152544320457
3.083809997513056,-0.5027823486328125,2.5234885498046875,9.514557397460937,9.856347549709819
3.086296941059438,-0.507570751953125,2.528276953125,9.490615380859374,9.834713657618396
3.088783884605819,-0.5027823486328125,2.5474305664062498,9.485826977539062,9.834790594037345
3.091270828152201,-0.507570751953125,2.5617957763671875,9.485826977539062,9.838767154265765
3.0937577716985825,-0.5219359619140624,2.5570073730468748,9.490615380859374,9.84289003095939
3.0962447152449637,-0.5315127685546874,2.5665841796874997,9.504980590820312,9.859742197767124
3.0987316587913454,-0.5410895751953124,2.5713725830078125,9.509768994140625,9.86612594745008
3.1012186023377266,-0.5506663818359374,2.5617957763671875,9.509768994140625,9.864164302454387
3.1037055458841083,-0.565031591796875,2.5522189697265625,9.509768994140625,9.8624940401036
3.1061924894304895,-0.5746083984375,2.5474305664062498,9.5001921875,9.852574734639257
3.108679432976871,-0.584185205078125,2.5474305664062498,9.495403784179686,9.848521100607286
3.111166376523253,-0.5889736083984375,2.5426421630859375,9.5001921875,9.85218608636318
3.113653320069634,-0.6081272216796875,2.5378537597656248,9.509768994140625,9.861350148211084
3.116140263616016,-0.6177040283203125,2.5426421630859375,9.519345800781249,9.872412669198805
3.118627207162397,-0.622492431640625,2.528276953125,9.528922607421874,9.878261346886333
3.1211141507087787,-0.63206923828125,2.5139117431640625,9.5384994140625,9.884444083835483
3.1236010942551604,-0.622492431640625,2.50912333984375,9.552864624023437,9.896485198640827
3.1260880378015417,-0.622492431640625,2.499546533203125,9.567229833984374,9.907931993881382
3.1285749813479233,-0.63206923828125,2.499546533203125,9.548076220703125,9.890045698073678
3.1310619248943046,-0.6272808349609375,2.5139117431640625,9.533711010742186,9.879518163082361
3.1335488684406863,-0.622492431640625,2.5139117431640625,9.528922607421874,9.874594429043844
3.136035811987068,-0.6177040283203125,2.5139117431640625,9.524134204101562,9.869672884992625
3.138522755533449,-0.6177040283203125,2.518700146484375,9.528922607421874,9.875513898159388
3.141009699079831,-0.612915625,2.518700146484375,9.543287817382812,9.889077730338494
3.143496642626212,-0.5985504150390625,2.5139117431640625,9.543287817382812,9.886979175520134
3.1459835861725938,-0.59376201171875,2.518700146484375,9.528922607421874,9.87404526081871
3.148470529718975,-0.5793968017578125,2.518700146484375,9.528922607421874,9.873191841548673
3.1509574732653567,-0.584185205078125,2.518700146484375,9.524134204101562,9.868852776258743
3.1534444168117384,-0.584185205078125,2.518700146484375,9.509768994140625,9.854990061063024
3.1559313603581196,-0.584185205078125,2.518700146484375,9.514557397460937,9.859610806279893
3.1584183039045013,-0.6943184814453125,-4.8123453369140625,10.376469995117187,11.459139381077549
3.1609052474508825,0.44532150878906246,-4.448426684570312,10.290278735351562,11.219476265201328
3.163392190997264,1.4413093994140624,-3.912125512695312,10.194510668945313,11.014088550177934
3.165879134543646,2.27927998046875,-3.2513258544921873,10.089165795898436,10.842393808499205
3.168366078090027,2.940079638671875,-2.4947581298828125,9.964667309570311,10.684684412689434
3.170853021636409,3.418919970703125,-1.6519991455078125,9.854534033203125,10.560774401263851
3.17333996518279,3.7158009765625,-0.7805097412109374,9.753977563476562,10.466921737662519
3.1758269087291717,3.845087866210937,0.1005564697265625,9.667786303710937,10.404850038165241
3.178313852275553,3.821145849609375,0.9816226806640624,9.586383447265625,10.366459679620107
3.1808007958219346,3.6391865234374996,1.8148048583984373,9.504980590820312,10.338367920436307
3.1832877393683163,3.337517114257812,2.5809493896484375,9.433154541015625,10.333669475775492
3.1857746829146976,2.940079638671875,3.2800562744140622,9.3852705078125,10.367552264149484
3.1882616264610792,2.4564509033203126,3.88818349609375,9.332598071289063,10.404302412941837
3.1907485700074605,1.9297265380859374,4.410119458007812,9.294290844726563,10.466940357719645
3.193235513553842,1.35990654296875,4.826710546875,9.275137231445312,10.54393907280702
3.195722457100224,0.7661445312499999,5.1331683593749995,9.246406811523437,10.603416136917382
3.198209400646605,0.1867477294921875,5.329492895507812,9.241618408203124,10.669858482687461
3.2006963441929868,-0.3495534423828125,5.425260961914062,9.246406811523437,10.726214758158509
3.203183287739368,-0.8667010009765624,5.444414575195312,9.251195214843749,10.76928194425426
3.2056702312857497,-1.3215993164062498,5.386953735351562,9.265560424804686,10.798912226962972
3.208157174832131,-1.695094775390625,5.238513232421875,9.284714038085937,10.79450239486961
3.2106441183785126,-2.001552587890625,5.027823486328125,9.3086560546875,10.767371978167867
3.2131310619248943,-2.2266075439453124,4.759672900390624,9.337386474609374,10.714432017129287
3.2156180054712755,-2.379836450195312,4.44363828125,9.375693701171874,10.644866137367
3.218104949017657,-2.47081611328125,4.113238452148437,9.409212524414063,10.562052033552627
3.2205918925640384,-2.480392919921875,3.77326181640625,9.452308154296874,10.475494413923151
3.22307883611042,-2.422932080078125,3.42849677734375,9.504980590820312,10.390853961479731
3.225565779656802,-2.31758720703125,3.0789433349609374,9.533711010742186,10.283129297954105
3.228052723203183,-2.1499930908203124,2.7581203125,9.543287817382812,10.163859518618278
3.2305396667495647,-1.9488801513671874,2.4564509033203126,9.548076220703125,10.049778325971804
3.233026610295946,-1.7286135986328124,2.1739351074218747,9.572018237304688,9.966826574188657
3.2355135538423276,-1.4939818359375,1.9488801513671874,9.586383447265625,9.895901331789467
3.238000497388709,-1.2401964599609374,1.7525556152343749,9.581595043945311,9.819190497691066
3.2404874409350906,-0.9911994873046874,1.5801730957031248,9.576806640625,9.756774511483606
3.2429743844814722,-0.7565677246093749,1.4700398193359374,9.581595043945311,9.723187511228568
3.2454613280278535,-0.5219359619140624,1.407790576171875,9.567229833984374,9.684326416998664
