Time (s),Acceleration x (m/s^2),Acceleration y (m/s^2),Acceleration z (m/s^2),Absolute acceleration (m/s^2)
0.0,-0.5219359619140624,2.5378537597656248,9.471461767578125,9.819455528133412
0.002486943546381497,-0.5267243652343749,2.5474305664062498,9.481038574218749,9.83142581182487
0.004973887092762994,-0.5267243652343749,2.5474305664062498,9.490615380859374,9.840661631973582
0.007460830639144491,-0.5315127685546874,2.5474305664062498,9.490615380859374,9.840919094332707
0.009947774185525988,-0.5363011718749999,2.5522189697265625,9.490615380859374,9.842419464938036
0.012434717731907486,-0.5410895751953124,2.5522189697265625,9.490615380859374,9.842681540374132
0.014921661278288981,-0.5458779785156249,2.5522189697265625,9.5001921875,9.852180268158742
0.01740860482467048,-0.5410895751953124,2.5570073730468748,9.5001921875,9.853157678309891
0.019895548371051976,-0.5458779785156249,2.5665841796874997,9.504980590820312,9.86052702195584
0.022382491917433474,-0.565031591796875,2.5713725830078125,9.509768994140625,9.86746796206054
0.02486943546381497,-0.5602431884765625,2.5713725830078125,9.519345800781249,9.876425156185322
0.027356379010196465,-0.5602431884765625,2.5761609863281247,9.519345800781249,9.877672920914373
0.029843322556577963,-0.5793968017578125,2.5713725830078125,9.509768994140625,9.868300965031917
0.032330266102959464,-0.5793968017578125,2.5761609863281247,9.504980590820312,9.864935991340092
0.03481720964934096,-0.584185205078125,2.5857377929687497,9.504980590820312,9.867723563197842
0.03730415319572245,-0.59376201171875,2.5809493896484375,9.509768994140625,9.871654339593002
0.03979109674210395,-0.5889736083984375,2.5809493896484375,9.509768994140625,9.871367483040782
0.04227804028848545,-0.584185205078125,2.5809493896484375,9.5001921875,9.861857010989098
0.04476498383486695,-0.584185205078125,2.5713725830078125,9.504980590820312,9.863969046299125
0.04725192738124844,-0.584185205078125,2.5665841796874997,9.5001921875,9.858107237431046
0.04973887092762994,-0.5793968017578125,2.5665841796874997,9.495403784179686,9.853210036831817
0.05222581447401144,-0.5793968017578125,2.5617957763671875,9.5001921875,9.856579013691107
0.05471275802039293,-0.5698199951171875,2.5570073730468748,9.495403784179686,9.850161143720712
0.05719970156677443,-0.5698199951171875,2.5617957763671875,9.490615380859374,9.846789971054152
0.059686645113155926,-0.5602431884765625,2.5522189697265625,9.485826977539062,9.839136524485996
0.062173588659537427,-0.5602431884765625,2.5570073730468748,9.476250170898437,9.831148276651264
0.06466053220591893,-0.565031591796875,2.5617957763671875,9.485826977539062,9.841898787700934
0.06714747575230041,-0.5602431884765625,2.5570073730468748,9.5001921875,9.854228063906705
0.06963441929868192,-0.5458779785156249,2.5522189697265625,9.5001921875,9.852180268158742
0.07212136284506342,-0.5363011718749999,2.5426421630859375,9.514557397460937,9.863034552612877
0.0746083063914449,-0.5267243652343749,2.528276953125,9.528922607421874,9.872689044372374
0.0770952499378264,-0.5315127685546874,2.50912333984375,9.528922607421874,9.868058158316712
0.0795821934842079,-0.5267243652343749,2.50912333984375,9.528922607421874,9.867801404047201
0.0820691370305894,-0.5219359619140624,2.50912333984375,9.519345800781249,9.858299120930518
0.0845560805769709,-0.5219359619140624,2.499546533203125,9.509768994140625,9.846616492070021
0.0870430241233524,-0.51714755859375,2.499546533203125,9.495403784179686,9.832490401399898
0.0895299676697339,-0.49799394531249996,2.4899697265625,9.476250170898437,9.810569020715276
0.09201691121611538,-0.507570751953125,2.4756045166015626,9.490615380859374,9.821304704481012
0.09450385476249688,-0.5123591552734374,2.480392919921875,9.504980590820312,9.83664154948537
0.09699079830887838,-0.49799394531249996,2.4899697265625,9.490615380859374,9.824445405017535
0.09947774185525989,-0.488417138671875,2.480392919921875,9.485826977539062,9.816914677552965
0.10196468540164137,-0.49320554199218747,2.4756045166015626,9.504980590820312,9.834456032803274
0.10445162894802287,-0.49320554199218747,2.4899697265625,9.509768994140625,9.842708329914483
0.10693857249440437,-0.4836287353515625,2.4851813232421875,9.5001921875,9.83176863857595
0.10942551604078586,-0.47884033203125,2.480392919921875,9.490615380859374,9.82107007449712
0.11191245958716736,-0.4836287353515625,2.4899697265625,9.481038574218749,9.814475963528535
0.11439940313354886,-0.49320554199218747,2.4899697265625,9.481038574218749,9.814952541488594
0.11688634667993036,-0.49320554199218747,2.4947581298828125,9.490615380859374,9.825418573306315
0.11937329022631185,-0.49320554199218747,2.50912333984375,9.5001921875,9.838323192528108
0.12186023377269335,-0.49799394531249996,2.518700146484375,9.504980590820312,9.845633774894289
0.12434717731907485,-0.49320554199218747,2.518700146484375,9.509768994140625,9.850015657676419
0.12683412086545634,-0.488417138671875,2.5234885498046875,9.504980590820312,9.84638013658901
0.12932106441183785,-0.4836287353515625,2.5378537597656248,9.5001921875,9.845214576587464
0.13180800795821934,-0.49320554199218747,2.5474305664062498,9.509768994140625,9.857401306593491
0.13429495150460083,-0.49799394531249996,2.5522189697265625,9.504980590820312,9.854261802432026
0.13678189505098234,-0.49320554199218747,2.5617957763671875,9.485826977539062,9.838036529423563
0.13926883859736383,-0.49320554199218747,2.5617957763671875,9.504980590820312,9.856505736737306
0.14175578214374532,-0.5027823486328125,2.5617957763671875,9.504980590820312,9.856989587180273
0.14424272569012683,-0.507570751953125,2.5665841796874997,9.495403784179686,9.849247455733575
0.14672966923650832,-0.51714755859375,2.5617957763671875,9.495403784179686,9.8484989831845
0.1492166127828898,-0.5267243652343749,2.5617957763671875,9.495403784179686,9.849006507326422
0.15170355632927132,-0.5219359619140624,2.5570073730468748,9.509768994140625,9.861359448680169
0.1541904998756528,-0.51714755859375,2.5522189697265625,9.524134204101562,9.873722479618763
0.15667744342203432,-0.5219359619140624,2.5522189697265625,9.524134204101562,9.873974435631713
0.1591643869684158,-0.5267243652343749,2.5522189697265625,9.528922607421874,9.878847416809279
0.1616513305147973,-0.5410895751953124,2.5474305664062498,9.528922607421874,9.878387848089465
0.1641382740611788,-0.5410895751953124,2.528276953125,9.528922607421874,9.873465872646939
0.1666252176075603,3.1316157714843746,-1.2689268798828124,10.563217724609375,11.09048066876276
0.1691121611539418,4.3813890380859375,-2.1021090576171875,10.596736547851561,11.657883935678417
0.1715991047003233,5.3390697021484375,-2.6910826660156246,10.59194814453125,12.162933720783327
0.1740860482467048,5.990292553710937,-3.0406361083984375,10.55364091796875,12.510332107828527
0.17657299179308628,6.339845996093749,-3.1555577880859373,10.481814868164061,12.649886763864764
0.1790599353394678,6.406883642578125,-3.0502129150390624,10.386046801757812,12.578629695038721
0.18154687888584928,6.196193896484375,-2.748543505859375,10.266336718749999,12.30223474939356
0.18403382243223076,5.760449194335937,-2.27927998046875,10.117896215820313,11.86379854785145
0.18652076597861228,5.123591552734375,-1.6711527587890624,9.974244116210937,11.337084617847209
0.18900770952499377,4.3430818115234375,-0.9720458740234375,9.859322436523437,10.817276538488148
0.19149465307137528,3.4572271972656248,-0.21068974609375,9.725247143554688,10.323625432271397
0.19398159661775677,2.499546533203125,0.584185205078125,9.576806640625,9.9148489982147
0.19646854016413826,1.5131354492187499,1.3838485595703125,9.471461767578125,9.69088250564423
0.19895548371051977,0.5315127685546874,2.1547814941406247,9.3852705078125,9.64411175875947
0.20144242725690126,-0.40222587890625,2.858676782226562,9.289502441406249,9.727727083537848
0.20392937080328274,-1.2497732666015624,3.4811692138671875,9.217676391601563,9.932070799877406
0.20641631434966426,-1.9967641845703124,4.0222587890625,9.165003955078124,10.20602422452401
0.20890325789604575,-2.6192566162109374,4.453215087890625,9.117119921875,10.479193934193198
0.21139020144242723,-3.1028853515624997,4.76924970703125,9.088389501953124,10.722521345848213
0.21387714498880875,-3.4572271972656248,4.984727856445312,9.064447485351561,10.907068346307877
0.21636408853519024,-3.6822821533203123,5.0948611328124995,9.0788126953125,11.04271940130112
0.21885103208157172,-3.754108203125,5.090072729492187,9.102754711914063,11.084327320030031
0.22133797562795324,-3.7014357666015623,4.99909306640625,9.13627353515625,11.052739584829853
0.22382491917433472,-3.5386300537109374,4.8314989501953125,9.184157568359375,10.964216114397665
0.22631186272071624,-3.2800562744140622,4.587290380859375,9.212887988281249,10.801819628482274
0.22879880626709773,-2.935291235351562,4.285620971679688,9.251195214843749,10.609764118602277
0.2312857498134792,-2.528276953125,3.9456443359374997,9.299079248046874,10.41312481625351
0.23377269335986073,-2.1021090576171875,3.5960908935546874,9.342174877929686,10.228732260385142
0.23625963690624222,-1.6472107421875,3.2417490478515623,9.3852705078125,10.065065455487089
0.2387465804526237,-1.1923124267578125,2.887407202148437,9.433154541015625,9.93695797861214
0.24123352399900522,-0.7565677246093749,2.5474305664062498,9.495403784179686,9.860247980512224
0.2437204675453867,-0.3447650390625,2.2361843505859373,9.562441430664062,9.82647798027583
0.2462074110917682,0.0143652099609375,1.9776105712890624,9.610325463867188,9.81170247471791
0.2486943546381497,0.3399766357421875,1.7477672119140624,9.639055883789062,9.802125926078535
0.2511812981845312,0.59376201171875,1.5610194824218748,9.662997900390625,9.806266546143572
0.2536682417309127,0.7757213378906249,1.4508862060546874,9.677363110351562,9.816219799218631
0.2561551852772942,0.9097966308593749,1.388636962890625,9.682151513671874,9.823446465366812
0.2586421288236757,0.967257470703125,1.35990654296875,9.682151513671874,9.824916831909508
0.26112907237005717,0.9528922607421875,1.3742717529296875,9.686939916992188,9.83023048900174
0.2636160159164387,0.8954314208984374,1.4508862060546874,9.686939916992188,9.835836170243411
0.2661029594628202,0.7996633544921875,1.5514426757812498,9.672574707031249,9.828791244087627
0.26858990300920166,0.6607996582031249,1.675941162109375,9.658209497070311,9.824787308457779
0.2710768465555832,0.4740519287109375,1.8195932617187498,9.634267480468749,9.816045779967842
0.2735637901019647,0.277727392578125,1.9680337646484374,9.591171850585937,9.79494088143755
0.27605073364834615,0.0718260498046875,2.1260510742187497,9.548076220703125,9.782178268053272
0.27853767719472766,-0.143652099609375,2.288856787109375,9.524134204101562,9.796358183292204
0.2810246207411092,-0.3591302490234375,2.446874096679687,9.509768994140625,9.82608129941352
0.28351156428749064,-0.5506663818359374,2.6001030029296874,9.509768994140625,9.8741822654763
0.28599850783387215,-0.7326257080078125,2.7341782958984373,9.519345800781249,9.931284703231885
0.28848545138025367,-0.8858546142578124,2.844311572265625,9.504980590820312,9.96089869186495
0.2909723949266351,-1.0103531005859374,2.935291235351562,9.481038574218749,9.976313972105087
0.29345933847301664,-1.1156979736328125,3.0071172851562498,9.466673364257812,9.995270927823926
0.29594628201939815,-1.1875240234375,3.0597897216796874,9.442731347656249,9.996884602272242
0.2984332255657796,-1.2210428466796874,3.0741549316406247,9.428366137695312,9.991769723307158
0.30092016911216113,-1.22583125,3.0693665283203124,9.423577734375,9.986365227371664
0.30340711265854264,-1.2018892333984375,3.0502129150390624,9.414000927734374,9.968538008344746
0.30589405620492416,-1.16837041015625,3.0023288818359375,9.409212524414063,9.945468740065767
0.3083809997513056,-1.1156979736328125,2.9544448486328125,9.409212524414063,9.92505952937169
0.31086794329768713,-1.024718310546875,2.896984008789062,9.404424121093749,9.893723111779483
0.31335488684406865,-0.9433154541015625,2.81558115234375,9.414000927734374,9.871208372776044
0.3158418303904501,-0.8475473876953125,2.7246014892578123,9.437942944335937,9.859845681865185
0.3183287739368316,-0.7517793212890624,2.6527754394531247,9.457096557617186,9.850840826050252
0.32081571748321314,-0.6464344482421874,2.5905261962890624,9.4618849609375,9.831376835598832
0.3233026610295946,-0.55545478515625,2.518700146484375,9.476250170898437,9.82098252455965
0.3257896045759761,-0.4740519287109375,2.461239306640625,9.485826977539062,9.811388158842522
0.3282765481223576,-0.39264907226562495,2.403778466796875,9.485826977539062,9.793530398135049
0.3307634916687391,-0.32082302246093747,2.3511060302734372,9.490615380859374,9.782760718975682
0.3332504352151206,-0.26336218261718747,2.327164013671875,9.495403784179686,9.779966513765586
0.3357373787615021,-0.22505495605468748,2.31758720703125,9.504980590820312,9.786036798791967
0.3382243223078836,-0.2154781494140625,2.29843359375,9.504980590820312,9.781302768528551
0.3407112658542651,-0.19632453613281248,2.27927998046875,9.495403784179686,9.767105690913112
0.3431982094006466,-0.19153613281249998,2.2936451904296873,9.485826977539062,9.761065915030073
0.34568515294702806,-0.22026655273437498,2.308010400390625,9.5001921875,9.779012269242779
0.3481720964934096,-0.24899697265624998,2.3319524169921872,9.509768994140625,9.794677528608386
0.3506590400397911,-0.26815058593749996,2.360682836914062,9.514557397460937,9.806708452014767
0.35314598358617255,-0.3064578125,2.389413256835937,9.533711010742186,9.83335434829501
0.35563292713255407,-0.3591302490234375,2.427720483398437,9.552864624023437,9.86306361158613
0.3581198706789356,-0.39264907226562495,2.47081611328125,9.557653027343749,9.879667856294281
0.36060681422531704,-0.4261678955078125,2.499546533203125,9.548076220703125,9.879023811246018
0.36309375777169856,-0.4836287353515625,2.5330653564453125,9.543287817382812,9.885578345200061
0.36558070131808007,-0.5267243652343749,2.5617957763671875,9.5384994140625,9.890561522422018
0.36806764486446153,-0.55545478515625,2.5809493896484375,9.509768994140625,9.869424303990483
0.37055458841084304,-0.5985504150390625,2.6096798095703124,9.5001921875,9.870275725999674
0.37304153195722456,-0.63206923828125,2.6288334228515624,9.509768994140625,9.886656816588776
0.3755284755036061,-0.6512228515624999,2.6479870361328124,9.524134204101562,9.906818807450852
0.37801541904998753,-0.6655880615234374,2.6623522460937497,9.524134204101562,9.911622434680423
0.38050236259636905,-0.6703764648437499,2.6575638427734374,9.514557397460937,9.901457097448423
0.38298930614275056,-0.6751648681640625,2.6575638427734374,9.504980590820312,9.892580513166955
0.385476249689132,-0.6751648681640625,2.6623522460937497,9.495403784179686,9.884667930997852
0.38796319323551354,-0.6655880615234374,2.6479870361328124,9.481038574218749,9.866353696122689
0.39045013678189505,-0.6512228515624999,2.6288334228515624,9.476250170898437,9.855667083914275
0.3929370803282765,-0.63206923828125,2.6240450195312497,9.490615380859374,9.866960225617245
0.395424023874658,-0.612915625,2.6048914062499997,9.5001921875,9.869892420951723
0.39791096742103954,-0.59376201171875,2.5809493896484375,9.504980590820312,9.867041558154996
0.400397910967421,-0.5746083984375,2.5665841796874997,9.5001921875,9.857544357618336
0.4028848545138025,-0.55545478515625,2.5378537597656248,9.495403784179686,9.844385442927527
0.40537179806018403,-0.5315127685546874,2.5139117431640625,9.490615380859374,9.83229568223817
0.4078587416065655,-0.507570751953125,2.4947581298828125,9.5001921875,9.835400235592381
0.410345685152947,-0.49799394531249996,2.4756045166015626,9.504980590820312,9.834697337694577
0.4128326286993285,-0.49320554199218747,2.4660277099609376,9.504980590820312,9.832049654310023
0.41531957224571,-0.4836287353515625,2.4564509033203126,9.514557397460937,9.838437389324566
0.4178065157920915,-0.4740519287109375,2.43250888671875,9.519345800781249,9.836654369750512
0.420293459338473,-0.469263525390625,2.422932080078125,9.519345800781249,9.834060839540568
0.42278040288485447,-0.4644751220703125,2.43250888671875,9.509768994140625,9.82692947694784
0.425267346431236,-0.4740519287109375,2.437297290039062,9.490615380859374,9.810041978429595
0.4277542899776175,-0.469263525390625,2.437297290039062,9.481038574218749,9.800546861380628
0.43024123352399896,-0.4740519287109375,2.446874096679687,9.471461767578125,9.793901474428397
0.43272817707038047,-0.47884033203125,2.4564509033203126,9.471461767578125,9.796531382009508
0.435215120616762,-0.488417138671875,2.461239306640625,9.471461767578125,9.798205868453438
0.43770206416314344,-0.49799394531249996,2.4756045166015626,9.481038574218749,9.811559923784284
0.44018900770952496,-0.507570751953125,2.4899697265625,9.490615380859374,9.824935501815801
0.4426759512559065,-0.51714755859375,2.4947581298828125,9.495403784179686,9.831274217953121
0.445162894802288,-0.5267243652343749,2.499546533203125,9.490615380859374,9.828374826795315
0.44764983834866945,-0.5363011718749999,2.50912333984375,9.495403784179686,9.835955058158666
0.45013678189505096,-0.5506663818359374,2.5234885498046875,9.514557397460937,9.858906145950385
0.4526237254414325,-0.5506663818359374,2.528276953125,9.519345800781249,9.864753534206463
0.45511066898781394,-0.5506663818359374,2.5378537597656248,9.519345800781249,9.86721235430212
0.45759761253419545,-0.5458779785156249,2.5522189697265625,9.514557397460937,9.866032987297329
0.46008455608057697,-0.5506663818359374,2.5617957763671875,9.509768994140625,9.864164302454387
0.4625714996269584,-0.5506663818359374,2.5665841796874997,9.495403784179686,9.85156235528763
0.46505844317333994,-0.5458779785156249,2.5665841796874997,9.504980590820312,9.86052702195584
0.46754538671972146,-0.5506663818359374,2.5665841796874997,9.504980590820312,9.8607932666382
0.4700323302661029,-0.5506663818359374,2.5713725830078125,9.504980590820312,9.862040684189019
0.47251927381248443,-0.55545478515625,2.5761609863281247,9.5001921875,9.858944519839236
0.47500621735886595,-0.5602431884765625,2.5809493896484375,9.5001921875,9.860467726309794
0.4774931609052474,-0.565031591796875,2.5761609863281247,9.485826977539062,9.845647747863797
0.4799801044516289,-0.55545478515625,2.5665841796874997,9.466673364257812,9.824143166471234
0.48246704799801043,-0.55545478515625,2.5522189697265625,9.476250170898437,9.829632189926423
0.4849539915443919,-0.5458779785156249,2.5570073730468748,9.485826977539062,9.839572293603633
0.4874409350907734,-0.5410895751953124,2.5522189697265625,9.481038574218749,9.833447617374134
0.4899278786371549,-0.5363011718749999,2.5522189697265625,9.485826977539062,9.837802298490983
0.4924148221835364,-0.5363011718749999,2.5522189697265625,9.495403784179686,9.84703679494499
0.4949017657299179,-0.5458779785156249,2.5426421630859375,9.5001921875,9.849703728354811
0.4973887092762994,-0.5506663818359374,2.5378537597656248,9.519345800781249,9.86721235430212
0.49987565282268087,-0.5506663818359374,2.528276953125,9.5384994140625,9.883237773516226
0.5023625963690624,-0.5458779785156249,2.528276953125,9.5384994140625,9.882972133483024
0.5048495399154439,-0.5363011718749999,2.5378537597656248,9.533711010742186,9.880281690784823
0.5073364834618254,-0.5363011718749999,2.5426421630859375,9.528922607421874,9.876892941340031
0.5098234270082069,-0.5219359619140624,2.5522189697265625,9.519345800781249,9.86935576887483
0.5123103705545884,-0.5219359619140624,2.5474305664062498,9.509768994140625,9.85888056327484
0.5147973141009698,-0.5267243652343749,2.5330653564453125,9.514557397460937,9.860053809515119
0.5172842576473514,-0.51714755859375,2.5378537597656248,9.514557397460937,9.860778152503718
0.5197712011937329,-0.51714755859375,2.5378537597656248,9.5001921875,9.84691804082638
0.5222581447401143,-0.5219359619140624,2.528276953125,9.490615380859374,9.835465510459926
0.5247450882864959,-0.51714755859375,2.528276953125,9.485826977539062,9.830592016601562
0.5272320318328774,-0.507570751953125,2.528276953125,9.481038574218749,9.825472246450303
0.5297189753792588,-0.51714755859375,2.5234885498046875,9.495403784179686,9.838604021047333
0.5322059189256404,-0.51714755859375,2.50912333984375,9.5001921875,9.839552486335146
0.5346928624720219,-0.51714755859375,2.5139117431640625,9.495403784179686,9.836152035953468
0.5371798060184033,-0.5219359619140624,2.5139117431640625,9.495403784179686,9.83640495432001
0.5396667495647849,-0.5219359619140624,2.50912333984375,9.5001921875,9.83980531729789
0.5421536931111663,-0.51714755859375,2.518700146484375,9.495403784179686,9.837376939503425
0.5446406366575478,-0.507570751953125,2.518700146484375,9.490615380859374,9.83225603834355
0.5471275802039294,-0.5027823486328125,2.5139117431640625,9.490615380859374,9.830784437160618
0.5496145237503108,-0.51714755859375,2.518700146484375,9.485826977539062,9.82813336667079
0.5521014672966923,-0.5219359619140624,2.518700146484375,9.495403784179686,9.837629826378581
0.5545884108430739,-0.5219359619140624,2.5139117431640625,9.5001921875,9.841027436207733
0.5570753543894553,-0.5267243652343749,2.50912333984375,9.5001921875,9.840060471913587
0.5595622979358368,-0.5315127685546874,2.518700146484375,9.504980590820312,9.847386063464148
0.5620492414822184,-0.5315127685546874,2.518700146484375,9.509768994140625,9.852008047751255
0.5645361850285998,-0.5363011718749999,2.518700146484375,9.514557397460937,9.85688956235351
0.5670231285749813,-0.5410895751953124,2.5234885498046875,9.509768994140625,9.853754548967556
0.5695100721213628,-0.5410895751953124,2.518700146484375,9.514557397460937,9.857151253068206
0.5719970156677443,-0.5410895751953124,2.528276953125,9.524134204101562,9.868844644527817
0.5744839592141258,-0.5410895751953124,2.5426421630859375,9.514557397460937,9.863296080290098
0.5769709027605073,-0.5363011718749999,2.5570073730468748,9.509768994140625,9.86213019457201
0.5794578463068888,-0.5410895751953124,2.5665841796874997,9.509768994140625,9.864879046482304
0.5819447898532703,-0.5410895751953124,2.5665841796874997,9.504980590820312,9.860263095459372
0.5844317333996518,-0.5410895751953124,2.5617957763671875,9.485826977539062,9.840553286071147
0.5869186769460333,-0.5458779785156249,2.5665841796874997,9.485826977539062,9.842065360820275
0.5894056204924147,-0.5363011718749999,2.5617957763671875,9.490615380859374,9.844907153151409
0.5918925640387963,-0.5315127685546874,2.5522189697265625,9.481038574218749,9.832925299136196
0.5943795075851778,-0.5267243652343749,2.5426421630859375,9.476250170898437,9.825567923936333
0.5968664511315592,-0.5267243652343749,2.5330653564453125,9.476250170898437,9.8230940114817
0.5993533946779408,-0.5363011718749999,2.5378537597656248,9.485826977539062,9.83408532100057
0.6018403382243223,-0.5458779785156249,2.5426421630859375,9.504980590820312,9.854322298808857
0.6043272817707037,-0.5458779785156249,2.5330653564453125,9.519345800781249,9.865715754181412
0.6068142253170853,-0.5410895751953124,2.528276953125,9.524134204101562,9.868844644527817
0.6093011688634667,-0.5506663818359374,2.518700146484375,9.519345800781249,9.862303400668441
0.6117881124098483,-0.5410895751953124,2.5139117431640625,9.519345800781249,9.860551437706453
0.6142750559562298,-0.5267243652343749,2.50912333984375,9.519345800781249,9.858553796897992
0.6167619995026112,-0.5267243652343749,2.50912333984375,9.524134204101562,9.863177521935693
0.6192489430489928,-0.51714755859375,2.50912333984375,9.509768994140625,9.848799310262471
0.6217358865953743,-0.51714755859375,2.5043349365234375,9.495403784179686,9.833708766089488
0.6242228301417557,-0.51714755859375,2.5043349365234375,9.490615380859374,9.82908517508399
0.6267097736881373,-0.5123591552734374,2.499546533203125,9.490615380859374,9.82761543219131
0.6291967172345188,-0.5123591552734374,2.499546533203125,9.490615380859374,9.82761543219131
0.6316836607809002,-0.5123591552734374,2.499546533203125,9.481038574218749,9.818367339912689
0.6341706043272818,-0.51714755859375,2.4947581298828125,9.476250170898437,9.81277621396863
0.6366575478736632,-0.51714755859375,2.4899697265625,9.466673364257812,9.802310718504362
0.6391444914200447,-0.507570751953125,2.4899697265625,9.447519750976562,9.783312667625841
0.6416314349664263,-0.51714755859375,2.4899697265625,9.471461767578125,9.806935242533793
0.6441183785128077,-0.5219359619140624,2.4851813232421875,9.485826977539062,9.819850141704752
0.6466053220591892,-0.51714755859375,2.4899697265625,9.490615380859374,9.825434908642046
0.6490922656055708,-0.51714755859375,2.4899697265625,9.504980590820312,9.839311300514282
0.6515792091519522,-0.507570751953125,2.4899697265625,9.528922607421874,9.861944198061135
0.6540661526983337,-0.5123591552734374,2.4851813232421875,9.533711010742186,9.865611169599736
0.6565530962447153,-0.51714755859375,2.4947581298828125,9.528922607421874,9.863651746803086
0.6590400397910967,-0.5267243652343749,2.499546533203125,9.533711010742186,9.869995798627581
0.6615269833374782,-0.5315127685546874,2.5043349365234375,9.519345800781249,9.857593203834297
0.6640139268838597,-0.5267243652343749,2.518700146484375,9.509768994140625,9.851750875187129
0.6665008704302412,-0.5267243652343749,2.528276953125,9.495403784179686,9.840341250853474
0.6689878139766227,-0.5363011718749999,2.5378537597656248,9.481038574218749,9.829466572440994
0.6714747575230042,-0.5410895751953124,2.5474305664062498,9.481038574218749,9.832205900247908
0.6739617010693857,-0.5363011718749999,2.5474305664062498,9.481038574218749,9.831943545578323
0.6764486446157671,-0.5363011718749999,2.5474305664062498,9.490615380859374,9.841178879840559
0.6789355881621487,-0.5410895751953124,2.5474305664062498,9.509768994140625,9.859913120355793
0.6814225317085302,-0.5363011718749999,2.5570073730468748,9.5001921875,9.85289588152674
0.6839094752549116,-0.5315127685546874,2.5617957763671875,9.490615380859374,9.844647466027107
0.6863964188012932,-0.5363011718749999,2.5570073730468748,9.495403784179686,9.848278970326971
0.6888833623476747,-0.5315127685546874,2.5570073730468748,9.5001921875,9.852636404962317
0.6913703058940561,-0.5267243652343749,2.5570073730468748,9.490615380859374,9.84314510561295
0.6938572494404377,-0.5267243652343749,2.5570073730468748,9.485826977539062,9.838528279705024
0.6963441929868192,-0.5410895751953124,2.5570073730468748,9.490615380859374,9.843924265332685
0.6988311365332006,-0.5506663818359374,2.5570073730468748,9.481038574218749,9.835223058768126
0.7013180800795822,-0.5410895751953124,2.5570073730468748,9.466673364257812,9.820843610390577
0.7038050236259636,-0.5363011718749999,2.5570073730468748,9.4618849609375,9.815965192826726
0.7062919671723451,-0.5363011718749999,2.5522189697265625,9.471461767578125,9.823951782815342
0.7087789107187267,-0.5410895751953124,2.5474305664062498,9.481038574218749,9.832205900247908
0.7112658542651081,-0.5410895751953124,2.5522189697265625,9.5001921875,9.85191611805811
0.7137527978114896,-0.5410895751953124,2.5570073730468748,9.509768994140625,9.862391746230704
0.7162397413578712,-0.5410895751953124,2.5522189697265625,9.519345800781249,9.87038723012774
0.7187266849042526,-0.5410895751953124,2.5522189697265625,9.524134204101562,9.87500541445697
0.7212136284506341,-0.5410895751953124,2.5474305664062498,9.514557397460937,9.864531559512827
0.7237005719970157,-0.5410895751953124,2.5474305664062498,9.504980590820312,9.855294843428926
0.7261875155433971,-0.5410895751953124,2.5617957763671875,9.514557397460937,9.868251010071463
0.7286744590897786,-0.5410895751953124,2.5713725830078125,9.519345800781249,9.875357176521815
0.7311614026361601,-0.5267243652343749,2.5761609863281247,9.519345800781249,9.875828494828282
0.7336483461825416,-0.51714755859375,2.5857377929687497,9.504980590820312,9.863981831046589
0.7361352897289231,-0.51714755859375,2.5905261962890624,9.485826977539062,9.84678531394014
0.7386222332753046,-0.51714755859375,2.5857377929687497,9.481038574218749,9.840913269466927
0.7411091768216861,-0.51714755859375,2.5809493896484375,9.490615380859374,9.848884284866516
0.7435961203680675,-0.51714755859375,2.5761609863281247,9.5001921875,9.856860485178565
0.7460830639144491,-0.5267243652343749,2.5713725830078125,9.514557397460937,9.869964436975163
0.7485700074608306,-0.5219359619140624,2.5665841796874997,9.514557397460937,9.868463607337262
0.7510569510072121,-0.51714755859375,2.5522189697265625,9.5001921875,9.850630176096736
0.7535438945535936,-0.5219359619140624,2.5378537597656248,9.495403784179686,9.842551085918203
0.7560308380999751,-0.5315127685546874,2.528276953125,9.5001921875,9.845219234444489
0.7585177816463566,-0.5267243652343749,2.5234885498046875,9.5001921875,9.843733266264529
0.7610047251927381,-0.51714755859375,2.518700146484375,9.490615380859374,9.832755073358861
0.7634916687391196,-0.5363011718749999,2.518700146484375,9.485826977539062,9.829159822826302
0.7659786122855011,-0.5410895751953124,2.518700146484375,9.485826977539062,9.82942225179554
0.7684655558318826,-0.5315127685546874,2.5043349365234375,9.485826977539062,9.825228381327143
0.770952499378264,-0.5363011718749999,2.5043349365234375,9.495403784179686,9.834734640337798
0.7734394429246456,-0.5410895751953124,2.50912333984375,9.495403784179686,9.836217305831932
0.7759263864710271,-0.5410895751953124,2.50912333984375,9.490615380859374,9.831594894539656
0.7784133300174085,-0.5410895751953124,2.499546533203125,9.481038574218749,9.819908515147006
0.7809002735637901,-0.5410895751953124,2.4899697265625,9.481038574218749,9.81747521582849
0.7833872171101716,-0.5410895751953124,2.4851813232421875,9.495403784179686,9.830137189398261
0.785874160656553,-0.5315127685546874,2.4851813232421875,9.5001921875,9.834240368831976
0.7883611042029346,-0.5315127685546874,2.4899697265625,9.5001921875,9.835451523024778
0.790848047749316,-0.5363011718749999,2.4947581298828125,9.504980590820312,9.84154932444286
0.7933349912956975,-0.5315127685546874,2.4851813232421875,9.5001921875,9.834240368831976
0.7958219348420791,-0.5219359619140624,2.4851813232421875,9.504980590820312,9.838353489766558
0.7983088783884605,-0.5267243652343749,2.4947581298828125,9.504980590820312,9.841032096046572
0.800795821934842,-0.5267243652343749,2.4899697265625,9.509768994140625,9.844444835441342
0.8032827654812236,-0.5267243652343749,2.4899697265625,9.504980590820312,9.839819298544061
0.805769709027605,-0.5219359619140624,2.5043349365234375,9.495403784179686,9.833961747294165
0.8082566525739865,-0.5219359619140624,2.5043349365234375,9.495403784179686,9.833961747294165
0.8107435961203681,-0.5219359619140624,2.499546533203125,9.490615380859374,9.828119368800495
0.8132305396667495,-0.51714755859375,2.499546533203125,9.481038574218749,9.818618381158885
0.815717483213131,-0.51714755859375,2.4947581298828125,9.481038574218749,9.817400479240915
0.8182044267595125,-0.51714755859375,2.4947581298828125,9.490615380859374,9.826649481455028
0.820691370305894,-0.51714755859375,2.499546533203125,9.495403784179686,9.832490401399898
0.8231783138522755,-0.51714755859375,2.4947581298828125,9.5001921875,9.835899111083434
0.825665257398657,-0.51714755859375,2.4899697265625,9.495403784179686,9.830060216558753
0.8281522009450385,-0.51714755859375,2.4947581298828125,9.485826977539062,9.822024901810407
0.83063914449142,-0.5219359619140624,2.499546533203125,9.495403784179686,9.832743413951206
0.8331260880378015,-0.5219359619140624,2.499546533203125,9.5001921875,9.837367616360737
0.835613031584183,-0.5123591552734374,2.5043349365234375,9.504980590820312,9.842706000392127
0.8380999751305644,-0.5123591552734374,2.518700146484375,9.519345800781249,9.86023867899477
0.840586918676946,-0.51714755859375,2.518700146484375,9.528922607421874,9.869734448479127
0.8430738622233275,-0.507570751953125,2.518700146484375,9.543287817382812,9.883107854392051
0.8455608057697089,-0.507570751953125,2.5330653564453125,9.548076220703125,9.891400693765172
0.8480477493160905,-0.5123591552734374,2.5330653564453125,9.5384994140625,9.882403709426496
0.850534692862472,-0.51714755859375,2.528276953125,9.524134204101562,9.867560908694703
0.8530216364088534,-0.5267243652343749,2.5378537597656248,9.519345800781249,9.86590516565711
0.855508579955235,-0.5219359619140624,2.5330653564453125,9.519345800781249,9.864419989194204
0.8579955235016165,-0.5219359619140624,2.5378537597656248,9.509768994140625,9.856410359568745
0.8604824670479979,-0.5267243652343749,2.5378537597656248,9.495403784179686,9.842806169355464
0.8629694105943795,-0.5363011718749999,2.5426421630859375,9.481038574218749,9.830703970839561
0.8654563541407609,-0.5410895751953124,2.5522189697265625,9.481038574218749,9.833447617374134
0.8679432976871424,-0.5410895751953124,2.5570073730468748,9.471461767578125,9.82545941159472
0.870430241233524,-0.5410895751953124,2.5522189697265625,9.457096557617186,9.810365686247989
0.8729171847799054,-0.5458779785156249,2.5474305664062498,9.452308154296874,9.804769997398019
0.8754041283262869,-0.5410895751953124,2.5426421630859375,9.452308154296874,9.80326152572064
0.8778910718726685,-0.5363011718749999,2.5426421630859375,9.452308154296874,9.802998396421577
0.8803780154190499,-0.5410895751953124,2.5426421630859375,9.466673364257812,9.817113205185917
0.8828649589654315,-0.5410895751953124,2.5378537597656248,9.490615380859374,9.838966406170218
0.885351902511813,-0.5506663818359374,2.5378537597656248,9.504980590820312,9.853354312208186
0.8878388460581944,-0.5458779785156249,2.5330653564453125,9.519345800781249,9.865715754181412
0.890325789604576,-0.5363011718749999,2.5378537597656248,9.5384994140625,9.884902211199748
0.8928127331509574,-0.5267243652343749,2.5474305664062498,9.528922607421874,9.877611406905423
0.8952996766973389,-0.5267243652343749,2.5570073730468748,9.509768994140625,9.861614045614745
0.8977866202437205,-0.5363011718749999,2.5617957763671875,9.504980590820312,9.858756137497169
0.9002735637901019,-0.5410895751953124,2.5570073730468748,9.5001921875,9.853157678309891
0.9027605073364834,-0.5363011718749999,2.5617957763671875,9.495403784179686,9.849523316962154
0.905247450882865,-0.5315127685546874,2.5665841796874997,9.5001921875,9.85512616733012
0.9077343944292464,-0.5410895751953124,2.5570073730468748,9.490615380859374,9.843924265332685
0.9102213379756279,-0.5363011718749999,2.5474305664062498,9.495403784179686,9.845796791638007
0.9127082815220094,-0.5315127685546874,2.5474305664062498,9.524134204101562,9.873248738461664
0.9151952250683909,-0.5410895751953124,2.5474305664062498,9.509768994140625,9.859913120355793
0.9176821686147724,-0.5363011718749999,2.5474305664062498,9.476250170898437,9.82732612357339
0.9201691121611539,-0.5267243652343749,2.5378537597656248,9.457096557617186,9.805856187145665
0.9226560557075354,-0.5363011718749999,2.5378537597656248,9.447519750976562,9.797139893765081
0.9251429992539169,-0.5267243652343749,2.5426421630859375,9.442731347656249,9.793244765165623
0.9276299428002984,-0.5219359619140624,2.5426421630859375,9.4618849609375,9.811458267345213
0.9301168863466799,-0.5267243652343749,2.528276953125,9.485826977539062,9.831100465178984
0.9326038298930613,-0.5267243652343749,2.5234885498046875,9.5001921875,9.843733266264529
0.9350907734394429,-0.51714755859375,2.518700146484375,9.519345800781249,9.860488654225584
0.9375777169858244,-0.51714755859375,2.5139117431640625,9.533711010742186,9.873137266650577
0.9400646605322058,-0.5267243652343749,2.5139117431640625,9.524134204101562,9.864396745218992
0.9425516040785874,-0.5315127685546874,2.528276953125,9.509768994140625,9.854460741043017
0.9450385476249689,-0.51714755859375,2.528276953125,9.519345800781249,9.86293923857965
0.9475254911713503,-0.5123591552734374,2.518700146484375,9.524134204101562,9.864861614317265
0.9500124347177319,-0.51714755859375,2.528276953125,9.519345800781249,9.86293923857965
0.9524993782641133,-0.51714755859375,2.5378537597656248,9.514557397460937,9.860778152503718
0.9549863218104948,-0.5219359619140624,2.5378537597656248,9.504980590820312,9.851790440633952
0.9574732653568764,-0.51714755859375,2.5426421630859375,9.5001921875,9.848153246487273
0.9599602089032578,-0.5219359619140624,2.5522189697265625,9.5001921875,9.850882722741517
0.9624471524496393,-0.5267243652343749,2.5522189697265625,9.490615380859374,9.841902282270851
0.9649340959960209,-0.5267243652343749,2.5570073730468748,9.476250170898437,9.829295120414296
0.9674210395424023,-0.5315127685546874,2.5474305664062498,9.476250170898437,9.82706597185804
0.9699079830887838,-0.5267243652343749,2.5426421630859375,9.485826977539062,9.834804582412492
0.9723949266351654,-0.5267243652343749,2.5426421630859375,9.495403784179686,9.84404189096368
0.9748818701815468,-0.5267243652343749,2.5378537597656248,9.514557397460937,9.86128504468189
0.9773688137279283,-0.5267243652343749,2.528276953125,9.519345800781249,9.863446019697486
0.9798557572743098,-0.5363011718749999,2.528276953125,9.514557397460937,9.859341041278377
0.9823427008206913,-0.5315127685546874,2.5330653564453125,9.514557397460937,9.860310765525533
0.9848296443670728,-0.5267243652343749,2.528276953125,9.514557397460937,9.858824746297767
0.9873165879134543,-0.5363011718749999,2.528276953125,9.519345800781249,9.863962072793525
0.9898035314598358,-0.5267243652343749,2.528276953125,9.519345800781249,9.863446019697486
0.9922904750062173,-0.5267243652343749,2.528276953125,9.504980590820312,9.849582678494832
0.9947774185525988,-0.5315127685546874,2.5234885498046875,9.495403784179686,9.839369558500481
0.9972643620989803,-0.5315127685546874,2.518700146484375,9.504980590820312,9.847386063464148
0.9997513056453617,-0.5219359619140624,2.5234885498046875,9.5001921875,9.843478206852014
1.0022382491917432,-0.51714755859375,2.518700146484375,9.5001921875,9.841998964879844
1.0047251927381249,-0.5219359619140624,2.518700146484375,9.490615380859374,9.83300807909991
1.0072121362845063,-0.51714755859375,2.50912333984375,9.485826977539062,9.825683435757332
1.0096990798308878,-0.5219359619140624,2.5139117431640625,9.481038574218749,9.822538462463825
1.0121860233772693,-0.5267243652343749,2.518700146484375,9.4618849609375,9.805537007163208
1.0146729669236507,-0.5315127685546874,2.5139117431640625,9.466673364257812,9.809187665709285
1.0171599104700322,-0.5267243652343749,2.5043349365234375,9.490615380859374,9.829593701604757
1.0196468540164139,-0.5219359619140624,2.5043349365234375,9.5001921875,9.838585377078712
1.0221337975627953,-0.5267243652343749,2.5043349365234375,9.495403784179686,9.834217053524766
1.0246207411091768,-0.5315127685546874,2.5043349365234375,9.5001921875,9.839098073343132
1.0271076846555582,-0.5267243652343749,2.5043349365234375,9.504980590820312,9.843464230802805
1.0295946282019397,-0.5267243652343749,2.5043349365234375,9.509768994140625,9.848088055716287
1.0320815717483212,-0.5267243652343749,2.499546533203125,9.504980590820312,9.842247073735253
1.0345685152947028,-0.5219359619140624,2.499546533203125,9.495403784179686,9.832743413951206
1.0370554588410843,-0.5123591552734374,2.5043349365234375,9.490615380859374,9.82883440117336
1.0395424023874658,-0.5219359619140624,2.4947581298828125,9.5001921875,9.83615203595347
1.0420293459338472,-0.5267243652343749,2.4899697265625,9.509768994140625,9.844444835441342
1.0445162894802287,-0.5219359619140624,2.4947581298828125,9.514557397460937,9.85002729663904
1.0470032330266101,-0.51714755859375,2.5043349365234375,9.509768994140625,9.84758048423925
1.0494901765729918,-0.5219359619140624,2.5139117431640625,9.514557397460937,9.854895832546175
1.0519771201193733,-0.5267243652343749,2.518700146484375,9.519345800781249,9.860995561285055
1.0544640636657547,-0.5219359619140624,2.5234885498046875,9.5001921875,9.843478206852014
1.0569510072121362,-0.5219359619140624,2.518700146484375,9.5001921875,9.842251732996651
1.0594379507585177,-0.5267243652343749,2.5330653564453125,9.509768994140625,9.85543327200146
1.0619248943048991,-0.5219359619140624,2.5426421630859375,9.5001921875,9.84840585664896
1.0644118378512808,-0.51714755859375,2.5378537597656248,9.485826977539062,9.833059379009356
1.0668987813976623,-0.5219359619140624,2.5378537597656248,9.485826977539062,9.833312376920787
1.0693857249440437,-0.5267243652343749,2.5426421630859375,9.495403784179686,9.84404189096368
1.0718726684904252,-0.5219359619140624,2.5474305664062498,9.509768994140625,9.85888056327484
1.0743596120368066,-0.5267243652343749,2.5570073730468748,9.509768994140625,9.861614045614745
1.076846555583188,-0.5267243652343749,2.5617957763671875,9.504980590820312,9.858239811884024
1.0793334991295698,-0.5267243652343749,2.5617957763671875,9.495403784179686,9.849006507326422
1.0818204426759512,-0.5315127685546874,2.5761609863281247,9.490615380859374,9.848395379858603
1.0843073862223327,-0.5267243652343749,2.5761609863281247,9.490615380859374,9.8481381129539
1.0867943297687142,-0.5219359619140624,2.5761609863281247,9.504980590820312,9.86172797270788
1.0892812733150956,-0.5267243652343749,2.5857377929687497,9.524134204101562,9.882945453085116
1.0917682168614773,-0.5267243652343749,2.5857377929687497,9.528922607421874,9.887560090798647
1.0942551604078588,-0.51714755859375,2.5857377929687497,9.514557397460937,9.87321042016856
1.0967421039542402,-0.51714755859375,2.5761609863281247,9.5001921875,9.856860485178565
1.0992290475006217,-0.51714755859375,2.5713725830078125,9.5001921875,9.855610085501544
1.1017159910470031,-0.51714755859375,2.5713725830078125,9.504980590820312,9.860225889393943
1.1042029345933846,-0.5363011718749999,2.5713725830078125,9.504980590820312,9.861249005043408
1.1066898781397663,-0.5458779785156249,2.5617957763671875,9.5001921875,9.854665492378576
1.1091768216861477,-0.5458779785156249,2.5570073730468748,9.495403784179686,9.848805130464218
1.1116637652325292,-0.5410895751953124,2.5426421630859375,9.485826977539062,9.835584402855543
1.1141507087789106,-0.5410895751953124,2.528276953125,9.481038574218749,9.827260794642216
1.116637652325292,-0.5363011718749999,2.5234885498046875,9.495403784179686,9.839629384919117
1.1191245958716736,-0.5267243652343749,2.5234885498046875,9.504980590820312,9.848354636679051
1.1216115394180552,-0.5267243652343749,2.5234885498046875,9.495403784179686,9.839112055594287
1.1240984829644367,-0.5267243652343749,2.5234885498046875,9.485826977539062,9.829870114387818
1.1265854265108182,-0.5267243652343749,2.5234885498046875,9.471461767578125,9.816008406303505
1.1290723700571996,-0.5219359619140624,2.5139117431640625,9.476250170898437,9.817916617195829
1.131559313603581,-0.5219359619140624,2.5139117431640625,9.495403784179686,9.83640495432001
1.1340462571499625,-0.5267243652343749,2.5139117431640625,9.5001921875,9.841282559137593
1.1365332006963442,-0.5315127685546874,2.518700146484375,9.509768994140625,9.852008047751255
1.1390201442427257,-0.5219359619140624,2.5139117431640625,9.519345800781249,9.859518947474513
1.1415070877891071,-0.51714755859375,2.5139117431640625,9.514557397460937,9.854643388746053
1.1439940313354886,-0.51714755859375,2.499546533203125,9.509768994140625,9.84636383600188
1.14648097488187,-0.5267243652343749,2.4947581298828125,9.509768994140625,9.845657063165786
1.1489679184282515,-0.5267243652343749,2.5043349365234375,9.514557397460937,9.852712037850393
1.1514548619746332,-0.5219359619140624,2.499546533203125,9.528922607421874,9.865116120868654
1.1539418055210147,-0.5267243652343749,2.4899697265625,9.524134204101562,9.858322379282724
1.1564287490673961,-0.5267243652343749,2.499546533203125,9.514557397460937,9.851496023353912
1.1589156926137776,-0.5267243652343749,2.499546533203125,9.514557397460937,9.851496023353912
1.161402636160159,-0.5267243652343749,2.499546533203125,9.509768994140625,9.846871470192841
1.1638895797065405,-0.51714755859375,2.499546533203125,9.5001921875,9.837114722744838
1.1663765232529222,-0.5219359619140624,2.50912333984375,9.495403784179686,9.835182261020977
1.1688634667993036,-0.5267243652343749,2.5139117431640625,9.490615380859374,9.832037994065841
1.171350410345685,-0.5267243652343749,2.5139117431640625,9.485826977539062,9.827415950144657
1.1738373538920666,-0.5219359619140624,2.50912333984375,9.476250170898437,9.816691621128804
1.176324297438448,-0.5267243652343749,2.50912333984375,9.485826977539062,9.826192138325409
1.1788112409848295,-0.5267243652343749,2.5139117431640625,9.504980590820312,9.845905079840074
1.1812981845312112,-0.5267243652343749,2.5234885498046875,9.504980590820312,9.848354636679051
1.1837851280775926,-0.5267243652343749,2.528276953125,9.504980590820312,9.849582678494832
1.186272071623974,-0.5267243652343749,2.5234885498046875,9.514557397460937,9.857597855842242
1.1887590151703555,-0.5267243652343749,2.518700146484375,9.514557397460937,9.856373138959919
1.191245958716737,-0.5267243652343749,2.5139117431640625,9.509768994140625,9.850527759022262
1.1937329022631185,-0.5315127685546874,2.5139117431640625,9.495403784179686,9.836917764227204
1.1962198458095001,-0.5410895751953124,2.5139117431640625,9.490615380859374,9.83281803392129
1.1987067893558816,-0.5363011718749999,2.5139117431640625,9.5001921875,9.841799774370982
1.201193732902263,-0.5363011718749999,2.5139117431640625,9.495403784179686,9.837177655404348
1.2036806764486445,-0.5363011718749999,2.5234885498046875,9.490615380859374,9.835008577289313
1.206167619995026,-0.5267243652343749,2.528276953125,9.490615380859374,9.83572077765728
1.2086545635414074,-0.5267243652343749,2.5234885498046875,9.490615380859374,9.834491004893515
1.2111415070877891,-0.5267243652343749,2.528276953125,9.481038574218749,9.826480313645291
1.2136284506341706,-0.5267243652343749,2.5426421630859375,9.466673364257812,9.816331917370267
1.216115394180552,-0.5267243652343749,2.5426421630859375,9.471461767578125,9.820949839049582
1.2186023377269335,-0.5267243652343749,2.5378537597656248,9.481038574218749,9.828948708214524
1.221089281273315,-0.5267243652343749,2.5426421630859375,9.490615380859374,9.839423155543134
1.2235762248196966,-0.5219359619140624,2.5426421630859375,9.504980590820312,9.853025035475772
1.226063168366078,-0.5123591552734374,2.5378537597656248,9.504980590820312,9.851287714904071
1.2285501119124596,-0.51714755859375,2.5426421630859375,9.509768994140625,9.857392002389892
1.231037055458841,-0.51714755859375,2.5522189697265625,9.519345800781249,9.86910369494835
1.2335239990052225,-0.5219359619140624,2.5474305664062498,9.528922607421874,9.877357222315883
1.236010942551604,-0.5363011718749999,2.5522189697265625,9.519345800781249,9.870125890343964
1.2384978860979856,-0.5315127685546874,2.5617957763671875,9.509768994140625,9.863113592819857
1.240984829644367,-0.5219359619140624,2.5474305664062498,9.509768994140625,9.85888056327484
1.2434717731907485,-0.5219359619140624,2.5474305664062498,9.514557397460937,9.863499485911614
1.24595871673713,-0.5267243652343749,2.5522189697265625,9.528922607421874,9.878847416809279
1.2484456602835114,-0.5267243652343749,2.5474305664062498,9.5384994140625,9.886850465120986
1.250932603829893,-0.5219359619140624,2.5474305664062498,9.528922607421874,9.877357222315883
1.2534195473762746,-0.5267243652343749,2.5378537597656248,9.524134204101562,9.870525447038034
1.255906490922656,-0.5267243652343749,2.528276953125,9.524134204101562,9.868067452463622
1.2583934344690375,-0.5363011718749999,2.5330653564453125,9.528922607421874,9.874431887719597
1.260880378015419,-0.5410895751953124,2.5378537597656248,9.514557397460937,9.86206277124214
1.2633673215618004,-0.5410895751953124,2.528276953125,9.495403784179686,9.841120632565275
1.2658542651081819,-0.5410895751953124,2.5234885498046875,9.495403784179686,9.839891534666137
1.2683412086545636,-0.5363011718749999,2.528276953125,9.504980590820312,9.85009945790033
1.270828152200945,-0.5363011718749999,2.5234885498046875,9.509768994140625,9.853492768042623
1.2733150957473265,-0.5363011718749999,2.518700146484375,9.5001921875,9.843023975094795
1.275802039293708,-0.5363011718749999,2.528276953125,9.485826977539062,9.831618216065216
1.2782889828400894,-0.5363011718749999,2.5378537597656248,9.481038574218749,9.829466572440994
1.2807759263864709,-0.5267243652343749,2.5378537597656248,9.485826977539062,9.833567700010812
1.2832628699328525,-0.5219359619140624,2.5330653564453125,9.471461767578125,9.818219047416731
1.285749813479234,-0.5267243652343749,2.528276953125,9.452308154296874,9.798762797028091
1.2882367570256155,-0.5315127685546874,2.518700146484375,9.4618849609375,9.805795391759524
1.290723700571997,-0.5267243652343749,2.518700146484375,9.466673364257812,9.810157673064193
1.2932106441183784,-0.5267243652343749,2.5234885498046875,9.481038574218749,9.82524938430322
1.2956975876647598,-0.5363011718749999,2.5139117431640625,9.485826977539062,9.827933895136889
1.2981845312111415,-0.5363011718749999,2.5043349365234375,9.495403784179686,9.834734640337798
1.300671474757523,-0.5315127685546874,2.5043349365234375,9.495403784179686,9.834474684600211
1.3031584183039044,-0.5267243652343749,2.5139117431640625,9.495403784179686,9.836660197138235
1.305645361850286,-0.5267243652343749,2.50912333984375,9.490615380859374,9.830814757632488
1.3081323053966674,-0.5315127685546874,2.50912333984375,9.495403784179686,9.835695134676513
1.3106192489430488,-0.5315127685546874,2.5139117431640625,9.509768994140625,9.850784963518047
1.3131061924894305,-0.5363011718749999,2.5234885498046875,9.509768994140625,9.853492768042623
1.315593136035812,-0.5363011718749999,2.518700146484375,9.504980590820312,9.847645678370325
1.3180800795821934,-0.5315127685546874,2.5139117431640625,9.519345800781249,9.8600305552471
1.3205670231285749,-0.51714755859375,2.518700146484375,9.519345800781249,9.860488654225584
1.3230539666749563,-0.5027823486328125,2.5234885498046875,9.5001921875,9.842481198891269
1.3255409102213378,-0.5123591552734374,2.518700146484375,9.5001921875,9.841748520020666
1.3280278537677195,-0.5267243652343749,2.5139117431640625,9.514557397460937,9.85515059646114
1.330514797314101,-0.5267243652343749,2.5234885498046875,9.495403784179686,9.839112055594287
1.3330017408604824,-0.5267243652343749,2.528276953125,9.485826977539062,9.831100465178984
1.3354886844068639,-0.5315127685546874,2.5378537597656248,9.495403784179686,9.843063575620503
1.3379756279532453,-0.51714755859375,2.5522189697265625,9.504980590820312,9.855248312379675
1.3404625714996268,-0.51714755859375,2.5522189697265625,9.509768994140625,9.859866611101289
1.3429495150460085,-0.51714755859375,2.5522189697265625,9.504980590820312,9.855248312379675
1.34543645859239,-0.51714755859375,2.5522189697265625,9.504980590820312,9.855248312379675
1.3479234021387714,-0.5267243652343749,2.5570073730468748,9.504980590820312,9.856996565618681
1.3504103456851528,-0.5267243652343749,2.5617957763671875,9.504980590820312,9.858239811884024
1.3528972892315343,-0.51714755859375,2.5570073730468748,9.509768994140625,9.861107170348264
1.3553842327779158,-0.5027823486328125,2.5617957763671875,9.519345800781249,9.870842525578102
1.3578711763242974,-0.507570751953125,2.5617957763671875,9.519345800781249,9.871087586629075
1.360358119870679,-0.51714755859375,2.5570073730468748,9.514557397460937,9.86572505053502
1.3628450634170604,-0.5123591552734374,2.5570073730468748,9.514557397460937,9.865475207986043
1.3653320069634418,-0.5219359619140624,2.5617957763671875,9.514557397460937,9.867219325510636
1.3678189505098233,-0.5267243652343749,2.5570073730468748,9.509768994140625,9.861614045614745
1.370305894056205,-0.5267243652343749,2.5570073730468748,9.5001921875,9.85237924879994
1.3727928376025864,-0.5267243652343749,2.5570073730468748,9.490615380859374,9.84314510561295
1.3752797811489679,-0.5315127685546874,2.5522189697265625,9.490615380859374,9.842159712175642
1.3777667246953493,-0.5363011718749999,2.5474305664062498,9.504980590820312,9.855033103419094
1.3802536682417308,-0.5267243652343749,2.5426421630859375,9.5001921875,9.848660788445804
1.3827406117881123,-0.5315127685546874,2.5330653564453125,9.5001921875,9.846449995942503
1.385227555334494,-0.5410895751953124,2.5378537597656248,9.504980590820312,9.852823740746224
1.3877144988808754,-0.5363011718749999,2.5330653564453125,9.490615380859374,9.837470170444352
1.3902014424272569,-0.5267243652343749,2.528276953125,9.485826977539062,9.831100465178984
1.3926883859736383,-0.5363011718749999,2.528276953125,9.495403784179686,9.840858515560084
1.3951753295200198,-0.5315127685546874,2.5234885498046875,9.490615380859374,9.83474862879253
1.3976622730664012,-0.5315127685546874,2.518700146484375,9.481038574218749,9.824278533147407
1.400149216612783,-0.5315127685546874,2.518700146484375,9.476250170898437,9.81965750688331
1.4026361601591644,-0.5363011718749999,2.518700146484375,9.466673364257812,9.810676529190188
1.4051231037055458,-0.5315127685546874,2.5234885498046875,9.4618849609375,9.80702642487249
1.4076100472519273,-0.51714755859375,2.5234885498046875,9.471461767578125,9.815499175948668
1.4100969907983087,-0.51714755859375,2.518700146484375,9.490615380859374,9.832755073358861
1.4125839343446902,-0.5267243652343749,2.5043349365234375,9.514557397460937,9.852712037850393
1.4150708778910719,-0.5219359619140624,2.499546533203125,9.528922607421874,9.865116120868654
1.4175578214374533,-0.51714755859375,2.499546533203125,9.519345800781249,9.855613575209755
1.4200447649838348,4.271255761718749,-3.284844677734375,10.505756884765624,11.806979209800268
1.4225317085302163,5.717353564453124,-4.505887524414062,10.524910498046875,12.797065880721737
1.4250186520765977,6.89530078125,-5.358223315429687,10.496180078124999,13.65377333173322
1.4275055956229792,7.79552060546875,-5.870582470703124,10.443507641601562,14.293380702822018
1.4299925391693609,8.413224633789062,-6.086060620117187,10.376469995117187,14.679700683934382
1.4324794827157423,13.728352319335936,-11.789048974609374,11.046846459960937,21.200994076682022
1.4349664262621238,15.375563061523437,-12.526463085937499,10.955866796875,22.65725566287998
1.4374533698085052,16.405069775390626,-12.746729638671875,10.8409451171875,23.433555467549148
1.4399403133548867,16.840814477539062,-12.483367456054687,10.716446630859375,23.543358377721557
1.4424272569012682,16.711527587890625,-11.789048974609374,10.548852514648438,23.011630090507985
1.4449142004476498,16.060304736328124,-10.726023437499999,10.352527978515624,21.912457702217512
1.4474011439940313,14.949395166015623,-9.361328491210937,10.17056865234375,20.36073067603632
1.4498880875404128,13.455413330078125,-7.7763669921875,9.988609326171874,18.474099375918577
1.4523750310867942,11.654973681640625,-6.019022973632812,9.821015209960937,16.386561226539854
1.4548619746331757,9.6151138671875,-4.180276098632812,9.662997900390625,14.258283605074482
1.4573489181795571,7.426813549804687,-2.3127988037109373,9.514557397460937,12.2895646904025
1.4598358617259388,5.185840795898438,-0.4644751220703125,9.394847314453125,10.741128337438012
1.4623228052723203,2.959233251953125,1.3120225097656248,9.299079248046874,9.846387122546664
1.4648097488187017,0.7996633544921875,2.9448680419921875,9.198522778320312,9.69146689456979
1.4672966923650832,-1.2210428466796874,4.410119458007812,9.117119921875,10.201077145928108
1.4697836359114647,-3.0597897216796874,5.693411547851563,9.069235888671875,11.136798812876172
1.4722705794578461,-4.673481640625,6.737283471679687,9.030928662109375,12.197954407323214
1.4747575230042278,-6.0142345703124995,7.570465649414062,9.011775048828124,13.217225773451151
1.4772444665506093,-7.072471704101562,8.183381274414062,9.011775048828124,14.078340620201981
1.4797314100969907,-7.848193041992187,8.552088330078124,9.02135185546875,14.700923036666863
1.4822183536433722,-8.327033374023436,8.710105639648438,9.054870678710937,15.073025843343954
1.4847052971897536,-8.528146313476562,8.67658681640625,9.102754711914063,15.194491820129171
1.487192240736135,-8.48505068359375,8.451531860351562,9.1554271484375,15.0746914449364
1.4896791842825168,-8.192958081054687,8.068459594726562,9.184157568359375,14.71643138094651
1.4921661278288982,-7.685387329101562,7.560888842773437,9.227253198242186,14.190645512997685
1.4946530713752797,-7.015010864257812,6.947973217773437,9.284714038085937,13.553251419109076
1.4971400149216612,-6.205770703124999,6.268019946289062,9.327809667968749,12.837745022732511
1.4996269584680426,-5.291185668945312,5.53539423828125,9.370905297851563,12.101698279900718
1.5021139020144243,-4.319139794921875,4.778826513671874,9.423577734375,11.414725959551518
1.5046008455608058,-3.308786694335937,4.031835595703125,9.4618849609375,10.804213746192202
1.5070877891071872,-2.3127988037109373,3.31357509765625,9.5001921875,10.323878623545047
1.5095747326535687,-1.3551181396484375,2.6288334228515624,9.5384994140625,9.986494951161612
1.5120616761999501,-0.45489831542968745,2.001552587890625,9.576806640625,9.794302970165438
1.5145486197463316,0.3591302490234375,1.455674609375,9.610325463867188,9.726577950420012
1.5170355632927133,1.0726023437499999,1.0007762939453124,9.629479077148437,9.74057987368208
1.5195225068390947,1.6711527587890624,0.622492431640625,9.634267480468749,9.797926222210279
1.5220094503854762,2.1499930908203124,0.3399766357421875,9.634267480468749,9.87710303118497
1.5244963939318577,2.50912333984375,0.1484405029296875,9.643844287109374,9.966015610637522
1.5269833374782391,2.7246014892578123,0.047884033203124995,9.643844287109374,10.021450932370712
1.5294702810246206,2.829946362304687,0.0383072265625,9.643844287109374,10.050561998771041
1.5319572245710023,2.825157958984375,0.1005564697265625,9.634267480468749,10.040455118271995
1.5344441681173837,7.45075556640625,-3.5242648437499997,10.079588989257813,13.020457572281908
1.5369311116637652,8.470685473632813,-4.065354418945312,10.05564697265625,13.762109394404005
1.5394180552101466,9.179369165039063,-4.3239281982421875,10.01733974609375,14.258480596483395
1.541904998756528,9.591171850585937,-4.319139794921875,9.983820922851562,14.502490346665239
1.5443919423029095,9.710881933593749,-4.070142822265625,9.935936889648437,14.477228063303917
1.5468788858492912,9.576806640625,-3.6104561035156246,9.86411083984375,14.214475064808243
1.5493658293956727,9.212887988281249,-2.96881005859375,9.797073193359374,13.77221047634203
1.5518527729420541,8.623914379882812,-2.1930887207031247,9.720458740234374,13.17834798026762
1.5543397164884356,7.862558251953125,-1.3168109130859373,9.639055883789062,12.508605500893653
1.556826660034817,6.967126831054687,-0.38786066894531246,9.576806640625,11.84932561838166
1.5593136035811985,5.971138940429687,0.565031591796875,9.519345800781249,11.25129794381501
1.5618005471275802,4.903325,1.5179238525390624,9.457096557617186,10.760267848795719
1.5642874906739617,3.797203833007812,2.418143676757812,9.409212524414063,10.430697777255531
1.5667744342203431,2.6815058593749996,3.227383837890625,9.3852705078125,10.280553614263932
1.5692613777667246,1.5849614990234373,3.9456443359374997,9.361328491210937,10.28176460046912
1.571748321313106,0.5315127685546874,4.5585599609375,9.327809667968749,10.395720655272074
1.5742352648594875,-0.45010991210937495,5.032611889648437,9.3086560546875,10.591546577779855
1.5767222084058692,-1.3407529296874998,5.386953735351562,9.294290844726563,10.82592865631636
1.5792091519522506,-2.1404162841796874,5.607220288085937,9.299079248046874,11.067753886410745
1.581696095498632,-2.839523168945312,5.693411547851563,9.313444458007812,11.279099013333608
1.5841830390450136,-3.423708374023437,5.664681127929687,9.313444458007812,11.425875851937013
1.586669982591395,-3.878606689453125,5.5258174316406246,9.327809667968749,11.514611645259478
1.5891569261377765,-4.218583325195312,5.3007624755859375,9.351751684570312,11.547717855232674
1.5916438696841582,-4.438849877929687,4.989516259765625,9.375693701171874,11.510964039708226
1.5941308132305396,-4.548983154296875,4.620809204101562,9.3852705078125,11.407384798611886
1.596617756776921,-4.563348364257812,4.2137949218749995,9.409212524414063,11.274462127604334
1.5991047003233025,-4.4819455078125,3.782838623046875,9.457096557617186,11.128089633136078
1.601591643869684,-4.299986181640625,3.347093920898437,9.471461767578125,10.927099656007066
1.6040785874160655,-4.04141240234375,2.906560815429687,9.485826977539062,10.712703833646156
1.6065655309624471,-3.744531396484375,2.499546533203125,9.524134204101562,10.534627691031243
1.6090524745088286,-3.39018955078125,2.1404162841796874,9.548076220703125,10.355700197290593
1.61153941805521,-2.987963671875,1.8291700683593748,9.567229833984374,10.188507090820876
1.6140263616015915,-2.5713725830078125,1.5658078857421873,9.595960253906249,10.057144947262378
1.616513305147973,-2.1452046874999997,1.350329736328125,9.610325463867188,9.938996381402804
1.6190002486943544,-1.70467158203125,1.2018892333984375,9.6151138671875,9.838742684455436
1.6214871922407361,-1.2785036865234374,1.1109095703125,9.600748657226562,9.749003360810969
1.6239741357871176,-0.8714894042968749,1.0773907470703123,9.581595043945311,9.681282362881056
1.626461079333499,-0.47884033203125,1.1013327636718748,9.572018237304688,9.647059399382306
1.6289480228798805,-0.13407529296874998,1.158793603515625,9.557653027343749,9.628577786507543
1.631434966426262,0.16759411621093748,1.2737152832031249,9.548076220703125,9.634116354228354
1.6339219099726436,0.44053310546874996,1.4173673828125,9.524134204101562,9.63909394355154
1.636408853519025,0.6703764648437499,1.5801730957031248,9.514557397460937,9.668151534113388
1.6388957970654066,0.8475473876953125,1.7621324218749999,9.5001921875,9.699334969267131
1.641382740611788,0.9816226806640624,1.9536685546875,9.485826977539062,9.73454248316667
1.6438696841581695,1.0726023437499999,2.1499930908203124,9.5001921875,9.799316184195156
1.646356627704551,1.120486376953125,2.3319524169921872,9.5001921875,9.846174048608386
1.6488435712509326,1.120486376953125,2.5234885498046875,9.485826977539062,9.879493794205287
1.651330514797314,1.0869675537109373,2.6958710693359373,9.481038574218749,9.916617958312537
1.6538174583436955,1.0199299072265624,2.829946362304687,9.476250170898437,9.942241735676586
1.656304401890077,0.9241618408203125,2.9496564453125,9.471461767578125,9.963088691168824
1.6587913454364585,0.8044517578125,3.0454245117187497,9.4618849609375,9.972412952803362
1.66127828898284,0.6560112548828124,3.1124621582031247,9.471461767578125,9.991314201218653
1.6637652325292216,0.507570751953125,3.1555577880859373,9.5001921875,10.023413820731143
1.666252176075603,0.3399766357421875,3.1747114013671873,9.5001921875,10.022376374605845
1.6687391196219845,0.1580173095703125,3.1794998046874996,9.495403784179686,10.014833074132868
1.671226063168366,-0.023942016601562498,3.1651345947265623,9.504980590820312,10.01814884371183
1.6737130067147474,-0.2059013427734375,3.1076737548828124,9.504980590820312,10.002234128514198
1.676199950261129,-0.37828386230468747,3.0406361083984375,9.5001921875,9.982094881517234
1.6786868938075106,-0.5363011718749999,2.96881005859375,9.504980590820312,9.972266951041412
1.681173837353892,-0.6847416748046875,2.882618798828125,9.514557397460937,9.965197678428174
1.6836607809002735,-0.8188169677734375,2.806004345703125,9.519345800781249,9.95801516817835
1.686147724446655,-0.9337386474609375,2.7246014892578123,9.519345800781249,9.945514849010063
1.6886346679930364,-1.0295067138671874,2.6336218261718747,9.528922607421874,9.939628466669275
1.6911216115394179,-1.120486376953125,2.5570073730468748,9.528922607421874,9.929458317803107
1.6936085550857995,-1.1827356201171875,2.4851813232421875,9.524134204101562,9.913834883344743
1.696095498632181,-1.2210428466796874,2.418143676757812,9.528922607421874,9.906499408625992
1.6985824421785625,-1.24498486328125,2.35589443359375,9.519345800781249,9.885250141847147
1.701069385724944,-1.2497732666015624,2.3127988037109373,9.514557397460937,9.871057389861399
1.7035563292713254,-1.235408056640625,2.3032219970703123,9.509768994140625,9.862391746230704
1.7060432728177068,-1.20667763671875,2.269703173828125,9.509768994140625,9.851057290370461
1.7085302163640885,-1.177947216796875,2.2553379638671873,9.509768994140625,9.844278302584629
1.71101715991047,-1.1252747802734375,2.2553379638671873,9.509768994140625,9.838114605161826
1.7135041034568514,-1.0582371337890624,2.2649147705078123,9.504980590820312,9.82824301596503
1.715991047003233,-0.9864110839843749,2.2744915771484373,9.495403784179686,9.813715493417378
1.7184779905496144,-0.9097966308593749,2.2936451904296873,9.481038574218749,9.79686840857466
1.7209649340959958,-0.8283937744140625,2.3223756103515623,9.476250170898437,9.79178135083175
1.7234518776423775,-0.737414111328125,2.35589443359375,9.471461767578125,9.78788057592235
1.725938821188759,-0.6560112548828124,2.384624853515625,9.466673364257812,9.78441061301526
1.7284257647351404,-0.5793968017578125,2.422932080078125,9.457096557617186,9.779722686183577
1.7309127082815219,-0.5027823486328125,2.461239306640625,9.452308154296874,9.780420157561572
1.7333996518279033,-0.430956298828125,2.4899697265625,9.4618849609375,9.793515180195138
1.7358865953742848,-0.3687070556640625,2.5139117431640625,9.4618849609375,9.797089575957232
1.7383735389206665,-0.32082302246093747,2.5330653564453125,9.476250170898437,9.814207294184135
1.740860482467048,-0.28730419921875,2.5617957763671875,9.490615380859374,9.834486341955333
1.7433474260134294,-0.2537853759765625,2.5857377929687497,9.5001921875,9.849065871973975
1.7458343695598109,-0.2154781494140625,2.5905261962890624,9.519345800781249,9.867887376808998
1.7483213131061923,-0.181959326171875,2.5953145996093747,9.533711010742186,9.882328303779088
1.7508082566525738,-0.181959326171875,2.6096798095703124,9.533711010742186,9.886110637718286
1.7532952001989555,-0.1867477294921875,2.6144682128906247,9.533711010742186,9.887465013188809
1.755782143745337,-0.19632453613281248,2.6192566162109374,9.528922607421874,9.884301422118218
1.7582690872917184,-0.2059013427734375,2.6288334228515624,9.514557397460937,9.873194163878072
1.7607560308380998,-0.229843359375,2.6288334228515624,9.504980590820312,9.86449436954683
1.7632429743844813,-0.258573779296875,2.6192566162109374,9.509768994140625,9.867272771278953
1.765729917930863,-0.296881005859375,2.6048914062499997,9.519345800781249,9.873780534569663
1.7682168614772444,-0.33039982910156246,2.6096798095703124,9.528922607421874,9.88534060180958
1.770703805023626,-0.3591302490234375,2.5713725830078125,9.5384994140625,9.885540074698932
1.7731907485700074,-0.40222587890625,2.5570073730468748,9.5384994140625,9.883473247575907
1.7756776921163888,-0.45010991210937495,2.5617957763671875,9.5384994140625,9.886777412527428
1.7781646356627703,-0.488417138671875,2.5570073730468748,9.524134204101562,9.873498384306435
1.780651579209152,-0.5219359619140624,2.5426421630859375,9.514557397460937,9.862263877397528
1.7831385227555334,-0.55545478515625,2.5474305664062498,9.504980590820312,9.856093979913377
1.7856254663019149,-0.584185205078125,2.5426421630859375,9.509768994140625,9.861136235001164
1.7881124098482963,-0.612915625,2.5378537597656248,9.514557397460937,9.86626422405686
1.7905993533946778,-0.6416460449218749,2.5474305664062498,9.519345800781249,9.87517375100187
1.7930862969410593,-0.6607996582031249,2.5426421630859375,9.524134204101562,9.879818707624194
1.795573240487441,-0.6751648681640625,2.5234885498046875,9.528922607421874,9.88049634980116
1.7980601840338224,-0.6847416748046875,2.5234885498046875,9.533711010742186,9.88577317454515
1.8005471275802039,-0.689530078125,2.518700146484375,9.5384994140625,9.889503184114465
1.8030340711265853,-0.6943184814453125,2.5139117431640625,9.5384994140625,9.8886197964208
1.8055210146729668,-0.6943184814453125,2.5234885498046875,9.5384994140625,9.89105877480983
1.8080079582193482,-0.6751648681640625,2.518700146484375,9.519345800781249,9.870037614009128
1.81049490176573,-0.6703764648437499,2.5139117431640625,9.504980590820312,9.85463408193858
1.8129818453121114,-0.6703764648437499,2.50912333984375,9.504980590820312,9.853413650661171
1.8154687888584928,-0.6607996582031249,2.5043349365234375,9.495403784179686,9.842308808769776
1.8179557324048743,-0.6416460449218749,2.499546533203125,9.485826977539062,9.830582687024178
1.8204426759512558,-0.6177040283203125,2.4947581298828125,9.495403784179686,9.83707626369916
1.8229296194976372,-0.603338818359375,2.4899697265625,9.481038574218749,9.821102759607035
1.825416563044019,-0.584185205078125,2.4899697265625,9.466673364257812,9.806075982704714
1.8279035065904004,-0.5746083984375,2.480392919921875,9.452308154296874,9.789211065889868
1.8303904501367818,-0.55545478515625,2.47081611328125,9.452308154296874,9.785682997511744
1.8328773936831633,-0.5315127685546874,2.446874096679687,9.452308154296874,9.778334628755854
1.8353643372295447,-0.5123591552734374,2.442085693359375,9.452308154296874,9.776114968712788
1.8378512807759262,-0.5027823486328125,2.442085693359375,9.452308154296874,9.775617733299233
1.8403382243223079,-0.49320554199218747,2.446874096679687,9.457096557617186,9.780957000812787
1.8428251678686893,-0.47884033203125,2.4564509033203126,9.4618849609375,9.787272659838298
1.8453121114150708,-0.4644751220703125,2.461239306640625,9.457096557617186,9.783154468967046
1.8477990549614522,-0.45489831542968745,2.47081611328125,9.4618849609375,9.789746256009206
1.8502859985078337,-0.45010991210937495,2.4899697265625,9.481038574218749,9.812881361659311
1.8527729420542152,-0.44053310546874996,2.499546533203125,9.490615380859374,9.824132663806319
1.8552598856005968,-0.430956298828125,2.50912333984375,9.490615380859374,9.826148969634687
1.8577468291469783,-0.430956298828125,2.5234885498046875,9.495403784179686,9.834450204109476
1.8602337726933598,-0.43574470214843747,2.5426421630859375,9.504980590820312,9.848835395457861
1.8627207162397412,-0.430956298828125,2.5617957763671875,9.509768994140625,9.858206086972965
1.8652076597861227,-0.4261678955078125,2.5665841796874997,9.509768994140625,9.859243365923275
1.8676946033325041,-0.430956298828125,2.5761609863281247,9.524134204101562,9.875801795131169
1.8701815468788858,-0.44053310546874996,2.5905261962890624,9.528922607421874,9.884597181924487
1.8726684904252673,-0.44532150878906246,2.5953145996093747,9.528922607421874,9.886067730668824
1.8751554339716487,-0.45489831542968745,2.6001030029296874,9.524134204101562,9.88314729430671
1.8776423775180302,-0.47884033203125,2.6048914062499997,9.533711010742186,9.894765936508135
1.8801293210644117,-0.49320554199218747,2.6096798095703124,9.562441430664062,9.924412654157994
1.8826162646107931,-0.5027823486328125,2.6096798095703124,9.586383447265625,9.947962926980782
1.8851032081571748,-0.5123591552734374,2.6096798095703124,9.581595043945311,9.943837498603283
1.8875901517035563,-0.51714755859375,2.6096798095703124,9.576806640625,9.93947160254294
1.8900770952499377,-0.5315127685546874,2.6048914062499997,9.572018237304688,9.934359475919186
1.8925640387963192,-0.5458779785156249,2.6001030029296874,9.543287817382812,9.906203145437685
1.8950509823427006,-0.5506663818359374,2.6048914062499997,9.509768994140625,9.875444244405301
1.897537925889082,-0.55545478515625,2.5953145996093747,9.490615380859374,9.854743436371292
1.9000248694354638,-0.5410895751953124,2.5953145996093747,9.481038574218749,9.844720831245267
1.9025118129818452,-0.5458779785156249,2.5953145996093747,9.485826977539062,9.849596645862293
1.9049987565282267,-0.5458779785156249,2.5857377929687497,9.495403784179686,9.856303349939525
1.9074857000746082,-0.5506663818359374,2.5713725830078125,9.495403784179686,9.852810941520316
1.9099726436209896,-0.55545478515625,2.5617957763671875,9.495403784179686,9.850584786842841
1.9124595871673713,-0.5458779785156249,2.5522189697265625,9.5001921875,9.852180268158742
1.9149465307137528,-0.5506663818359374,2.5426421630859375,9.509768994140625,9.85920731882158
1.9174334742601342,-0.5506663818359374,2.528276953125,9.5001921875,9.846271853611565
1.9199204178065157,-0.5410895751953124,2.5234885498046875,9.504980590820312,9.849133384275556
1.9224073613528971,-0.5458779785156249,2.5043349365234375,9.509768994140625,9.849131056272862
1.9248943048992786,-0.5458779785156249,2.4947581298828125,9.509768994140625,9.84670032122249
1.9273812484456603,-0.5410895751953124,2.4947581298828125,9.514557397460937,9.851060781691485
1.9298681919920417,-0.5363011718749999,2.4756045166015626,9.504980590820312,9.836711478001344
1.9323551355384232,-0.5363011718749999,2.4660277099609376,9.495403784179686,9.825049854217717
1.9348420790848047,-0.5315127685546874,2.4756045166015626,9.485826977539062,9.817944642009476
1.9373290226311861,-0.5219359619140624,2.480392919921875,9.466673364257812,9.800136262883596
1.9398159661775676,-0.51714755859375,2.4756045166015626,9.4618849609375,9.794045452926628
1.9423029097239493,-0.5219359619140624,2.47081611328125,9.4618849609375,9.793090238939119
1.9447898532703307,-0.51714755859375,2.4756045166015626,9.4618849609375,9.794045452926628
1.9472767968167122,-0.5123591552734374,2.480392919921875,9.471461767578125,9.80425667533675
1.9497637403630936,-0.507570751953125,2.4756045166015626,9.485826977539062,9.81667760694341
1.952250683909475,-0.5123591552734374,2.4756045166015626,9.495403784179686,9.826180471130401
1.9547376274558566,-0.507570751953125,2.4756045166015626,9.504980590820312,9.835186923629218
1.9572245710022382,-0.507570751953125,2.47081611328125,9.519345800781249,9.847868033678159
1.9597115145486197,-0.5123591552734374,2.47081611328125,9.524134204101562,9.852744617992494
1.9621984580950012,-0.507570751953125,2.461239306640625,9.519345800781249,9.845469591017114
1.9646854016413826,-0.507570751953125,2.461239306640625,9.524134204101562,9.850099457900331
1.967172345187764,-0.51714755859375,2.4660277099609376,9.524134204101562,9.851795095381956
1.9696592887341455,-0.51714755859375,2.480392919921875,9.519345800781249,9.850773325450628
1.9721462322805272,-0.5219359619140624,2.4947581298828125,9.514557397460937,9.85002729663904
1.9746331758269087,-0.5267243652343749,2.50912333984375,9.524134204101562,9.863177521935693
1.9771201193732901,-0.5219359619140624,2.5234885498046875,9.519345800781249,9.861965122843728
1.9796070629196716,-0.5267243652343749,2.5234885498046875,9.509768994140625,9.852976166613077
1.982094006466053,-0.5363011718749999,2.5330653564453125,9.504980590820312,9.851329609694762
1.9845809500124345,-0.5363011718749999,2.5426421630859375,9.504980590820312,9.853796433270158
1.9870678935588162,-0.5315127685546874,2.5426421630859375,9.504980590820312,9.853536980420271
1.9895548371051976,-0.5363011718749999,2.5570073730468748,9.519345800781249,9.87136516028164
1.992041780651579,-0.5458779785156249,2.5713725830078125,9.519345800781249,9.87562069962816
1.9945287241979606,-0.5506663818359374,2.5665841796874997,9.509768994140625,9.865408969598008
1.997015667744342,-0.55545478515625,2.5522189697265625,9.5001921875,9.852715528585057
1.9995026112907235,-0.565031591796875,2.5474305664062498,9.5001921875,9.852020848020238
2.001989554837105,-0.565031591796875,2.5522189697265625,9.514557397460937,9.867111271225195
2.0044764983834864,-0.5698199951171875,2.5474305664062498,9.504980590820312,9.856913987114176
2.006963441929868,-0.5698199951171875,2.5522189697265625,9.504980590820312,9.858152592049807
2.0094503854762498,-0.5746083984375,2.5522189697265625,9.495403784179686,9.84919740413405
2.011937329022631,-0.5746083984375,2.5522189697265625,9.5001921875,9.853813885010364
2.0144242725690127,-0.5746083984375,2.5522189697265625,9.495403784179686,9.84919740413405
2.016911216115394,-0.5698199951171875,2.5474305664062498,9.485826977539062,9.838445546187877
2.0193981596617756,-0.5698199951171875,2.5378537597656248,9.495403784179686,9.84520642533237
2.021885103208157,-0.5602431884765625,2.5378537597656248,9.495403784179686,9.84465678227559
2.0243720467545385,-0.5602431884765625,2.5426421630859375,9.504980590820312,9.855128493916634
2.02685899030092,-0.5602431884765625,2.5378537597656248,9.524134204101562,9.872370863877036
2.0293459338473014,-0.5458779785156249,2.5330653564453125,9.528922607421874,9.874956654370054
2.031832877393683,-0.5410895751953124,2.528276953125,9.519345800781249,9.864223575879638
2.0343198209400644,-0.5363011718749999,2.5330653564453125,9.509768994140625,9.855949744641372
2.036806764486446,-0.5363011718749999,2.5426421630859375,9.5001921875,9.849177616222223
2.0392937080328277,-0.5315127685546874,2.5378537597656248,9.495403784179686,9.843063575620503
2.041780651579209,-0.5219359619140624,2.5378537597656248,9.495403784179686,9.842551085918203
2.0442675951255906,-0.51714755859375,2.5378537597656248,9.495403784179686,9.84229832548932
2.046754538671972,-0.51714755859375,2.5378537597656248,9.495403784179686,9.84229832548932
2.0492414822183536,-0.5219359619140624,2.5330653564453125,9.495403784179686,9.841317506969098
2.0517284257647352,-0.5123591552734374,2.528276953125,9.5001921875,9.844203769484436
2.0542153693111165,-0.49799394531249996,2.528276953125,9.495403784179686,9.838845224206185
2.056702312857498,-0.49799394531249996,2.528276953125,9.490615380859374,9.834224048122733
2.0591892564038794,-0.5027823486328125,2.5234885498046875,9.495403784179686,9.837859400078148
2.061676199950261,-0.5123591552734374,2.5234885498046875,9.490615380859374,9.833732082601824
2.0641631434966423,-0.507570751953125,2.528276953125,9.476250170898437,9.820851781866681
2.066650087043024,-0.5027823486328125,2.528276953125,9.481038574218749,9.825226047660362
2.0691370305894057,-0.5027823486328125,2.5234885498046875,9.5001921875,9.842481198891269
2.071623974135787,-0.5027823486328125,2.5234885498046875,9.509768994140625,9.851725273930983
2.0741109176821686,-0.5027823486328125,2.528276953125,9.519345800781249,9.862196454981586
2.07659786122855,-0.507570751953125,2.528276953125,9.524134204101562,9.86706363401385
2.0790848047749315,-0.5123591552734374,2.5234885498046875,9.509768994140625,9.852218668244543
2.081571748321313,-0.5123591552734374,2.528276953125,9.509768994140625,9.85344622848341
2.0840586918676944,-0.51714755859375,2.5330653564453125,9.509768994140625,9.854926078834955
2.086545635414076,-0.51714755859375,2.5330653564453125,9.504980590820312,9.850305463753585
2.0890325789604574,-0.507570751953125,2.5378537597656248,9.509768994140625,9.85566010453451
2.091519522506839,-0.5123591552734374,2.5426421630859375,9.514557397460937,9.86176168557492
2.0940064660532203,-0.51714755859375,2.5378537597656248,9.504980590820312,9.851537917258748
2.096493409599602,-0.51714755859375,2.5474305664062498,9.504980590820312,9.854009342389075
2.0989803531459836,-0.5267243652343749,2.5426421630859375,9.524134204101562,9.871757698817936
2.101467296692365,-0.5363011718749999,2.5330653564453125,9.524134204101562,9.86981111190661
2.1039542402387466,-0.5315127685546874,2.5426421630859375,9.524134204101562,9.872014350190963
2.106441183785128,-0.5267243652343749,2.5330653564453125,9.514557397460937,9.860053809515119
2.1089281273315095,-0.5315127685546874,2.5234885498046875,9.509768994140625,9.853233307196701
2.111415070877891,-0.5458779785156249,2.5234885498046875,9.519345800781249,9.863261210333794
2.1139020144242724,-0.5410895751953124,2.5234885498046875,9.509768994140625,9.853754548967556
2.116388957970654,-0.5315127685546874,2.518700146484375,9.495403784179686,9.838142572439727
2.1188759015170353,-0.5410895751953124,2.5139117431640625,9.495403784179686,9.837439870485467
2.121362845063417,-0.5410895751953124,2.50912333984375,9.509768994140625,9.850085491245855
2.1238497886097982,-0.5363011718749999,2.5043349365234375,9.514557397460937,9.85322865312812
2.12633673215618,-0.5363011718749999,2.499546533203125,9.509768994140625,9.847388391879374
2.1288236757025616,-0.5363011718749999,2.499546533203125,9.504980590820312,9.84276423828556
2.131310619248943,-0.5363011718749999,2.50912333984375,9.495403784179686,9.835955058158666
2.1337975627953245,-0.5363011718749999,2.50912333984375,9.490615380859374,9.831332523565036
2.1362845063417057,-0.5267243652343749,2.50912333984375,9.481038574218749,9.821569677872478
2.1387714498880874,-0.5219359619140624,2.5043349365234375,9.481038574218749,9.820091805500338
2.141258393434469,-0.51714755859375,2.5043349365234375,9.485826977539062,9.824461741971373
2.1437453369808503,-0.5219359619140624,2.499546533203125,9.495403784179686,9.832743413951206
2.146232280527232,-0.51714755859375,2.4947581298828125,9.5001921875,9.835899111083434
2.1487192240736133,-0.5123591552734374,2.5043349365234375,9.514557397460937,9.851954519173493
2.151206167619995,-0.51714755859375,2.50912333984375,9.524134204101562,9.862670727021431
2.153693111166376,-0.5219359619140624,2.5043349365234375,9.528922607421874,9.866330456703075
2.156180054712758,-0.5219359619140624,2.50912333984375,9.528922607421874,9.867546966755391
2.1586669982591395,-0.51714755859375,2.50912333984375,9.524134204101562,9.862670727021431
2.161153941805521,-0.51714755859375,2.50912333984375,9.524134204101562,9.862670727021431
2.1636408853519025,-0.5267243652343749,2.50912333984375,9.524134204101562,9.863177521935693
2.1661278288982837,-0.5219359619140624,2.50912333984375,9.524134204101562,9.86292296535997
2.1686147724446654,-0.51714755859375,2.5139117431640625,9.514557397460937,9.854643388746053
2.171101715991047,-0.5219359619140624,2.518700146484375,9.504980590820312,9.846873798729748
2.1735886595374283,-0.5267243652343749,2.518700146484375,9.504980590820312,9.847128770189958
2.17607560308381,-0.5315127685546874,2.5234885498046875,9.490615380859374,9.83474862879253
2.178562546630191,-0.5315127685546874,2.5139117431640625,9.476250170898437,9.81843039273628
2.181049490176573,-0.5219359619140624,2.518700146484375,9.481038574218749,9.823765063460314
2.1835364337229546,-0.5219359619140624,2.5139117431640625,9.476250170898437,9.817916617195829
2.186023377269336,-0.5363011718749999,2.50912333984375,9.471461767578125,9.81284397594282
2.1885103208157175,-0.5363011718749999,2.50912333984375,9.471461767578125,9.81284397594282
2.1909972643620987,-0.5363011718749999,2.5043349365234375,9.471461767578125,9.811620683451867
2.1934842079084804,-0.5410895751953124,2.5139117431640625,9.490615380859374,9.83281803392129
2.1959711514548617,-0.5410895751953124,2.50912333984375,9.504980590820312,9.845462604408416
2.1984580950012433,-0.5458779785156249,2.50912333984375,9.519345800781249,9.859595690332771
2.200945038547625,-0.5506663818359374,2.518700146484375,9.509768994140625,9.853059941657875
2.2034319820940063,-0.5506663818359374,2.518700146484375,9.514557397460937,9.85768159160983
2.205918925640388,-0.5410895751953124,2.518700146484375,9.524134204101562,9.866395526940057
2.208405869186769,-0.5267243652343749,2.5330653564453125,9.519345800781249,9.86467450713943
2.210892812733151,-0.5267243652343749,2.5378537597656248,9.5384994140625,9.884387251365595
2.2133797562795325,-0.5410895751953124,2.5330653564453125,9.552864624023437,9.897798773127635
2.2158666998259138,-0.5363011718749999,2.5426421630859375,9.5384994140625,9.886132670995645
2.2183536433722955,-0.5315127685546874,2.5522189697265625,9.533711010742186,9.883722635167155
2.2208405869186767,-0.5315127685546874,2.5426421630859375,9.528922607421874,9.876634095220634
2.2233275304650584,-0.5267243652343749,2.5474305664062498,9.514557397460937,9.863754027608913
2.2258144740114396,-0.5363011718749999,2.5665841796874997,9.495403784179686,9.850769834027723
2.2283014175578213,-0.5363011718749999,2.5617957763671875,9.490615380859374,9.844907153151409
2.230788361104203,-0.5267243652343749,2.5665841796874997,9.481038574218749,9.836406119827382
2.233275304650584,-0.5315127685546874,2.5713725830078125,9.466673364257812,9.82407081455184
2.235762248196966,-0.5363011718749999,2.5713725830078125,9.457096557617186,9.815103219411073
2.238249191743347,-0.5315127685546874,2.5665841796874997,9.447519750976562,9.804360745079256
2.240736135289729,-0.5315127685546874,2.5713725830078125,9.4618849609375,9.819456695652574
2.2432230788361105,-0.5267243652343749,2.5665841796874997,9.466673364257812,9.822560638341818
2.2457100223824917,-0.5219359619140624,2.5617957763671875,9.466673364257812,9.821054899230543
2.2481969659288734,-0.5219359619140624,2.5570073730468748,9.490615380859374,9.84289003095939
2.2506839094752547,-0.51714755859375,2.5522189697265625,9.509768994140625,9.859866611101289
2.2531708530216363,-0.51714755859375,2.5474305664062498,9.519345800781249,9.867866464584527
2.2556577965680176,-0.51714755859375,2.5426421630859375,9.514557397460937,9.862011622201651
2.2581447401143993,-0.5123591552734374,2.5378537597656248,9.504980590820312,9.851287714904071
2.260631683660781,-0.51714755859375,2.5234885498046875,9.509768994140625,9.852468846957764
2.263118627207162,-0.5123591552734374,2.5234885498046875,9.528922607421874,9.870707797479549
2.265605570753544,-0.507570751953125,2.5330653564453125,9.543287817382812,9.886778572096619
2.268092514299925,-0.5123591552734374,2.528276953125,9.543287817382812,9.885799847311432
2.2705794578463068,-0.5123591552734374,2.528276953125,9.5384994140625,9.88117742618592
2.2730664013926885,-0.5027823486328125,2.5378537597656248,9.533711010742186,9.878518989828386
2.2755533449390697,-0.507570751953125,2.5330653564453125,9.524134204101562,9.868291671104933
2.2780402884854514,-0.51714755859375,2.5378537597656248,9.509768994140625,9.856157954559901
2.2805272320318326,-0.51714755859375,2.5426421630859375,9.481038574218749,9.829677675930462
2.2830141755782143,-0.507570751953125,2.5426421630859375,9.4618849609375,9.810704574685543
2.2855011191245955,-0.507570751953125,2.5426421630859375,9.457096557617186,9.806086504708972
2.287988062670977,-0.51714755859375,2.5378537597656248,9.452308154296874,9.800728174329864
2.290475006217359,-0.5219359619140624,2.5378537597656248,9.442731347656249,9.79174622620019
2.29296194976374,-0.5267243652343749,2.528276953125,9.447519750976562,9.794143778489616
2.295448893310122,-0.5363011718749999,2.5234885498046875,9.466673364257812,9.811906949900115
2.297935836856503,-0.5267243652343749,2.5234885498046875,9.471461767578125,9.816008406303505
2.3004227804028847,-0.5219359619140624,2.518700146484375,9.481038574218749,9.823765063460314
2.3029097239492664,-0.5315127685546874,2.5043349365234375,9.504980590820312,9.843721619860009
2.3053966674956476,-0.5267243652343749,2.5139117431640625,9.519345800781249,9.859773591934113
2.3078836110420293,-0.5267243652343749,2.5139117431640625,9.528922607421874,9.86902005609399
2.3103705545884106,-0.5315127685546874,2.5139117431640625,9.5384994140625,9.878523631981931
2.3128574981347922,-0.5363011718749999,2.50912333984375,9.548076220703125,9.886813359109173
2.315344441681174,-0.5315127685546874,2.50912333984375,9.548076220703125,9.886554772722487
2.317831385227555,-0.5315127685546874,2.5139117431640625,9.533711010742186,9.873900126692675
2.320318328773937,-0.5410895751953124,2.518700146484375,9.524134204101562,9.866395526940057
2.322805272320318,-0.5410895751953124,2.528276953125,9.519345800781249,9.864223575879638
2.3252922158666998,-0.5410895751953124,2.5330653564453125,9.514557397460937,9.860831633183233
2.327779159413081,-0.5410895751953124,2.5330653564453125,9.509768994140625,9.85621146030902
2.3302661029594627,-0.5410895751953124,2.528276953125,9.514557397460937,9.85960266692663
2.3327530465058444,-0.5506663818359374,2.528276953125,9.509768994140625,9.855512373169937
2.3352399900522256,-0.5458779785156249,2.528276953125,9.509768994140625,9.855245985821446
2.3377269335986073,-0.5363011718749999,2.528276953125,9.514557397460937,9.859341041278377
2.3402138771449885,-0.5410895751953124,2.5330653564453125,9.524134204101562,9.870072460025092
2.34270082069137,-0.5410895751953124,2.528276953125,9.519345800781249,9.864223575879638
2.345187764237752,-0.5363011718749999,2.5234885498046875,9.514557397460937,9.858114215078283
2.347674707784133,-0.5363011718749999,2.528276953125,9.5001921875,9.845478906487665
2.350161651330515,-0.5363011718749999,2.5378537597656248,9.5001921875,9.84794253904576
2.352648594876896,-0.5410895751953124,2.5426421630859375,9.504980590820312,9.854058206127982
2.3551355384232777,-0.5410895751953124,2.5426421630859375,9.504980590820312,9.854058206127982
2.357622481969659,-0.5219359619140624,2.5426421630859375,9.509768994140625,9.85764437580094
2.3601094255160406,-0.5219359619140624,2.5426421630859375,9.519345800781249,9.866883540039026
2.3625963690624223,-0.5315127685546874,2.5378537597656248,9.524134204101562,9.870782130450985
2.3650833126088036,-0.5267243652343749,2.5426421630859375,9.514557397460937,9.862518450984643
2.3675702561551852,-0.5219359619140624,2.5426421630859375,9.504980590820312,9.853025035475772
2.3700571997015665,-0.5219359619140624,2.5330653564453125,9.5001921875,9.845937682506355
2.372544143247948,-0.5267243652343749,2.528276953125,9.514557397460937,9.858824746297767
2.37503108679433,-0.5315127685546874,2.528276953125,9.514557397460937,9.859081734341101
2.377518030340711,-0.5219359619140624,2.518700146484375,9.5001921875,9.842251732996651
2.3800049738870928,-0.5219359619140624,2.5139117431640625,9.495403784179686,9.83640495432001
2.382491917433474,-0.5315127685546874,2.518700146484375,9.495403784179686,9.838142572439727
2.3849788609798557,-0.5315127685546874,2.5234885498046875,9.481038574218749,9.825507250516683
2.387465804526237,-0.5267243652343749,2.5234885498046875,9.485826977539062,9.829870114387818
2.3899527480726186,-0.5363011718749999,2.528276953125,9.490615380859374,9.836238285343745
2.3924396916190003,-0.5363011718749999,2.528276953125,9.476250170898437,9.822378561229973
2.3949266351653815,-0.5315127685546874,2.528276953125,9.476250170898437,9.822118278471928
2.397413578711763,-0.5267243652343749,2.518700146484375,9.485826977539062,9.828641942437411
2.3999005222581444,-0.51714755859375,2.518700146484375,9.495403784179686,9.837376939503425
2.402387465804526,-0.51714755859375,2.518700146484375,9.495403784179686,9.837376939503425
2.404874409350908,-0.5123591552734374,2.5139117431640625,9.490615380859374,9.8312788824148
2.407361352897289,-0.51714755859375,2.5234885498046875,9.495403784179686,9.838604021047333
2.4098482964436707,-0.5267243652343749,2.5139117431640625,9.504980590820312,9.845905079840074
2.412335239990052,-0.5315127685546874,2.50912333984375,9.519345800781249,9.858810792004121
2.4148221835364336,-0.5267243652343749,2.50912333984375,9.519345800781249,9.858553796897992
2.417309127082815,-0.5267243652343749,2.5139117431640625,9.514557397460937,9.85515059646114
2.4197960706291965,-0.5363011718749999,2.518700146484375,9.514557397460937,9.85688956235351
2.4222830141755782,-0.5363011718749999,2.5234885498046875,9.5001921875,9.844250352738186
2.4247699577219595,-0.5363011718749999,2.5330653564453125,9.481038574218749,9.828231351204641
2.427256901268341,-0.5363011718749999,2.5330653564453125,9.485826977539062,9.832850679980133
2.4297438448147224,-0.5410895751953124,2.5378537597656248,9.490615380859374,9.838966406170218
2.432230788361104,-0.5363011718749999,2.5474305664062498,9.504980590820312,9.855033103419094
2.4347177319074857,-0.5363011718749999,2.5426421630859375,9.509768994140625,9.858415412142827
2.437204675453867,-0.5363011718749999,2.5378537597656248,9.504980590820312,9.85256193508987
2.4396916190002487,-0.5267243652343749,2.5570073730468748,9.490615380859374,9.84314510561295
2.44217856254663,-0.5219359619140624,2.5474305664062498,9.481038574218749,9.831170433108355
2.4446655060930116,-0.5219359619140624,2.528276953125,9.481038574218749,9.826224806397729
2.4471524496393933,-0.5363011718749999,2.5330653564453125,9.485826977539062,9.832850679980133
2.4496393931857745,-0.5410895751953124,2.5330653564453125,9.504980590820312,9.851591448100114
2.452126336732156,-0.5410895751953124,2.5234885498046875,9.533711010742186,9.876862762321203
2.4546132802785374,-0.5363011718749999,2.5234885498046875,9.543287817382812,9.885846234559642
2.457100223824919,-0.5410895751953124,2.5234885498046875,9.543287817382812,9.886107158775268
2.4595871673713003,-0.5363011718749999,2.5139117431640625,9.528922607421874,9.86953581773775
2.462074110917682,-0.5267243652343749,2.518700146484375,9.514557397460937,9.856373138959919
2.4645610544640637,-0.5410895751953124,2.518700146484375,9.495403784179686,9.838664613701361
2.467047998010445,-0.5315127685546874,2.5234885498046875,9.471461767578125,9.816266515270772
2.4695349415568266,-0.5267243652343749,2.5330653564453125,9.466673364257812,9.81385567666976
2.472021885103208,-0.5267243652343749,2.5330653564453125,9.471461767578125,9.818474762999044
2.4745088286495895,-0.5219359619140624,2.5330653564453125,9.481038574218749,9.8274579467015
2.4769957721959712,-0.5219359619140624,2.528276953125,9.490615380859374,9.835465510459926
2.4794827157423525,-0.5267243652343749,2.5234885498046875,9.490615380859374,9.834491004893515
2.481969659288734,-0.5410895751953124,2.518700146484375,9.504980590820312,9.847907614724882
2.4844566028351154,-0.5506663818359374,2.5330653564453125,9.519345800781249,9.865981858839966
2.486943546381497,-0.5267243652343749,2.5378537597656248,9.519345800781249,9.86590516565711
2.4894304899278783,-0.5219359619140624,2.5378537597656248,9.524134204101562,9.870271079967003
2.49191743347426,-0.5363011718749999,2.5234885498046875,9.528922607421874,9.871979511029465
2.4944043770206417,-0.5267243652343749,2.5234885498046875,9.5384994140625,9.880708683591353
2.496891320567023,-0.51714755859375,2.5234885498046875,9.524134204101562,9.866335104591377
2.4993782641134046,-0.5219359619140624,2.518700146484375,9.519345800781249,9.860740948381677
2.501865207659786,-0.5267243652343749,2.518700146484375,9.528922607421874,9.870240880701324
2.5043521512061675,-0.5219359619140624,2.528276953125,9.528922607421874,9.872434733047259
2.506839094752549,-0.5219359619140624,2.528276953125,9.514557397460937,9.858570077329716
2.5093260382989304,-0.5267243652343749,2.528276953125,9.509768994140625,9.854203632488675
2.511812981845312,-0.5267243652343749,2.5330653564453125,9.509768994140625,9.85543327200146
2.5142999253916933,-0.5219359619140624,2.5330653564453125,9.5001921875,9.845937682506355
2.516786868938075,-0.5267243652343749,2.5378537597656248,9.495403784179686,9.842806169355464
2.5192738124844563,-0.5267243652343749,2.5426421630859375,9.495403784179686,9.84404189096368
2.521760756030838,-0.5363011718749999,2.5378537597656248,9.485826977539062,9.83408532100057
2.5242476995772196,-0.5410895751953124,2.528276953125,9.481038574218749,9.827260794642216
2.526734643123601,-0.5410895751953124,2.528276953125,9.471461767578125,9.818021709834534
2.5292215866699825,-0.5363011718749999,2.5330653564453125,9.481038574218749,9.828231351204641
2.5317085302163638,-0.5458779785156249,2.5426421630859375,9.490615380859374,9.840467074500841
2.5341954737627455,-0.5506663818359374,2.5426421630859375,9.481038574218749,9.8314981096174
2.536682417309127,-0.5410895751953124,2.5378537597656248,9.481038574218749,9.829728993220792
2.5391693608555084,-0.5410895751953124,2.5330653564453125,9.485826977539062,9.83311301044671
2.54165630440189,-0.5410895751953124,2.5330653564453125,9.476250170898437,9.823874761511423
2.5441432479482713,-0.5410895751953124,2.5330653564453125,9.485826977539062,9.83311301044671
2.546630191494653,-0.5410895751953124,2.5234885498046875,9.495403784179686,9.839891534666137
2.549117135041034,-0.5410895751953124,2.5234885498046875,9.509768994140625,9.853754548967556
2.551604078587416,-0.5363011718749999,2.528276953125,9.514557397460937,9.859341041278377
2.5540910221337976,-0.5410895751953124,2.528276953125,9.524134204101562,9.868844644527817
2.556577965680179,-0.5363011718749999,2.5330653564453125,9.524134204101562,9.86981111190661
2.5590649092265605,-0.5410895751953124,2.5378537597656248,9.519345800781249,9.86668252804321
2.5615518527729417,-0.5410895751953124,2.5474305664062498,9.509768994140625,9.859913120355793
2.5640387963193234,-0.5363011718749999,2.5426421630859375,9.514557397460937,9.863034552612877
2.566525739865705,-0.5363011718749999,2.5330653564453125,9.509768994140625,9.855949744641372
2.5690126834120863,-0.5410895751953124,2.5330653564453125,9.5001921875,9.846971596782662
2.571499626958468,-0.5458779785156249,2.5330653564453125,9.514557397460937,9.861095544463119
2.5739865705048492,-0.5410895751953124,2.528276953125,9.524134204101562,9.868844644527817
2.576473514051231,-0.51714755859375,2.5378537597656248,9.524134204101562,9.87001902941698
2.5789604575976126,-0.5219359619140624,2.5522189697265625,9.524134204101562,9.873974435631713
2.581447401143994,-0.5363011718749999,2.5522189697265625,9.509768994140625,9.860889764027636
2.5839343446903755,-0.5315127685546874,2.5426421630859375,9.490615380859374,9.83968065030789
2.5864212882367568,-0.51714755859375,2.5474305664062498,9.481038574218749,9.830917380074162
2.5889082317831384,-0.51714755859375,2.5522189697265625,9.471461767578125,9.822924782440602
2.5913951753295197,-0.51714755859375,2.5474305664062498,9.466673364257812,9.817064157555896
2.5938821188759014,-0.51714755859375,2.5426421630859375,9.466673364257812,9.815822703798705
2.596369062422283,-0.5123591552734374,2.5378537597656248,9.485826977539062,9.832808706456
2.5988560059686643,-0.5027823486328125,2.528276953125,9.504980590820312,9.848331354786485
2.601342949515046,-0.507570751953125,2.528276953125,9.519345800781249,9.862441730869334
2.603829893061427,-0.51714755859375,2.5330653564453125,9.524134204101562,9.868788883906687
2.606316836607809,-0.507570751953125,2.5330653564453125,9.504980590820312,9.849807317919094
2.6088037801541906,-0.51714755859375,2.528276953125,9.5001921875,9.844454151881584
2.611290723700572,-0.51714755859375,2.528276953125,9.5001921875,9.844454151881584
2.6137776672469535,-0.51714755859375,2.5330653564453125,9.509768994140625,9.854926078834955
2.6162646107933347,-0.51714755859375,2.5426421630859375,9.495403784179686,9.843534110850417
2.6187515543397164,-0.5219359619140624,2.528276953125,9.490615380859374,9.835465510459926
2.6212384978860976,-0.5267243652343749,2.518700146484375,9.504980590820312,9.847128770189958
2.6237254414324793,-0.5219359619140624,2.5330653564453125,9.509768994140625,9.855178515393872
2.626212384978861,-0.5219359619140624,2.528276953125,9.504980590820312,9.849327770559421
2.6286993285252422,-0.5219359619140624,2.5234885498046875,9.5001921875,9.843478206852014
2.631186272071624,-0.5219359619140624,2.518700146484375,9.495403784179686,9.837629826378581
2.633673215618005,-0.5267243652343749,2.5043349365234375,9.481038574218749,9.820347472317223
2.636160159164387,-0.5363011718749999,2.50912333984375,9.476250170898437,9.817465873786158
2.6386471027107685,-0.5363011718749999,2.50912333984375,9.481038574218749,9.822087931154304
2.6411340462571498,-0.5410895751953124,2.4947581298828125,9.490615380859374,9.827938561183926
2.6436209898035314,-0.5410895751953124,2.4947581298828125,9.504980590820312,9.841811423049736
2.6461079333499127,-0.5410895751953124,2.499546533203125,9.509768994140625,9.84765033507746
2.6485948768962944,-0.5363011718749999,2.499546533203125,9.514557397460937,9.852012702396445
2.6510818204426756,-0.5315127685546874,2.499546533203125,9.519345800781249,9.856377791543709
2.6535687639890573,-0.5267243652343749,2.50912333984375,9.519345800781249,9.858553796897992
2.656055707535439,-0.5219359619140624,2.518700146484375,9.514557397460937,9.856118406645601
2.65854265108182,-0.5363011718749999,2.518700146484375,9.519345800781249,9.86151174261363
2.661029594628202,-0.5363011718749999,2.5139117431640625,9.514557397460937,9.855667083914275
2.663516538174583,-0.5267243652343749,2.5234885498046875,9.504980590820312,9.848354636679051
2.666003481720965,-0.51714755859375,2.5234885498046875,9.5001921875,9.843225470230317
2.6684904252673465,-0.51714755859375,2.528276953125,9.495403784179686,9.839833279770364
2.6709773688137277,-0.5267243652343749,2.5234885498046875,9.495403784179686,9.839112055594287
2.6734643123601094,-0.5315127685546874,2.5234885498046875,9.490615380859374,9.83474862879253
2.6759512559064906,-0.5315127685546874,2.5330653564453125,9.481038574218749,9.827971223451154
2.6784381994528723,-0.5219359619140624,2.5330653564453125,9.476250170898437,9.822838416151171
2.6809251429992536,-0.5219359619140624,2.5330653564453125,9.485826977539062,9.832077638839639
2.6834120865456352,-0.5219359619140624,2.528276953125,9.490615380859374,9.835465510459926
2.685899030092017,-0.5267243652343749,2.5330653564453125,9.485826977539062,9.832332993992974
2.688385973638398,-0.5267243652343749,2.5426421630859375,9.490615380859374,9.839423155543134
2.69087291718478,-0.5219359619140624,2.5330653564453125,9.495403784179686,9.841317506969098
2.693359860731161,-0.5267243652343749,2.528276953125,9.490615380859374,9.83572077765728
2.6958468042775428,2.901772412109375,-1.3072341064453123,10.36210478515625,10.839850539527331
2.6983337478239244,3.6918589599609373,-1.93451494140625,10.371681591796875,11.177832959942908
2.7008206913703057,4.276044165039062,-2.3127988037109373,10.342951171874999,11.42848331807864
2.7033076349166874,4.668693237304687,-2.4660277099609376,10.304643945312499,11.57858696257947
2.7057945784630686,4.855440966796874,-2.427720483398437,10.266336718749999,11.613216752920621
2.7082815220094503,4.8698061767578125,-2.212242333984375,10.194510668945313,11.51247480443284
2.7107684655558315,4.745307690429687,-1.848323681640625,10.089165795898436,11.301571216697774
2.713255409102213,4.477157104492187,-1.369483349609375,9.993397729492187,11.035779019307236
2.715742352648595,4.094084838867187,-0.8044517578125,9.907206469726562,10.749949457196607
2.718229296194976,3.6248213134765623,-0.1867477294921875,9.816226806640625,10.465778183609398
2.720716239741358,3.0933085449218747,0.45010991210937495,9.734823950195311,10.224380373810535
2.723203183287739,2.518700146484375,1.0821791503906248,9.672574707031249,10.053539854426461
2.7256901268341207,1.9297265380859374,1.695094775390625,9.595960253906249,9.93376283207417
2.7281770703805024,1.3407529296874998,2.2553379638671873,9.524134204101562,9.878932132951592
2.7306640139268836,0.7613561279296874,2.7581203125,9.452308154296874,9.87588073315734
2.7331509574732653,0.2154781494140625,3.2034418212890623,9.394847314453125,9.928324450638476
2.7356379010196465,-0.296881005859375,3.5817256835937497,9.356540087890625,10.023060391939156
2.7381248445660282,-0.7661445312499999,3.864241479492187,9.3086560546875,10.107938325843827
2.74061178811241,-1.1635820068359375,4.060566015625,9.289502441406249,10.2047525723446
2.743098731658791,-1.4939818359375,4.185064501953125,9.279925634765624,10.28901192527249
2.745585675205173,-1.7669208251953124,4.237736938476562,9.275137231445312,10.349328201597464
2.748072618751554,-1.9728221679687499,4.223371728515625,9.275137231445312,10.380610132636567
2.7505595622979357,-2.1068974609374997,4.146757275390625,9.275137231445312,10.376067823315967
2.753046505844317,-2.1835119140624997,4.031835595703125,9.279925634765624,10.35086674324483
2.7555334493906987,-2.2074539306640624,3.8690298828125,9.284714038085937,10.297968724905433
2.7580203929370803,-2.1787235107421874,3.6727053466796873,9.275137231445312,10.210963292556356
2.7605073364834616,-2.1021090576171875,3.4668040039062498,9.275137231445312,10.122537387125801
2.7629942800298433,-2.001552587890625,3.2513258544921873,9.294290844726563,10.047943813564496
2.7654812235762245,-1.8626888916015625,3.0310593017578125,9.323021264648437,9.978760238564476
2.767968167122606,-1.70467158203125,2.8203695556640622,9.370905297851563,9.933491618479582
2.770455110668988,-1.5466542724609373,2.6240450195312497,9.414000927734374,9.894501764638383
2.772942054215369,-1.369483349609375,2.437297290039062,9.442731347656249,9.847897137404466
2.775428997761751,-1.177947216796875,2.27927998046875,9.471461767578125,9.812811263324047
2.777915941308132,-0.9911994873046874,2.1643583007812497,9.490615380859374,9.784615658532443
2.7804028848545137,-0.8188169677734375,2.068590234375,9.509768994140625,9.766536392518265
2.782889828400895,-0.6560112548828124,1.9919757812499999,9.548076220703125,9.775688098337424
2.7853767719472766,-0.507570751953125,1.9488801513671874,9.567229833984374,9.776893607322927
2.7878637154936583,-0.38307226562499996,1.924938134765625,9.572018237304688,9.771164941738501
2.7903506590400395,-0.27293898925781246,1.93451494140625,9.591171850585937,9.78812654279935
2.792837602586421,-0.1771709228515625,1.9632453613281249,9.600748657226562,9.80102528636255
2.7953245461328025,-0.11013327636718749,2.0063409912109376,9.586383447265625,9.79470679038352
2.797811489679184,-0.06703764648437499,2.0733786376953125,9.576806640625,9.798909044032225
2.800298433225566,5.588066674804687,-2.5330653564453125,10.55364091796875,12.207466808781845
2.802785376771947,7.182604980468749,-3.35188232421875,10.563217724609375,13.206305240996297
2.8052723203183287,8.389282617187499,-3.912125512695312,10.539275708007812,14.027156565303228
2.80775926386471,9.208099584960937,-4.228160131835938,10.472238061523436,14.57169194308694
2.8102462074110917,9.648632690429688,-4.319139794921875,10.376469995117187,14.812906903186608
2.812733150957473,9.710881933593749,-4.199429711914062,10.271125122070313,14.74559083613566
2.8152200945038546,9.457096557617186,-3.8690298828125,10.141838232421874,14.396629823219216
2.8177070380502363,8.916006982421875,-3.375824340820312,10.002974536132811,13.81849738796487
2.8201939815966175,8.111555224609374,-2.729389892578125,9.868899243164062,13.063003851309217
2.822680925142999,7.091625317382812,-1.9776105712890624,9.734823950195311,12.205281256698486
2.8251678686893804,5.928043310546875,-1.149216796875,9.619902270507811,11.358033123391591
2.827654812235762,4.673481640625,-0.26815058593749996,9.504980590820312,10.59518718163433
2.8301417557821438,3.361459130859375,0.63206923828125,9.399635717773437,10.002603193032375
2.832628699328525,2.04943662109375,1.5275006591796874,9.323021264648437,9.667066474828934
2.8351156428749067,0.7757213378906249,2.375048046875,9.255983618164063,9.587274355036737
2.837602586421288,-0.4213794921875,3.1555577880859373,9.198522778320312,9.733854680118439
2.8400895299676696,-1.5131354492187499,3.84987626953125,9.145850341796875,10.037813738704672
2.842576473514051,-2.4899697265625,4.458003491210937,9.126696728515624,10.458027421131789
2.8450634170604325,-3.308786694335937,4.955997436523437,9.117119921875,10.891825175299658
2.847550360606814,-0.9002198242187499,2.7820623291015623,9.514557397460937,9.953746480823243
2.8500373041531954,-0.5219359619140624,2.499546533203125,9.572018237304688,9.906749373799686
2.852524247699577,-0.181959326171875,2.269703173828125,9.600748657226562,9.867068281556788
2.8550111912459584,0.1149216796875,2.1116858642578125,9.629479077148437,9.858970102348824
2.85749813479234,0.3495534423828125,2.0063409912109376,9.672574707031249,9.884649373912845
2.8599850783387217,0.5458779785156249,1.93451494140625,9.682151513671874,9.888598928040862
2.862472021885103,0.718260498046875,1.9009961181640624,9.677363110351562,9.888429660665167
2.8649589654314846,0.842758984375,1.905784521484375,9.677363110351562,9.89917239559285
2.867445908977866,0.93852705078125,1.93451494140625,9.686939916992188,9.922700541636273
2.8699328525242476,1.0199299072265624,1.9584569580078124,9.672574707031249,9.92141684111322
2.8724197960706292,1.0773907470703123,1.9776105712890624,9.658209497070311,9.917294242022173
2.8749067396170105,1.1061211669921875,2.01112939453125,9.648632690429688,9.917875693536606
2.877393683163392,1.120486376953125,2.0542250244140625,9.639055883789062,9.91900844352272
2.8798806267097734,1.1061211669921875,2.0781670410156248,9.634267480468749,9.917731200816519
2.882367570256155,1.0821791503906248,2.1021090576171875,9.6151138671875,9.90153467310183
2.8848545138025363,1.0342951171875,2.1212626708984375,9.600748657226562,9.886551293935753
2.887341457348918,0.9576806640625,2.1308394775390624,9.576806640625,9.857629256838443
2.8898284008952997,0.8667010009765624,2.1499930908203124,9.5384994140625,9.816140381419752
2.892315344441681,0.7613561279296874,2.1595698974609374,9.495403784179686,9.767604533362796
2.8948022879880626,0.63206923828125,2.1643583007812497,9.4618849609375,9.726830182035531
2.897289231534444,0.488417138671875,2.1691467041015624,9.447519750976562,9.705636412433517
2.8997761750808255,0.33518823242187495,2.1883003173828124,9.409212524414063,9.666141410087185
2.902263118627207,0.16759411621093748,2.2074539306640624,9.366116894531249,9.624192762295259
2.9047500621735884,0.0,2.221819140625,9.351751684570312,9.612062206598086
2.90723700571997,-0.16280571289062498,2.2553379638671873,9.337386474609374,9.607280635415439
2.9097239492663514,-0.32561142578124996,2.3032219970703123,9.332598071289063,9.618120457169175
2.912210892812733,-0.49320554199218747,2.3367408203125,9.337386474609374,9.637966359361535
2.9146978363591143,-0.6607996582031249,2.389413256835937,9.34696328125,9.67014345711895
2.917184779905496,-0.7948749511718749,2.446874096679687,9.34696328125,9.694572791724156
2.9196717234518776,-0.9241618408203125,2.4851813232421875,9.342174877929686,9.711149919924042
2.922158666998259,-1.0582371337890624,2.5426421630859375,9.356540087890625,9.753447463186376
2.9246456105446406,-1.1444283935546875,2.6048914062499997,9.380482104492186,9.802480303424609
2.927132554091022,-1.2114660400390624,2.6623522460937497,9.409212524414063,9.853377582232339
2.9296194976374035,-1.2785036865234374,2.7054478759765623,9.452308154296874,9.914643177132866
2.932106441183785,-1.3120225097656248,2.7629087158203123,9.485826977539062,9.96674375540454
2.9345933847301664,-1.3263877197265623,2.806004345703125,9.485826977539062,9.980675238627601
2.937080328276548,-1.3168109130859373,2.85388837890625,9.504980590820312,10.011160067242418
2.9395672718229293,-1.2785036865234374,2.89219560546875,9.528922607421874,10.039907029200144
2.942054215369311,-1.2210428466796874,2.91134921875,9.552864624023437,10.061019949878954
2.9445411589156922,-1.158793603515625,2.920926025390625,9.600748657226562,10.10192982754239
2.947028102462074,-1.0917559570312498,2.916137622070312,9.629479077148437,10.12040794621475
2.9495150460084556,-1.0007762939453124,2.91134921875,9.634267480468749,10.114179024975622
2.952001989554837,-0.8954314208984374,2.896984008789062,9.634267480468749,10.10016948679226
2.9544889331012185,-0.814028564453125,2.877830395507812,9.610325463867188,10.064934466279864
2.9569758766475998,-0.718260498046875,2.844311572265625,9.562441430664062,10.002314361089601
2.9594628201939814,-0.622492431640625,2.786850732421875,9.543287817382812,9.961344095936923
2.961949763740363,-0.5363011718749999,2.7198130859375,9.543287817382812,9.937773620625425
2.9644367072867444,-0.45489831542968745,2.6575638427734374,9.524134204101562,9.898419590699051
2.966923650833126,-0.37828386230468747,2.6001030029296874,9.528922607421874,9.884533391342245
2.9694105943795073,-0.3112462158203125,2.5330653564453125,9.543287817382812,9.878645487732266
2.971897537925889,-0.24899697265624998,2.4756045166015626,9.543287817382812,9.862299913327378
2.97438448147227,-0.2059013427734375,2.422932080078125,9.524134204101562,9.829655516108636
2.976871425018652,-0.1867477294921875,2.365471240234375,9.5001921875,9.792036586036762
2.9793583685650336,-0.16759411621093748,2.3223756103515623,9.495403784179686,9.776717715468633
2.981845312111415,-0.1484405029296875,2.29843359375,9.495403784179686,9.7707484151626
2.9843322556577965,-0.15322890625,2.27927998046875,9.481038574218749,9.752368367371082
2.9868191992041777,-0.16759411621093748,2.2744915771484373,9.481038574218749,9.75148666451078
2.9893061427505594,-0.17238251953125,2.269703173828125,9.471461767578125,9.741142450709749
2.991793086296941,-0.19153613281249998,2.269703173828125,9.457096557617186,9.727533802950934
2.9942800298433223,-0.2442085693359375,2.2840683837890623,9.452308154296874,9.727421839878698
2.996766973389704,-0.28730419921875,2.308010400390625,9.447519750976562,9.729598406732535
2.9992539169360852,-0.32561142578124996,2.3319524169921872,9.437942944335937,9.727219124511151
3.001740860482467,-0.38307226562499996,2.360682836914062,9.442731347656249,9.740879997269328
3.0042278040288486,-0.430956298828125,2.389413256835937,9.466673364257812,9.773071350859528
3.00671474757523,-0.4740519287109375,2.4133552734375,9.490615380859374,9.804121032216385
3.0092016911216115,-0.5267243652343749,2.461239306640625,9.495403784179686,9.823330927241445
3.0116886346679927,-0.5698199951171875,2.499546533203125,9.481038574218749,9.821533492500395
3.0141755782143744,-0.6081272216796875,2.5234885498046875,9.466673364257812,9.816094832686344
3.0166625217607557,-0.6512228515624999,2.5617957763671875,9.452308154296874,9.814938524820068
3.0191494653071373,-0.6751648681640625,2.5905261962890624,9.452308154296874,9.82409298697086
3.021636408853519,-0.679953271484375,2.6144682128906247,9.471461767578125,9.849181108209553
3.0241233523999003,-0.7038952880859375,2.6431986328124997,9.481038574218749,9.867728210429965
3.026610295946282,-0.7278373046875,2.6479870361328124,9.504980590820312,9.89374744560892
3.029097239492663,-0.7230489013671875,2.6575638427734374,9.524134204101562,9.914362189769058
3.031584183039045,-0.718260498046875,2.6671406494140624,9.543287817382812,9.934982624656099
3.0340711265854265,-0.7038952880859375,2.6719290527343746,9.552864624023437,9.944440455066038
3.036558070131808,-0.689530078125,2.6671406494140624,9.562441430664062,9.951350515747926
3.0390450136781895,-0.6655880615234374,2.6527754394531247,9.567229833984374,9.950482988080976
3.0415319572245707,-0.6512228515624999,2.6431986328124997,9.562441430664062,9.942377800595771
3.0440189007709524,-0.6368576416015624,2.6288334228515624,9.543287817382812,9.919208395137938
3.0465058443173336,-0.612915625,2.6048914062499997,9.543287817382812,9.911380689244634
3.0489927878637153,-0.5985504150390625,2.5905261962890624,9.5384994140625,9.902123996652131
3.051479731410097,-0.5889736083984375,2.5617957763671875,9.533711010742186,9.889455654764292
3.0539666749564782,-0.5698199951171875,2.5378537597656248,9.533711010742186,9.882157768885227
3.05645361850286,-0.5458779785156249,2.5234885498046875,9.528922607421874,9.872504408034436
3.058940562049241,-0.5267243652343749,2.50912333984375,9.509768994140625,9.849306818928863
3.061427505595623,-0.5315127685546874,2.499546533203125,9.485826977539062,9.824008964907977
3.0639144491420045,-0.5219359619140624,2.4899697265625,9.466673364257812,9.80256451001906
3.0664013926883857,-0.5123591552734374,2.4660277099609376,9.4618849609375,9.791377409961427
3.0688883362347674,-0.49320554199218747,2.442085693359375,9.466673364257812,9.7890213415801
3.0713752797811487,-0.4836287353515625,2.437297290039062,9.466673364257812,9.787349969181536
3.0738622233275303,-0.488417138671875,2.427720483398437,9.476250170898437,9.794472693734637
3.0763491668739116,-0.488417138671875,2.427720483398437,9.481038574218749,9.799105596567712
3.0788361104202933,-0.47884033203125,2.427720483398437,9.485826977539062,9.803266203510951
3.081323053966675,-0.488417138671875,2.422932080078125,9.504980590820312,9.821089919041112
3.083809997513056,-0.49320554199218747,2.437297290039062,9.509768994140625,9.82951555818505
3.086296941059438,-0.488417138671875,2.4516625,9.495403784179686,9.818955817186906
3.088783884605819,-0.488417138671875,2.4660277099609376,9.485826977539062,9.813294931645103
3.091270828152201,-0.488417138671875,2.4899697265625,9.481038574218749,9.814713087317939
3.0937577716985825,-0.49320554199218747,2.4947581298828125,9.485826977539062,9.82079341403107
3.0962447152449637,-0.507570751953125,2.5043349365234375,9.495403784179686,9.833209779474046
3.0987316587913454,-0.5219359619140624,2.5234885498046875,9.509768994140625,9.852721346473416
3.1012186023377266,-0.5315127685546874,2.5522189697265625,9.514557397460937,9.865248601132533
3.1037055458841083,-0.5315127685546874,2.5713725830078125,9.504980590820312,9.860989748278405
3.1061924894304895,-0.5315127685546874,2.5857377929687497,9.485826977539062,9.846291647363053
3.108679432976871,-0.5363011718749999,2.5905261962890624,9.476250170898437,9.838585377078712
3.111166376523253,-0.5410895751953124,2.6001030029296874,9.476250170898437,9.841373423241377
3.113653320069634,-0.5458779785156249,2.6048914062499997,9.481038574218749,9.84751412548402
3.116140263616016,-0.51714755859375,2.6048914062499997,9.485826977539062,9.850574312369936
3.118627207162397,-0.5219359619140624,2.6096798095703124,9.504980590820312,9.87053706181629
3.1211141507087787,-0.51714755859375,2.6096798095703124,9.524134204101562,9.888731093703363
3.1236010942551604,-0.5123591552734374,2.6001030029296874,9.528922607421874,9.890571954547026
3.1260880378015417,-0.51714755859375,2.6001030029296874,9.5384994140625,9.900047893584864
3.1285749813479233,-0.51714755859375,2.6048914062499997,9.5384994140625,9.901306575790148
3.1310619248943046,-0.51714755859375,2.6096798095703124,9.524134204101562,9.888731093703363
3.1335488684406863,-0.51714755859375,2.6001030029296874,9.490615380859374,9.853920921674172
3.136035811987068,-0.51714755859375,2.5905261962890624,9.485826977539062,9.84678531394014
3.138522755533449,-0.51714755859375,2.5713725830078125,9.490615380859374,9.846378972262253
3.141009699079831,-0.5123591552734374,2.5617957763671875,9.471461767578125,9.825166538970187
3.143496642626212,-0.51714755859375,2.5617957763671875,9.471461767578125,9.825417406495582
3.1459835861725938,-0.5123591552734374,2.5474305664062498,9.490615380859374,9.839903185603907
3.148470529718975,-0.51714755859375,2.5330653564453125,9.495403784179686,9.84106471485666
3.1509574732653567,-0.5219359619140624,2.5234885498046875,9.495403784179686,9.838856876382968
3.1534444168117384,-0.5267243652343749,2.5043349365234375,9.504980590820312,9.843464230802805
3.1559313603581196,-0.5315127685546874,2.499546533203125,9.5001921875,9.837880376088156
3.1584183039045013,-0.5363011718749999,2.499546533203125,9.485826977539062,9.82426919757445
3.1609052474508825,-0.5267243652343749,2.4851813232421875,9.481038574218749,9.815480488093653
3.163392190997264,-0.5219359619140624,2.5043349365234375,9.495403784179686,9.833961747294165
3.165879134543646,-0.5219359619140624,2.5043349365234375,9.514557397460937,9.852457210879408
3.168366078090027,-0.5267243652343749,2.4899697265625,9.524134204101562,9.858322379282724
3.170853021636409,-0.5219359619140624,2.4899697265625,9.533711010742186,9.86732040748063
3.17333996518279,-0.5219359619140624,2.4947581298828125,9.5384994140625,9.87315584537316
3.1758269087291717,-0.5363011718749999,2.4947581298828125,9.5384994140625,9.873925670453549
3.178313852275553,-0.5267243652343749,2.499546533203125,9.514557397460937,9.851496023353912
3.1808007958219346,-0.51714755859375,2.50912333984375,9.485826977539062,9.825683435757332
3.1832877393683163,-0.51714755859375,2.5043349365234375,9.490615380859374,9.82908517508399
3.1857746829146976,-0.5219359619140624,2.5043349365234375,9.485826977539062,9.824714961282025
3.1882616264610792,-0.51714755859375,2.518700146484375,9.471461767578125,9.814269205598245
3.1907485700074605,-0.507570751953125,2.5139117431640625,9.471461767578125,9.812541380058
3.193235513553842,-0.507570751953125,2.5139117431640625,9.490615380859374,9.831030496751648
3.195722457100224,-0.507570751953125,2.50912333984375,9.5001921875,9.83905379608339
3.198209400646605,-0.5123591552734374,2.5043349365234375,9.509768994140625,9.847330181333556
3.2006963441929868,-0.51714755859375,2.5043349365234375,9.509768994140625,9.84758048423925
3.203183287739368,-0.51714755859375,2.4899697265625,9.504980590820312,9.839311300514282
3.2056702312857497,-0.51714755859375,2.480392919921875,9.524134204101562,9.855400700747552
3.208157174832131,-0.5267243652343749,2.4851813232421875,9.533711010742186,9.866367639748184
3.2106441183785126,-0.5219359619140624,2.5043349365234375,9.519345800781249,9.85708146955693
3.2131310619248943,-0.51714755859375,2.5043349365234375,9.509768994140625,9.84758048423925
3.2156180054712755,-0.5219359619140624,2.499546533203125,9.519345800781249,9.85586599415995
3.218104949017657,-0.5219359619140624,2.50912333984375,9.514557397460937,9.853675433688004
3.2205918925640384,-0.5267243652343749,2.5139117431640625,9.495403784179686,9.836660197138235
3.22307883611042,-0.5267243652343749,2.518700146484375,9.471461767578125,9.814778499768913
3.225565779656802,-0.51714755859375,2.5426421630859375,9.466673364257812,9.815822703798705
3.228052723203183,-0.51714755859375,2.5570073730468748,9.466673364257812,9.819553599259178
3.2305396667495647,-0.5219359619140624,2.5570073730468748,9.471461767578125,9.824423233393876
3.233026610295946,-0.5267243652343749,2.5665841796874997,9.485826977539062,9.841021611406083
