Time (s),Acceleration x (m/s^2),Acceleration y (m/s^2),Acceleration z (m/s^2),Absolute acceleration (m/s^2)
0.0,-0.5123591552734374,2.5234885498046875,9.5001921875,9.842975056578368
0.002486943546381497,-0.5123591552734374,2.5330653564453125,9.509768994140625,9.854675962502995
0.004973887092762994,-0.51714755859375,2.5378537597656248,9.509768994140625,9.856157954559901
0.007460830639144491,-0.5123591552734374,2.5378537597656248,9.519345800781249,9.865148660045657
0.009947774185525988,-0.51714755859375,2.5426421630859375,9.533711010742186,9.880491708574457
0.012434717731907486,-0.51714755859375,2.5474305664062498,9.533711010742186,9.881725037885195
0.014921661278288981,-0.51714755859375,2.5522189697265625,9.524134204101562,9.873722479618763
0.01740860482467048,-0.5267243652343749,2.5570073730468748,9.519345800781249,9.870849494222837
0.019895548371051976,-0.5363011718749999,2.5570073730468748,9.504980590820312,9.85751295635169
0.022382491917433474,-0.5363011718749999,2.5617957763671875,9.490615380859374,9.844907153151409
0.02486943546381497,-0.5363011718749999,2.5617957763671875,9.485826977539062,9.840291153953482
0.027356379010196465,-0.5363011718749999,2.5522189697265625,9.5001921875,9.851654288281875
0.029843322556577963,-0.5506663818359374,2.5570073730468748,9.5001921875,9.853688231790997
0.032330266102959464,-0.5410895751953124,2.5617957763671875,9.495403784179686,9.849785203384473
0.03481720964934096,-0.5363011718749999,2.5474305664062498,9.490615380859374,9.841178879840559
0.03730415319572245,-0.5363011718749999,2.528276953125,9.466673364257812,9.813139552875311
0.03979109674210395,-0.5363011718749999,2.5139117431640625,9.4618849609375,9.804827291359492
0.04227804028848545,-0.5458779785156249,2.5139117431640625,9.481038574218749,9.823839751628197
0.04476498383486695,-0.5458779785156249,2.5139117431640625,9.495403784179686,9.837704409284738
0.04725192738124844,-0.5458779785156249,2.4947581298828125,9.5001921875,9.837451524326852
0.04973887092762994,-0.5410895751953124,2.4851813232421875,9.481038574218749,9.81626184367556
0.05222581447401144,-0.5363011718749999,2.4851813232421875,9.476250170898437,9.811374137081867
0.05471275802039293,-0.5458779785156249,2.480392919921875,9.476250170898437,9.810690551947888
0.05719970156677443,-0.5506663818359374,2.4756045166015626,9.471461767578125,9.805123109956165
0.059686645113155926,-0.5410895751953124,2.4756045166015626,9.457096557617186,9.790713505720506
0.062173588659537427,-0.5315127685546874,2.480392919921875,9.452308154296874,9.786775991312073
0.06466053220591893,-0.5410895751953124,2.4756045166015626,9.457096557617186,9.790713505720506
0.06714747575230041,-0.5506663818359374,2.4660277099609376,9.4618849609375,9.793456649436639
0.06963441929868192,-0.5363011718749999,2.4564509033203126,9.476250170898437,9.804136233693937
0.07212136284506342,-0.5315127685546874,2.4516625,9.490615380859374,9.81656432487698
0.0746083063914449,-0.5363011718749999,2.442085693359375,9.5001921875,9.823698543832718
0.0770952499378264,-0.5410895751953124,2.442085693359375,9.509768994140625,9.833222604213432
0.0795821934842079,-0.5315127685546874,2.446874096679687,9.5001921875,9.824629777634103
0.0820691370305894,-0.5267243652343749,2.437297290039062,9.5001921875,9.821991052551379
0.0845560805769709,-0.5315127685546874,2.442085693359375,9.5001921875,9.823438296049058
0.0870430241233524,-0.5410895751953124,2.446874096679687,9.495403784179686,9.820522582734636
0.0895299676697339,-0.5267243652343749,2.4564509033203126,9.5001921875,9.826761480609507
0.09201691121611538,-0.5123591552734374,2.47081611328125,9.495403784179686,9.824975175248875
0.09450385476249688,-0.5027823486328125,2.47081611328125,9.504980590820312,9.833736745897657
0.09699079830887838,-0.5123591552734374,2.4660277099609376,9.514557397460937,9.842286677386832
0.09947774185525989,-0.507570751953125,2.461239306640625,9.514557397460937,9.840839875862716
0.10196468540164137,-0.49799394531249996,2.4660277099609376,9.524134204101562,9.85080823961163
0.10445162894802287,-0.5027823486328125,2.480392919921875,9.533711010742186,9.863913258116277
0.10693857249440437,-0.5123591552734374,2.4899697265625,9.524134204101562,9.85756529174053
0.10942551604078586,-0.5123591552734374,2.4947581298828125,9.504980590820312,9.84027367823069
0.11191245958716736,-0.5123591552734374,2.499546533203125,9.485826977539062,9.82299130730798
0.11439940313354886,-0.5123591552734374,2.4947581298828125,9.471461767578125,9.807900797076968
0.11688634667993036,-0.51714755859375,2.4947581298828125,9.466673364257812,9.803528156206019
0.11937329022631185,-0.51714755859375,2.5043349365234375,9.476250170898437,9.815215350317281
0.12186023377269335,-0.5219359619140624,2.5043349365234375,9.5001921875,9.838585377078712
0.12434717731907485,-0.5267243652343749,2.50912333984375,9.495403784179686,9.835437535569737
0.12683412086545634,-0.5315127685546874,2.50912333984375,9.5001921875,9.84031795000148
0.12932106441183785,-0.5267243652343749,2.50912333984375,9.5001921875,9.840060471913587
0.13180800795821934,-0.5219359619140624,2.5139117431640625,9.495403784179686,9.83640495432001
0.13429495150460083,-0.5267243652343749,2.50912333984375,9.495403784179686,9.835437535569737
0.13678189505098234,-0.5363011718749999,2.499546533203125,9.509768994140625,9.847388391879374
0.13926883859736383,-0.5315127685546874,2.499546533203125,9.509768994140625,9.84712877018996
0.14175578214374532,-0.5315127685546874,2.50912333984375,9.519345800781249,9.858810792004121
0.14424272569012683,-0.5410895751953124,2.5139117431640625,9.524134204101562,9.865174226466582
0.14672966923650832,-0.5363011718749999,2.50912333984375,9.524134204101562,9.863693589079116
0.1492166127828898,-0.5315127685546874,2.50912333984375,9.524134204101562,9.86343439656911
0.15170355632927132,-0.5315127685546874,2.50912333984375,9.528922607421874,9.868058158316712
0.1541904998756528,-0.5363011718749999,2.518700146484375,9.528922607421874,9.870756578555193
0.15667744342203432,-0.5410895751953124,2.518700146484375,9.519345800781249,9.861773310674762
0.1591643869684158,-0.5363011718749999,2.518700146484375,9.490615380859374,9.833781047097776
0.1616513305147973,-0.5267243652343749,2.5139117431640625,9.481038574218749,9.82279406559934
0.1641382740611788,-0.5123591552734374,2.50912333984375,9.481038574218749,9.820809757060008
0.1666252176075603,-0.5123591552734374,2.5139117431640625,9.471461767578125,9.81279023372582
0.1691121611539418,-0.5267243652343749,2.50912333984375,9.481038574218749,9.821569677872478
0.1715991047003233,-0.5267243652343749,2.518700146484375,9.471461767578125,9.814778499768913
0.1740860482467048,-0.5123591552734374,2.528276953125,9.466673364257812,9.81186021309129
0.17657299179308628,-0.507570751953125,2.5234885498046875,9.471461767578125,9.814999263572451
0.1790599353394678,-0.5123591552734374,2.5234885498046875,9.481038574218749,9.824489748114747
0.18154687888584928,-0.51714755859375,2.5378537597656248,9.481038574218749,9.828440148321597
0.18403382243223076,-0.5123591552734374,2.5426421630859375,9.485826977539062,9.834045684320504
0.18652076597861228,-0.5027823486328125,2.5474305664062498,9.476250170898437,9.825553922411206
0.18900770952499377,-0.5027823486328125,2.5617957763671875,9.481038574218749,9.833904623074874
0.19149465307137528,-0.49799394531249996,2.5665841796874997,9.490615380859374,9.844142046333676
0.19398159661775677,-0.5027823486328125,2.5665841796874997,9.495403784179686,9.849001851260502
0.19646854016413826,-0.5123591552734374,2.5713725830078125,9.495403784179686,9.850744230221933
0.19895548371051977,-0.5123591552734374,2.5617957763671875,9.5001921875,9.85286562900567
0.20144242725690126,-0.5027823486328125,2.5522189697265625,9.485826977539062,9.83603198486751
0.20392937080328274,-0.5123591552734374,2.5570073730468748,9.476250170898437,9.828535796916103
0.20641631434966426,-0.51714755859375,2.5617957763671875,9.481038574218749,9.834649543476173
0.20890325789604575,-0.5123591552734374,2.5474305664062498,9.5001921875,9.849140368280342
0.21139020144242723,-0.5123591552734374,2.5378537597656248,9.504980590820312,9.851287714904071
0.21387714498880875,-0.5267243652343749,2.5378537597656248,9.514557397460937,9.86128504468189
0.21636408853519024,-0.5315127685546874,2.5330653564453125,9.5384994140625,9.883415249559777
0.21885103208157172,-0.5363011718749999,2.5234885498046875,9.528922607421874,9.871979511029465
0.22133797562795324,-0.5363011718749999,2.5234885498046875,9.519345800781249,9.862735821403788
0.22382491917433472,-0.5315127685546874,2.518700146484375,9.514557397460937,9.856630190923047
0.22631186272071624,-0.5363011718749999,2.50912333984375,9.490615380859374,9.831332523565036
0.22879880626709773,-0.5363011718749999,2.5139117431640625,9.476250170898437,9.818690773256144
0.2312857498134792,-0.5410895751953124,2.50912333984375,9.476250170898437,9.81772861533595
0.23377269335986073,-0.5506663818359374,2.50912333984375,9.485826977539062,9.827504609331953
0.23625963690624222,-0.5506663818359374,2.5043349365234375,9.476250170898437,9.817038465842375
0.2387465804526237,-0.5410895751953124,2.4851813232421875,9.466673364257812,9.802387909245642
0.24123352399900522,-0.5410895751953124,2.4851813232421875,9.481038574218749,9.81626184367556
0.2437204675453867,-0.5506663818359374,2.480392919921875,9.476250170898437,9.810958149066558
0.2462074110917682,-0.5506663818359374,2.4660277099609376,9.476250170898437,9.807336204690452
0.2486943546381497,-0.5506663818359374,2.4660277099609376,9.471461767578125,9.802709530791658
0.2511812981845312,-0.5506663818359374,2.461239306640625,9.447519750976562,9.77837214641217
0.2536682417309127,-0.5506663818359374,2.4564509033203126,9.437942944335937,9.767914389727624
0.2561551852772942,-0.55545478515625,2.4564509033203126,9.452308154296874,9.782065758446082
0.2586421288236757,-0.55545478515625,2.446874096679687,9.471461767578125,9.798178957237369
0.26112907237005717,-0.55545478515625,2.43250888671875,9.490615380859374,9.81312436534477
0.2636160159164387,-0.55545478515625,2.427720483398437,9.514557397460937,9.835098333694685
0.2661029594628202,-0.5458779785156249,2.427720483398437,9.528922607421874,9.848460568595295
0.26858990300920166,-0.5363011718749999,2.422932080078125,9.543287817382812,9.860657238593856
0.2710768465555832,-0.5315127685546874,2.43250888671875,9.533711010742186,9.853489277583305
0.2735637901019647,-0.5363011718749999,2.437297290039062,9.528922607421874,9.850299644438334
0.27605073364834615,-0.5315127685546874,2.446874096679687,9.524134204101562,9.847783050305079
0.27853767719472766,-0.5219359619140624,2.4564509033203126,9.509768994140625,9.835765069921136
0.2810246207411092,-0.51714755859375,2.480392919921875,9.509768994140625,9.841519037042831
0.28351156428749064,-0.507570751953125,2.4947581298828125,9.495403784179686,9.830775107765845
0.28599850783387215,-0.507570751953125,2.499546533203125,9.490615380859374,9.82736695393484
0.28848545138025367,-0.5027823486328125,2.4947581298828125,9.5001921875,9.835154285325123
0.2909723949266351,-0.507570751953125,2.50912333984375,9.481038574218749,9.820561106607443
0.29345933847301664,-0.49799394531249996,2.518700146484375,9.466673364257812,9.808657042787083
0.29594628201939815,-0.49320554199218747,2.518700146484375,9.466673364257812,9.808415097257075
0.2984332255657796,-0.5027823486328125,2.5139117431640625,9.466673364257812,9.807672859963429
0.30092016911216113,-0.5027823486328125,2.5234885498046875,9.466673364257812,9.810131963263307
0.30340711265854264,-0.507570751953125,2.5234885498046875,9.476250170898437,9.819620146965272
0.30589405620492416,-0.5123591552734374,2.50912333984375,9.481038574218749,9.820809757060008
0.3083809997513056,-0.507570751953125,2.50912333984375,9.485826977539062,9.825184041563537
0.31086794329768713,-0.5123591552734374,2.5139117431640625,9.495403784179686,9.83590144221792
0.31335488684406865,-0.5219359619140624,2.518700146484375,9.504980590820312,9.846873798729748
0.3158418303904501,-0.5267243652343749,2.5234885498046875,9.514557397460937,9.857597855842242
0.3183287739368316,-0.5267243652343749,2.5234885498046875,9.519345800781249,9.862219704142598
0.32081571748321314,-0.5267243652343749,2.5234885498046875,9.509768994140625,9.852976166613077
0.3233026610295946,-0.5267243652343749,2.50912333984375,9.509768994140625,9.849306818928863
0.3257896045759761,-0.5267243652343749,2.50912333984375,9.509768994140625,9.849306818928863
0.3282765481223576,-0.5363011718749999,2.518700146484375,9.490615380859374,9.833781047097776
0.3307634916687391,-0.5458779785156249,2.518700146484375,9.471461767578125,9.815825039701087
0.3332504352151206,-0.5506663818359374,2.5139117431640625,9.476250170898437,9.819485883586529
0.3357373787615021,-0.55545478515625,2.5043349365234375,9.490615380859374,9.831175097619274
0.3382243223078836,-0.5363011718749999,2.50912333984375,9.5001921875,9.840577751379193
0.3407112658542651,-0.5315127685546874,2.5139117431640625,9.485826977539062,9.827673759510066
0.3431982094006466,-0.5410895751953124,2.50912333984375,9.495403784179686,9.836217305831932
0.34568515294702806,-0.5506663818359374,2.499546533203125,9.519345800781249,9.857429219151596
0.3481720964934096,-0.5410895751953124,2.499546533203125,9.514557397460937,9.852274522647622
0.3506590400397911,-0.5363011718749999,2.4947581298828125,9.5001921875,9.836924756904818
0.35314598358617255,-0.5410895751953124,2.4851813232421875,9.5001921875,9.834762617227366
0.35563292713255407,-0.5315127685546874,2.4756045166015626,9.509768994140625,9.841078694313603
0.3581198706789356,-0.5315127685546874,2.4660277099609376,9.509768994140625,9.838673935615015
0.36060681422531704,-0.5315127685546874,2.4756045166015626,9.485826977539062,9.817944642009476
0.36309375777169856,-0.5267243652343749,2.47081611328125,9.485826977539062,9.816480238374123
0.36558070131808007,-0.5315127685546874,2.47081611328125,9.495403784179686,9.825992627383803
0.36806764486446153,-0.5267243652343749,2.47081611328125,9.476250170898437,9.807226321648464
0.37055458841084304,-0.5123591552734374,2.47081611328125,9.466673364257812,9.79721127439799
0.37304153195722456,-0.51714755859375,2.480392919921875,9.471461767578125,9.80450807788194
0.3755284755036061,-0.5123591552734374,2.480392919921875,9.466673364257812,9.799630887270162
0.37801541904998753,-0.5027823486328125,2.4899697265625,9.452308154296874,9.787689654514065
0.38050236259636905,-0.5027823486328125,2.50912333984375,9.452308154296874,9.792579816801727
0.38298930614275056,-0.5027823486328125,2.5043349365234375,9.4618849609375,9.80059950096951
0.385476249689132,-0.5027823486328125,2.50912333984375,9.4618849609375,9.801824168932058
0.38796319323551354,-0.49320554199218747,2.518700146484375,9.4618849609375,9.803793610055623
0.39045013678189505,-0.49320554199218747,2.528276953125,9.471461767578125,9.815499175948668
0.3929370803282765,-0.49320554199218747,2.5330653564453125,9.481038574218749,9.825973959486108
0.395424023874658,-0.488417138671875,2.5330653564453125,9.490615380859374,9.834975938393361
0.39791096742103954,-0.488417138671875,2.528276953125,9.490615380859374,9.83374374083726
0.400397910967421,-0.488417138671875,2.5234885498046875,9.495403784179686,9.837135700342742
0.4028848545138025,-0.49320554199218747,2.528276953125,9.5001921875,9.843225470230317
0.40537179806018403,-0.49799394531249996,2.5426421630859375,9.509768994140625,9.856405707000329
0.4078587416065655,-0.5027823486328125,2.5474305664062498,9.519345800781249,9.867124051901303
0.410345685152947,-0.5027823486328125,2.5474305664062498,9.519345800781249,9.867124051901303
0.4128326286993285,-0.5027823486328125,2.5522189697265625,9.519345800781249,9.868361375343955
0.41531957224571,-0.49799394531249996,2.5474305664062498,9.524134204101562,9.871501040772172
0.4178065157920915,-0.49799394531249996,2.5426421630859375,9.519345800781249,9.86564603125015
0.420293459338473,-0.507570751953125,2.5378537597656248,9.509768994140625,9.85566010453451
0.42278040288485447,-0.5219359619140624,2.5426421630859375,9.509768994140625,9.85764437580094
0.425267346431236,-0.5267243652343749,2.5522189697265625,9.514557397460937,9.864991773739211
0.4277542899776175,-0.5315127685546874,2.5474305664062498,9.519345800781249,9.868629732067626
0.43024123352399896,-0.5315127685546874,2.5474305664062498,9.524134204101562,9.873248738461664
0.43272817707038047,-0.5315127685546874,2.5522189697265625,9.509768994140625,9.860630497817429
0.435215120616762,-0.5363011718749999,2.5617957763671875,9.490615380859374,9.844907153151409
0.43770206416314344,-0.5363011718749999,2.5570073730468748,9.485826977539062,9.839045639724334
0.44018900770952496,-0.5363011718749999,2.5570073730468748,9.471461767578125,9.825196876778842
0.4426759512559065,-0.5410895751953124,2.5617957763671875,9.457096557617186,9.81286150051516
0.445162894802288,-0.5506663818359374,2.5570073730468748,9.457096557617186,9.812145304162346
0.44764983834866945,-0.55545478515625,2.5426421630859375,9.4618849609375,9.813298436401013
0.45013678189505096,-0.5506663818359374,2.5330653564453125,9.4618849609375,9.810551492047884
0.4526237254414325,-0.5410895751953124,2.528276953125,9.4618849609375,9.80878327286842
0.45511066898781394,-0.5410895751953124,2.50912333984375,9.485826977539062,9.826972642209887
0.45759761253419545,-0.5506663818359374,2.4899697265625,9.495403784179686,9.83188057941592
0.46008455608057697,-0.5363011718749999,2.4899697265625,9.490615380859374,9.826461646674085
0.4625714996269584,-0.5410895751953124,2.4851813232421875,9.504980590820312,9.839388200983214
0.46505844317333994,-0.55545478515625,2.4756045166015626,9.509768994140625,9.84240082819682
0.46754538671972146,-0.5506663818359374,2.4756045166015626,9.504980590820312,9.837505131819407
0.4700323302661029,-0.5506663818359374,2.47081611328125,9.490615380859374,9.822420579324582
0.47251927381248443,-0.5410895751953124,2.4660277099609376,9.481038574218749,9.811430224004251
0.47500621735886595,-0.5410895751953124,2.4660277099609376,9.481038574218749,9.811430224004251
0.4774931609052474,-0.5458779785156249,2.4516625,9.485826977539062,9.812723639700774
0.4799801044516289,-0.5315127685546874,2.4516625,9.485826977539062,9.811934991878553
0.48246704799801043,-0.5267243652343749,2.446874096679687,9.495403784179686,9.819741566179198
0.4849539915443919,-0.5267243652343749,2.427720483398437,9.509768994140625,9.828884556467345
0.4874409350907734,-0.5267243652343749,2.427720483398437,9.519345800781249,9.838150729547474
0.4899278786371549,-0.5267243652343749,2.43250888671875,9.524134204101562,9.843966191461373
0.4924148221835364,-0.5315127685546874,2.422932080078125,9.543287817382812,9.860397966269696
0.4949017657299179,-0.5410895751953124,2.422932080078125,9.552864624023437,9.87018745100493
0.4973887092762994,-0.5267243652343749,2.437297290039062,9.548076220703125,9.868313744167226
0.49987565282268087,-0.5123591552734374,2.446874096679687,9.533711010742186,9.856031168038246
0.5023625963690624,-0.51714755859375,2.442085693359375,9.509768994140625,9.831934217283415
0.5048495399154439,-0.51714755859375,2.4516625,9.495403784179686,9.820426856093356
0.5073364834618254,-0.5123591552734374,2.461239306640625,9.495403784179686,9.822571142687602
0.5098234270082069,-0.5123591552734374,2.47081611328125,9.495403784179686,9.824975175248875
0.5123103705545884,-0.507570751953125,2.480392919921875,9.490615380859374,9.822512785068866
0.5147973141009698,-0.5027823486328125,2.4756045166015626,9.495403784179686,9.825685769315477
0.5172842576473514,-0.5123591552734374,2.4756045166015626,9.5001921875,9.830807760608819
0.5197712011937329,-0.5219359619140624,2.480392919921875,9.490615380859374,9.823265571740501
0.5222581447401143,-0.5267243652343749,2.4851813232421875,9.466673364257812,9.80160544767395
0.5247450882864959,-0.51714755859375,2.4899697265625,9.447519750976562,9.783814199055982
0.5272320318328774,-0.5267243652343749,2.480392919921875,9.442731347656249,9.777267660146167
0.5297189753792588,-0.5267243652343749,2.4899697265625,9.452308154296874,9.788948730068846
0.5322059189256404,-0.5267243652343749,2.499546533203125,9.4618849609375,9.800634593871692
0.5346928624720219,-0.5267243652343749,2.4947581298828125,9.476250170898437,9.813285585623227
0.5371798060184033,-0.5267243652343749,2.5043349365234375,9.495403784179686,9.834217053524766
0.5396667495647849,-0.5315127685546874,2.5139117431640625,9.495403784179686,9.836917764227204
0.5421536931111663,-0.5267243652343749,2.5139117431640625,9.485826977539062,9.827415950144657
0.5446406366575478,-0.5267243652343749,2.518700146484375,9.485826977539062,9.828641942437411
0.5471275802039294,-0.5363011718749999,2.528276953125,9.490615380859374,9.836238285343745
0.5496145237503108,-0.5410895751953124,2.528276953125,9.509768994140625,9.854981917893431
0.5521014672966923,-0.5315127685546874,2.528276953125,9.504980590820312,9.849839907669086
0.5545884108430739,-0.5267243652343749,2.5330653564453125,9.5001921875,9.846192678207704
0.5570753543894553,-0.5315127685546874,2.5378537597656248,9.5001921875,9.847682931965734
0.5595622979358368,-0.5315127685546874,2.5426421630859375,9.495403784179686,9.844299264917382
0.5620492414822184,-0.5315127685546874,2.5474305664062498,9.5001921875,9.850155324320198
0.5645361850285998,-0.5315127685546874,2.5426421630859375,9.495403784179686,9.844299264917382
0.5670231285749813,-0.5315127685546874,2.5474305664062498,9.490615380859374,9.840919094332707
0.5695100721213628,-0.5315127685546874,2.5474305664062498,9.519345800781249,9.868629732067626
0.5719970156677443,-0.5363011718749999,2.5330653564453125,9.543287817382812,9.888295172191468
0.5744839592141258,-0.5363011718749999,2.5234885498046875,9.543287817382812,9.885846234559642
0.5769709027605073,-0.5363011718749999,2.528276953125,9.5384994140625,9.882447792461551
0.5794578463068888,-0.5315127685546874,2.528276953125,9.524134204101562,9.86832419981108
0.5819447898532703,-0.5315127685546874,2.518700146484375,9.5001921875,9.84276423828556
0.5844317333996518,-0.5315127685546874,2.518700146484375,9.466673364257812,9.81041593596242
0.5869186769460333,-0.5315127685546874,2.5234885498046875,9.452308154296874,9.797786981146263
0.5894056204924147,-0.5363011718749999,2.5139117431640625,9.442731347656249,9.786344900083108
0.5918925640387963,-0.5315127685546874,2.518700146484375,9.4618849609375,9.805795391759524
0.5943795075851778,-0.5267243652343749,2.528276953125,9.476250170898437,9.821860323283326
0.5968664511315592,-0.5219359619140624,2.528276953125,9.471461767578125,9.816984746587739
0.5993533946779408,-0.51714755859375,2.5234885498046875,9.476250170898437,9.8201198241064
0.6018403382243223,-0.5027823486328125,2.5234885498046875,9.490615380859374,9.833237760702048
0.6043272817707037,-4.1563340820312495,-1.5370774658203123,9.145850341796875,10.162888300671868
0.6068142253170853,-5.908889697265625,-1.0726023437499999,9.093177905273437,10.897308734693299
0.6093011688634667,-7.292738256835937,-0.5410895751953124,9.064447485351561,11.646502368771483
0.6117881124098483,-8.29351455078125,0.028730419921875,9.045293872070312,12.271941585305967
0.6142750559562298,-8.9255837890625,0.6081272216796875,9.030928662109375,12.711944666078113
0.6167619995026112,-9.208099584960937,1.1875240234375,9.035717065429687,12.955442646212296
0.6192489430489928,-9.160215551757812,1.7334020019531249,9.050082275390624,12.993006605338902
0.6217358865953743,-8.815450512695312,2.2361843505859373,9.074024291992187,12.847202226292298
0.6242228301417557,-8.21690009765625,2.6862942626953124,9.107543115234375,12.557108173321838
0.6267097736881373,-7.407659936523437,3.0741549316406247,9.13627353515625,12.15711102145988
0.6291967172345188,-6.440402465820312,3.404554760742187,9.165003955078124,11.707564842324569
0.6316836607809002,-5.377376928710937,3.6487633300781246,9.222464794921875,11.281999528715149
0.6341706043272818,-4.256890551757812,3.816357446289062,9.284714038085937,10.903743214901981
0.6366575478736632,-3.0980969482421874,3.9169139160156248,9.332598071289063,10.584791263242405
0.6391444914200447,-1.9823989746093749,3.9552211425781247,9.394847314453125,10.384451648648398
0.6416314349664263,-0.9193734375,3.9360675292968748,9.452308154296874,10.280272591548968
0.6441183785128077,0.047884033203124995,3.88818349609375,9.509768994140625,10.274043512748523
0.6466053220591892,0.8954314208984374,3.782838623046875,9.567229833984374,10.32683650368437
0.6490922656055708,1.608903515625,3.6487633300781246,9.605537060546874,10.40040319329269
0.6515792091519522,2.1787235107421874,3.4859576171874997,9.634267480468749,10.47462870608338
0.6540661526983337,2.6001030029296874,3.318363500976562,9.65342109375,10.533784256558269
0.6565530962447153,2.863465185546875,3.1459809814453124,9.667786303710937,10.562325559206903
0.6590400397910967,2.9975404785156248,2.9735984619140625,9.667786303710937,10.549579553103438
0.6615269833374782,2.987963671875,2.8012159423828122,9.667786303710937,10.499563308753615
0.6640139268838597,2.844311572265625,2.6384102294921874,9.682151513671874,10.430502135223966
0.6665008704302412,2.6144682128906247,2.4899697265625,9.667786303710937,10.31995568254215
0.6689878139766227,2.308010400390625,2.360682836914062,9.639055883789062,10.18877489179246
0.6714747575230042,1.9201497314453124,2.2457611572265623,9.639055883789062,10.081756617637902
0.6739617010693857,1.4939818359375,2.1595698974609374,9.634267480468749,9.985731508174466
0.6764486446157671,1.0342951171875,2.0925322509765625,9.6151138671875,9.894385897558085
0.6789355881621487,0.565031591796875,2.04943662109375,9.595960253906249,9.828626778861691
0.6814225317085302,0.11013327636718749,2.0254946044921875,9.567229833984374,9.7799102464016
0.6839094752549116,-0.316034619140625,2.020706201171875,9.5384994140625,9.75531150215207
0.6863964188012932,-0.718260498046875,2.0350714111328125,9.519345800781249,9.760909704854166
0.6888833623476747,-1.0821791503906248,2.0638018310546875,9.5001921875,9.781821983191112
0.6913703058940561,-1.369483349609375,2.1021090576171875,9.485826977539062,9.81199574922357
0.6938572494404377,-1.599326708984375,2.1547814941406247,9.4618849609375,9.835049375756938
0.6963441929868192,-1.7717092285156248,2.2170307373046874,9.447519750976562,9.864573398056981
0.6988311365332006,-1.8818425048828125,2.27927998046875,9.447519750976562,9.899094801427124
0.7013180800795822,-1.93451494140625,2.3319524169921872,9.442731347656249,9.916931251029713
0.7038050236259636,-1.93451494140625,2.389413256835937,9.447519750976562,9.935153406745142
0.7062919671723451,-1.89620771484375,2.446874096679687,9.4618849609375,9.955403736506634
0.7087789107187267,-1.8100164550781248,2.4851813232421875,9.466673364257812,9.953400944531156
0.7112658542651081,-1.675941162109375,2.5330653564453125,9.457096557617186,9.932868376202856
0.7137527978114896,-1.5227122558593749,2.5809493896484375,9.442731347656249,9.906822279120636
0.7162397413578712,-1.350329736328125,2.6144682128906247,9.433154541015625,9.881459357185618
0.7187266849042526,-1.1731588134765625,2.6288334228515624,9.442731347656249,9.871790216103115
0.7212136284506341,-0.9911994873046874,2.6527754394531247,9.452308154296874,9.867412193659792
0.7237005719970157,-0.8044517578125,2.6575638427734374,9.447519750976562,9.847101992675642
0.7261875155433971,-0.6272808349609375,2.6623522460937497,9.447519750976562,9.835508638259741
0.7286744590897786,-0.4644751220703125,2.6623522460937497,9.452308154296874,9.831072477867806
0.7311614026361601,-0.32561142578124996,2.6479870361328124,9.457096557617186,9.82621663938983
0.7336483461825416,-0.2059013427734375,2.6336218261718747,9.466673364257812,9.828339832941936
0.7361352897289231,-0.11013327636718749,2.6240450195312497,9.471461767578125,9.828851897235214
0.7386222332753046,-0.033518823242187495,2.6096798095703124,9.471461767578125,9.82446640966748
0.7411091768216861,0.009576806640625,2.5857377929687497,9.476250170898437,9.822700695361993
0.7435961203680675,0.0383072265625,2.5570073730468748,9.476250170898437,9.815246886903847
0.7460830639144491,0.033518823242187495,2.5330653564453125,9.481038574218749,9.81364540104027
0.7485700074608306,0.0143652099609375,2.518700146484375,9.495403784179686,9.823784902560291
0.7510569510072121,-0.023942016601562498,2.5043349365234375,9.528922607421874,9.852544481132094
0.7535438945535936,-0.062249243164062495,2.4947581298828125,9.533711010742186,9.854914445657947
0.7560308380999751,-0.12449848632812499,2.4899697265625,9.519345800781249,9.84039600763848
0.7585177816463566,-0.19153613281249998,2.480392919921875,9.524134204101562,9.843686680563772
0.7610047251927381,-0.258573779296875,2.47081611328125,9.514557397460937,9.833544383108705
0.7634916687391196,-0.33518823242187495,2.4660277099609376,9.495403784179686,9.816126366447367
0.7659786122855011,-0.4070142822265625,2.4756045166015626,9.490615380859374,9.816621550001761
0.7684655558318826,-0.4740519287109375,2.4756045166015626,9.495403784179686,9.824257528095776
0.770952499378264,-0.5410895751953124,2.4851813232421875,9.495403784179686,9.830137189398261
0.7734394429246456,-0.6081272216796875,2.4947581298828125,9.504980590820312,9.845724598841626
0.7759263864710271,-0.6512228515624999,2.5043349365234375,9.504980590820312,9.85091065377003
0.7784133300174085,-0.689530078125,2.5043349365234375,9.5001921875,9.848898253224416
0.7809002735637901,-0.7278373046875,2.50912333984375,9.490615380859374,9.84363892999169
0.7833872171101716,-0.7517793212890624,2.518700146484375,9.481038574218749,9.838654126537945
0.785874160656553,-0.7565677246093749,2.5330653564453125,9.485826977539062,9.847320867614291
0.7883611042029346,-0.7613561279296874,2.5426421630859375,9.485826977539062,9.850157652080817
0.790848047749316,-0.7613561279296874,2.5426421630859375,9.495403784179686,9.859380576266053
0.7933349912956975,-0.74699091796875,2.5378537597656248,9.504980590820312,9.866273519893676
0.7958219348420791,-0.718260498046875,2.528276953125,9.504980590820312,9.861680309492314
0.7983088783884605,-0.6943184814453125,2.5330653564453125,9.504980590820312,9.861194364049965
0.800795821934842,-0.6751648681640625,2.5330653564453125,9.504980590820312,9.859864285632803
0.8032827654812236,-0.6368576416015624,2.5330653564453125,9.514557397460937,9.866550067032973
0.805769709027605,-0.603338818359375,2.5378537597656248,9.509768994140625,9.8610560163511
0.8082566525739865,-0.5793968017578125,2.5426421630859375,9.509768994140625,9.860853722944475
0.8107435961203681,-0.5458779785156249,2.5426421630859375,9.528922607421874,9.877417577239829
0.8132305396667495,-0.5219359619140624,2.528276953125,9.533711010742186,9.877056602874614
0.815717483213131,-0.49320554199218747,2.528276953125,9.524134204101562,9.866335104591377
0.8182044267595125,-0.4740519287109375,2.5378537597656248,9.524134204101562,9.867854846662894
0.820691370305894,-0.4644751220703125,2.5378537597656248,9.519345800781249,9.862777667565581
0.8231783138522755,-0.45010991210937495,2.528276953125,9.514557397460937,9.855028450200475
0.825665257398657,-0.44053310546874996,2.518700146484375,9.495403784179686,9.833646977064422
0.8281522009450385,-0.43574470214843747,2.50912333984375,9.490615380859374,9.826360144397498
0.83063914449142,-0.44053310546874996,2.4947581298828125,9.5001921875,9.832168588010804
0.8331260880378015,-0.45010991210937495,2.4851813232421875,9.504980590820312,9.834804582412492
0.835613031584183,-0.45968671875,2.4660277099609376,9.504980590820312,9.830425249070418
0.8380999751305644,-0.4740519287109375,2.442085693359375,9.514557397460937,9.83439424847325
0.840586918676946,-0.49320554199218747,2.437297290039062,9.519345800781249,9.838781136987201
0.8430738622233275,-0.49320554199218747,2.427720483398437,9.504980590820312,9.822511617912955
0.8455608057697089,-0.5123591552734374,2.418143676757812,9.504980590820312,9.821129608008803
0.8480477493160905,-0.5267243652343749,2.418143676757812,9.504980590820312,9.821889504074365
0.850534692862472,-0.5315127685546874,2.418143676757812,9.495403784179686,9.812880193357827
0.8530216364088534,-0.5458779785156249,2.4133552734375,9.485826977539062,9.803222933865412
0.855508579955235,-0.5458779785156249,2.418143676757812,9.485826977539062,9.804402840391655
0.8579955235016165,-0.5458779785156249,2.422932080078125,9.476250170898437,9.796320734518275
0.8604824670479979,-0.5458779785156249,2.427720483398437,9.466673364257812,9.788243667711228
0.8629694105943795,-0.5458779785156249,2.422932080078125,9.4618849609375,9.782425550246485
0.8654563541407609,-0.5602431884765625,2.427720483398437,9.4618849609375,9.784424673416519
0.8679432976871424,-0.5506663818359374,2.43250888671875,9.457096557617186,9.780440084584374
0.870430241233524,-0.5506663818359374,2.437297290039062,9.457096557617186,9.781632115562866
0.8729171847799054,-0.5602431884765625,2.442085693359375,9.4618849609375,9.787998875048983
0.8754041283262869,-0.55545478515625,2.442085693359375,9.476250170898437,9.801613635188655
0.8778910718726685,-0.5363011718749999,2.442085693359375,9.495403784179686,9.819067904097565
0.8803780154190499,-0.5315127685546874,2.4564509033203126,9.5001921875,9.82701930714476
0.8828649589654315,-0.5267243652343749,2.47081611328125,9.495403784179686,9.82573477390855
0.885351902511813,-0.49320554199218747,2.480392919921875,9.495403784179686,9.82640797893433
0.8878388460581944,-0.488417138671875,2.4899697265625,9.495403784179686,9.828590619471342
0.890325789604576,-0.4836287353515625,2.5043349365234375,9.485826977539062,9.822754383356914
0.8928127331509574,-0.488417138671875,2.5139117431640625,9.490615380859374,9.830060216558753
0.8952996766973389,-0.4836287353515625,2.5234885498046875,9.481038574218749,9.823033322781564
0.8977866202437205,-0.469263525390625,2.5378537597656248,9.476250170898437,9.821416764584995
0.9002735637901019,-0.4644751220703125,2.5474305664062498,9.485826977539062,9.83290664440027
0.9027605073364834,-0.469263525390625,2.5617957763671875,9.476250170898437,9.827630597327488
0.905247450882865,-0.4836287353515625,2.5857377929687497,9.476250170898437,9.834594754696164
0.9077343944292464,-0.488417138671875,2.5905261962890624,9.490615380859374,9.849931856739559
0.9102213379756279,-0.4836287353515625,2.6001030029296874,9.490615380859374,9.852218668244541
0.9127082815220094,-0.488417138671875,2.6048914062499997,9.485826977539062,9.84910777621564
0.9151952250683909,-0.49799394531249996,2.6096798095703124,9.490615380859374,9.85546584314772
0.9176821686147724,-0.5027823486328125,2.6240450195312497,9.509768994140625,9.877960754960604
0.9201691121611539,-0.5027823486328125,2.6240450195312497,9.509768994140625,9.877960754960604
0.9226560557075354,-0.507570751953125,2.6096798095703124,9.509768994140625,9.87439937913368
0.9251429992539169,-0.5123591552734374,2.6048914062499997,9.519345800781249,9.882606721771296
0.9276299428002984,-0.5267243652343749,2.6048914062499997,9.519345800781249,9.883361891084341
0.9301168863466799,-0.5267243652343749,2.5953145996093747,9.524134204101562,9.885455415185202
0.9326038298930613,-0.5267243652343749,2.5953145996093747,9.533711010742186,9.894682514574377
0.9350907734394429,-0.5458779785156249,2.5857377929687497,9.533711010742186,9.893213246350347
0.9375777169858244,-0.5506663818359374,2.5713725830078125,9.524134204101562,9.880502151331472
0.9400646605322058,-0.5506663818359374,2.5522189697265625,9.514557397460937,9.866299083399765
0.9425516040785874,-0.5602431884765625,2.5426421630859375,9.509768994140625,9.859746848761135
0.9450385476249689,-0.5602431884765625,2.5330653564453125,9.495403784179686,9.843423467212599
0.9475254911713503,-0.5602431884765625,2.518700146484375,9.476250170898437,9.821254510478152
0.9500124347177319,-0.565031591796875,2.5139117431640625,9.471461767578125,9.815681380670464
0.9524993782641133,-0.565031591796875,2.499546533203125,9.4618849609375,9.802768006302685
0.9549863218104948,-0.5746083984375,2.4756045166015626,9.471461767578125,9.806496854069097
0.9574732653568764,-0.565031591796875,2.47081611328125,9.490615380859374,9.823236395037192
0.9599602089032578,-0.5602431884765625,2.47081611328125,9.519345800781249,9.85072328160406
0.9624471524496393,-0.5602431884765625,2.4564509033203126,9.528922607421874,9.856388259849206
0.9649340959960209,-0.5506663818359374,2.442085693359375,9.524134204101562,9.847646842547316
0.9674210395424023,-0.5602431884765625,2.43250888671875,9.519345800781249,9.841184704549127
0.9699079830887838,-0.55545478515625,2.437297290039062,9.519345800781249,9.842097976205903
0.9723949266351654,-0.5458779785156249,2.422932080078125,9.509768994140625,9.8287480868124
0.9748818701815468,-0.5506663818359374,2.4133552734375,9.495403784179686,9.812757520927885
0.9773688137279283,-0.5506663818359374,2.422932080078125,9.490615380859374,9.810484882826154
0.9798557572743098,-0.5458779785156249,2.427720483398437,9.490615380859374,9.811401012105518
0.9823427008206913,-0.5410895751953124,2.427720483398437,9.490615380859374,9.811135764084701
0.9848296443670728,-0.5315127685546874,2.422932080078125,9.485826977539062,9.80479572125887
0.9873165879134543,-0.5267243652343749,2.418143676757812,9.490615380859374,9.80798846378705
0.9898035314598358,-0.5219359619140624,2.418143676757812,9.495403784179686,9.812366127208913
0.9922904750062173,-0.5267243652343749,2.422932080078125,9.485826977539062,9.804537310317663
0.9947774185525988,-0.5267243652343749,2.418143676757812,9.481038574218749,9.798721847475782
0.9972643620989803,-0.5267243652343749,2.422932080078125,9.495403784179686,9.813803108184775
0.9997513056453617,-0.5315127685546874,2.446874096679687,9.495403784179686,9.819999577024054
1.0022382491917432,-0.5219359619140624,2.461239306640625,9.466673364257812,9.79530605231099
1.0047251927381249,-0.5123591552734374,2.47081611328125,9.4618849609375,9.792584499694552
1.0072121362845063,-0.5123591552734374,2.4851813232421875,9.476250170898437,9.810094567069013
1.0096990798308878,-0.5123591552734374,2.50912333984375,9.471461767578125,9.811564597618226
1.0121860233772693,-0.5027823486328125,2.518700146484375,9.476250170898437,9.818144316491269
1.0146729669236507,-0.5027823486328125,2.5330653564453125,9.481038574218749,9.82645931330019
1.0171599104700322,-0.5027823486328125,2.5474305664062498,9.485826977539062,9.834790594037345
1.0196468540164139,-0.5027823486328125,2.5522189697265625,9.495403784179686,9.845268141810193
1.0221337975627953,-0.5027823486328125,2.5570073730468748,9.519345800781249,9.8696008668418
1.0246207411091768,-0.5027823486328125,2.5617957763671875,9.519345800781249,9.870842525578102
1.0271076846555582,-0.5027823486328125,2.5665841796874997,9.519345800781249,9.872086350735112
1.0295946282019397,-0.51714755859375,2.5617957763671875,9.528922607421874,9.880820069984471
1.0320815717483212,-0.5219359619140624,2.5570073730468748,9.533711010742186,9.88444988304873
1.0345685152947028,-0.51714755859375,2.5617957763671875,9.528922607421874,9.880820069984471
1.0370554588410843,-0.5267243652343749,2.5713725830078125,9.524134204101562,9.879196721156692
1.0395424023874658,-0.5315127685546874,2.5713725830078125,9.509768994140625,9.865605359312694
1.0420293459338472,-0.5410895751953124,2.5713725830078125,9.495403784179686,9.8522803407964
1.0445162894802287,-0.5410895751953124,2.5713725830078125,9.490615380859374,9.847665469360432
1.0470032330266101,-0.5410895751953124,2.5617957763671875,9.509768994140625,9.86363431246902
1.0494901765729918,-0.5506663818359374,2.5665841796874997,9.509768994140625,9.865408969598008
1.0519771201193733,-0.5506663818359374,2.5617957763671875,9.490615380859374,9.845700146322839
1.0544640636657547,-0.5506663818359374,2.5474305664062498,9.481038574218749,9.832737584242194
1.0569510072121362,-0.5506663818359374,2.5426421630859375,9.466673364257812,9.817645706539574
1.0594379507585177,-0.5506663818359374,2.5330653564453125,9.4618849609375,9.810551492047884
1.0619248943048991,-0.5506663818359374,2.518700146484375,9.457096557617186,9.80223235758465
1.0644118378512808,-0.55545478515625,2.50912333984375,9.4618849609375,9.80466710127972
1.0668987813976623,-0.5506663818359374,2.5043349365234375,9.476250170898437,9.817038465842375
1.0693857249440437,-0.5458779785156249,2.4851813232421875,9.490615380859374,9.825776777650946
1.0718726684904252,-0.5363011718749999,2.4756045166015626,9.490615380859374,9.822831413445773
1.0743596120368066,-0.5315127685546874,2.480392919921875,9.485826977539062,9.819153135996153
1.076846555583188,-0.5315127685546874,2.4756045166015626,9.490615380859374,9.822571142687604
1.0793334991295698,-0.5267243652343749,2.461239306640625,9.490615380859374,9.818702449350877
1.0818204426759512,-0.5267243652343749,2.4564509033203126,9.485826977539062,9.81287435184832
1.0843073862223327,-0.5267243652343749,2.4564509033203126,9.481038574218749,9.808245614949628
1.0867943297687142,-0.5123591552734374,2.4516625,9.466673364257812,9.792398352980085
1.0892812733150956,-0.5123591552734374,2.4516625,9.457096557617186,9.783140406740241
1.0917682168614773,-0.5027823486328125,2.446874096679687,9.457096557617186,9.781444588361865
1.0942551604078588,-0.488417138671875,2.442085693359375,9.452308154296874,9.774889425402527
1.0967421039542402,-0.49320554199218747,2.446874096679687,9.452308154296874,9.776327224241271
1.0992290475006217,-0.488417138671875,2.4516625,9.466673364257812,9.791174847831234
1.1017159910470031,-0.4836287353515625,2.442085693359375,9.481038574218749,9.80243703030997
1.1042029345933846,-0.469263525390625,2.442085693359375,9.5001921875,9.820266920476683
1.1066898781397663,-0.469263525390625,2.4516625,9.519345800781249,9.841178879840559
1.1091768216861477,-0.47884033203125,2.446874096679687,9.528922607421874,9.849713039820882
1.1116637652325292,-0.47884033203125,2.4516625,9.5384994140625,9.860167754635654
1.1141507087789106,-0.47884033203125,2.461239306640625,9.543287817382812,9.867184469418813
1.116637652325292,-0.469263525390625,2.4564509033203126,9.533711010742186,9.856267292085377
1.1191245958716736,-0.47884033203125,2.4516625,9.533711010742186,9.855535638098663
1.1216115394180552,-0.488417138671875,2.4660277099609376,9.528922607421874,9.854958651657515
1.1240984829644367,-0.47884033203125,2.480392919921875,9.524134204101562,9.853464844333473
1.1265854265108182,-0.4836287353515625,2.4899697265625,9.519345800781249,9.851486713573088
1.1290723700571996,-0.5027823486328125,2.4947581298828125,9.5001921875,9.835154285325123
1.131559313603581,-0.5027823486328125,2.4947581298828125,9.481038574218749,9.81665424992329
1.1340462571499625,-0.507570751953125,2.499546533203125,9.466673364257812,9.80424732069904
1.1365332006963442,-0.51714755859375,2.5139117431640625,9.4618849609375,9.803798287592054
1.1390201442427257,-0.5267243652343749,2.5234885498046875,9.471461767578125,9.816008406303505
1.1415070877891071,-0.5267243652343749,2.518700146484375,9.481038574218749,9.824020634681904
1.1439940313354886,-0.5267243652343749,2.518700146484375,9.485826977539062,9.828641942437411
1.14648097488187,-0.5315127685546874,2.5234885498046875,9.481038574218749,9.825507250516683
1.1489679184282515,-0.5363011718749999,2.5234885498046875,9.485826977539062,9.830387930074668
1.1514548619746332,-0.5458779785156249,2.5234885498046875,9.490615380859374,9.835535447337282
1.1539418055210147,-0.5410895751953124,2.5330653564453125,9.495403784179686,9.842351906583222
1.1564287490673961,-0.5410895751953124,2.5426421630859375,9.495403784179686,9.844820979708127
1.1589156926137776,-0.5602431884765625,2.5474305664062498,9.504980590820312,9.856364996933001
1.161402636160159,-0.55545478515625,2.5474305664062498,9.514557397460937,9.865329947781396
1.1638895797065405,-0.5602431884765625,2.5474305664062498,9.509768994140625,9.8609827726659
1.1663765232529222,-0.5746083984375,2.5474305664062498,9.504980590820312,9.857191959888304
1.1688634667993036,-0.5746083984375,2.5474305664062498,9.5001921875,9.852574734639257
1.171350410345685,-0.584185205078125,2.5570073730468748,9.495403784179686,9.851002592846179
1.1738373538920666,-0.59376201171875,2.5570073730468748,9.504980590820312,9.860806055503131
1.176324297438448,-0.584185205078125,2.5570073730468748,9.5001921875,9.855618228152117
1.1788112409848295,-0.5793968017578125,2.5522189697265625,9.495403784179686,9.849477922607532
1.1812981845312112,-0.5793968017578125,2.5474305664062498,9.5001921875,9.852855156957505
1.1837851280775926,-0.5793968017578125,2.5378537597656248,9.490615380859374,9.841147426354725
1.186272071623974,-2.0877438476562498,-4.285620971679688,8.892064965820312,10.08930328827002
1.1887590151703555,-2.8203695556640622,-3.758896606445312,8.786720092773438,9.96444871115363
1.191245958716737,-3.4093431640625,-3.0933085449218747,8.710105639648438,9.851807895927625
1.1937329022631185,-3.854664672851562,-2.29843359375,8.652644799804687,9.747281608561202
1.1962198458095001,-4.151545678710937,-1.43652099609375,8.63827958984375,9.691171155590677
1.1987067893558816,-4.3239281982421875,-0.5123591552734374,8.63827958984375,9.673610558620682
1.201193732902263,-4.386177441406249,0.43574470214843747,8.681375219726561,9.73625706822873
1.2036806764486445,-4.328716601562499,1.3646949462890625,8.748412866210938,9.855704307189555
1.206167619995026,-4.165910888671875,2.2601263671875,8.825027319335938,10.017189821254098
1.2086545635414074,-3.9264907226562498,3.0885201416015624,8.920795385742187,10.224327673468961
1.2111415070877891,-3.6296097167968746,3.825934252929687,9.026140258789061,10.453853240568264
1.2136284506341706,-3.294421484375,4.472368701171875,9.126696728515624,10.684188686570037
1.216115394180552,-2.916137622070312,5.027823486328125,9.222464794921875,10.901225827130634
1.2186023377269335,-2.5139117431640625,5.468356591796875,9.313444458007812,11.088864853530453
1.221089281273315,-2.1116858642578125,5.774814404296874,9.390058911132812,11.2241215668722
1.2235762248196966,-1.70467158203125,5.971138940429687,9.466673364257812,11.321586021138955
1.226063168366078,-1.3072341064453123,6.038176586914062,9.524134204101562,11.352425724995884
1.2285501119124596,-0.9528922607421875,5.9950809570312495,9.605537060546874,11.362893186309575
1.231037055458841,-0.6272808349609375,5.865794067382812,9.677363110351562,11.333683340222892
1.2335239990052225,-0.316034619140625,5.65031591796875,9.706093530273437,11.235399390843313
1.236010942551604,-0.0526724365234375,5.3390697021484375,9.734823950195311,11.102938215232262
1.2384978860979856,0.16280571289062498,4.975151049804687,9.777919580078125,10.972071134612538
1.240984829644367,0.33039982910156246,4.57771357421875,9.792284790039062,10.814502624896225
1.2434717731907485,0.4740519287109375,4.127603662109375,9.787496386718749,10.632822896230607
1.24595871673713,0.5698199951171875,3.6727053466796873,9.773131176757811,10.455981655898237
1.2484456602835114,0.612915625,3.21780703125,9.744400756835937,10.280238020763715
1.250932603829893,0.6272808349609375,2.7724855224609373,9.725247143554688,10.132156198035213
1.2534195473762746,0.612915625,2.35589443359375,9.706093530273437,10.006705539987825
1.255906490922656,0.565031591796875,1.9823989746093749,9.686939916992188,9.903836193600812
1.2583934344690375,0.49799394531249996,1.6519991455078125,9.65342109375,9.806408004951859
1.260880378015419,0.4165910888671875,1.35990654296875,9.629479077148437,9.733948902586878
1.2633673215618004,0.32082302246093747,1.1252747802734375,9.591171850585937,9.662284833844035
1.2658542651081819,0.2154781494140625,0.9576806640625,9.548076220703125,9.598403127789048
1.2683412086545636,0.0909796630859375,0.8475473876953125,9.528922607421874,9.56697339453393
1.270828152200945,-0.028730419921875,0.7948749511718749,9.495403784179686,9.528659121284761
1.2733150957473265,-0.1388636962890625,0.7948749511718749,9.452308154296874,9.486687449153932
1.275802039293708,-0.2537853759765625,0.842758984375,9.447519750976562,9.488428698572624
1.2782889828400894,-0.3687070556640625,0.9337386474609375,9.428366137695312,9.481661288039046
1.2807759263864709,-0.469263525390625,1.0678139404296874,9.404424121093749,9.476477611277723
1.2832628699328525,-0.565031591796875,1.2306196533203124,9.394847314453125,9.491935603066102
1.285749813479234,-0.6512228515624999,1.4173673828125,9.390058911132812,9.518730369897167
1.2882367570256155,-0.70868369140625,1.6232687255859375,9.404424121093749,9.569766297007494
1.290723700571997,-0.7565677246093749,1.8435352783203125,9.414000927734374,9.622599987098903
1.2932106441183784,-0.7996633544921875,2.0638018310546875,9.423577734375,9.680008098870095
1.2956975876647598,-0.8283937744140625,2.2840683837890623,9.433154541015625,9.741027113297472
1.2981845312111415,-0.8571241943359375,2.4899697265625,9.437942944335937,9.798437535865311
1.300671474757523,-0.8667010009765624,2.6671406494140624,9.447519750976562,9.85497028478234
1.3031584183039044,-0.86191259765625,2.844311572265625,9.457096557617186,9.913106321744841
1.305645361850286,-0.852335791015625,2.9927520751953125,9.471461767578125,9.969535059315767
1.3081323053966674,-0.8283937744140625,3.1172505615234374,9.485826977539062,10.019201602753286
1.3106192489430488,-0.8092401611328125,3.208230224609375,9.5001921875,10.05988381701913
1.3131061924894305,-0.7757213378906249,3.2704794677734372,9.504980590820312,10.081787320463436
1.315593136035812,-0.74699091796875,3.303998291015625,9.504980590820312,10.090542907615665
1.3180800795821934,-0.718260498046875,3.318363500976562,9.5001921875,10.088661262382834
1.3205670231285749,-0.689530078125,3.308786694335937,9.476250170898437,10.060956138394912
1.3230539666749563,-0.6607996582031249,3.284844677734375,9.466673364257812,10.042149437778226
1.3255409102213378,-0.63206923828125,3.2225954345703123,9.490615380859374,10.042729368269335
1.3280278537677195,-0.5889736083984375,3.1459809814453124,9.490615380859374,10.015780875918264
1.330514797314101,-0.55545478515625,3.0597897216796874,9.471461767578125,9.968923270541497
1.3330017408604824,-0.5267243652343749,2.96881005859375,9.481038574218749,9.948937841134743
1.3354886844068639,-0.5123591552734374,2.868253588867187,9.504980590820312,9.941531400438912
1.3379756279532453,-0.49799394531249996,2.7533319091796873,9.5001921875,9.903660241098288
1.3404625714996268,-0.47884033203125,2.6384102294921874,9.509768994140625,9.880597295942549
1.3429495150460085,-0.4644751220703125,2.5378537597656248,9.514557397460937,9.858156080857992
1.34543645859239,-0.45010991210937495,2.437297290039062,9.514557397460937,9.83208113690024
1.3479234021387714,-0.44053310546874996,2.3415292236328122,9.509768994140625,9.80370005885833
1.3504103456851528,-2.96881005859375,-6.263231542968749,9.093177905273437,11.433625275554519
1.3528972892315343,-3.9791631591796874,-5.45877978515625,9.045293872070312,11.28934707688253
1.3553842327779158,-4.778826513671874,-4.486733911132812,9.02135185546875,11.151356569370915
1.3578711763242974,-5.363011718749999,-3.385401147460937,9.011775048828124,11.01975159227107
1.360358119870679,-5.7317187744140625,-2.1883003173828124,9.02135185546875,10.909905943141665
1.3628450634170604,-5.88015927734375,-0.9528922607421875,9.02135185546875,10.810599709899703
1.3653320069634418,-5.827486840820312,0.27293898925781246,9.04050546875,10.75940694008223
1.3678189505098233,-5.57370146484375,1.4604630126953124,9.074024291992187,10.748814682666955
1.370305894056205,-5.1714755859374995,2.5953145996093747,9.112331518554686,10.794183772334911
1.3727928376025864,-4.630386010742187,3.6296097167968746,9.1554271484375,10.882848320871226
1.3752797811489679,-3.9791631591796874,4.544194750976562,9.212887988281249,11.016385544578254
1.3777667246953493,-3.2513258544921873,5.305550878906249,9.284714038085937,11.177025754188021
1.3802536682417308,-2.4756045166015626,5.928043310546875,9.375693701171874,11.365471727672881
1.3827406117881123,-1.6903063720703124,6.3973068359375,9.442731347656249,11.530301196785977
1.385227555334494,-0.9097966308593749,6.698976245117187,9.495403784179686,11.656187441302638
1.3877144988808754,-0.1771709228515625,6.842628344726562,9.543287817382812,11.744245167969147
1.3902014424272569,0.47884033203125,6.866570361328125,9.586383447265625,11.801602611029487
1.3926883859736383,1.0678139404296874,6.751648681640624,9.6151138671875,11.797262445612409
1.3951753295200198,1.5418658691406248,6.507440112304687,9.639055883789062,11.731816803226232
1.3976622730664012,1.9009961181640624,6.157886669921875,9.662997900390625,11.614942225591566
1.400149216612783,2.1499930908203124,5.7508723876953125,9.686939916992188,11.468731772325485
1.4026361601591644,2.2936451904296873,5.272032055664062,9.6917283203125,11.268750067788265
1.4051231037055458,2.3223756103515623,4.740519287109374,9.6917283203125,11.036102093663283
1.4076100472519273,2.231395947265625,4.189852905273438,9.682151513671874,10.78323018278847
1.4100969907983087,2.0542250244140625,3.6296097167968746,9.648632690429688,10.511423307146549
1.4125839343446902,1.8052280517578123,3.0789433349609374,9.610325463867188,10.251687465983723
1.4150708778910719,1.4796166259765624,2.5665841796874997,9.595960253906249,10.042861788645551
1.4175578214374533,1.1061211669921875,2.0877438476562498,9.581595043945311,9.868593719251596
1.4200447649838348,0.70868369140625,1.675941162109375,9.586383447265625,9.757548818803116
1.4225317085302163,0.28730419921875,1.3168109130859373,9.586383447265625,9.680665384244996
1.4250186520765977,-0.1292868896484375,1.024718310546875,9.572018237304688,9.62757995817737
1.4275055956229792,-0.5219359619140624,0.7996633544921875,9.543287817382812,9.59094473940206
1.4299925391693609,-0.9002198242187499,0.6512228515624999,9.519345800781249,9.583967414863494
1.4324794827157423,-1.235408056640625,0.5746083984375,9.490615380859374,9.587918866228062
1.4349664262621238,-1.5131354492187499,0.5506663818359374,9.466673364257812,9.6026411438372
1.4374533698085052,-1.7334020019531249,0.5889736083984375,9.452308154296874,9.627964574901185
1.4399403133548867,-1.8914193115234375,0.6847416748046875,9.428366137695312,9.640561508525202
1.4424272569012682,-2.0063409912109376,0.82360537109375,9.418789331054686,9.665263702718997
1.4449142004476498,-2.0542250244140625,1.0103531005859374,9.409212524414063,9.683694241785158
1.4474011439940313,-2.0254946044921875,1.22583125,9.394847314453125,9.68857299648357
1.4498880875404128,-1.9632453613281249,1.446097802734375,9.399635717773437,9.710750889127562
1.4523750310867942,-1.848323681640625,1.675941162109375,9.418789331054686,9.74364776014382
1.4548619746331757,-1.695094775390625,1.9297265380859374,9.428366137695312,9.771963919079385
1.4573489181795571,-1.5083470458984374,2.1835119140624997,9.433154541015625,9.799348941863798
1.4598358617259388,-1.3024457031249999,2.418143676757812,9.442731347656249,9.834071331602317
1.4623228052723203,-1.0869675537109373,2.6384102294921874,9.452308154296874,9.873643524337737
1.4648097488187017,-0.86191259765625,2.829946362304687,9.452308154296874,9.904424222705087
1.4672966923650832,-0.63206923828125,2.9927520751953125,9.457096557617186,9.939454301200954
1.4697836359114647,-0.4213794921875,3.1411925781249996,9.4618849609375,9.978572969283684
1.4722705794578461,-0.2346317626953125,3.265691064453125,9.471461767578125,10.021396020874969
1.4747575230042278,-0.08140285644531249,3.3327287109375,9.471461767578125,10.041030579598827
1.4772444665506093,0.062249243164062495,3.366247534179687,9.466673364257812,10.047557017265124
1.4797314100969907,0.1771709228515625,3.385401147460937,9.4618849609375,10.050850584858434
1.4822183536433722,0.229843359375,3.375824340820312,9.481038574218749,10.066732856083327
1.4847052971897536,0.27293898925781246,3.337517114257812,9.490615380859374,10.064059642471591
1.487192240736135,0.2920926025390625,3.2800562744140622,9.5001921875,10.0547371348642
1.4896791842825168,0.26815058593749996,3.2034418212890623,9.519345800781249,10.047481710059193
1.4921661278288982,0.2154781494140625,3.1172505615234374,9.543287817382812,10.04181379341403
1.4946530713752797,0.15322890625,3.0214824951171875,9.552864624023437,10.020481929075498
1.4971400149216612,0.0718260498046875,2.901772412109375,9.543287817382812,9.974957868508358
1.4996269584680426,-0.0383072265625,2.7964275390625,9.543287817382812,9.944637589688286
1.5021139020144243,-0.15322890625,2.6815058593749996,9.5384994140625,9.909436101193835
1.5046008455608058,-0.26815058593749996,2.5713725830078125,9.509768994140625,9.854926078834955
1.5070877891071872,-0.39264907226562495,2.4756045166015626,9.504980590820312,9.829926095777116
1.5095747326535687,-0.5123591552734374,2.389413256835937,9.514557397460937,9.823370607154882
1.5120616761999501,-0.6177040283203125,2.3127988037109373,9.528922607421874,9.825017182238694
1.5145486197463316,-0.7134720947265625,2.2553379638671873,9.528922607421874,9.818144316491269
1.5170355632927133,-0.7900865478515624,2.1930887207031247,9.519345800781249,9.800603010265382
1.5195225068390947,-0.8571241943359375,2.1547814941406247,9.509768994140625,9.7884345783136
1.5220094503854762,-0.9097966308593749,2.1404162841796874,9.495403784179686,9.77608330589089
1.5244963939318577,-0.93852705078125,2.1260510742187497,9.481038574218749,9.761711870417951
1.5269833374782391,-0.9528922607421875,2.1260510742187497,9.476250170898437,9.758453470310842
1.5294702810246206,-0.948103857421875,2.1452046874999997,9.490615380859374,9.7761231775758
1.5319572245710023,-0.928950244140625,2.1691467041015624,9.5001921875,9.788860892843438
1.5344441681173837,-0.9002198242187499,2.1930887207031247,9.5001921875,9.79151088791856
1.5369311116637652,-0.8571241943359375,2.231395947265625,9.495403784179686,9.791653730734323
1.5394180552101466,-0.8092401611328125,2.269703173828125,9.490615380859374,9.791741542906463
1.541904998756528,-0.74699091796875,2.3032219970703123,9.485826977539062,9.789981636710266
1.5443919423029095,-0.679953271484375,2.346317626953125,9.490615380859374,9.799965467559453
1.5468788858492912,-0.6272808349609375,2.39420166015625,9.495403784179686,9.812664055190014
1.5493658293956727,-0.5746083984375,2.437297290039062,9.495403784179686,9.82004510764592
1.5518527729420541,-0.51714755859375,2.480392919921875,9.504980590820312,9.836892124366765
1.5543397164884356,-0.45968671875,2.50912333984375,9.509768994140625,9.845949326289578
1.556826660034817,-0.411802685546875,2.5330653564453125,9.509768994140625,9.849959790464398
1.5593136035811985,-0.373495458984375,2.5713725830078125,9.495403784179686,9.844498404852333
1.5618005471275802,-0.3495534423828125,2.6048914062499997,9.481038574218749,9.838584211829497
1.5642874906739617,-0.32082302246093747,2.6192566162109374,9.471461767578125,9.832193074182376
1.5667744342203431,-0.3064578125,2.6336218261718747,9.4618849609375,9.826349644102148
1.5692613777667246,-0.3016694091796875,2.6479870361328124,9.4618849609375,9.830061382818394
1.571748321313106,-0.3112462158203125,2.6431986328124997,9.4618849609375,9.829071178569192
1.5742352648594875,-0.32082302246093747,2.6431986328124997,9.471461767578125,9.838598194810935
1.5767222084058692,-0.3399766357421875,2.6384102294921874,9.481038574218749,9.847176503839234
1.5792091519522506,-0.3687070556640625,2.6144682128906247,9.485826977539062,9.846436024111457
1.581696095498632,-0.39264907226562495,2.5953145996093747,9.481038574218749,9.837678771474524
1.5841830390450136,-0.4261678955078125,2.5809493896484375,9.485826977539062,9.839910176159947
1.586669982591395,-0.4644751220703125,2.5617957763671875,9.504980590820312,9.85510988120913
1.5891569261377765,-0.49799394531249996,2.5426421630859375,9.514557397460937,9.861025788864406
1.5916438696841582,-0.5219359619140624,2.5234885498046875,9.514557397460937,9.857343155176915
1.5941308132305396,-0.5410895751953124,2.5139117431640625,9.509768994140625,9.851306334833042
1.596617756776921,-0.5698199951171875,2.499546533203125,9.504980590820312,9.844647466027107
1.5991047003233025,-0.5889736083984375,2.4851813232421875,9.490615380859374,9.828265178971627
1.601591643869684,-0.6081272216796875,2.47081611328125,9.5001921875,9.835059866764114
1.6040785874160655,-0.622492431640625,2.4564509033203126,9.5001921875,9.832359811729281
1.6065655309624471,-0.6368576416015624,2.4564509033203126,9.5001921875,9.833279732394757
1.6090524745088286,-0.6464344482421874,2.4564509033203126,9.495403784179686,9.829278791493874
1.61153941805521,-0.6560112548828124,2.4564509033203126,9.495403784179686,9.829913266736895
1.6140263616015915,-0.6560112548828124,2.4564509033203126,9.476250170898437,9.811412696875449
1.616513305147973,-0.6416460449218749,2.4516625,9.4618849609375,9.79538797980383
1.6190002486943544,-0.6368576416015624,2.4516625,9.471461767578125,9.804326834835052
1.6214871922407361,-0.622492431640625,2.4564509033203126,9.476250170898437,9.809228571571044
1.6239741357871176,-0.5985504150390625,2.461239306640625,9.471461767578125,9.804312802975556
1.626461079333499,-0.5746083984375,2.47081611328125,9.476250170898437,9.809914595890111
1.6289480228798805,-0.5602431884765625,2.480392919921875,9.490615380859374,9.825375401216865
1.631434966426262,-0.55545478515625,2.480392919921875,9.490615380859374,9.825103529375966
1.6339219099726436,-0.5458779785156249,2.4851813232421875,9.509768994140625,9.844278302584629
1.636408853519025,-0.5267243652343749,2.4851813232421875,9.533711010742186,9.866367639748184
1.6388957970654066,-0.5123591552734374,2.499546533203125,9.533711010742186,9.869239606574919
1.641382740611788,-0.488417138671875,2.5139117431640625,9.528922607421874,9.8670496913719
1.6438696841581695,-0.47884033203125,2.528276953125,9.524134204101562,9.86562743838526
1.646356627704551,-0.45968671875,2.5474305664062498,9.509768994140625,9.855781079750829
1.6488435712509326,-0.45968671875,2.5474305664062498,9.504980590820312,9.851160865701404
1.651330514797314,-0.4644751220703125,2.5378537597656248,9.504980590820312,9.848913385589782
1.6538174583436955,-0.45489831542968745,2.5474305664062498,9.504980590820312,9.850938584719351
1.656304401890077,-0.45489831542968745,2.5474305664062498,9.490615380859374,9.837078594554695
1.6587913454364585,-0.469263525390625,2.5378537597656248,9.481038574218749,9.826036963498684
1.66127828898284,-0.469263525390625,2.5378537597656248,9.481038574218749,9.826036963498684
1.6637652325292216,-0.469263525390625,2.5378537597656248,9.471461767578125,9.81679672688157
1.666252176075603,-0.4836287353515625,2.5330653564453125,9.485826977539062,9.830118529371303
1.6687391196219845,-0.49320554199218747,2.5139117431640625,9.490615380859374,9.830299296891958
1.671226063168366,-0.5027823486328125,2.5139117431640625,9.485826977539062,9.826161803589578
1.6737130067147474,-0.5219359619140624,2.50912333984375,9.485826977539062,9.825936623584322
1.676199950261129,-0.5267243652343749,2.499546533203125,9.490615380859374,9.828374826795315
1.6786868938075106,-0.5267243652343749,2.5043349365234375,9.485826977539062,9.824970507794477
1.681173837353892,-0.5267243652343749,2.499546533203125,9.481038574218749,9.819127449748434
1.6836607809002735,-0.5267243652343749,2.4899697265625,9.485826977539062,9.821318712063933
1.686147724446655,-0.5410895751953124,2.4899697265625,9.481038574218749,9.81747521582849
1.6886346679930364,-0.55545478515625,2.4899697265625,9.485826977539062,9.822901440275096
1.6911216115394179,-0.5506663818359374,2.4851813232421875,9.495403784179686,9.830668985277145
1.6936085550857995,-0.55545478515625,2.4851813232421875,9.490615380859374,9.826313476332276
1.696095498632181,-0.5602431884765625,2.4899697265625,9.5001921875,9.83704596252697
1.6985824421785625,-0.55545478515625,2.4947581298828125,9.504980590820312,9.842611654273483
1.701069385724944,-0.5602431884765625,2.4947581298828125,9.504980590820312,9.842883042519688
1.7035563292713254,-0.5602431884765625,2.4947581298828125,9.504980590820312,9.842883042519688
1.7060432728177068,-0.5602431884765625,2.4947581298828125,9.509768994140625,9.84750714032588
1.7085302163640885,-0.5506663818359374,2.5043349365234375,9.519345800781249,9.858644501818073
1.71101715991047,-0.5458779785156249,2.5139117431640625,9.504980590820312,9.846948311620068
1.7135041034568514,-0.5363011718749999,2.528276953125,9.5001921875,9.845478906487665
1.715991047003233,-0.5363011718749999,2.5378537597656248,9.504980590820312,9.85256193508987
1.7184779905496144,-0.5315127685546874,2.5378537597656248,9.495403784179686,9.843063575620503
1.7209649340959958,-0.5315127685546874,2.5378537597656248,9.476250170898437,9.82458776898786
1.7234518776423775,-0.5315127685546874,2.5378537597656248,9.476250170898437,9.82458776898786
1.725938821188759,-0.51714755859375,2.5330653564453125,9.481038574218749,9.827204798069834
1.7284257647351404,-0.5123591552734374,2.5234885498046875,9.471461767578125,9.815248054923625
1.7309127082815219,-0.507570751953125,2.518700146484375,9.471461767578125,9.81376923056747
1.7333996518279033,-0.507570751953125,2.5043349365234375,9.471461767578125,9.810092229802137
1.7358865953742848,-0.5315127685546874,2.50912333984375,9.481038574218749,9.821827640694435
1.7383735389206665,-0.5410895751953124,2.518700146484375,9.495403784179686,9.838664613701361
1.740860482467048,-0.5458779785156249,2.5043349365234375,9.514557397460937,9.853754548967556
1.7433474260134294,-0.5410895751953124,2.5043349365234375,9.519345800781249,9.858114215078281
1.7458343695598109,-0.5506663818359374,2.4947581298828125,9.514557397460937,9.851591448100114
1.7483213131061923,-0.5363011718749999,2.4899697265625,9.514557397460937,9.849587334286188
1.7508082566525738,-0.5267243652343749,2.4851813232421875,9.514557397460937,9.847861048771046
1.7532952001989555,-0.5267243652343749,2.480392919921875,9.519345800781249,9.851280732421634
1.755782143745337,-0.51714755859375,2.480392919921875,9.504980590820312,9.836892124366765
1.7582690872917184,-0.5123591552734374,2.480392919921875,9.485826977539062,9.818134975085592
1.7607560308380998,-0.5123591552734374,2.4756045166015626,9.485826977539062,9.816926355760158
1.7632429743844813,-0.507570751953125,2.4756045166015626,9.481038574218749,9.812050664192485
1.765729917930863,-0.507570751953125,2.4756045166015626,9.485826977539062,9.81667760694341
1.7682168614772444,-0.507570751953125,2.4756045166015626,9.476250170898437,9.80742387644732
1.770703805023626,-0.5123591552734374,2.47081611328125,9.471461767578125,9.801838204354166
1.7731907485700074,-0.5123591552734374,2.461239306640625,9.457096557617186,9.785544753800892
1.7756776921163888,-0.5027823486328125,2.4660277099609376,9.442731347656249,9.772372181840083
1.7781646356627703,-0.5123591552734374,2.461239306640625,9.4618849609375,9.790172513421842
1.780651579209152,-0.51714755859375,2.461239306640625,9.481038574218749,9.808936383101695
1.7831385227555334,-0.51714755859375,2.4660277099609376,9.485826977539062,9.81476681900607
1.7856254663019149,-0.5123591552734374,2.4660277099609376,9.495403784179686,9.823772065500176
1.7881124098482963,-0.507570751953125,2.4660277099609376,9.519345800781249,9.846667721081333
1.7905993533946778,-0.507570751953125,2.461239306640625,9.528922607421874,9.854729476298514
1.7930862969410593,-0.51714755859375,2.47081611328125,9.524134204101562,9.852994783351255
1.795573240487441,-0.5267243652343749,2.4756045166015626,9.524134204101562,9.854703882780392
1.7980601840338224,-0.5267243652343749,2.4756045166015626,9.514557397460937,9.845448631176147
1.8005471275802039,-0.5267243652343749,2.4947581298828125,9.504980590820312,9.841032096046572
1.8030340711265853,-0.5267243652343749,2.5043349365234375,9.490615380859374,9.829593701604757
1.8055210146729668,-0.5315127685546874,2.5139117431640625,9.471461767578125,9.813808949141459
1.8080079582193482,-0.5363011718749999,2.5234885498046875,9.476250170898437,9.821147117796501
1.81049490176573,-0.5315127685546874,2.5234885498046875,9.471461767578125,9.816266515270772
1.8129818453121114,-0.5315127685546874,2.5234885498046875,9.481038574218749,9.825507250516683
1.8154687888584928,-0.5363011718749999,2.5234885498046875,9.5001921875,9.844250352738186
1.8179557324048743,-0.5315127685546874,2.528276953125,9.490615380859374,9.835978369346092
1.8204426759512558,-0.5267243652343749,2.5330653564453125,9.485826977539062,9.832332993992974
1.8229296194976372,-0.5315127685546874,2.5330653564453125,9.485826977539062,9.832590674434076
1.825416563044019,-0.5267243652343749,2.528276953125,9.490615380859374,9.83572077765728
1.8279035065904004,-0.5267243652343749,2.528276953125,9.485826977539062,9.831100465178984
1.8303904501367818,-0.5267243652343749,2.5330653564453125,9.481038574218749,9.827713421889085
1.8328773936831633,-0.5410895751953124,2.5330653564453125,9.481038574218749,9.828493804964845
1.8353643372295447,-0.5506663818359374,2.528276953125,9.476250170898437,9.82317337306229
1.8378512807759262,-0.5363011718749999,2.528276953125,9.4618849609375,9.808520291699088
1.8403382243223079,-0.5315127685546874,2.5330653564453125,9.457096557617186,9.804876400202856
1.8428251678686893,-0.5315127685546874,2.528276953125,9.466673364257812,9.812879025056205
1.8453121114150708,-0.5363011718749999,2.5234885498046875,9.476250170898437,9.821147117796501
1.8477990549614522,-0.5410895751953124,2.528276953125,9.490615380859374,9.836500525465985
1.8502859985078337,-0.5363011718749999,2.528276953125,9.504980590820312,9.85009945790033
1.8527729420542152,-0.5363011718749999,2.5234885498046875,9.514557397460937,9.858114215078283
1.8552598856005968,-0.5363011718749999,2.5234885498046875,9.519345800781249,9.862735821403788
1.8577468291469783,-0.5363011718749999,2.5234885498046875,9.509768994140625,9.853492768042623
1.8602337726933598,-0.5363011718749999,2.5234885498046875,9.5001921875,9.844250352738186
1.8627207162397412,-0.5363011718749999,2.5330653564453125,9.509768994140625,9.855949744641372
1.8652076597861227,-0.5363011718749999,2.5426421630859375,9.514557397460937,9.863034552612877
1.8676946033325041,-0.5267243652343749,2.5522189697265625,9.514557397460937,9.864991773739211
1.8701815468788858,-0.5123591552734374,2.5617957763671875,9.5001921875,9.85286562900567
1.8726684904252673,-0.5123591552734374,2.5617957763671875,9.481038574218749,9.834398911455095
1.8751554339716487,-0.51714755859375,2.5617957763671875,9.476250170898437,9.830033392548822
1.8776423775180302,-0.5123591552734374,2.5570073730468748,9.485826977539062,9.837769668863794
1.8801293210644117,-0.5123591552734374,2.5522189697265625,9.495403784179686,9.845761859705856
1.8826162646107931,-0.5267243652343749,2.5426421630859375,9.504980590820312,9.853279847761593
1.8851032081571748,-0.51714755859375,2.5378537597656248,9.509768994140625,9.856157954559901
1.8875901517035563,-0.5123591552734374,2.528276953125,9.490615380859374,9.834961950261937
1.8900770952499377,-0.51714755859375,2.5139117431640625,9.490615380859374,9.831529593973777
1.8925640387963192,-2.6240450195312497,-5.406107348632812,8.963891015625,10.791800177425037
1.8950509823427006,-3.897760302734375,-4.6351744140625,8.834604125976561,10.711097389580289
1.897537925889082,-4.984727856445312,-3.7301661865234372,8.729259252929687,10.722015607466874
1.9000248694354638,-5.894524487304687,-2.729389892578125,8.662221606445312,10.827237472056767
1.9025118129818452,-6.593631372070312,-1.68551796875,8.643067993164061,11.000889501680579
1.9049987565282267,-7.062894897460937,-0.6416460449218749,8.652644799804687,11.187692166444817
1.9074857000746082,-7.340622290039062,0.37828386230468747,8.695740429687499,11.38612031844035
1.9099726436209896,-7.426813549804687,1.3455413330078123,8.762778076171875,11.565220300307011
1.9124595871673713,-7.321468676757812,2.231395947265625,8.839392529296875,11.692642633092344
1.9149465307137528,-7.043741284179687,3.0023288818359375,8.935160595703124,11.7671306980151
1.9174334742601342,-6.622361791992187,3.6583401367187496,9.045293872070312,11.792220719274129
1.9199204178065157,-6.0716954101562495,4.199429711914062,9.17458076171875,11.775976698869563
1.9224073613528971,-5.410895751953125,4.620809204101562,9.299079248046874,11.709079613730111
1.9248943048992786,-4.678270043945313,4.92247861328125,9.414000927734374,11.607774109176619
1.9273812484456603,-3.897760302734375,5.109226342773437,9.524134204101562,11.489380380899542
1.9298681919920417,-3.0837317382812497,5.176263989257812,9.619902270507811,11.35101889762728
1.9323551355384232,-2.2601263671875,5.1523219726562495,9.706093530273437,11.218861106368527
1.9348420790848047,-1.4604630126953124,5.046977099609375,9.773131176757811,11.09590118257855
1.9373290226311861,-0.6943184814453125,4.8650177734375,9.830592016601562,10.990496598716987
1.9398159661775676,0.023942016601562498,4.630386010742187,9.859322436523437,10.892533531551342
1.9423029097239493,0.6703764648437499,4.367023828124999,9.868899243164062,10.812745904336795
1.9447898532703307,1.2401964599609374,4.060566015625,9.873687646484374,10.747836590071811
1.9472767968167122,1.7190367919921874,3.744531396484375,9.859322436523437,10.685637172336259
1.9497637403630936,2.1068974609374997,3.423708374023437,9.82580361328125,10.616365319073848
1.952250683909475,2.398990063476562,3.1076737548828124,9.792284790039062,10.549958810378223
1.9547376274558566,2.5905261962890624,2.81558115234375,9.753977563476562,10.477518862206711
1.9572245710022382,2.6815058593749996,2.5522189697265625,9.710881933593749,10.392570580539351
1.9597115145486197,2.6910826660156246,2.308010400390625,9.662997900390625,10.292830822790913
1.9621984580950012,2.6144682128906247,2.1021090576171875,9.605537060546874,10.174509754669815
1.9646854016413826,2.461239306640625,1.9393033447265624,9.543287817382812,10.044547712706015
1.967172345187764,2.2361843505859373,1.8195932617187498,9.5001921875,9.92799535089203
1.9696592887341455,1.9632453613281249,1.7286135986328124,9.4618849609375,9.816807237394952
1.9721462322805272,1.6519991455078125,1.6807295654296874,9.418789331054686,9.709147517246691
1.9746331758269087,1.3024457031249999,1.6711527587890624,9.399635717773437,9.63546926618726
1.9771201193732901,0.928950244140625,1.675941162109375,9.3852705078125,9.578884582233808
1.9796070629196716,0.55545478515625,1.7094599853515624,9.375693701171874,9.54643471868242
1.982094006466053,0.1771709228515625,1.7764976318359373,9.370905297851563,9.53945488343675
1.9845809500124345,-0.201112939453125,1.848323681640625,9.356540087890625,9.53947531381225
1.9870678935588162,-0.55545478515625,1.9297265380859374,9.342174877929686,9.555553672078172
1.9895548371051976,-0.8858546142578124,2.0302830078125,9.34696328125,9.60585811213396
1.992041780651579,-1.1731588134765625,2.1212626708984375,9.361328491210937,9.670084179620286
1.9945287241979606,-1.4221557861328125,2.221819140625,9.370905297851563,9.735136027554065
1.997015667744342,-1.637633935546875,2.31758720703125,9.375693701171874,9.795748452632072
1.9995026112907235,-1.8100164550781248,2.408566870117187,9.3852705078125,9.857010522480676
2.001989554837105,-1.93451494140625,2.5043349365234375,9.409212524414063,9.927100375356659
2.0044764983834864,-2.0063409912109376,2.5761609863281247,9.423577734375,9.973255582621988
2.006963441929868,-2.039859814453125,2.6384102294921874,9.433154541015625,10.005330639034048
2.0094503854762498,-2.0302830078125,2.6815058593749996,9.452308154296874,10.032878560486107
2.011937329022631,-1.9728221679687499,2.7150246826171873,9.471461767578125,10.048481196098425
2.0144242725690127,-1.8914193115234375,2.7437551025390623,9.490615380859374,10.058699686446428
2.016911216115394,-1.7812860351562498,2.7581203125,9.514557397460937,10.065138353090155
2.0193981596617756,-1.6472107421875,2.7629087158203123,9.552864624023437,10.07989039256143
2.021885103208157,-1.5035586425781249,2.7581203125,9.572018237304688,10.0742964709795
2.0243720467545385,-1.3311761230468748,2.748543505859375,9.591171850585937,10.065639509819727
2.02685899030092,-1.1444283935546875,2.7341782958984373,9.610325463867188,10.057027534176802
2.0293459338473014,-0.9576806640625,2.7198130859375,9.600748657226562,10.024415706463579
2.031832877393683,-0.7852981445312499,2.7054478759765623,9.576806640625,9.982553121188458
2.0343198209400644,-0.622492431640625,2.6815058593749996,9.562441430664062,9.950791758256871
2.036806764486446,-0.4644751220703125,2.6479870361328124,9.552864624023437,9.923950574618361
2.0392937080328277,-0.316034619140625,2.6240450195312497,9.533711010742186,9.89328741022765
2.041780651579209,-0.181959326171875,2.6001030029296874,9.528922607421874,9.878968108079942
2.0442675951255906,-0.08140285644531249,2.5617957763671875,9.504980590820312,9.84449491120398
2.046754538671972,0.0143652099609375,2.528276953125,9.504980590820312,9.835499313346075
2.0492414822183536,0.086191259765625,2.50912333984375,9.519345800781249,9.844850092442252
2.0517284257647352,0.12449848632812499,2.4899697265625,9.495403784179686,9.817236990972035
2.0542153693111165,0.16280571289062498,2.4756045166015626,9.452308154296874,9.772474244865272
2.056702312857498,-1.7094599853515624,-4.395754248046875,8.815450512695312,9.997853599274215
2.0591892564038794,-2.47081611328125,-3.821145849609375,8.71489404296875,9.83135118128782
2.061676199950261,-3.0741549316406247,-3.1316157714843746,8.652644799804687,9.701840439603567
2.0641631434966423,-3.5194764404296874,-2.365471240234375,8.63827958984375,9.622995525065294
2.066650087043024,-3.816357446289062,-1.5514426757812498,8.657433203124999,9.587633086463645
2.0691370305894057,-3.9600095458984375,-0.6943184814453125,8.686163623046875,9.571478059507115
2.071623974135787,-3.9456443359374997,0.17238251953125,8.743624462890624,9.594206257258334
2.0741109176821686,-3.821145849609375,1.0295067138671874,8.815450512695312,9.662981290454029
2.07659786122855,-3.5960908935546874,1.8626888916015625,8.877699755859375,9.757819048167905
2.0790848047749315,-3.2704794677734372,2.6575638427734374,8.94473740234375,9.88772009739513
2.081571748321313,-2.863465185546875,3.380612744140625,9.04050546875,10.067706517632686
2.0840586918676944,-2.418143676757812,4.017470385742187,9.141061938476563,10.27358265187097
2.086545635414076,-1.9536685546875,4.582501977539062,9.227253198242186,10.48610255434281
2.0890325789604574,-1.4796166259765624,5.061342309570312,9.318232861328125,10.70681628648069
2.091519522506839,-1.024718310546875,5.430049365234375,9.394847314453125,10.899478876842663
2.0940064660532203,-0.584185205078125,5.7077767578125,9.471461767578125,11.07377875368435
2.096493409599602,-0.201112939453125,5.889736083984375,9.548076220703125,11.220302895633413
2.0989803531459836,0.13407529296874998,5.971138940429687,9.600748657226562,11.306938188976627
2.101467296692365,0.411802685546875,5.966350537109375,9.643844287109374,11.347715753291544
2.1039542402387466,0.622492431640625,5.865794067382812,9.686939916992188,11.341597851440945
2.106441183785128,0.7757213378906249,5.698199951171874,9.730035546875,11.302425315879997
2.1089281273315095,0.86191259765625,5.468356591796875,9.7683427734375,11.227926686633445
2.111415070877891,0.8810662109374999,5.185840795898438,9.797073193359374,11.119886041884653
2.1139020144242724,0.852335791015625,4.84586416015625,9.80665,10.971748264603644
2.116388957970654,0.7613561279296874,4.491522314453125,9.797073193359374,10.804447186728586
2.1188759015170353,0.6416460449218749,4.103661645507812,9.782707983398437,10.62794072415834
2.121362845063417,0.488417138671875,3.7158009765625,9.7683427734375,10.46261194626561
2.1238497886097982,0.3016694091796875,3.327940307617187,9.744400756835937,10.30143374648999
2.12633673215618,0.1197100830078125,2.9544448486328125,9.720458740234374,10.160235872664844
2.1288236757025616,-0.076614453125,2.6001030029296874,9.672574707031249,10.016242152792247
2.131310619248943,-0.277727392578125,2.2601263671875,9.629479077148437,9.895057907737778
2.1337975627953245,-0.4644751220703125,1.9536685546875,9.605537060546874,9.813200302762422
2.1362845063417057,-0.6272808349609375,1.6903063720703124,9.567229833984374,9.7356306202347
2.1387714498880874,-0.7709329345703124,1.465251416015625,9.533711010742186,9.676411780101535
2.141258393434469,-0.9002198242187499,1.2785036865234374,9.495403784179686,9.623287402597116
2.1437453369808503,-0.9911994873046874,1.13006318359375,9.466673364257812,9.58527119116071
2.146232280527232,-1.0630255371093749,1.0342951171875,9.437942944335937,9.553771857362152
2.1487192240736133,-1.1109095703125,0.9816226806640624,9.399635717773437,9.515821288120545
2.151206167619995,-1.13006318359375,0.9624690673828125,9.3852705078125,9.501930962146478
2.153693111166376,-1.1156979736328125,0.97683427734375,9.399635717773437,9.515888755161244
2.156180054712758,-1.0773907470703123,1.0295067138671874,9.399635717773437,9.517027189338723
2.1586669982591395,-1.0342951171875,1.1156979736328125,9.390058911132812,9.512505175417829
2.161153941805521,-0.967257470703125,1.2306196533203124,9.390058911132812,9.519622791913235
2.1636408853519025,-0.8906430175781249,1.3646949462890625,9.399635717773437,9.539852666998046
2.1661278288982837,-0.8044517578125,1.5179238525390624,9.404424121093749,9.560043331604966
2.1686147724446654,-0.718260498046875,1.6711527587890624,9.409212524414063,9.583419536671308
2.171101715991047,-0.6272808349609375,1.8435352783203125,9.404424121093749,9.603920898140029
2.1735886595374283,-0.5315127685546874,2.020706201171875,9.409212524414063,9.638414792079743
2.17607560308381,-0.469263525390625,2.1787235107421874,9.428366137695312,9.688195519236924
2.178562546630191,-0.4070142822265625,2.3367408203125,9.452308154296874,9.745365448819163
2.181049490176573,-0.3447650390625,2.4947581298828125,9.466673364257812,9.795947409226148
2.1835364337229546,-0.296881005859375,2.6479870361328124,9.476250170898437,9.843743748016816
2.186023377269336,-0.26815058593749996,2.7820623291015623,9.490615380859374,9.893611870654173
2.1885103208157175,-0.2537853759765625,2.896984008789062,9.504980590820312,9.939898359445632
2.1909972643620987,-0.2442085693359375,2.9927520751953125,9.495403784179686,9.958860167385465
2.1934842079084804,-0.24899697265624998,3.0645781249999997,9.504980590820312,9.989909639655973
2.1959711514548617,-0.26815058593749996,3.1316157714843746,9.519345800781249,10.024812544471837
2.1984580950012433,-0.28730419921875,3.1747114013671873,9.519345800781249,10.03888841753464
2.200945038547625,-0.3112462158203125,3.1842882080078123,9.504980590820312,10.029018976469779
2.2034319820940063,-0.354341845703125,3.189076611328125,9.509768994140625,10.036507066627054
2.205918925640388,-0.39743747558593745,3.1747114013671873,9.524134204101562,10.047182757704183
2.208405869186769,-0.43574470214843747,3.1507693847656246,9.5384994140625,10.054859135437823
2.210892812733151,-0.47884033203125,3.1124621582031247,9.5384994140625,10.044883265717772
2.2133797562795325,-0.51714755859375,3.0645781249999997,9.528922607421874,10.022946011020098
2.2158666998259138,-0.55545478515625,3.0023288818359375,9.519345800781249,9.99702221703597
2.2183536433722955,-0.5889736083984375,2.9448680419921875,9.514557397460937,9.97727117831902
2.2208405869186767,-0.612915625,2.868253588867187,9.509768994140625,9.951796347159494
2.2233275304650584,-0.63206923828125,2.7964275390625,9.519345800781249,9.94170322319371
2.2258144740114396,-0.6512228515624999,2.729389892578125,9.5384994140625,9.942667220629255
2.2283014175578213,-0.6607996582031249,2.6575638427734374,9.5384994140625,9.923823498973
2.230788361104203,-2.2553379638671873,-1.924938134765625,9.255983618164063,9.719319363703255
2.233275304650584,-3.0119056884765625,-1.5945383056640625,9.188945971679686,9.800553880008815
2.235762248196966,-3.6104561035156246,-1.158793603515625,9.150638745117186,9.90516962674551
2.238249191743347,-4.046200805664062,-0.6416460449218749,9.131485131835937,10.008370063085255
2.240736135289729,-7.805097412109374,-5.396530541992187,8.700528833007812,12.874054896464099
2.2432230788361105,-9.543287817382812,-4.352658618164062,8.619125976562499,13.57605657072552
2.2457100223824917,-10.802637890625,-3.2130186279296873,8.571241943359375,14.159331288976649
2.2481969659288734,-11.592724438476562,-2.020706201171875,8.552088330078124,14.546914733487808
2.2506839094752547,-11.9518546875,-0.8188169677734375,8.56166513671875,14.724788677978868
2.2531708530216363,-11.908759057617187,0.373495458984375,8.614337573242187,14.702545799147623
2.2556577965680176,-11.511321582031249,1.5179238525390624,8.686163623046875,14.500484677188837
2.2581447401143993,-10.82179150390625,2.5761609863281247,8.762778076171875,14.161004780513812
2.260631683660781,-9.888052856445311,3.5386300537109374,8.844180932617187,13.730077505890197
2.263118627207162,-8.767566479492187,4.376600634765625,8.935160595703124,13.261295184089361
2.265605570753544,-7.50821640625,5.070919116210937,9.045293872070312,12.802533949119132
2.268092514299925,-6.177040283203125,5.6311623046875,9.17458076171875,12.41123473774255
2.2705794578463068,-4.821922143554687,6.0525417968749995,9.294290844726563,12.094132365233559
2.2730664013926885,-3.4811692138671875,6.335057592773437,9.409212524414063,11.865275981995678
2.2755533449390697,-2.1930887207031247,6.4739212890625,9.519345800781249,11.719182542682042
2.2780402884854514,-0.9959878906249999,6.488286499023437,9.605537060546874,11.634268167496439
2.2805272320318326,0.08140285644531249,6.373364819335937,9.682151513671874,11.59182744346572
2.2830141755782143,1.0103531005859374,6.1626750732421876,9.749189160156249,11.577826511341943
2.2855011191245955,1.7956512451171873,5.884947680664062,9.80665,11.577018477170373
2.287988062670977,2.427720483398437,5.5258174316406246,9.859322436523437,11.560048613248568
2.290475006217359,2.882618798828125,5.104437939453125,9.888052856445311,11.495145371370562
2.29296194976374,3.189076611328125,4.668693237304687,9.888052856445311,11.390368539640448
2.295448893310122,3.342305517578125,4.204218115234375,9.892841259765625,11.256765269126792
2.297935836856503,3.356670727539062,3.73495458984375,9.883264453125,11.085848655457854
2.3004227804028847,3.2561142578125,3.27526787109375,9.854534033203125,10.883083234952652
2.3029097239492664,3.0406361083984375,2.844311572265625,9.821015209960937,10.667141886096042
2.3053966674956476,2.7341782958984373,2.446874096679687,9.782707983398437,10.44817205482431
2.3078836110420293,2.365471240234375,2.0829554443359375,9.739612353515625,10.236904139837339
2.3103705545884106,1.9488801513671874,1.7621324218749999,9.686939916992188,10.036934266599172
2.3128574981347922,1.4987702392578124,1.4939818359375,9.648632690429688,9.87797584280426
2.315344441681174,1.0342951171875,1.2880804931640624,9.624690673828125,9.765428219652314
2.317831385227555,0.5746083984375,1.139639990234375,9.581595043945311,9.66622561836075
2.320318328773937,0.13407529296874998,1.0438719238281249,9.5384994140625,9.596385561742084
2.322805272320318,-0.277727392578125,0.9911994873046874,9.504980590820312,9.56055777452823
2.3252922158666998,-0.6512228515624999,0.9816226806640624,9.466673364257812,9.53968442219865
2.327779159413081,-0.9816226806640624,1.01514150390625,9.428366137695312,9.533529429680634
2.3302661029594627,-1.2593500732421874,1.0965443603515623,9.3852705078125,9.532663565132728
2.3327530465058444,-1.4939818359375,1.2114660400390624,9.361328491210937,9.55688771581192
2.3352399900522256,-1.656787548828125,1.3455413330078123,9.351751684570312,9.592220078305543
2.3377269335986073,-1.7669208251953124,1.5035586425781249,9.337386474609374,9.621303652333104
2.3402138771449885,-1.8291700683593748,1.6807295654296874,9.327809667968749,9.65291397521715
2.34270082069137,-1.8435352783203125,1.8626888916015625,9.327809667968749,9.688976490381153
2.345187764237752,-1.8148048583984373,2.0302830078125,9.327809667968749,9.71718060796083
2.347674707784133,-1.7477672119140624,2.2074539306640624,9.327809667968749,9.743488917471879
2.350161651330515,-1.6519991455078125,2.384624853515625,9.323021264648437,9.763926585644215
2.352648594876896,-1.5322890624999999,2.5378537597656248,9.342174877929686,9.801267414310978
2.3551355384232777,-1.4030021728515625,2.6671406494140624,9.370905297851563,9.84357254466515
2.357622481969659,-1.254561669921875,2.786850732421875,9.394847314453125,9.879454339705438
2.3601094255160406,-1.0917559570312498,2.882618798828125,9.428366137695312,9.919451105555696
2.3625963690624223,-0.9241618408203125,2.959233251953125,9.442731347656249,9.93862726192624
2.3650833126088036,-0.7805097412109374,3.0166940917968748,9.466673364257812,9.966320448648823
2.3675702561551852,-0.6368576416015624,3.0597897216796874,9.495403784179686,9.99652908869758
2.3700571997015665,-0.5123591552734374,3.0789433349609374,9.519345800781249,10.018001219741615
2.372544143247948,-0.4070142822265625,3.0789433349609374,9.528922607421874,10.022271137026403
2.37503108679433,-0.3064578125,3.0693665283203124,9.533711010742186,10.020308024824494
2.377518030340711,-0.2154781494140625,3.0310593017578125,9.543287817382812,10.015392837480448
2.3800049738870928,-0.15322890625,2.987963671875,9.557653027343749,10.014995626222133
2.382491917433474,-0.1149216796875,2.940079638671875,9.576806640625,10.018607722938064
2.3849788609798557,-0.086191259765625,2.877830395507812,9.591171850585937,10.013985928991547
2.387465804526237,-0.076614453125,2.81558115234375,9.586383447265625,9.991602203744371
2.3899527480726186,-0.086191259765625,2.7437551025390623,9.581595043945311,9.967075026412035
2.3924396916190003,-0.105344873046875,2.6671406494140624,9.581595043945311,9.94644159346404
2.3949266351653815,-0.143652099609375,2.6144682128906247,9.581595043945311,9.932927239645673
2.397413578711763,-0.181959326171875,2.5570073730468748,9.567229833984374,9.90471012188028
2.3999005222581444,-0.229843359375,2.4947581298828125,9.543287817382812,9.866660451331665
2.402387465804526,-0.277727392578125,2.442085693359375,9.5384994140625,9.850070360681158
2.404874409350908,-0.32561142578124996,2.403778466796875,9.5384994140625,9.842110789363545
2.407361352897289,-0.37828386230468747,2.365471240234375,9.533711010742186,9.830066047855574
2.4098482964436707,-0.43574470214843747,2.3367408203125,9.519345800781249,9.811634704860182
2.412335239990052,-0.4836287353515625,2.3223756103515623,9.495403784179686,9.787237519025858
2.4148221835364336,-0.5267243652343749,2.3223756103515623,9.485826977539062,9.78017282466395
2.417309127082815,-0.5602431884765625,2.3127988037109373,9.481038574218749,9.775121645407028
2.4197960706291965,-0.5889736083984375,2.3127988037109373,9.4618849609375,9.758237301472631
2.4222830141755782,-0.622492431640625,2.3127988037109373,9.437942944335937,9.737109537970552
2.4247699577219595,-0.6464344482421874,2.31758720703125,9.442731347656249,9.74444781719719
2.427256901268341,-0.6607996582031249,2.3319524169921872,9.442731347656249,9.74883754954441
2.4297438448147224,-0.6703764648437499,2.3511060302734372,9.452308154296874,9.763361798785892
2.432230788361104,-0.679953271484375,2.365471240234375,9.457096557617186,9.772126991595693
2.4347177319074857,-0.679953271484375,2.375048046875,9.4618849609375,9.779082609855706
2.437204675453867,-0.6703764648437499,2.398990063476562,9.4618849609375,9.784264149300698
2.4396916190002487,-0.6607996582031249,2.43250888671875,9.4618849609375,9.791885553164022
2.44217856254663,-0.6464344482421874,2.4516625,9.457096557617186,9.791077663356331
2.4446655060930116,-0.6368576416015624,2.4756045166015626,9.4618849609375,9.801095468992209
2.4471524496393933,-0.6177040283203125,2.499546533203125,9.481038574218749,9.824427901108278
2.4496393931857745,-0.603338818359375,2.528276953125,9.481038574218749,9.830884727595285
2.452126336732156,-0.584185205078125,2.5378537597656248,9.481038574218749,9.832195406195535
2.4546132802785374,-0.565031591796875,2.5426421630859375,9.495403784179686,9.8461658981476
2.457100223824919,-0.5363011718749999,2.5570073730468748,9.5001921875,9.85289588152674
2.4595871673713003,-0.5027823486328125,2.5665841796874997,9.485826977539062,9.83976919898667
2.462074110917682,-0.49799394531249996,2.5665841796874997,9.490615380859374,9.844142046333676
2.4645610544640637,-0.5027823486328125,2.5617957763671875,9.504980590820312,9.856989587180273
2.467047998010445,-0.49320554199218747,2.5713725830078125,9.490615380859374,9.845150530829917
2.4695349415568266,-0.4836287353515625,2.5761609863281247,9.485826977539062,9.841311682339134
2.472021885103208,-0.4836287353515625,2.5809493896484375,9.495403784179686,9.851796259068612
2.4745088286495895,-0.4644751220703125,2.5857377929687497,9.504980590820312,9.861360611238187
2.4769957721959712,-0.45968671875,2.5809493896484375,9.514557397460937,9.869114149755308
2.4794827157423525,-0.4644751220703125,2.5713725830078125,9.504980590820312,9.857603670849084
2.481969659288734,-0.4644751220703125,2.5617957763671875,9.509768994140625,9.859728244771931
2.4844566028351154,-0.47884033203125,2.5570073730468748,9.509768994140625,9.859172434404131
2.486943546381497,-0.4836287353515625,2.5570073730468748,9.509768994140625,9.859406157644193
2.4894304899278783,-0.4740519287109375,2.5378537597656248,9.514557397460937,9.85861194117355
2.49191743347426,-0.469263525390625,2.5378537597656248,9.524134204101562,9.867625970817695
2.4944043770206417,-0.507570751953125,2.528276953125,9.524134204101562,9.86706363401385
2.496891320567023,-0.5123591552734374,2.5234885498046875,9.519345800781249,9.861462915807142
2.4993782641134046,-0.507570751953125,2.518700146484375,9.519345800781249,9.859991022865602
2.501865207659786,-0.51714755859375,2.5139117431640625,9.514557397460937,9.854643388746053
2.5043521512061675,-0.5267243652343749,2.50912333984375,9.509768994140625,9.849306818928863
2.506839094752549,-0.5267243652343749,2.5043349365234375,9.495403784179686,9.834217053524766
2.5093260382989304,-0.5267243652343749,2.5043349365234375,9.485826977539062,9.824970507794477
2.511812981845312,-0.5267243652343749,2.5043349365234375,9.485826977539062,9.824970507794477
2.5142999253916933,-0.5315127685546874,2.499546533203125,9.495403784179686,9.833256414809812
2.516786868938075,-0.5267243652343749,2.4947581298828125,9.490615380859374,9.827158134015777
2.5192738124844563,-0.5267243652343749,2.4851813232421875,9.495403784179686,9.829356936795877
2.521760756030838,-0.5363011718749999,2.4947581298828125,9.495403784179686,9.832300346215263
2.5242476995772196,-0.5315127685546874,2.4899697265625,9.481038574218749,9.81695204776708
2.526734643123601,-0.5267243652343749,2.4899697265625,9.476250170898437,9.812069358579869
2.5292215866699825,-0.5315127685546874,2.4899697265625,9.481038574218749,9.81695204776708
2.5317085302163638,-0.5267243652343749,2.4899697265625,9.476250170898437,9.812069358579869
2.5341954737627455,-0.5267243652343749,2.4851813232421875,9.466673364257812,9.80160544767395
2.536682417309127,-0.5267243652343749,2.4899697265625,9.4618849609375,9.79819650803884
2.5391693608555084,-0.5315127685546874,2.4899697265625,9.452308154296874,9.78920755251014
2.54165630440189,-0.5267243652343749,2.499546533203125,9.447519750976562,9.786766619965531
2.5441432479482713,-0.51714755859375,2.499546533203125,9.457096557617186,9.795501506768403
2.546630191494653,-0.5123591552734374,2.499546533203125,9.476250170898437,9.81374353022805
2.549117135041034,-0.5267243652343749,2.4851813232421875,9.504980590820312,9.838608682033968
2.551604078587416,-0.5219359619140624,2.480392919921875,9.519345800781249,9.851025868425548
2.5540910221337976,-0.5123591552734374,2.4756045166015626,9.509768994140625,9.840062802062238
2.556577965680179,-0.51714755859375,2.4660277099609376,9.514557397460937,9.842537108552515
2.5590649092265605,-0.5267243652343749,2.4516625,9.519345800781249,9.844086145787703
2.5615518527729417,-0.5267243652343749,2.4660277099609376,9.509768994140625,9.83841641450214
2.5640387963193234,-0.5267243652343749,2.480392919921875,9.504980590820312,9.837400247321492
2.566525739865705,-0.5267243652343749,2.4660277099609376,9.504980590820312,9.833788042005867
2.5690126834120863,-0.5363011718749999,2.4660277099609376,9.509768994140625,9.838933780403652
2.571499626958468,-0.5315127685546874,2.47081611328125,9.509768994140625,9.839875223330088
2.5739865705048492,-0.5315127685546874,2.4660277099609376,9.509768994140625,9.838673935615015
2.576473514051231,-0.5267243652343749,2.4660277099609376,9.528922607421874,9.85693143333474
2.5789604575976126,-0.5219359619140624,2.47081611328125,9.524134204101562,9.85324726938925
2.581447401143994,-0.5219359619140624,2.480392919921875,9.5001921875,9.832518384675096
2.5839343446903755,-0.5219359619140624,2.4851813232421875,9.490615380859374,9.82447574505304
2.5864212882367568,-0.51714755859375,2.4851813232421875,9.485826977539062,9.81959679694432
2.5889082317831384,-0.5123591552734374,2.4899697265625,9.485826977539062,9.820558771831575
2.5913951753295197,-0.5267243652343749,2.4899697265625,9.490615380859374,9.825943624076713
2.5938821188759014,-0.5315127685546874,2.4899697265625,9.485826977539062,9.821576681477483
2.596369062422283,-0.5267243652343749,2.4947581298828125,9.495403784179686,9.831782631250645
2.5988560059686643,-0.5123591552734374,2.5139117431640625,9.509768994140625,9.849770072358496
2.601342949515046,-0.5123591552734374,2.518700146484375,9.5001921875,9.841748520020666
2.603829893061427,-0.5123591552734374,2.5139117431640625,9.495403784179686,9.83590144221792
2.606316836607809,-0.51714755859375,2.528276953125,9.495403784179686,9.839833279770364
2.6088037801541906,-0.5267243652343749,2.5139117431640625,9.490615380859374,9.832037994065841
2.611290723700572,-0.5267243652343749,2.50912333984375,9.490615380859374,9.830814757632488
2.6137776672469535,-0.5219359619140624,2.518700146484375,9.490615380859374,9.83300807909991
2.6162646107933347,-0.51714755859375,2.50912333984375,9.490615380859374,9.830306294277541
2.6187515543397164,-0.51714755859375,2.5043349365234375,9.5001921875,9.838332514765261
2.6212384978860976,-0.507570751953125,2.50912333984375,9.514557397460937,9.85292497040171
2.6237254414324793,-0.5219359619140624,2.5043349365234375,9.524134204101562,9.86170588490492
2.626212384978861,-0.5267243652343749,2.4947581298828125,9.504980590820312,9.841032096046572
2.6286993285252422,-0.5123591552734374,2.4899697265625,9.495403784179686,9.829809467522967
2.631186272071624,-0.51714755859375,2.4947581298828125,9.5001921875,9.835899111083434
2.633673215618005,-0.51714755859375,2.4947581298828125,9.485826977539062,9.822024901810407
2.636160159164387,-0.51714755859375,2.499546533203125,9.481038574218749,9.818618381158885
2.6386471027107685,-0.5219359619140624,2.499546533203125,9.485826977539062,9.823495481130674
2.6411340462571498,-0.51714755859375,2.5043349365234375,9.476250170898437,9.815215350317281
2.6436209898035314,-0.51714755859375,2.5139117431640625,9.471461767578125,9.813041417647833
2.6461079333499127,-0.5219359619140624,2.5139117431640625,9.476250170898437,9.817916617195829
2.6485948768962944,-0.51714755859375,2.50912333984375,9.481038574218749,9.821060735874308
2.6510818204426756,-0.5267243652343749,2.5139117431640625,9.495403784179686,9.836660197138235
2.6535687639890573,-0.5267243652343749,2.518700146484375,9.490615380859374,9.833263410091101
2.656055707535439,-0.5267243652343749,2.518700146484375,9.485826977539062,9.828641942437411
2.65854265108182,-0.5219359619140624,2.518700146484375,9.481038574218749,9.823765063460314
2.661029594628202,-0.51714755859375,2.518700146484375,9.485826977539062,9.82813336667079
2.663516538174583,-0.5267243652343749,2.518700146484375,9.490615380859374,9.833263410091101
2.666003481720965,-0.5267243652343749,2.528276953125,9.490615380859374,9.83572077765728
2.6684904252673465,-0.5267243652343749,2.5330653564453125,9.495403784179686,9.841572622379458
2.6709773688137277,-0.5315127685546874,2.528276953125,9.495403784179686,9.84059872159482
2.6734643123601094,-0.5363011718749999,2.528276953125,9.476250170898437,9.822378561229973
2.6759512559064906,-0.5363011718749999,2.5234885498046875,9.4618849609375,9.807287108164271
2.6784381994528723,-0.5363011718749999,2.518700146484375,9.471461767578125,9.815297111628821
2.6809251429992536,-0.5410895751953124,2.5139117431640625,9.476250170898437,9.818953482029329
2.6834120865456352,-0.5363011718749999,2.5139117431640625,9.471461767578125,9.814069452274465
2.685899030092017,-0.5267243652343749,2.518700146484375,9.476250170898437,9.819399487050347
2.688385973638398,-0.5315127685546874,2.5139117431640625,9.476250170898437,9.81843039273628
2.69087291718478,-0.5363011718749999,2.5139117431640625,9.466673364257812,9.809448291566708
2.693359860731161,-0.5363011718749999,2.50912333984375,9.481038574218749,9.822087931154304
2.6958468042775428,-0.5363011718749999,2.5043349365234375,9.495403784179686,9.834734640337798
2.6983337478239244,-0.5363011718749999,2.5139117431640625,9.490615380859374,9.832555695584805
2.7008206913703057,-0.5363011718749999,2.5234885498046875,9.5001921875,9.844250352738186
2.7033076349166874,-0.5410895751953124,2.5139117431640625,9.519345800781249,9.860551437706453
2.7057945784630686,-0.5458779785156249,2.5139117431640625,9.533711010742186,9.874683825631749
2.7082815220094503,-0.5458779785156249,2.5139117431640625,9.528922607421874,9.870060844700106
2.7107684655558315,-0.5410895751953124,2.50912333984375,9.524134204101562,9.863955099282995
2.713255409102213,-0.5315127685546874,2.50912333984375,9.519345800781249,9.858810792004121
2.715742352648595,-0.5315127685546874,2.50912333984375,9.519345800781249,9.858810792004121
2.718229296194976,-0.5363011718749999,2.5043349365234375,9.524134204101562,9.862476603723005
2.720716239741358,-0.5410895751953124,2.499546533203125,9.504980590820312,9.843026304541894
2.723203183287739,-0.5363011718749999,2.499546533203125,9.5001921875,9.838140241836273
2.7256901268341207,-0.5363011718749999,2.4947581298828125,9.495403784179686,9.832300346215263
2.7281770703805024,-0.5267243652343749,2.4899697265625,9.495403784179686,9.8305686926415
2.7306640139268836,-0.5267243652343749,2.4851813232421875,9.476250170898437,9.810855317849509
2.7331509574732653,-0.5315127685546874,2.480392919921875,9.471461767578125,9.805276277343204
2.7356379010196465,-0.5363011718749999,2.480392919921875,9.485826977539062,9.819413497351098
2.7381248445660282,-0.5267243652343749,2.480392919921875,9.471461767578125,9.805017879067037
2.74061178811241,-0.51714755859375,2.461239306640625,9.466673364257812,9.795052072728385
2.743098731658791,-0.5267243652343749,2.4564509033203126,9.481038574218749,9.808245614949628
2.745585675205173,-0.5267243652343749,2.4564509033203126,9.485826977539062,9.81287435184832
2.748072618751554,-0.51714755859375,2.4660277099609376,9.490615380859374,9.819394816945655
2.7505595622979357,-0.5219359619140624,2.47081611328125,9.509768994140625,9.83936256756035
2.753046505844317,-0.5267243652343749,2.4660277099609376,9.519345800781249,9.847673618580092
2.7555334493906987,-0.5123591552734374,2.4660277099609376,9.519345800781249,9.846915712299934
2.7580203929370803,-4.3622354248046875,-4.410119458007812,8.920795385742187,10.865488569300469
2.7605073364834616,-5.961562133789062,-3.806780639648437,8.825027319335938,11.30985893371157
2.7629942800298433,-7.235277416992187,-3.0837317382812497,8.772354882812499,11.781886560501443
2.7654812235762245,-8.183381274414062,-2.27927998046875,8.743624462890624,12.190726600980588
2.767968167122606,-8.79150849609375,-1.407790576171875,8.743624462890624,12.478920814369577
2.770455110668988,-9.054870678710937,-0.5027823486328125,8.757989672851561,12.607373089111404
2.772942054215369,-9.0021982421875,0.4070142822265625,8.796296899414061,12.59285801397846
2.775428997761751,-8.662221606445312,1.2976572998046874,8.853757739257812,12.45419703282279
2.777915941308132,-8.06367119140625,2.1547814941406247,8.916006982421875,12.213150980856726
2.7804028848545137,-7.259219433593749,2.9496564453125,9.02135185546875,11.949122529734481
2.782889828400895,-6.277596752929687,3.6679169433593746,9.107543115234375,11.653719461683862
2.7853767719472766,-5.190629199218749,4.314351391601562,9.188945971679686,11.401446727694031
2.7878637154936583,-4.0222587890625,4.8650177734375,9.279925634765624,11.223367742742527
2.7903506590400395,-2.829946362304687,5.295974072265625,9.361328491210937,11.121618987718872
2.792837602586421,-1.6519991455078125,5.6311623046875,9.433154541015625,11.109612714814846
2.7953245461328025,-0.5363011718749999,5.8610056640625,9.495403784179686,11.171468093573964
2.797811489679184,0.488417138671875,5.97592734375,9.567229833984374,11.290799157517949
2.800298433225566,1.4030021728515625,6.004657763671875,9.648632690429688,11.45078349942394
2.802785376771947,2.1739351074218747,5.932831713867187,9.6917283203125,11.569532567528256
2.8052723203183287,2.77727392578125,5.7891796142578125,9.715670336914062,11.645690239764855
2.80775926386471,3.21780703125,5.578489868164062,9.739612353515625,11.676210005662163
2.8102462074110917,3.4907460205078125,5.2816088623046875,9.753977563476562,11.628446941138389
2.812733150957473,3.6056677001953124,4.936843823242187,9.749189160156249,11.50738700921388
2.8152200945038546,3.5721488769531247,4.568136767578125,9.749189160156249,11.343491984698746
2.8177070380502363,3.399766357421875,4.161122485351562,9.744400756835937,11.12774450340143
2.8201939815966175,3.0980969482421874,3.758896606445312,9.730035546875,10.881226959406035
2.822680925142999,2.710236279296875,3.356670727539062,9.706093530273437,10.621716936595066
2.8251678686893804,2.231395947265625,2.9496564453125,9.686939916992188,10.36901181281339
2.827654812235762,1.6903063720703124,2.5713725830078125,9.658209497070311,10.136572560851372
2.8301417557821438,1.120486376953125,2.2170307373046874,9.624690673828125,9.940089817399308
2.832628699328525,0.5458779785156249,1.89620771484375,9.600748657226562,9.801426490286957
2.8351156428749067,-0.01915361328125,1.6136919189453125,9.562441430664062,9.697662325790258
2.837602586421288,-0.5602431884765625,1.37906015625,9.528922607421874,9.644482640506247
2.8400895299676696,-1.0486603271484374,1.1875240234375,9.5001921875,9.63138377323904
2.842576473514051,-1.484405029296875,1.0390835205078124,9.481038574218749,9.65262893202762
2.8450634170604325,-1.8626888916015625,0.948103857421875,9.466673364257812,9.694659118138317
2.847550360606814,-2.1499930908203124,0.9097966308593749,9.447519750976562,9.73169202375365
2.8500373041531954,-2.360682836914062,0.9145850341796874,9.433154541015625,9.766969531841992
2.852524247699577,-2.4851813232421875,0.948103857421875,9.414000927734374,9.78255797842434
2.8550111912459584,-2.5378537597656248,1.024718310546875,9.399635717773437,9.789989833946137
2.85749813479234,-2.5139117431640625,1.139639990234375,9.394847314453125,9.791919506493437
2.8599850783387217,-2.418143676757812,1.2785036865234374,9.3852705078125,9.775750253699862
2.862472021885103,-2.269703173828125,1.4317325927734375,9.3852705078125,9.761388898067237
2.8649589654314846,-2.0733786376953125,1.608903515625,9.380482104492186,9.740683446788521
2.867445908977866,-1.8339584716796873,1.8004396484374998,9.3852705078125,9.730790775077148
2.8699328525242476,-1.5705962890624998,1.9823989746093749,9.399635717773437,9.733952435911702
2.8724197960706292,-1.2976572998046874,2.1595698974609374,9.409212524414063,9.740684623749312
2.8749067396170105,-1.0199299072265624,2.3319524169921872,9.428366137695312,9.765876669158304
2.877393683163392,-0.7565677246093749,2.5043349365234375,9.452308154296874,9.807661170737886
2.8798806267097734,-0.49799394531249996,2.6671406494140624,9.476250170898437,9.857025642392204
2.882367570256155,-3.27526787109375,-4.903325,8.973467822265624,10.737462476781026
2.8848545138025363,-4.6830584472656245,-4.0988732421875,8.896853369140624,10.857522652429303
2.887341457348918,-5.827486840820312,-3.1316157714843746,8.82981572265625,11.033234608047229
2.8898284008952997,-6.68461103515625,-2.059013427734375,8.786720092773438,11.23076181635385
2.892315344441681,-7.244854223632812,-0.9145850341796874,8.762778076171875,11.406605898279913
2.8948022879880626,-7.522581616210937,0.2537853759765625,8.757989672851561,11.547987889645059
2.897289231534444,-7.532158422851562,1.4030021728515625,8.777143286132812,11.650754047239442
2.8997761750808255,-7.297526660156249,2.4947581298828125,8.825027319335938,11.72001794663017
2.902263118627207,-6.847416748046874,3.4955344238281247,8.901641772460938,11.762019523654166
2.9047500621735884,-6.215347509765625,4.405331054687499,8.98304462890625,11.778479408372935
2.90723700571997,-5.425260961914062,5.166687182617188,9.0788126953125,11.770851834275073
2.9097239492663514,-4.548983154296875,5.779602807617187,9.17458076171875,11.758825983285618
2.912210892812733,-3.6056677001953124,6.253654736328125,9.270348828125,11.749400177053701
2.9146978363591143,-4.740519287109374,-1.3551181396484375,8.882488159179687,10.159107450058178
2.917184779905496,-4.57771357421875,-0.45968671875,8.892064965820312,10.011772710332108
2.9196717234518776,-4.304774584960938,0.45489831542968745,8.9255837890625,9.91988219084691
2.922158666998259,-3.9552211425781247,1.3359645263671873,8.98304462890625,9.905739059117696
2.9246456105446406,-3.5482068603515624,2.1595698974609374,9.054870678710937,9.962138177823293
2.927132554091022,-3.1076737548828124,2.935291235351562,9.131485131835937,10.082538941956035
2.9296194976374035,-2.6479870361328124,3.6104561035156246,9.217676391601563,10.247574673025294
2.932106441183785,-2.1883003173828124,4.1754876953124995,9.303867651367186,10.430019609134039
2.9345933847301664,-1.7477672119140624,4.649539624023437,9.390058911132812,10.622905219239724
2.937080328276548,-1.3263877197265623,5.008669873046875,9.466673364257812,10.791847981961066
2.9395672718229293,-0.9576806640625,5.267243652343749,9.5384994140625,10.938189019190762
2.942054215369311,-0.6272808349609375,5.425260961914062,9.605537060546874,11.049582796301292
2.9445411589156922,-0.33039982910156246,5.4779333984375,9.639055883789062,11.091813048171876
2.947028102462074,-0.11013327636718749,5.430049365234375,9.667786303710937,11.088897937201262
2.9495150460084556,0.062249243164062495,5.3007624755859375,9.706093530273437,11.059394622187524
2.952001989554837,0.19153613281249998,5.104437939453125,9.720458740234374,10.980860207128586
2.9544889331012185,0.277727392578125,4.84586416015625,9.725247143554688,10.869220945702304
2.9569758766475998,0.33039982910156246,4.544194750976562,9.739612353515625,10.75262380903505
2.9594628201939814,0.3447650390625,4.2137949218749995,9.725247143554688,10.604497280823733
2.961949763740363,0.33039982910156246,3.864241479492187,9.696516723632811,10.443369323670838
2.9644367072867444,0.2825157958984375,3.5003228271484375,9.667786303710937,10.285823597719792
2.966923650833126,0.2346317626953125,3.1364041748046874,9.643844287109374,10.143757481614488
2.9694105943795073,0.1771709228515625,2.7916391357421872,9.6151138671875,10.013743220149637
2.971897537925889,0.1149216796875,2.4756045166015626,9.586383447265625,9.901543935825798
2.97438448147227,0.0383072265625,2.1835119140624997,9.552864624023437,9.799306824841144
2.976871425018652,-0.033518823242187495,1.93451494140625,9.528922607421874,9.723365550480516
2.9793583685650336,-0.0909796630859375,1.7286135986328124,9.504980590820312,9.661316592698137
2.981845312111415,-0.1484405029296875,1.5562310791015623,9.466673364257812,9.594883758546528
2.9843322556577965,-0.19632453613281248,1.43652099609375,9.442731347656249,9.553392653906565
2.9868191992041777,-0.2442085693359375,1.35990654296875,9.437942944335937,9.538540278862737
2.9893061427505594,-0.277727392578125,1.3215993164062498,9.428366137695312,9.524591607210953
2.991793086296941,-0.296881005859375,1.3168109130859373,9.409212524414063,9.505546256899324
2.9942800298433223,-0.32082302246093747,1.350329736328125,9.399635717773437,9.501550896321879
2.996766973389704,-0.3495534423828125,1.4221557861328125,9.399635717773437,9.513036650615557
2.9992539169360852,-0.36391865234375,1.5227122558593749,9.404424121093749,9.533849298634731
3.001740860482467,-0.373495458984375,1.6232687255859375,9.404424121093749,9.550795425657345
3.0042278040288486,-0.39264907226562495,1.7477672119140624,9.414000927734374,9.58291589175114
3.00671474757523,-0.4165910888671875,1.8914193115234375,9.428366137695312,9.62523262959223
3.0092016911216115,-0.44053310546874996,2.0254946044921875,9.437942944335937,9.6628911217286
3.0116886346679927,-0.4644751220703125,2.1739351074218747,9.437942944335937,9.6962104974492
3.0141755782143744,-0.507570751953125,2.3127988037109373,9.4618849609375,9.753662562786364
3.0166625217607557,-0.5458779785156249,2.442085693359375,9.504980590820312,9.828856562846447
3.0191494653071373,-0.5793968017578125,2.5665841796874997,9.5384994140625,9.894747398361416
3.021636408853519,-0.612915625,2.6767174560546874,9.548076220703125,9.935101480069214
3.0241233523999003,-0.6464344482421874,2.77727392578125,9.557653027343749,9.97395906076377
3.026610295946282,-0.6847416748046875,2.85388837890625,9.567229833984374,10.00726919477792
3.029097239492663,-0.7230489013671875,2.916137622070312,9.548076220703125,10.009616269417059
3.031584183039045,-0.7517793212890624,2.9735984619140625,9.524134204101562,10.005827916686997
3.0340711265854265,-0.7757213378906249,3.0023288818359375,9.514557397460937,10.007123701560989
3.036558070131808,-0.7996633544921875,3.0214824951171875,9.504980590820312,10.005672090403928
3.0390450136781895,-0.8188169677734375,3.0262708984374997,9.519345800781249,10.02231117319229
3.0415319572245707,-0.8188169677734375,3.0119056884765625,9.533711010742186,10.031634101149121
3.0440189007709524,-0.82360537109375,2.9831752685546875,9.533711010742186,10.023437839711363
3.0465058443173336,-0.8188169677734375,2.940079638671875,9.528922607421874,10.00574312915749
3.0489927878637153,-0.7948749511718749,2.89219560546875,9.5384994140625,9.998979581955545
3.051479731410097,-0.7757213378906249,2.839523168945312,9.5384994140625,9.982364774596585
3.0539666749564782,-0.74699091796875,2.7820623291015623,9.528922607421874,9.954809505599266
3.05645361850286,-0.7038952880859375,2.7198130859375,9.528922607421874,9.934446026692285
3.058940562049241,-0.6703764648437499,2.6479870361328124,9.528922607421874,9.912699229088894
3.061427505595623,-0.63206923828125,2.5857377929687497,9.524134204101562,9.88911946503356
3.0639144491420045,-0.5793968017578125,2.5378537597656248,9.519345800781249,9.868857422959119
3.0664013926883857,-0.5315127685546874,2.4660277099609376,9.504980590820312,9.834045684320502
3.0688883362347674,-0.49320554199218747,2.4133552734375,9.490615380859374,9.805065817723252
3.0713752797811487,-0.45010991210937495,2.384624853515625,9.476250170898437,9.782042318781706
3.0738622233275303,-0.40222587890625,2.3511060302734372,9.452308154296874,9.748621167479902
3.0763491668739116,-0.3687070556640625,2.31758720703125,9.442731347656249,9.729970742972528
3.0788361104202933,-0.3447650390625,2.2936451904296873,9.437942944335937,9.718767319587474
3.081323053966675,-0.316034619140625,2.27927998046875,9.437942944335937,9.714410024824023
3.083809997513056,-0.296881005859375,2.269703173828125,9.447519750976562,9.72087034549982
3.086296941059438,-0.28730419921875,2.2601263671875,9.457096557617186,9.727661085720438
3.088783884605819,-0.28730419921875,2.2649147705078123,9.471461767578125,9.74273938044364
3.091270828152201,-0.28730419921875,2.2649147705078123,9.476250170898437,9.747394519665542
3.0937577716985825,-0.296881005859375,2.2744915771484373,9.495403784179686,9.768528204943319
3.0962447152449637,-0.32082302246093747,2.2840683837890623,9.5001921875,9.776172430609117
3.0987316587913454,-0.33518823242187495,2.2936451904296873,9.5001921875,9.778896206125278
3.1012186023377266,-0.3591302490234375,2.3127988037109373,9.504980590820312,9.788905397136148
3.1037055458841083,-0.373495458984375,2.3367408203125,9.509768994140625,9.799773611727726
3.1061924894304895,-0.4070142822265625,2.370259643554687,9.504980590820312,9.804511585778826
3.108679432976871,-0.44053310546874996,2.408566870117187,9.504980590820312,9.815290103543088
3.111166376523253,-0.47884033203125,2.442085693359375,9.514557397460937,9.83462622913901
3.113653320069634,-0.507570751953125,2.480392919921875,9.514557397460937,9.845647747863797
3.116140263616016,-0.5410895751953124,2.499546533203125,9.509768994140625,9.84765033507746
3.118627207162397,-0.5746083984375,2.528276953125,9.504980590820312,9.85225939544472
3.1211141507087787,-0.603338818359375,2.5522189697265625,9.504980590820312,9.860146826038761
3.1236010942551604,-0.622492431640625,2.5665841796874997,9.504980590820312,9.865064987659375
3.1260880378015417,-0.6464344482421874,2.6001030029296874,9.519345800781249,9.889204093180085
3.1285749813479233,-0.6703764648437499,2.6240450195312497,9.519345800781249,9.897118840551261
3.1310619248943046,-0.6847416748046875,2.6240450195312497,9.509768994140625,9.88889224067385
3.1335488684406863,-0.6943184814453125,2.6144682128906247,9.5001921875,9.877812196500196
3.136035811987068,-0.7038952880859375,2.6144682128906247,9.504980590820312,9.883095094385965
3.138522755533449,-0.7038952880859375,2.6192566162109374,9.514557397460937,9.89357247245569
3.141009699079831,-0.699106884765625,2.6096798095703124,9.504980590820312,9.881489522166001
3.143496642626212,-0.689530078125,2.6096798095703124,9.504980590820312,9.880816589178693
3.1459835861725938,-0.6751648681640625,2.6096798095703124,9.495403784179686,9.870611396073489
3.148470529718975,-0.6607996582031249,2.6001030029296874,9.5001921875,9.871719374737177
3.1509574732653567,-0.6416460449218749,2.5905261962890624,9.490615380859374,9.858717762875063
3.1534444168117384,-0.6177040283203125,2.5761609863281247,9.481038574218749,9.844199111146935
3.1559313603581196,-0.5985504150390625,2.5522189697265625,9.485826977539062,9.841392061928202
3.1584183039045013,-0.5698199951171875,2.5426421630859375,9.485826977539062,9.83720679075852
3.1609052474508825,-0.5506663818359374,2.5330653564453125,9.5001921875,9.84750248355103
3.163392190997264,-0.5315127685546874,2.518700146484375,9.514557397460937,9.856630190923047
3.165879134543646,-0.5027823486328125,2.5043349365234375,9.519345800781249,9.856085837655847
3.168366078090027,-0.488417138671875,2.4899697265625,9.509768994140625,9.842469551005204
3.170853021636409,-0.4644751220703125,2.4899697265625,9.5001921875,9.832056650449895
3.17333996518279,-0.45968671875,2.4899697265625,9.490615380859374,9.822578145578552
3.1758269087291717,-0.45010991210937495,2.480392919921875,9.485826977539062,9.815083362762923
3.178313852275553,-0.44053310546874996,2.4756045166015626,9.485826977539062,9.813439793845982
3.1808007958219346,-0.43574470214843747,2.47081611328125,9.485826977539062,9.812019117333016
3.1832877393683163,-0.43574470214843747,2.4660277099609376,9.485826977539062,9.810814418770414
3.1857746829146976,-0.44532150878906246,2.4660277099609376,9.485826977539062,9.811244434845827
3.1882616264610792,-0.44053310546874996,2.461239306640625,9.490615380859374,9.814456105611319
3.1907485700074605,-0.43574470214843747,2.4564509033203126,9.485826977539062,9.808411590756247
3.193235513553842,-0.44532150878906246,2.4660277099609376,9.481038574218749,9.806614928623905
3.195722457100224,-0.4644751220703125,2.461239306640625,9.485826977539062,9.810930104296071
3.198209400646605,-0.47884033203125,2.4660277099609376,9.481038574218749,9.808194185256472
3.2006963441929868,-0.488417138671875,2.4756045166015626,9.471461767578125,9.801824168932058
3.203183287739368,-0.49320554199218747,2.480392919921875,9.471461767578125,9.803274389638622
3.2056702312857497,-0.5027823486328125,2.480392919921875,9.495403784179686,9.826893311312034
3.208157174832131,-0.5123591552734374,2.4899697265625,9.509768994140625,9.843686680563774
3.2106441183785126,-0.5219359619140624,2.499546533203125,9.519345800781249,9.85586599415995
3.2131310619248943,-0.5315127685546874,2.499546533203125,9.524134204101562,9.861002536888515
3.2156180054712755,-0.5458779785156249,2.5043349365234375,9.509768994140625,9.849131056272862
3.218104949017657,-0.5458779785156249,2.5139117431640625,9.504980590820312,9.846948311620068
3.2205918925640384,-0.5458779785156249,2.518700146484375,9.509768994140625,9.85279348800365
3.22307883611042,-0.5458779785156249,2.5234885498046875,9.504980590820312,9.849397609006072
3.225565779656802,-0.5315127685546874,2.5330653564453125,9.504980590820312,9.851070091874838
3.228052723203183,-0.5315127685546874,2.5570073730468748,9.509768994140625,9.861870960972423
3.2305396667495647,-0.5315127685546874,2.5474305664062498,9.5001921875,9.850155324320198
3.233026610295946,-0.5315127685546874,2.5570073730468748,9.5001921875,9.852636404962317
3.2355135538423276,-0.5363011718749999,2.5522189697265625,9.519345800781249,9.870125890343964
