Time (s),Acceleration x (m/s^2),Acceleration y (m/s^2),Acceleration z (m/s^2),Absolute acceleration (m/s^2)
0.0,0.08140285644531249,3.6200329101562496,9.351751684570312,10.028286207798192
0.002486943546381497,0.33039982910156246,3.5242648437499997,9.361328491210937,10.008200530381083
0.004973887092762994,0.5793968017578125,3.3710359375,9.428366137695312,10.029639673101087
0.007460830639144491,0.7422025146484375,3.1411925781249996,9.423577734375,9.96101263433725
0.009947774185525988,0.9816226806640624,3.0071172851562498,9.423577734375,9.940329711316815
0.012434717731907486,1.0917559570312498,2.7629087158203123,9.471461767578125,9.926438618979276
0.014921661278288981,1.22583125,2.528276953125,9.514557397460937,9.920768572784985
0.01740860482467048,1.235408056640625,2.327164013671875,9.514557397460937,9.872625176847372
0.019895548371051976,1.2210428466796874,2.0781670410156248,9.519345800781249,9.819759078441939
0.022382491917433474,1.1635820068359375,1.9584569580078124,9.552864624023437,9.82072804164335
0.02486943546381497,1.0534487304687499,1.7669208251953124,9.567229833984374,9.785890359416245
0.027356379010196465,0.8858546142578124,1.599326708984375,9.586383447265625,9.759166558558217
0.029843322556577963,0.6703764648437499,1.446097802734375,9.557653027343749,9.68965091480507
0.032330266102959464,0.45010991210937495,1.350329736328125,9.567229833984374,9.672532037996657
0.03481720964934096,0.201112939453125,1.350329736328125,9.562441430664062,9.659405930289296
0.03730415319572245,-0.086191259765625,1.3359645263671873,9.552864624023437,9.646214421932052
0.03979109674210395,-0.36391865234375,1.2689268798828124,9.557653027343749,9.648385543867219
0.04227804028848545,-0.6703764648437499,1.35990654296875,9.5384994140625,9.658246294348487
0.04476498383486695,-0.9433154541015625,1.446097802734375,9.576806640625,9.731200765215931
0.04725192738124844,-1.254561669921875,1.5083470458984374,9.490615380859374,9.691275256740582
0.04973887092762994,-1.4796166259765624,1.7094599853515624,9.476250170898437,9.742219259636743
0.05222581447401144,-1.675941162109375,1.867477294921875,9.433154541015625,9.761181015665315
0.05471275802039293,-1.9009961181640624,2.0446482177734375,9.433154541015625,9.837620503475556
0.05719970156677443,-2.0446482177734375,2.2601263671875,9.394847314453125,9.876837226156324
0.059686645113155926,-2.1739351074218747,2.427720483398437,9.428366137695312,9.9756658235545
0.062173588659537427,-2.2074539306640624,2.70065947265625,9.399635717773437,10.025944647268622
0.06466053220591893,-2.212242333984375,2.89219560546875,9.366116894531249,10.049027676675445
0.06714747575230041,-2.1739351074218747,3.0597897216796874,9.337386474609374,10.063552711065615
0.06963441929868192,-2.059013427734375,3.2130186279296873,9.294290844726563,10.04723182301382
0.07212136284506342,-1.9297265380859374,3.414131567382812,9.270348828125,10.065759100351624
0.0746083063914449,-1.7286135986328124,3.5721488769531247,9.299079248046874,10.110451396151992
0.0770952499378264,-1.5131354492187499,3.6487633300781246,9.303867651367186,10.107670651577543
0.0795821934842079,-1.2832920898437499,3.77326181640625,9.327809667968749,10.14358795125552
0.0820691370305894,-1.0295067138671874,3.7924154296875,9.3086560546875,10.104126701981706
0.0845560805769709,-0.6847416748046875,3.768473413085937,9.327809667968749,10.083565650512776
0.0870430241233524,-0.40222587890625,3.7158009765625,9.313444458007812,10.03539786094608
0.0895299676697339,-0.11013327636718749,3.6583401367187496,9.34696328125,10.037993050183214
0.09201691121611538,0.1292868896484375,3.5482068603515624,9.351751684570312,10.003086853244078
0.09450385476249688,0.45489831542968745,3.42849677734375,9.342174877929686,9.96181479849218
0.09699079830887838,0.679953271484375,3.246537451171875,9.361328491210937,9.931606767971711
0.09947774185525989,0.86191259765625,3.0406361083984375,9.433154541015625,9.948505710124444
0.10196468540164137,1.0630255371093749,2.89219560546875,9.476250170898437,9.964644299436488
0.10445162894802287,1.13006318359375,2.6719290527343746,9.4618849609375,9.896641585698418
0.10693857249440437,1.177947216796875,2.43250888671875,9.495403784179686,9.872555502712512
0.10942551604078586,1.254561669921875,2.2361843505859373,9.495403784179686,9.835503975804011
0.11191245958716736,1.2018892333984375,2.0350714111328125,9.524134204101562,9.813011042259479
0.11439940313354886,1.1156979736328125,1.8722656982421875,9.552864624023437,9.798335743283198
0.11688634667993036,1.0390835205078124,1.6711527587890624,9.572018237304688,9.77220442075854
0.11937329022631185,0.814028564453125,1.4987702392578124,9.562441430664062,9.71335373847319
0.12186023377269335,0.5602431884765625,1.3934253662109375,9.543287817382812,9.660737500151924
0.12434717731907485,0.33039982910156246,1.4030021728515625,9.576806640625,9.684668532067354
0.12683412086545634,0.0909796630859375,1.2737152832031249,9.576806640625,9.661565781677396
0.12932106441183785,-0.239420166015625,1.3263877197265623,9.581595043945311,9.675928378460318
0.13180800795821934,-0.49320554199218747,1.3072341064453123,9.557653027343749,9.659236207216324
0.13429495150460083,-0.7613561279296874,1.3838485595703125,9.548076220703125,9.67783340969028
0.13678189505098234,-1.1109095703125,1.4939818359375,9.519345800781249,9.699693102071564
0.13926883859736383,-1.3407529296874998,1.5801730957031248,9.466673364257812,9.690844649275828
0.14175578214374532,-1.599326708984375,1.7717092285156248,9.485826977539062,9.78149850280038
0.14424272569012683,-1.8004396484374998,1.9105729248046874,9.418789331054686,9.777804676482962
0.14672966923650832,-1.9728221679687499,2.0733786376953125,9.399635717773437,9.825684602536475
0.1492166127828898,-2.0925322509765625,2.384624853515625,9.418789331054686,9.93874838076561
0.15170355632927132,-2.1643583007812497,2.5857377929687497,9.375693701171874,9.963639855310987
0.1541904998756528,-2.1739351074218747,2.8012159423828122,9.380482104492186,10.02827248930937
0.15667744342203432,-2.1595698974609374,3.0119056884765625,9.375693701171874,10.081614473708608
0.1591643869684158,-2.1499930908203124,3.1651345947265623,9.327809667968749,10.082092069365427
0.1616513305147973,-2.001552587890625,3.361459130859375,9.303867651367186,10.092946721581676
0.1641382740611788,-1.8148048583984373,3.5003228271484375,9.327809667968749,10.126885492103398
0.1666252176075603,-1.66636435546875,3.6104561035156246,9.251195214843749,10.06959663262327
0.1691121611539418,-1.369483349609375,3.7205893798828122,9.303867651367186,10.113368541327407
0.1715991047003233,-1.120486376953125,3.763685009765625,9.279925634765624,10.076598352641241
0.1740860482467048,-0.8571241943359375,3.768473413085937,9.289502441406249,10.061357232428648
0.17657299179308628,-0.5698199951171875,3.749319799804687,9.342174877929686,10.08257532765629
0.1790599353394678,-0.239420166015625,3.7301661865234372,9.375693701171874,10.093319284218236
0.18154687888584928,0.062249243164062495,3.69664736328125,9.351751684570312,10.056059678949422
0.18403382243223076,0.316034619140625,3.5290532470703124,9.390058911132812,10.036299171293052
0.18652076597861228,0.5410895751953124,3.3710359375,9.437942944335937,10.036504782086343
0.18900770952499377,0.8044517578125,3.227383837890625,9.433154541015625,10.002377400518785
0.19149465307137528,0.9050082275390624,2.9735984619140625,9.418789331054686,9.918413187975213
0.19398159661775677,1.139639990234375,2.8012159423828122,9.466673364257812,9.937982423447394
0.19646854016413826,1.1875240234375,2.5857377929687497,9.485826977539062,9.90339167598838
0.19895548371051977,1.2306196533203124,2.379836450195312,9.471461767578125,9.843100846557988
0.20144242725690126,1.235408056640625,2.1404162841796874,9.552864624023437,9.867362234199806
0.20392937080328274,1.1635820068359375,1.9297265380859374,9.543287817382812,9.805718227841991
0.20641631434966426,-8.590395556640624,9.65342109375,8.729259252929687,15.594338772056576
0.20890325789604575,-7.278373046874999,8.71489404296875,8.734047656249999,14.32507175728257
0.21139020144242723,-5.865794067382812,7.733271362304687,8.757989672851561,13.073385526089245
0.21387714498880875,-4.4196962646484375,6.6510922119140625,8.844180932617187,11.915967398914812
0.21636408853519024,-3.1076737548828124,5.49708701171875,8.935160595703124,10.941329747896287
0.21885103208157172,-1.7956512451171873,4.3813890380859375,8.992621435546875,10.163078941945086
0.22133797562795324,-0.59376201171875,3.380612744140625,9.074024291992187,9.701495384943014
0.22382491917433472,0.40222587890625,2.3223756103515623,9.217676391601563,9.514240494832286
0.22631186272071624,1.2976572998046874,1.43652099609375,9.265560424804686,9.465628189700954
0.22879880626709773,2.1212626708984375,0.7230489013671875,9.375693701171874,9.639822996866148
0.2312857498134792,2.6527754394531247,0.0718260498046875,9.476250170898437,9.840817741176235
0.23377269335986073,2.987963671875,-0.38307226562499996,9.562441430664062,10.025714806437312
0.23625963690624222,3.208230224609375,-0.7326257080078125,9.543287817382812,10.094742392331677
0.2387465804526237,3.284844677734375,-0.9241618408203125,9.6151138671875,10.202680743013063
0.24123352399900522,3.2130186279296873,-0.9433154541015625,9.639055883789062,10.204152639008226
0.2437204675453867,3.0214824951171875,-0.8667010009765624,9.658209497070311,10.156846842533982
0.2462074110917682,2.7246014892578123,-0.6512228515624999,9.667786303710937,10.06546752475432
0.2486943546381497,2.384624853515625,-0.3495534423828125,9.710881933593749,10.005491053880542
0.2511812981845312,1.9393033447265624,0.0047884033203125,9.667786303710937,9.860375875487444
0.2536682417309127,1.5418658691406248,0.45010991210937495,9.677363110351562,9.8097556575581
0.2561551852772942,1.0390835205078124,0.9193734375,9.65342109375,9.7526140543666
0.2586421288236757,0.6416460449218749,1.4125789794921875,9.619902270507811,9.744208983513666
0.26112907237005717,0.229843359375,1.8770541015625,9.576806640625,9.761730661207595
0.2636160159164387,-0.15322890625,2.398990063476562,9.562441430664062,9.85996544300488
0.2661029594628202,-0.4261678955078125,2.849099975585937,9.533711010742186,9.959449552178683
0.26858990300920166,-0.718260498046875,3.23696064453125,9.509768994140625,10.071222303137644
0.2710768465555832,-0.9002198242187499,3.5673604736328124,9.442731347656249,10.134181357404461
0.2735637901019647,-1.0390835205078124,3.83072265625,9.380482104492186,10.18565536155608
0.27605073364834615,-1.120486376953125,3.9983167724609374,9.423577734375,10.297856284183046
0.27853767719472766,-1.1875240234375,4.122815258789062,9.409212524414063,10.341232967781723
0.2810246207411092,-1.16837041015625,4.103661645507812,9.418789331054686,10.340150906970853
0.28351156428749064,-1.1109095703125,4.089296435546875,9.437942944335937,10.345589999208782
0.28599850783387215,-0.9959878906249999,4.0222587890625,9.351751684570312,10.228676220035798
0.28848545138025367,-0.9145850341796874,3.912125512695312,9.361328491210937,10.187034059636035
0.2909723949266351,-0.7996633544921875,3.7110125732421873,9.351751684570312,10.0928853837316
0.29345933847301664,-0.6943184814453125,3.4332851806640625,9.3852705078125,10.017625855973016
0.29594628201939815,-0.5506663818359374,3.1411925781249996,9.414000927734374,9.939503898300735
0.2984332255657796,-0.4644751220703125,2.925714428710937,9.399635717773437,9.855389068130783
0.30092016911216113,-0.4165910888671875,2.6144682128906247,9.423577734375,9.788401784119168
0.30340711265854264,-0.3399766357421875,2.3415292236328122,9.418789331054686,9.71143324544666
0.30589405620492416,-0.32082302246093747,2.1739351074218747,9.490615380859374,9.741699111059981
0.3083809997513056,-0.3112462158203125,1.9009961181640624,9.495403784179686,9.68882621749153
0.31086794329768713,-0.3495534423828125,1.714248388671875,9.452308154296874,9.612854133447202
0.31335488684406865,-0.38786066894531246,1.5610194824218748,9.466673364257812,9.602349832648448
0.3158418303904501,-0.5027823486328125,1.5035586425781249,9.5001921875,9.631569460955163
0.3183287739368316,-0.6272808349609375,1.3934253662109375,9.5001921875,9.62230570583503
0.32081571748321314,-0.7134720947265625,1.3934253662109375,9.442731347656249,9.571616999502414
0.3233026610295946,-0.852335791015625,1.446097802734375,9.485826977539062,9.633202406444457
0.3257896045759761,-0.9528922607421875,1.5658078857421873,9.519345800781249,9.694209739348864
0.3282765481223576,-1.1252747802734375,1.637633935546875,9.437942944335937,9.644835678149974
0.3307634916687391,-1.2210428466796874,1.8004396484374998,9.423577734375,9.671419020852197
0.3332504352151206,-1.3072341064453123,1.9393033447265624,9.428366137695312,9.714105542887678
0.3357373787615021,-1.388636962890625,2.1547814941406247,9.409212524414063,9.7521626438338
0.3382243223078836,-1.4125789794921875,2.360682836914062,9.404424121093749,9.798540497401321
0.3407112658542651,-1.426944189453125,2.5857377929687497,9.390058911132812,9.843546922138668
0.3431982094006466,-1.37906015625,2.8730419921875,9.356540087890625,9.884382611965874
0.34568515294702806,-1.3120225097656248,3.0166940917968748,9.375693701171874,9.93606957945685
0.3481720964934096,-1.2689268798828124,3.208230224609375,9.337386474609374,9.954381084567956
0.3506590400397911,-1.1156979736328125,3.342305517578125,9.332598071289063,9.975629047906196
0.35314598358617255,-0.97683427734375,3.5290532470703124,9.332598071289063,10.025258539622783
0.35563292713255407,-0.7613561279296874,3.5865140869140624,9.332598071289063,10.026970290641009
0.3581198706789356,-0.5793968017578125,3.6679169433593746,9.337386474609374,10.04868655762971
0.36060681422531704,-0.32561142578124996,3.7205893798828122,9.375693701171874,10.092197011180966
0.36309375777169856,-0.15322890625,3.6487633300781246,9.370905297851563,10.057376349621995
0.36558070131808007,0.062249243164062495,3.5625720703124997,9.409212524414063,10.06126607609776
0.36806764486446153,0.2442085693359375,3.4907460205078125,9.390058911132812,10.020885787173356
0.37055458841084304,0.4213794921875,3.31357509765625,9.394847314453125,9.970982733217971
0.37304153195722456,0.59376201171875,3.21780703125,9.418789331054686,9.970979283887406
0.3755284755036061,0.7517793212890624,2.9831752685546875,9.433154541015625,9.92214248161746
0.37801541904998753,0.8475473876953125,2.834734765625,9.476250170898437,9.927405253503295
0.38050236259636905,0.852335791015625,2.6144682128906247,9.466673364257812,9.857982801892588
0.38298930614275056,0.9145850341796874,2.389413256835937,9.495403784179686,9.834045684320502
0.385476249689132,0.8714894042968749,2.2361843505859373,9.509768994140625,9.807941708305854
0.38796319323551354,0.7900865478515624,1.9967641845703124,9.481038574218749,9.721182870808605
0.39045013678189505,0.6847416748046875,1.8435352783203125,9.5384994140625,9.739120317343684
0.3929370803282765,0.5458779785156249,1.70467158203125,9.557653027343749,9.72381711886368
0.395424023874658,0.3591302490234375,1.5418658691406248,9.543287817382812,9.67371010830858
0.39791096742103954,0.16280571289062498,1.4317325927734375,9.509768994140625,9.61831951222655
0.400397910967421,-0.05746083984375,1.4317325927734375,9.514557397460937,9.621848181867344
0.4028848545138025,-0.2920926025390625,1.3551181396484375,9.528922607421874,9.629227867233073
0.40537179806018403,-0.5746083984375,1.37906015625,9.543287817382812,9.659519868581377
0.4078587416065655,-0.8571241943359375,1.39821376953125,9.514557397460937,9.654867482228923
0.410345685152947,-1.0869675537109373,1.5275006591796874,9.476250170898437,9.659921015622611
0.4128326286993285,-1.3311761230468748,1.6136919189453125,9.485826977539062,9.71375030189923
0.41531957224571,-1.5275006591796874,1.7477672119140624,9.447519750976562,9.728493096874177
0.4178065157920915,-1.7621324218749999,1.924938134765625,9.418789331054686,9.773642614587848
0.420293459338473,-1.9009961181640624,2.1212626708984375,9.409212524414063,9.830911549282318
0.42278040288485447,-2.0063409912109376,2.3319524169921872,9.3852705078125,9.876573735508893
0.425267346431236,-2.0542250244140625,2.5665841796874997,9.375693701171874,9.93533226321823
0.4277542899776175,-2.059013427734375,2.729389892578125,9.409212524414063,10.011113115477645
0.43024123352399896,-2.0446482177734375,2.940079638671875,9.370905297851563,10.031875234345746
0.43272817707038047,-1.9967641845703124,3.0933085449218747,9.299079248046874,10.00142488970074
0.435215120616762,-1.886630908203125,3.2704794677734372,9.323021264648437,10.058535561104405
0.43770206416314344,-1.68551796875,3.4524387939453125,9.34696328125,10.105742280008602
0.44018900770952496,-1.5227122558593749,3.6056677001953124,9.284714038085937,10.075981686535867
0.4426759512559065,-1.2641384765625,3.6679169433593746,9.303867651367186,10.08035783419742
0.445162894802288,-1.0103531005859374,3.7205893798828122,9.3086560546875,10.075449184330724
0.44764983834866945,-0.7613561279296874,3.7110125732421873,9.265560424804686,10.01008928321843
0.45013678189505096,-0.45968671875,3.77326181640625,9.318232861328125,10.063711058674125
0.4526237254414325,-0.16759411621093748,3.706224169921875,9.342174877929686,10.051886232708872
0.45511066898781394,0.076614453125,3.5865140869140624,9.375693701171874,10.038554948211152
0.45759761253419545,0.36391865234375,3.4428619873046875,9.423577734375,10.039400020168513
0.46008455608057697,0.5793968017578125,3.308786694335937,9.399635717773437,9.981829575250416
0.4625714996269584,0.8044517578125,3.208230224609375,9.437942944335937,10.000732514435391
0.46505844317333994,0.928950244140625,2.9448680419921875,9.452308154296874,9.943908979099868
0.46754538671972146,1.0630255371093749,2.7054478759765623,9.485826977539062,9.921208845195258
0.4700323302661029,1.177947216796875,2.5426421630859375,9.524134204101562,9.927825600442382
0.47251927381248443,1.177947216796875,2.2840683837890623,9.524134204101562,9.864768642250135
0.47500621735886595,1.158793603515625,2.1643583007812497,9.495403784179686,9.807647143648845
0.4774931609052474,1.1013327636718748,1.8914193115234375,9.557653027343749,9.805056463857516
0.4799801044516289,0.9959878906249999,1.7334020019531249,9.595960253906249,9.801996101468069
0.48246704799801043,0.7757213378906249,1.5897499023437498,9.567229833984374,9.729385131771764
0.4849539915443919,0.6272808349609375,1.4939818359375,9.581595043945311,9.717634823257036
0.4874409350907734,0.39264907226562495,1.350329736328125,9.548076220703125,9.651078862340702
0.4899278786371549,0.1197100830078125,1.3407529296874998,9.581595043945311,9.675686668583099
0.4924148221835364,-0.143652099609375,1.235408056640625,9.514557397460937,9.59550266852724
0.4949017657299179,-0.430956298828125,1.3024457031249999,9.543287817382812,9.641391523348464
0.4973887092762994,-0.70868369140625,1.369483349609375,9.504980590820312,9.629245725974249
0.49987565282268087,-1.0199299072265624,1.4508862060546874,9.5384994140625,9.701973967736958
0.5023625963690624,-1.2928688964843749,1.5849614990234373,9.447519750976562,9.66639759072508
0.5048495399154439,-1.5466542724609373,1.6807295654296874,9.452308154296874,9.724357086945044
0.5073364834618254,-1.7429788085937499,1.8914193115234375,9.437942944335937,9.78213724907554
0.5098234270082069,-1.9584569580078124,2.1164742675781247,9.457096557617186,9.886945548640613
0.5123103705545884,-2.0781670410156248,2.2553379638671873,9.361328491210937,9.850878067562398
0.5147973141009698,-2.1835119140624997,2.4947581298828125,9.447519750976562,10.012350965210993
0.5172842576473514,-2.2266075439453124,2.7054478759765623,9.356540087890625,9.991099628203322
0.5197712011937329,-2.2170307373046874,2.96881005859375,9.34696328125,10.054590048092312
0.5222581447401143,-2.1787235107421874,3.1220389648437497,9.337386474609374,10.083687302295797
0.5247450882864959,-2.01112939453125,3.303998291015625,9.294290844726563,10.06701983980114
0.5272320318328774,-1.8770541015625,3.4620156005859375,9.299079248046874,10.098601832944452
0.5297189753792588,-1.695094775390625,3.5960908935546874,9.284714038085937,10.10005597911683
0.5322059189256404,-1.4221557861328125,3.7158009765625,9.342174877929686,10.154109287735405
0.5346928624720219,-1.2114660400390624,3.7397429931640622,9.284714038085937,10.082620809596962
0.5371798060184033,-0.9241618408203125,3.81156904296875,9.342174877929686,10.13204644320024
0.5396667495647849,-0.6177040283203125,3.806780639648437,9.356540087890625,10.120176852274351
0.5421536931111663,-0.33518823242187495,3.67749375,9.265560424804686,9.974313080014582
0.5446406366575478,-10.299855541992187,11.789048974609374,8.504204296874999,17.815448089639304
0.5471275802039294,-8.576030346679687,11.01332763671875,8.532934716796875,16.360093429500985
0.5496145237503108,-6.804321118164062,10.046070166015625,8.628702783203124,14.888815378681407
0.5521014672966923,-4.936843823242187,8.892064965820312,8.609549169921875,13.325373660830527
0.5545884108430739,-3.1124621582031247,7.709329345703124,8.724470849609375,12.051455150829277
0.5570753543894553,-1.3359645263671873,6.4356140625,8.877699755859375,11.04606185626103
0.5595622979358368,0.28730419921875,5.123591552734375,8.978256225585938,10.341316113262007
0.5620492414822184,1.714248388671875,3.892971899414062,9.131485131835937,10.073623899105646
0.5645361850285998,3.0023288818359375,2.6815058593749996,9.222464794921875,10.062718781827407
0.5670231285749813,4.050989208984375,1.5322890624999999,9.299079248046874,10.25823075407358
0.5695100721213628,4.860229370117187,0.5698199951171875,9.485826977539062,10.673679675013343
0.5719970156677443,5.410895751953125,-0.3399766357421875,9.533711010742186,10.967452876019196
0.5744839592141258,5.7317187744140625,-1.0486603271484374,9.648632690429688,11.27157492924277
0.5769709027605073,5.7700260009765625,-1.5562310791015623,9.701305126953125,11.394313335596586
0.5794578463068888,5.664681127929687,-1.9871873779296874,9.80665,11.498169862140053
0.5819447898532703,5.329492895507812,-2.1739351074218747,9.873687646484374,11.428875540265881
0.5844317333996518,4.855440966796874,-2.3223756103515623,9.854534033203125,11.2285607478948
0.5869186769460333,4.1563340820312495,-2.1404162841796874,9.90241806640625,10.950542380764755
0.5894056204924147,3.375824340820312,-1.944091748046875,9.849745629882811,10.592127816368833
0.5918925640387963,2.5905261962890624,-1.5562310791015623,9.840168823242188,10.293765278804885
0.5943795075851778,1.7094599853515624,-1.1635820068359375,9.782707983398437,9.998877537833836
0.5968664511315592,0.852335791015625,-0.5746083984375,9.773131176757811,9.827041472911196
0.5993533946779408,-0.009576806640625,-0.0430956298828125,9.753977563476562,9.754077468287024
0.6018403382243223,-0.8667010009765624,0.5985504150390625,9.672574707031249,9.729755119607988
0.6043272817707037,-1.6424223388671875,1.2210428466796874,9.605537060546874,9.821142448522833
0.6068142253170853,-2.2649147705078123,1.867477294921875,9.576806640625,10.016612990259345
0.6093011688634667,-2.786850732421875,2.499546533203125,9.4618849609375,10.175536196705476
0.6117881124098483,-3.227383837890625,3.0885201416015624,9.423577734375,10.428747787628408
0.6142750559562298,-3.5338416503906247,3.6056677001953124,9.351751684570312,10.627517863740854
0.6167619995026112,-3.6583401367187496,4.13718046875,9.342174877929686,10.852462680735389
0.6192489430489928,-3.7301661865234372,4.525041137695312,9.318232861328125,11.00997732671839
0.6217358865953743,-3.687070556640625,4.797980126953124,9.241618408203124,11.046384629874256
0.6242228301417557,-3.4715924072265625,4.965574243164062,9.1554271484375,10.97864871815443
0.6267097736881373,-3.2034418212890623,5.161898779296875,9.222464794921875,11.043599748436364
0.6291967172345188,-2.8730419921875,5.157110375976562,9.17458076171875,10.909770385859531
0.6316836607809002,-2.47081611328125,5.123591552734375,9.203311181640624,10.819291075251309
0.6341706043272818,-1.9728221679687499,5.03740029296875,9.179369165039063,10.654963504681774
0.6366575478736632,-1.4796166259765624,4.8698061767578125,9.2320416015625,10.542052442102321
0.6391444914200447,-0.9864110839843749,4.61602080078125,9.284714038085937,10.41568862960498
0.6416314349664263,-0.4740519287109375,4.328716601562499,9.265560424804686,10.237828023241265
0.6441183785128077,0.0143652099609375,4.007893579101562,9.318232861328125,10.143612815885477
0.6466053220591892,0.4644751220703125,3.6008792968749996,9.327809667968749,10.009500589516765
0.6490922656055708,0.8571241943359375,3.2225954345703123,9.3852705078125,9.96007458427117
0.6515792091519522,1.1827356201171875,2.877830395507812,9.414000927734374,9.914846685642008
0.6540661526983337,1.407790576171875,2.4756045166015626,9.437942944335937,9.85825841868212
0.6565530962447153,1.5658078857421873,2.0877438476562498,9.514557397460937,9.865963266607958
0.6590400397910967,1.6519991455078125,1.7717092285156248,9.528922607421874,9.832010009423387
0.6615269833374782,1.7286135986328124,1.5370774658203123,9.548076220703125,9.824279700093404
0.6640139268838597,1.6472107421875,1.20667763671875,9.586383447265625,9.801434677951153
0.6665008704302412,1.47482822265625,1.005564697265625,9.634267480468749,9.798233949643576
0.6689878139766227,1.2737152832031249,0.8667010009765624,9.619902270507811,9.742486383972025
0.6714747575230042,1.0678139404296874,0.7709329345703124,9.624690673828125,9.714382881472979
0.6739617010693857,0.7517793212890624,0.7709329345703124,9.624690673828125,9.684739557902274
0.6764486446157671,0.4070142822265625,0.737414111328125,9.581595043945311,9.618544785136658
0.6789355881621487,0.023942016601562498,0.7661445312499999,9.600748657226562,9.631299260336627
0.6814225317085302,-0.3399766357421875,0.9050082275390624,9.586383447265625,9.635007607821198
0.6839094752549116,-0.718260498046875,1.0678139404296874,9.572018237304688,9.658139463153557
0.6863964188012932,-1.0486603271484374,1.3024457031249999,9.5001921875,9.646227495283318
0.6888833623476747,-1.37906015625,1.5179238525390624,9.519345800781249,9.737753550563646
0.6913703058940561,-1.6998831787109374,1.7477672119140624,9.442731347656249,9.752408336011994
0.6938572494404377,-1.9297265380859374,2.0973206542968748,9.452308154296874,9.872625176847372
0.6963441929868192,-2.1356278808593747,2.2936451904296873,9.390058911132812,9.899238408060988
0.6988311365332006,-2.2553379638671873,2.6288334228515624,9.409212524414063,10.026494642992262
0.7013180800795822,-2.3127988037109373,2.920926025390625,9.394847314453125,10.106631645317748
0.7038050236259636,-2.3223756103515623,3.21780703125,9.370905297851563,10.176520852787569
0.7062919671723451,-2.2936451904296873,3.380612744140625,9.313444458007812,10.170034339068067
0.7087789107187267,-2.2026655273437497,3.5386300537109374,9.356540087890625,10.242972249238942
0.7112658542651081,-2.039859814453125,3.763685009765625,9.299079248046874,10.237149397015324
0.7137527978114896,-1.8148048583984373,3.883395092773437,9.294290844726563,10.235141250955522
0.7162397413578712,-1.608903515625,3.9552211425781247,9.294290844726563,10.228205468979175
0.7187266849042526,-1.2689268798828124,3.9887399658203124,9.303867651367186,10.202067203051454
0.7212136284506341,-0.9959878906249999,3.921702319335937,9.236830004882812,10.084184126584555
0.7237005719970157,-0.6943184814453125,3.9839515624999997,9.313444458007812,10.153531202415204
0.7261875155433971,-0.3687070556640625,3.873818286132812,9.342174877929686,10.120209704185678
0.7286744590897786,-0.0047884033203125,3.749319799804687,9.356540087890625,10.079794854376656
0.7311614026361601,0.26336218261718747,3.5865140869140624,9.366116894531249,10.032775718458456
0.7336483461825416,0.5123591552734374,3.356670727539062,9.375693701171874,9.971628886761886
0.7361352897289231,0.7565677246093749,3.1555577880859373,9.380482104492186,9.925894629128832
0.7386222332753046,0.9528922607421875,2.959233251953125,9.442731347656249,9.941339970248348
0.7411091768216861,1.13006318359375,2.7246014892578123,9.5001921875,9.947569938111315
0.7435961203680675,1.2114660400390624,2.4851813232421875,9.509768994140625,9.903508595315001
0.7460830639144491,1.2976572998046874,2.269703173828125,9.572018237304688,9.922650860547064
0.7485700074608306,1.2832920898437499,2.0254946044921875,9.528922607421874,9.825977459719628
0.7510569510072121,1.1923124267578125,1.8100164550781248,9.533711010742186,9.776983897245687
0.7535438945535936,1.1109095703125,1.6041151123046875,9.610325463867188,9.806409174024417
0.7560308380999751,0.928950244140625,1.455674609375,9.548076220703125,9.702973597862897
0.7585177816463566,0.679953271484375,1.3359645263671873,9.605537060546874,9.721804353547405
0.7610047251927381,0.430956298828125,1.254561669921875,9.586383447265625,9.677726794715026
0.7634916687391196,0.22026655273437498,1.2306196533203124,9.600748657226562,9.681803389071137
0.7659786122855011,-0.09576806640624999,1.20667763671875,9.567229833984374,9.643501912572061
0.7684655558318826,-0.4213794921875,1.216254443359375,9.533711010742186,9.620212117400241
0.770952499378264,-0.7230489013671875,1.3168109130859373,9.524134204101562,9.641883790646299
0.7734394429246456,-1.0103531005859374,1.369483349609375,9.509768994140625,9.660849049366176
0.7759263864710271,-1.2641384765625,1.5562310791015623,9.485826977539062,9.69540173006231
0.7784133300174085,-1.5514426757812498,1.70467158203125,9.466673364257812,9.743243000375621
0.7809002735637901,-1.7621324218749999,1.89620771484375,9.4618849609375,9.809586198411798
0.7833872171101716,-1.9680337646484374,2.1260510742187497,9.471461767578125,9.904637201012319
0.785874160656553,-2.0973206542968748,2.3319524169921872,9.414000927734374,9.92270978460217
0.7883611042029346,-2.1787235107421874,2.5761609863281247,9.409212524414063,9.995835227399976
0.790848047749316,-2.2457611572265623,2.7820623291015623,9.366116894531249,10.025340875019527
0.7933349912956975,-2.1691467041015624,3.0119056884765625,9.332598071289063,10.04361289877405
0.7958219348420791,-2.1068974609374997,3.2417490478515623,9.366116894531249,10.13272418859682
0.7983088783884605,-1.9919757812499999,3.3710359375,9.299079248046874,10.08983278684335
0.800795821934842,-1.8435352783203125,3.5338416503906247,9.279925634765624,10.0996870703615
0.8032827654812236,-1.656787548828125,3.67749375,9.251195214843749,10.092250401490682
0.805769709027605,-1.4030021728515625,3.706224169921875,9.294290844726563,10.103878215868761
0.8082566525739865,-1.149216796875,3.782838623046875,9.299079248046874,10.104624790445751
0.8107435961203681,-0.8283937744140625,3.816357446289062,9.318232861328125,10.103478809858972
0.8132305396667495,-0.565031591796875,3.7924154296875,9.313444458007812,10.071838122381473
0.815717483213131,-0.28730419921875,3.7110125732421873,9.366116894531249,10.078606238149897
0.8182044267595125,0.047884033203124995,3.6343981201171873,9.390058911132812,10.068979537703504
0.820691370305894,0.26815058593749996,3.5003228271484375,9.327809667968749,9.966553959761935
0.8231783138522755,0.5889736083984375,3.342305517578125,9.418789331054686,10.011567736723986
0.825665257398657,0.7996633544921875,3.208230224609375,9.423577734375,9.986792276322918
0.8281522009450385,0.9145850341796874,2.9640216552734375,9.418789331054686,9.91642489108171
0.83063914449142,1.1013327636718748,2.7437551025390623,9.433154541015625,9.885622414078437
0.8331260880378015,1.1731588134765625,2.5426421630859375,9.471461767578125,9.876736241584778
0.835613031584183,1.22583125,2.29843359375,9.481038574218749,9.83237263757731
0.8380999751305644,1.197100830078125,2.1021090576171875,9.504980590820312,9.807984957133693
0.840586918676946,1.149216796875,1.915361328125,9.524134204101562,9.78255797842434
0.8430738622233275,1.0821791503906248,1.7717092285156248,9.552864624023437,9.775852281456899
0.8455608057697089,0.9241618408203125,1.5945383056640625,9.586383447265625,9.761935008709429
0.8480477493160905,0.7134720947265625,1.4413093994140624,9.567229833984374,9.70145875170706
0.850534692862472,0.4740519287109375,1.388636962890625,9.576806640625,9.688563530149336
0.8530216364088534,0.2059013427734375,1.2832920898437499,9.567229833984374,9.655108525909593
0.855508579955235,-0.09576806640624999,1.2737152832031249,9.562441430664062,9.647373127441945
0.8579955235016165,-0.33518823242187495,1.2593500732421874,9.572018237304688,9.660323332757695
0.8604824670479979,-0.63206923828125,1.350329736328125,9.557653027343749,9.673243164000715
0.8629694105943795,-0.9576806640625,1.388636962890625,9.543287817382812,9.69122320630541
0.8654563541407609,-1.22583125,1.5562310791015623,9.457096557617186,9.662359583721411
0.8679432976871424,-1.4796166259765624,1.656787548828125,9.514557397460937,9.770415181116759
0.870430241233524,-1.6998831787109374,1.8722656982421875,9.428366137695312,9.76161204374146
0.8729171847799054,-1.8770541015625,2.0542250244140625,9.4618849609375,9.862577734301352
0.8754041283262869,-2.0254946044921875,2.2936451904296873,9.418789331054686,9.903384730242372
0.8778910718726685,-2.1260510742187497,2.4660277099609376,9.366116894531249,9.915923129921167
0.8803780154190499,-2.1883003173828124,2.6479870361328124,9.370905297851563,9.980699360460049
0.8828649589654315,-2.212242333984375,2.868253588867187,9.318232861328125,9.997517614500985
0.885351902511813,-2.1116858642578125,3.0789433349609374,9.332598071289063,10.051691201456348
0.8878388460581944,-2.0542250244140625,3.265691064453125,9.294290844726563,10.063221198291625
0.890325789604576,-1.905784521484375,3.42849677734375,9.313444458007812,10.105783119926052
0.8928127331509574,-1.6903063720703124,3.5865140869140624,9.356540087890625,10.161941809683759
0.8952996766973389,-1.4939818359375,3.6631285400390623,9.275137231445312,10.083583841526925
0.8977866202437205,-1.254561669921875,3.73495458984375,9.294290844726563,10.094932049211627
0.9002735637901019,-0.93852705078125,3.782838623046875,9.289502441406249,10.074004004463964
0.9027605073364834,-0.699106884765625,3.806780639648437,9.327809667968749,10.098928778666583
0.905247450882865,-0.40222587890625,3.768473413085937,9.323021264648437,10.06389104789417
0.9077343944292464,-0.12449848632812499,3.6200329101562496,9.323021264648437,10.00194299347878
0.9102213379756279,0.1867477294921875,3.5577836669921874,9.404424121093749,10.056634247351187
0.9127082815220094,0.44532150878906246,3.414131567382812,9.361328491210937,9.974421122348286
0.9151952250683909,0.689530078125,3.31357509765625,9.380482104492186,9.972395708612092
0.9176821686147724,0.842758984375,3.0214824951171875,9.375693701171874,9.886517665600882
0.9201691121611539,1.0486603271484374,2.896984008789062,9.457096557617186,9.946299820989182
0.9226560557075354,1.1731588134765625,2.6623522460937497,9.4618849609375,9.899075113258482
0.9251429992539169,1.2306196533203124,2.408566870117187,9.5384994140625,9.914564547726489
0.9276299428002984,1.235408056640625,2.2170307373046874,9.485826977539062,9.819489386132773
0.9301168863466799,1.2018892333984375,2.039859814453125,9.533711010742186,9.823299416607773
0.9326038298930613,1.120486376953125,1.8243816650390623,9.543287817382812,9.780501037578567
0.9350907734394429,1.0295067138671874,1.675941162109375,9.586383447265625,9.78608248742869
0.9375777169858244,0.8044517578125,1.5275006591796874,9.581595043945311,9.735880262236146
0.9400646605322058,0.5458779785156249,1.4125789794921875,9.5384994140625,9.657967343742788
0.9425516040785874,0.3495534423828125,1.3407529296874998,9.595960253906249,9.695476224616085
0.9450385476249689,0.086191259765625,1.3024457031249999,9.5384994140625,9.627396575134911
0.9475254911713503,-0.22505495605468748,1.2785036865234374,9.562441430664062,9.650155829030917
0.9500124347177319,-0.4740519287109375,1.3263877197265623,9.5384994140625,9.6419396744756
0.9524993782641133,-0.7900865478515624,1.35990654296875,9.504980590820312,9.634222261842211
0.9549863218104948,-1.0917559570312498,1.4317325927734375,9.476250170898437,9.645781802859508
0.9574732653568764,-1.3742717529296875,1.608903515625,9.457096557617186,9.690916812850359
0.9599602089032578,-1.599326708984375,1.7381904052734374,9.476250170898437,9.766190102005393
0.9624471524496393,-1.7908628417968748,1.944091748046875,9.409212524414063,9.773431473773332
0.9649340959960209,-1.9632453613281249,2.1212626708984375,9.399635717773437,9.833983897412368
0.9674210395424023,-2.1021090576171875,2.3223756103515623,9.342174877929686,9.853350821699822
0.9699079830887838,-2.1643583007812497,2.518700146484375,9.409212524414063,9.978054800994608
0.9723949266351654,-2.24097275390625,2.7724855224609373,9.34696328125,10.003717180980349
0.9748818701815468,-2.1452046874999997,2.9448680419921875,9.366116894531249,10.049790874343731
0.9773688137279283,-2.0877438476562498,3.1699229980468746,9.351751684570312,10.092687737012211
0.9798557572743098,-2.01112939453125,3.337517114257812,9.294290844726563,10.078070461942575
0.9823427008206913,-1.8243816650390623,3.5051112304687497,9.299079248046874,10.103813540398738
0.9848296443670728,-1.6328455322265625,3.5960908935546874,9.284714038085937,10.089795291077479
0.9873165879134543,-1.3838485595703125,3.706224169921875,9.299079248046874,10.105642448404453
0.9898035314598358,-1.1013327636718748,3.758896606445312,9.255983618164063,10.050645267544006
0.9922904750062173,-0.842758984375,3.787627026367187,9.351751684570312,10.124802258141912
0.9947774185525988,-0.59376201171875,3.725377783203125,9.323021264648437,10.057321634273743
0.9972643620989803,-0.258573779296875,3.6583401367187496,9.313444458007812,10.009523496533872
0.9997513056453617,0.0430956298828125,3.6200329101562496,9.299079248046874,9.978946355471871
1.0022382491917432,0.32561142578124996,3.5098996337890624,9.370905297851563,10.011957068484381
1.0047251927381249,0.5458779785156249,3.3710359375,9.3852705078125,9.987250300466085
1.0072121362845063,0.7852981445312499,3.1747114013671873,9.428366137695312,9.979457584669351
1.0096990798308878,0.9624690673828125,2.978386865234375,9.433154541015625,9.938890260957361
1.0121860233772693,1.0726023437499999,2.7198130859375,9.4618849609375,9.903288646922803
1.0146729669236507,1.197100830078125,2.5570073730468748,9.5001921875,9.91085206743728
1.0171599104700322,1.235408056640625,2.360682836914062,9.481038574218749,9.848306908740053
1.0196468540164139,1.2689268798828124,2.2074539306640624,9.562441430664062,9.895620970781668
1.0221337975627953,1.197100830078125,1.944091748046875,9.567229833984374,9.835874634137951
1.0246207411091768,1.0582371337890624,1.7860744384765623,9.519345800781249,9.743093564467143
1.0271076846555582,0.8906430175781249,1.6232687255859375,9.548076220703125,9.725944985274312
1.0295946282019397,0.7230489013671875,1.426944189453125,9.562441430664062,9.695321322600035
1.0320815717483212,0.469263525390625,1.3407529296874998,9.543287817382812,9.64842831968683
1.0345685152947028,0.2154781494140625,1.2976572998046874,9.557653027343749,9.647749825306647
1.0370554588410843,-0.076614453125,1.2832920898437499,9.5384994140625,9.624743084070028
1.0395424023874658,-0.33518823242187495,1.3120225097656248,9.5384994140625,9.634143723723268
1.0420293459338472,-0.612915625,1.3120225097656248,9.552864624023437,9.662002440199405
1.0445162894802287,-0.9528922607421875,1.4030021728515625,9.481038574218749,9.631537322952783
1.0470032330266101,-1.2114660400390624,1.4939818359375,9.5001921875,9.692950185145653
1.0494901765729918,-1.455674609375,1.6615759521484375,9.490615380859374,9.7443113415234
1.0519771201193733,-1.6903063720703124,1.8626888916015625,9.437942944335937,9.767369787148322
1.0544640636657547,-1.886630908203125,2.01112939453125,9.447519750976562,9.841729882008917
1.0569510072121362,-2.0254946044921875,2.212242333984375,9.414000927734374,9.880286332110181
1.0594379507585177,-2.1356278808593747,2.43250888671875,9.3852705078125,9.927804814473575
1.0619248943048991,-2.1978771240234374,2.6288334228515624,9.370905297851563,9.977739980512094
1.0644118378512808,-2.1835119140624997,2.81558115234375,9.366116894531249,10.020946421686423
1.0668987813976623,-2.1547814941406247,3.0502129150390624,9.351751684570312,10.069863041989482
1.0693857249440437,-2.039859814453125,3.2321722412109373,9.342174877929686,10.093770202917035
1.0718726684904252,-1.9201497314453124,3.375824340820312,9.279925634765624,10.059830254930972
1.0743596120368066,-1.7238251953125,3.5434184570312497,9.260772021484375,10.064257851403237
1.076846555583188,-1.4939818359375,3.6822821533203123,9.318232861328125,10.130184955898278
1.0793334991295698,-1.2785036865234374,3.7397429931640622,9.260772021484375,10.068870232815671
1.0818204426759512,-1.024718310546875,3.744531396484375,9.284714038085937,10.063671187208838
1.0843073862223327,-0.70868369140625,3.706224169921875,9.294290844726563,10.031060386546692
1.0867943297687142,-0.45968671875,3.7205893798828122,9.260772021484375,9.990795546251544
1.0892812733150956,-0.09576806640624999,3.67749375,9.351751684570312,10.049298053779474
1.0917682168614773,0.16280571289062498,3.5721488769531247,9.380482104492186,10.03893409740125
1.0942551604078588,0.39264907226562495,3.361459130859375,9.380482104492186,9.972312936078925
1.0967421039542402,0.6464344482421874,3.246537451171875,9.404424121093749,9.970008824827874
1.0992290475006217,0.8906430175781249,3.1028853515624997,9.452308154296874,9.988356818490667
1.1017159910470031,1.0342951171875,2.863465185546875,9.457096557617186,9.9350830171857
1.1042029345933846,1.1061211669921875,2.6862942626953124,9.452308154296874,9.888670807830803
1.1066898781397663,1.2306196533203124,2.4516625,9.457096557617186,9.846915712299932
1.1091768216861477,1.2497732666015624,2.2601263671875,9.495403784179686,9.840365716688686
1.1116637652325292,1.22583125,2.0542250244140625,9.519345800781249,9.815316967844549
1.1141507087789106,1.139639990234375,1.8531120849609375,9.533711010742186,9.778775452126737
1.116637652325292,1.005564697265625,1.675941162109375,9.5384994140625,9.736678602650397
1.1191245958716736,0.8044517578125,1.5322890624999999,9.5384994140625,9.694226295779123
1.1216115394180552,0.6272808349609375,1.4221557861328125,9.567229833984374,9.692672233301867
1.1240984829644367,0.39743747558593745,1.3407529296874998,9.552864624023437,9.654677492820989
1.1265854265108182,0.1149216796875,1.2976572998046874,9.576806640625,9.665006305849866
1.1290723700571996,-0.181959326171875,1.3311761230468748,9.533711010742186,9.627916945180708
1.131559313603581,-0.4740519287109375,1.2928688964843749,9.552864624023437,9.651603894665888
1.1340462571499625,-0.7517793212890624,1.4030021728515625,9.557653027343749,9.68928886121356
1.1365332006963442,-1.0486603271484374,1.4796166259765624,9.509768994140625,9.681149733555397
1.1390201442427257,-1.3455413330078123,1.608903515625,9.490615380859374,9.719610707678958
1.1415070877891071,-1.5849614990234373,1.7669208251953124,9.481038574218749,9.773648479545363
1.1439940313354886,-1.7669208251953124,1.8770541015625,9.471461767578125,9.816003734585456
1.14648097488187,-1.9823989746093749,2.1308394775390624,9.404424121093749,9.844469291078171
1.1489679184282515,-2.1116858642578125,2.3367408203125,9.351751684570312,9.867868788167213
1.1514548619746332,-2.1595698974609374,2.50912333984375,9.409212524414063,9.974603872142419
1.1539418055210147,-2.2170307373046874,2.73896669921875,9.313444458007812,9.9577814568296
1.1564287490673961,-2.1883003173828124,2.978386865234375,9.390058911132812,10.091216624005407
1.1589156926137776,-2.0925322509765625,3.1938650146484373,9.342174877929686,10.092358317211733
1.161402636160159,-2.01112939453125,3.299209887695312,9.279925634765624,10.05218618567097
1.1638895797065405,-1.838746875,3.4859576171874997,9.3086560546875,10.108608614622494
1.1663765232529222,-1.6328455322265625,3.5721488769531247,9.289502441406249,10.08569718661642
1.1688634667993036,-1.39821376953125,3.6583401367187496,9.275137231445312,10.068099371945886
1.171350410345685,-1.139639990234375,3.7301661865234372,9.289502441406249,10.075106684066272
1.1738373538920666,-0.9050082275390624,3.73495458984375,9.34696328125,10.10616882211771
1.176324297438448,-0.5985504150390625,3.758896606445312,9.313444458007812,10.061203405641193
1.1788112409848295,-0.3016694091796875,3.7110125732421873,9.265560424804686,9.985651142359382
1.1812981845312112,0.0383072265625,3.6200329101562496,9.313444458007812,9.992314716151492
1.1837851280775926,0.258573779296875,3.4620156005859375,9.337386474609374,9.961887300820981
1.186272071623974,0.5410895751953124,3.342305517578125,9.366116894531249,9.959313720495098
1.1887590151703555,0.7805097412109374,3.189076611328125,9.418789331054686,9.974617664443826
1.191245958716737,0.9002198242187499,2.9927520751953125,9.414000927734374,9.919192214232263
1.1937329022631185,1.0821791503906248,2.748543505859375,9.442731347656249,9.893976875915564
1.1962198458095001,1.1875240234375,2.5953145996093747,9.504980590820312,9.92423937685189
1.1987067893558816,1.2018892333984375,2.35589443359375,9.466673364257812,9.829174985579685
1.201193732902263,1.2689268798828124,2.1643583007812497,9.548076220703125,9.87220247953851
1.2036806764486445,1.158793603515625,1.944091748046875,9.481038574218749,9.74742980411742
1.206167619995026,1.0917559570312498,1.7381904052734374,9.533711010742186,9.752173224007286
1.2086545635414074,0.948103857421875,1.62805712890625,9.504980590820312,9.689898191999312
1.2111415070877891,0.7326257080078125,1.5083470458984374,9.572018237304688,9.717787010127257
1.2136284506341706,0.5123591552734374,1.350329736328125,9.562441430664062,9.670893878834834
1.216115394180552,0.2537853759765625,1.2832920898437499,9.548076220703125,9.637271663768308
1.2186023377269335,-0.0,1.2689268798828124,9.552864624023437,9.636773212616742
1.221089281273315,-0.3112462158203125,1.2497732666015624,9.528922607421874,9.615569327034677
1.2235762248196966,-0.5985504150390625,1.3263877197265623,9.557653027343749,9.66779697622359
1.226063168366078,-0.8906430175781249,1.3742717529296875,9.528922607421874,9.66862109578697
1.2285501119124596,-1.1875240234375,1.4796166259765624,9.528922607421874,9.715958250442576
1.231037055458841,-1.426944189453125,1.6424223388671875,9.466673364257812,9.713476486025604
1.2335239990052225,-1.6472107421875,1.8531120849609375,9.490615380859374,9.809133903460117
1.236010942551604,-1.8435352783203125,2.01112939453125,9.404424121093749,9.792163030371231
1.2384978860979856,-2.0254946044921875,2.2074539306640624,9.399635717773437,9.865527501136134
1.240984829644367,-2.1452046874999997,2.39420166015625,9.356540087890625,9.893378955497015
1.2434717731907485,-2.231395947265625,2.6048914062499997,9.366116894531249,9.97440388162883
1.24595871673713,-2.2026655273437497,2.882618798828125,9.375693701171874,10.053101956257072
1.2484456602835114,-2.1547814941406247,3.0597897216796874,9.289502441406249,10.01500134983916
1.250932603829893,-2.1116858642578125,3.21780703125,9.342174877929686,10.103946294863643
1.2534195473762746,-1.9776105712890624,3.3327287109375,9.303867651367186,10.078689275225134
1.255906490922656,-1.7621324218749999,3.5338416503906247,9.284714038085937,10.08955213333519
1.2583934344690375,-1.5658078857421873,3.6200329101562496,9.284714038085937,10.087730536384129
1.260880378015419,-1.3311761230468748,3.6727053466796873,9.270348828125,10.059829115308979
1.2633673215618004,-0.9911994873046874,3.749319799804687,9.303867651367186,10.079773244423572
1.2658542651081819,-0.74699091796875,3.7397429931640622,9.289502441406249,10.04183891004731
1.2683412086545636,-0.44532150878906246,3.744531396484375,9.3086560546875,10.043450809852043
1.270828152200945,-0.13407529296874998,3.6631285400390623,9.3086560546875,10.004377263453414
1.2733150957473265,0.17238251953125,3.5865140869140624,9.337386474609374,10.00397846883384
1.275802039293708,0.4261678955078125,3.4093431640625,9.375693701171874,9.98543300331514
1.2782889828400894,0.5985504150390625,3.2130186279296873,9.356540087890625,9.910933039783433
1.2807759263864709,0.814028564453125,3.1364041748046874,9.404424121093749,9.947002900416177
1.2832628699328525,1.0007762939453124,2.896984008789062,9.437942944335937,9.9231465049269
1.285749813479234,1.1348515869140625,2.7150246826171873,9.490615380859374,9.936348799179024
1.2882367570256155,1.20667763671875,2.4851813232421875,9.514557397460937,9.907522374333936
1.290723700571997,1.2306196533203124,2.2553379638671873,9.490615380859374,9.83223038632656
1.2932106441183784,1.1923124267578125,2.0638018310546875,9.557653027343749,9.85036132900509
1.2956975876647598,1.13006318359375,1.886630908203125,9.567229833984374,9.81673599925057
1.2981845312111415,1.0438719238281249,1.7286135986328124,9.572018237304688,9.78270446768318
1.300671474757523,0.8379705810546875,1.5275006591796874,9.562441430664062,9.719863120095265
1.3031584183039044,0.6512228515624999,1.3934253662109375,9.576806640625,9.699533539584074
1.305645361850286,0.37828386230468747,1.3551181396484375,9.562441430664062,9.665388247130322
1.3081323053966674,0.1484405029296875,1.3168109130859373,9.581595043945311,9.672796345932731
1.3106192489430488,-0.1580173095703125,1.3072341064453123,9.557653027343749,9.647930444933298
1.3131061924894305,-0.45489831542968745,1.3024457031249999,9.528922607421874,9.628274162341102
1.315593136035812,-0.7613561279296874,1.3263877197265623,9.524134204101562,9.646144300927434
1.3180800795821934,-1.0342951171875,1.426944189453125,9.4618849609375,9.624614440239524
1.3205670231285749,-1.2689268798828124,1.5753846923828123,9.485826977539062,9.69911984683616
1.3230539666749563,-1.5131354492187499,1.6903063720703124,9.452308154296874,9.72074297381281
1.3255409102213378,-1.7717092285156248,1.867477294921875,9.437942944335937,9.782698608154943
1.3280278537677195,-1.924938134765625,2.1116858642578125,9.457096557617186,9.879335975260487
1.330514797314101,-2.0446482177734375,2.27927998046875,9.418789331054686,9.904004040114245
1.3330017408604824,-2.1835119140624997,2.4756045166015626,9.342174877929686,9.908207378294597
1.3354886844068639,-2.1739351074218747,2.7581203125,9.428366137695312,10.061178337349261
1.3379756279532453,-2.1835119140624997,2.940079638671875,9.337386474609374,10.029884283320715
1.3404625714996268,-2.1116858642578125,3.1364041748046874,9.303867651367186,10.042818409749092
1.3429495150460085,-2.0254946044921875,3.265691064453125,9.313444458007812,10.07509871880531
1.34543645859239,-1.8531120849609375,3.4524387939453125,9.289502441406249,10.082073875659685
1.3479234021387714,-1.637633935546875,3.6056677001953124,9.323021264648437,10.129235409060914
1.3504103456851528,-1.4413093994140624,3.706224169921875,9.318232861328125,10.131284915571555
1.3528972892315343,-1.1923124267578125,3.7014357666015623,9.275137231445312,10.057355831401283
1.3553842327779158,-0.9097966308593749,3.797203833007812,9.342174877929686,10.1253502807929
1.3578711763242974,-0.6272808349609375,3.806780639648437,9.332598071289063,10.09863589028438
1.360358119870679,-0.32082302246093747,3.7205893798828122,9.34696328125,10.065358181727738
1.3628450634170604,-0.033518823242187495,3.6343981201171873,9.366116894531249,10.046597378667395
1.3653320069634418,0.26815058593749996,3.5290532470703124,9.366116894531249,10.012505542541279
1.3678189505098233,0.4836287353515625,3.361459130859375,9.404424121093749,9.99882479552
1.370305894056205,0.7278373046875,3.2321722412109373,9.394847314453125,9.961919523908854
1.3727928376025864,0.9193734375,3.0358477050781247,9.471461767578125,9.988503732827196
1.3752797811489679,1.024718310546875,2.825157958984375,9.452308154296874,9.918553047343648
1.3777667246953493,1.16837041015625,2.5570073730468748,9.433154541015625,9.843159082115278
1.3802536682417308,1.2306196533203124,2.427720483398437,9.509768994140625,9.891610475477133
1.3827406117881123,1.2593500732421874,2.1212626708984375,9.471461767578125,9.787456561365492
1.385227555334494,1.139639990234375,1.9919757812499999,9.543287817382812,9.815349672112305
1.3877144988808754,1.0821791503906248,1.8195932617187498,9.548076220703125,9.779968858232062
1.3902014424272569,0.967257470703125,1.6807295654296874,9.533711010742186,9.728930286680406
1.3926883859736383,0.7709329345703124,1.5179238525390624,9.548076220703125,9.69866949267108
1.3951753295200198,0.5027823486328125,1.3742717529296875,9.567229833984374,9.678496765370015
1.3976622730664012,0.296881005859375,1.3551181396484375,9.581595043945311,9.681500249971679
1.400149216612783,0.0143652099609375,1.3407529296874998,9.581595043945311,9.674956762894611
1.4026361601591644,-0.2920926025390625,1.2928688964843749,9.543287817382812,9.634893379657191
1.4051231037055458,-0.584185205078125,1.2880804931640624,9.543287817382812,9.647526422669655
1.4076100472519273,-0.8379705810546875,1.4125789794921875,9.552864624023437,9.693028246783085
1.4100969907983087,-1.1348515869140625,1.5370774658203123,9.504980590820312,9.695109658592047
1.4125839343446902,-1.426944189453125,1.637633935546875,9.490615380859374,9.736005080836456
1.4150708778910719,-1.66636435546875,1.7908628417968748,9.418789331054686,9.7312667390271
1.4175578214374533,-1.8291700683593748,1.9632453613281249,9.399635717773437,9.775139237606817
1.4200447649838348,-1.9919757812499999,2.1883003173828124,9.437942944335937,9.890975321609329
1.4225317085302163,-2.0877438476562498,2.427720483398437,9.442731347656249,9.970841309686403
1.4250186520765977,-2.1883003173828124,2.6575638427734374,9.399635717773437,10.010217554295041
1.4275055956229792,-2.24097275390625,2.7629087158203123,9.366116894531249,10.018970462963233
1.4299925391693609,-2.1978771240234374,3.0119056884765625,9.351751684570312,10.067646164742117
1.4324794827157423,-2.1021090576171875,3.1747114013671873,9.294290844726563,10.043978159994925
1.4349664262621238,-1.9728221679687499,3.385401147460937,9.284714038085937,10.077642730554047
1.4374533698085052,-1.7525556152343749,3.5482068603515624,9.327809667968749,10.132583891100369
1.4399403133548867,-1.5849614990234373,3.6343981201171873,9.3086560546875,10.117906413550593
1.4424272569012682,-1.3359645263671873,3.749319799804687,9.337386474609374,10.15031951975587
1.4449142004476498,-1.0678139404296874,3.744531396484375,9.279925634765624,10.063734981477472
1.4474011439940313,-0.7852981445312499,3.768473413085937,9.327809667968749,10.090892836750921
1.4498880875404128,-0.45489831542968745,3.768473413085937,9.318232861328125,10.061699061314231
1.4523750310867942,-0.22505495605468748,3.6727053466796873,9.337386474609374,10.036244341036761
1.4548619746331757,0.06703764648437499,3.5817256835937497,9.380482104492186,10.041249794286538
1.4573489181795571,0.3495534423828125,3.4524387939453125,9.390058911132812,10.010730622165644
1.4598358617259388,0.63206923828125,3.337517114257812,9.375693701171874,9.972069212963737
1.4623228052723203,0.842758984375,3.1220389648437497,9.414000927734374,9.953933065433535
1.4648097488187017,0.9576806640625,2.906560815429687,9.442731347656249,9.926249207637317
1.4672966923650832,1.0917559570312498,2.710236279296875,9.423577734375,9.866160807281547
1.4697836359114647,1.20667763671875,2.5043349365234375,9.495403784179686,9.89396065374544
1.4722705794578461,1.216254443359375,2.29843359375,9.490615380859374,9.840419308305641
1.4747575230042278,1.1827356201171875,2.0829554443359375,9.552864624023437,9.848593272904571
1.4772444665506093,1.1013327636718748,1.85790048828125,9.552864624023437,9.793975219777273
1.4797314100969907,1.024718310546875,1.7286135986328124,9.605537060546874,9.8134853549026
1.4822183536433722,0.852335791015625,1.5418658691406248,9.5384994140625,9.699834933190237
1.4847052971897536,0.679953271484375,1.4125789794921875,9.543287817382812,9.671197350385974
1.487192240736135,0.411802685546875,1.3120225097656248,9.543287817382812,9.641852876048384
1.4896791842825168,0.181959326171875,1.2832920898437499,9.528922607421874,9.616668541780577
1.4921661278288982,-0.1197100830078125,1.22583125,9.581595043945311,9.660432513278463
1.4946530713752797,-0.4261678955078125,1.2737152832031249,9.543287817382812,9.63733947016675
1.4971400149216612,-0.6943184814453125,1.3359645263671873,9.485826977539062,9.604571454114748
1.4996269584680426,-1.0199299072265624,1.4413093994140624,9.490615380859374,9.653466222445648
1.5021139020144243,-1.2832920898437499,1.5466542724609373,9.476250170898437,9.687016843581405
1.5046008455608058,-1.5131354492187499,1.68551796875,9.514557397460937,9.780457667217838
1.5070877891071872,-1.7238251953125,1.8770541015625,9.495403784179686,9.83145962860046
1.5095747326535687,-1.9201497314453124,2.0733786376953125,9.447519750976562,9.861110658111135
1.5120616761999501,-2.0638018310546875,2.2840683837890623,9.418789331054686,9.909078607139971
1.5145486197463316,-2.1547814941406247,2.528276953125,9.433154541015625,10.000983563324041
1.5170355632927133,-2.2361843505859373,2.6815058593749996,9.356540087890625,9.986783092666638
1.5195225068390947,-2.24097275390625,2.93050283203125,9.323021264648437,10.026391735483921
1.5220094503854762,-2.1308394775390624,3.0693665283203124,9.323021264648437,10.043914240240156
1.5244963939318577,-12.172121240234373,11.362881079101562,8.480262280273436,18.686638281055195
1.5269833374782391,-10.577582934570312,10.850521923828124,8.465897070312499,17.35772162359777
1.5294702810246206,-8.86812294921875,10.156203442382813,8.480262280273436,15.928180101560791
1.5319572245710023,-7.005434057617187,9.260772021484375,8.547299926757812,14.41854156312228
1.5344441681173837,-5.0948611328124995,8.327033374023436,8.585607153320312,13.000374800977413
1.5369311116637652,-3.2130186279296873,7.278373046874999,8.767566479492187,11.839274677327774
1.5394180552101466,-1.4125789794921875,6.224924316406249,8.781931689453124,10.856674735687259
1.541904998756528,0.258573779296875,5.118803149414062,8.935160595703124,10.300781569997346
1.5443919423029095,1.7764976318359373,3.9935283691406247,9.045293872070312,10.045972023809464
1.5468788858492912,3.1555577880859373,2.9640216552734375,9.203311181640624,10.170737732976455
1.5493658293956727,4.295197778320312,2.0877438476562498,9.332598071289063,10.483548306205424
1.5518527729420541,5.190629199218749,1.20667763671875,9.399635717773437,10.80517718640382
1.5543397164884356,5.899312890625,0.4836287353515625,9.509768994140625,11.201405967871642
1.556826660034817,6.301538769531249,-0.21068974609375,9.619902270507811,11.502012898929292
1.5593136035811985,6.512228515625,-0.7230489013671875,9.701305126953125,11.706717777401773
1.5618005471275802,6.478709692382812,-1.1109095703125,9.749189160156249,11.758166890808065
1.5642874906739617,6.287173559570312,-1.3311761230468748,9.835380419921874,11.748842038401602
1.5667744342203431,5.856217260742187,-1.4604630126953124,9.859322436523437,11.56003770425513
1.5692613777667246,5.329492895507812,-1.5035586425781249,9.849745629882811,11.299631502324983
1.571748321313106,4.65432802734375,-1.43652099609375,9.883264453125,11.018406337067985
1.5742352648594875,3.84987626953125,-1.2114660400390624,9.916783276367187,10.70662354840702
1.5767222084058692,2.916137622070312,-1.0103531005859374,9.854534033203125,10.326495680058951
1.5792091519522506,2.039859814453125,-0.6751648681640625,9.86411083984375,10.095422642096105
1.581696095498632,1.1540052001953125,-0.26815058593749996,9.816226806640625,9.88746385370012
1.5841830390450136,0.19632453613281248,0.19632453613281248,9.744400756835937,9.748355387284581
1.586669982591395,-0.6703764648437499,0.6655880615234374,9.730035546875,9.77578660854
1.5891569261377765,-1.5035586425781249,1.0869675537109373,9.639055883789062,9.815986215622974
1.5916438696841582,-2.24097275390625,1.5322890624999999,9.576806640625,9.954149591337593
1.5941308132305396,-2.8203695556640622,2.0973206542968748,9.595960253906249,10.219378237055592
1.596617756776921,-3.3710359375,2.5043349365234375,9.485826977539062,10.373836812578855
1.5991047003233025,-3.7924154296875,2.916137622070312,9.423577734375,10.568353265196711
1.601591643869684,-4.094084838867187,3.3710359375,9.366116894531249,10.763343330108093
1.6040785874160655,-4.280832568359375,3.6343981201171873,9.270348828125,10.83853055395224
1.6065655309624471,-4.3430818115234375,3.9983167724609374,9.270348828125,10.990371423643822
1.6090524745088286,-4.290409374999999,4.228160131835938,9.265560424804686,11.051495857631291
1.61153941805521,-4.13718046875,4.405331054687499,9.203311181640624,11.010183497040904
1.6140263616015915,-3.897760302734375,4.496310717773437,9.193734375,10.951442699772159
1.616513305147973,-3.5146880371093747,4.587290380859375,9.179369165039063,10.846984986833652
1.6190002486943544,-3.0980969482421874,4.673481640625,9.165003955078124,10.744158079745668
1.6214871922407361,-2.6527754394531247,4.6255976074218745,9.1554271484375,10.595056254135658
1.6239741357871176,-2.1212626708984375,4.568136767578125,9.241618408203124,10.524976942924157
1.626461079333499,-1.637633935546875,4.4196962646484375,9.222464794921875,10.357095001600374
1.6289480228798805,-1.1252747802734375,4.2521021484374995,9.169792358398437,10.170138047637732
1.631434966426262,-0.584185205078125,4.04141240234375,9.255983618164063,10.116695077908178
1.6339219099726436,-0.0430956298828125,3.816357446289062,9.279925634765624,10.03411486768719
1.636408853519025,0.45489831542968745,3.6104561035156246,9.279925634765624,9.96791580720735
1.6388957970654066,0.8762778076171874,3.356670727539062,9.356540087890625,9.978975076907664
1.641382740611788,1.254561669921875,3.0885201416015624,9.370905297851563,9.946192625825129
1.6438696841581695,1.5562310791015623,2.748543505859375,9.409212524414063,9.925201605244792
1.646356627704551,1.7764976318359373,2.4947581298828125,9.490615380859374,9.972539409294887
1.6488435712509326,1.9584569580078124,2.231395947265625,9.524134204101562,9.976162281537924
1.651330514797314,2.0350714111328125,1.9632453613281249,9.519345800781249,9.93044774781269
1.6538174583436955,2.059013427734375,1.7764976318359373,9.533711010742186,9.91398637117562
1.656304401890077,2.001552587890625,1.5658078857421873,9.581595043945311,9.912866925531757
1.6587913454364585,1.85790048828125,1.3455413330078123,9.595960253906249,9.866343238390636
1.66127828898284,1.6472107421875,1.2401964599609374,9.605537060546874,9.824343881909725
1.6637652325292216,1.4413093994140624,1.1061211669921875,9.610325463867188,9.780553785055403
1.666252176075603,1.1348515869140625,1.0534487304687499,9.658209497070311,9.781546556723367
1.6687391196219845,0.7996633544921875,1.024718310546875,9.6151138671875,9.70257304922097
1.671226063168366,0.44053310546874996,1.01514150390625,9.619902270507811,9.683341436926012
1.6737130067147474,0.0383072265625,1.0342951171875,9.605537060546874,9.661137409983583
1.676199950261129,-0.3687070556640625,1.197100830078125,9.595960253906249,9.677367848997923
1.6786868938075106,-0.7278373046875,1.2210428466796874,9.595960253906249,9.700677603655885
1.681173837353892,-1.13006318359375,1.3455413330078123,9.524134204101562,9.684867403092506
1.6836607809002735,-1.4939818359375,1.5705962890624998,9.490615380859374,9.735015908396482
1.686147724446655,-1.8004396484374998,1.7573440185546874,9.476250170898437,9.804547833973189
1.6886346679930364,-2.001552587890625,1.9823989746093749,9.481038574218749,9.890713366711617
1.6911216115394179,-2.221819140625,2.2170307373046874,9.409212524414063,9.918920602232474
1.6936085550857995,-2.427720483398437,2.442085693359375,9.380482104492186,9.992549914407286
1.696095498632181,-2.518700146484375,2.6862942626953124,9.390058911132812,10.086289389474947
1.6985824421785625,-2.5522189697265625,2.882618798828125,9.323021264648437,10.086725846868069
1.701069385724944,-2.5665841796874997,3.1364041748046874,9.323021264648437,10.165781376767915
1.7035563292713254,-2.446874096679687,3.35188232421875,9.289502441406249,10.174338483130231
1.7060432728177068,-2.29843359375,3.5146880371093747,9.323021264648437,10.225192149009485
1.7085302163640885,-2.1356278808593747,3.6535517333984373,9.289502441406249,10.208045960075577
1.71101715991047,-1.9488801513671874,3.7301661865234372,9.2320416015625,10.146076372492791
1.7135041034568514,-1.6807295654296874,3.782838623046875,9.251195214843749,10.13505465319613
1.715991047003233,-1.3742717529296875,3.806780639648437,9.246406811523437,10.093376076095135
1.7184779905496144,-1.0438719238281249,3.825934252929687,9.260772021484375,10.074191775770654
1.7209649340959958,-0.70868369140625,3.787627026367187,9.275137231445312,10.043730468679222
1.7234518776423775,-0.38307226562499996,3.797203833007812,9.351751684570312,10.100532702781766
1.725938821188759,-0.047884033203124995,3.7158009765625,9.3852705078125,10.094194979436137
1.7284257647351404,0.26336218261718747,3.5242648437499997,9.342174877929686,9.988294838356827
1.7309127082815219,0.5363011718749999,3.394977954101562,9.337386474609374,9.949888463294863
1.7333996518279033,0.7805097412109374,3.2034418212890623,9.404424121093749,9.965662447018707
1.7358865953742848,1.0007762939453124,2.96881005859375,9.414000927734374,9.921632921143273
1.7383735389206665,1.149216796875,2.748543505859375,9.476250170898437,9.933504313749204
1.740860482467048,1.24498486328125,2.5522189697265625,9.481038574218749,9.89716633310037
1.7433474260134294,1.369483349609375,2.360682836914062,9.5001921875,9.884430165709805
1.7458343695598109,1.37906015625,2.1452046874999997,9.548076220703125,9.882786529222653
1.7483213131061923,1.3359645263671873,1.9393033447265624,9.567229833984374,9.85279581514099
1.7508082566525738,1.1875240234375,1.7573440185546874,9.504980590820312,9.738743622134324
1.7532952001989555,1.0869675537109373,1.656787548828125,9.581595043945311,9.784344997542227
1.755782143745337,0.8810662109374999,1.4987702392578124,9.576806640625,9.733335262388724
1.7582690872917184,0.5889736083984375,1.3359645263671873,9.5384994140625,9.64959388778471
1.7607560308380998,0.37828386230468747,1.254561669921875,9.600748657226562,9.689757398580985
1.7632429743844813,0.1005564697265625,1.2401964599609374,9.581595043945311,9.662047528814007
1.765729917930863,-0.21068974609375,1.2880804931640624,9.576806640625,9.665338429558373
1.7682168614772444,-0.488417138671875,1.2880804931640624,9.557653027343749,9.65641931822098
1.770703805023626,-0.8044517578125,1.37906015625,9.485826977539062,9.619244408632715
1.7731907485700074,-1.13006318359375,1.446097802734375,9.533711010742186,9.708753127479039
1.7756776921163888,-1.388636962890625,1.6424223388671875,9.481038574218749,9.72193171132877
1.7781646356627703,-1.6711527587890624,1.7334020019531249,9.452308154296874,9.754156216063517
1.780651579209152,-11.635820068359374,9.892841259765625,8.59997236328125,17.527696411775196
1.7831385227555334,-10.36210478515625,9.375693701171874,8.571241943359375,16.39338392182514
1.7856254663019149,-18.306065893554685,16.543933471679686,7.7763669921875,25.870555981882433
1.7881124098482963,-15.342044238281249,14.939818359375,7.824251025390624,22.79902186780879
1.7905993533946778,-12.08592998046875,13.254300390625,7.9295958984374995,19.611850332139294
1.7930862969410593,-8.863334545898438,11.334150659179686,8.039729174804688,16.482078620177298
1.795573240487441,-5.655104321289063,9.409212524414063,8.21690009765625,13.71243714403519
1.7980601840338224,-2.6240450195312497,7.513004809570312,8.394071020507813,11.566818137693808
1.8005471275802039,0.2154781494140625,5.5832782714843745,8.576030346679687,10.23561056297451
1.8030340711265853,2.786850732421875,3.7924154296875,8.796296899414061,9.976161132358158
1.8055210146729668,5.003881469726562,2.1452046874999997,8.987833032226561,10.508181361659483
1.8080079582193482,6.89530078125,0.699106884765625,9.203311181640624,11.521061583306674
1.81049490176573,8.384494213867187,-0.6272808349609375,9.351751684570312,12.575710080871985
1.8129818453121114,9.5384994140625,-1.66636435546875,9.528922607421874,13.585290107152042
1.8154687888584928,10.228029492187499,-2.47081611328125,9.682151513671874,14.29900617149339
1.8179557324048743,10.59194814453125,-3.1411925781249996,9.797073193359374,14.766147075840312
1.8204426759512558,10.615890161132812,-3.4763808105468748,9.945513696289062,14.956456469907847
1.8229296194976372,10.366893188476562,-3.6439749267578123,9.988609326171874,14.850028414754265
1.825416563044019,9.744400756835937,-3.5913024902343746,10.089165795898436,14.479021587915232
1.8279035065904004,8.968679418945312,-3.404554760742187,10.108319409179687,13.93579294179934
1.8303904501367818,7.924807495117187,-3.1124621582031247,10.122684619140625,13.22719692223179
1.8328773936831633,6.833051538085937,-2.6144682128906247,10.17056865234375,12.528627381736255
1.8353643372295447,5.5641246582031245,-2.1308394775390624,10.098742602539062,11.725381112927648
1.8378512807759262,4.185064501953125,-1.4700398193359374,10.031704956054687,10.968631923866967
1.8403382243223079,2.901772412109375,-0.833182177734375,10.007762939453125,10.453219347419468
1.8428251678686893,1.637633935546875,-0.05746083984375,9.935936889648437,10.070153351863464
1.8453121114150708,0.33039982910156246,0.565031591796875,9.873687646484374,9.895359138865905
1.8477990549614522,-0.8571241943359375,1.2210428466796874,9.777919580078125,9.891072683608124
1.8502859985078337,-1.9105729248046874,1.8435352783203125,9.715670336914062,10.071899588409334
1.8527729420542152,-2.882618798828125,2.389413256835937,9.639055883789062,10.34070525554757
1.8552598856005968,-3.6822821533203123,2.916137622070312,9.562441430664062,10.653794939006277
1.8577468291469783,-4.319139794921875,3.366247534179687,9.4618849609375,10.932239388316734
1.8602337726933598,-4.841075756835937,3.7397429931640622,9.380482104492186,11.198889974057362
1.8627207162397412,-5.238513232421875,4.055777612304687,9.303867651367186,11.421615743881762
1.8652076597861227,-5.386953735351562,4.299986181640625,9.251195214843749,11.536627089936918
1.8676946033325041,-5.449202978515625,4.486733911132812,9.251195214843749,11.636546188346463
1.8701815468788858,-5.439626171875,4.611232397460937,9.193734375,11.635194406248546
1.8726684904252673,-5.272032055664062,4.620809204101562,9.169792358398437,11.542586001100512
1.8751554339716487,-4.955997436523437,4.601655590820312,9.126696728515624,11.359301824568819
1.8776423775180302,-4.510675927734375,4.649539624023437,9.179369165039063,11.2350004142624
1.8801293210644117,-4.070142822265625,4.520252734375,9.121908325195312,10.963939021607727
1.8826162646107931,-3.5673604736328124,4.42448466796875,9.107543115234375,10.735430448835357
1.8851032081571748,-3.0166940917968748,4.295197778320312,9.160215551757812,10.55740101317723
1.8875901517035563,-2.403778466796875,4.046200805664062,9.1554271484375,10.294257532602304
1.8900770952499377,-1.8243816650390623,3.892971899414062,9.179369165039063,10.136292070448057
1.8925640387963192,-1.20667763671875,3.7397429931640622,9.217676391601563,10.020344636496574
1.8950509823427006,-0.6655880615234374,3.5529952636718747,9.188945971679686,9.874386607874214
1.897537925889082,-0.1292868896484375,3.327940307617187,9.251195214843749,9.832421608843166
1.9000248694354638,0.373495458984375,3.1747114013671873,9.327809667968749,9.860340995204172
1.9025118129818452,0.86191259765625,2.987963671875,9.342174877929686,9.84616939120305
1.9049987565282267,1.2737152832031249,2.7724855224609373,9.318232861328125,9.805023725257172
1.9074857000746082,1.5562310791015623,2.5905261962890624,9.399635717773437,9.873491417531271
1.9099726436209896,1.8722656982421875,2.4516625,9.423577734375,9.915636397858123
1.9124595871673713,2.04943662109375,2.3127988037109373,9.471461767578125,9.962821728055815
1.9149465307137528,2.1739351074218747,2.1643583007812497,9.548076220703125,10.028768629388082
1.9174334742601342,2.2457611572265623,1.9871873779296874,9.509768994140625,9.971362152295395
1.9199204178065157,2.269703173828125,1.9105729248046874,9.576806640625,10.025820007869745
1.9224073613528971,2.1691467041015624,1.7621324218749999,9.591171850585937,9.990039317420617
1.9248943048992786,2.0446482177734375,1.6807295654296874,9.581595043945311,9.94044273625229
1.9273812484456603,1.8291700683593748,1.5849614990234373,9.619902270507811,9.919701900081968
1.9298681919920417,1.608903515625,1.5322890624999999,9.619902270507811,9.87314539484601
1.9323551355384232,1.3120225097656248,1.4030021728515625,9.586383447265625,9.776940511282978
1.9348420790848047,0.9911994873046874,1.43652099609375,9.567229833984374,9.725119829191408
1.9373290226311861,0.6751648681640625,1.407790576171875,9.619902270507811,9.745780707551482
1.9398159661775676,0.2825157958984375,1.43652099609375,9.557653027343749,9.669133318878348
1.9423029097239493,-0.0909796630859375,1.484405029296875,9.572018237304688,9.686860622791608
1.9447898532703307,-0.4740519287109375,1.4987702392578124,9.557653027343749,9.686060543497165
1.9472767968167122,-0.8188169677734375,1.5897499023437498,9.533711010742186,9.699969670832091
1.9497637403630936,-1.16837041015625,1.6711527587890624,9.509768994140625,9.725921410357754
1.952250683909475,-1.484405029296875,1.838746875,9.533711010742186,9.822224493345228
1.9547376274558566,-1.7190367919921874,1.9105729248046874,9.471461767578125,9.81396782182995
1.9572245710022382,-2.0302830078125,2.020706201171875,9.399635717773437,9.826416145783202
1.9597115145486197,-2.2553379638671873,2.1595698974609374,9.409212524414063,9.91380712959812
1.9621984580950012,-2.375048046875,2.365471240234375,9.3852705078125,9.965922431875326
1.9646854016413826,-2.4660277099609376,2.528276953125,9.375693701171874,10.018837726812038
1.967172345187764,-2.5570073730468748,2.7341782958984373,9.399635717773437,10.117666197617924
1.9696592887341455,-2.5426421630859375,2.887407202148437,9.351751684570312,10.11224055738315
1.9721462322805272,-2.4660277099609376,3.0166940917968748,9.351751684570312,10.13099183099271
1.9746331758269087,-2.418143676757812,3.1124621582031247,9.279925634765624,10.082254674152523
1.9771201193732901,-2.250549560546875,3.323151904296875,9.251195214843749,10.084290991768215
1.9796070629196716,-2.039859814453125,3.418919970703125,9.313444458007812,10.128686464744074
1.982094006466053,-1.848323681640625,3.5529952636718747,9.303867651367186,10.12926596797345
1.9845809500124345,-1.5514426757812498,3.6152445068359373,9.299079248046874,10.0970214460453
1.9870678935588162,-1.2641384765625,3.6727053466796873,9.275137231445312,10.055594528102171
1.9895548371051976,-0.93852705078125,3.6679169433593746,9.284714038085937,10.026981724201008
1.992041780651579,-0.6272808349609375,3.6343981201171873,9.327809667968749,10.030471780692666
1.9945287241979606,-0.33518823242187495,3.6248213134765623,9.313444458007812,9.99959641076501
1.997015667744342,-0.009576806640625,3.5338416503906247,9.342174877929686,9.988211049786718
1.9995026112907235,0.26336218261718747,3.5051112304687497,9.342174877929686,9.981552776347556
2.001989554837105,0.5602431884765625,3.299209887695312,9.342174877929686,9.923451504548275
2.0044764983834864,-9.05965908203125,11.046846459960937,8.508992700195313,16.628685942207216
2.006963441929868,-7.4411787597656245,10.256759912109374,8.576030346679687,15.300998716966546
2.0094503854762498,-5.722141967773437,9.198522778320312,8.633491186523438,13.852541285641763
2.011937329022631,-3.9360675292968748,8.015787158203125,8.719682446289061,12.481119073421299
2.0144242725690127,-2.24097275390625,6.828263134765624,8.844180932617187,11.395905961801319
2.016911216115394,-0.6368576416015624,5.578489868164062,8.968679418945312,10.581226175859234
2.0193981596617756,0.7900865478515624,4.280832568359375,9.05965908203125,10.051228129639364
2.021885103208157,2.0925322509765625,3.0550013183593747,9.217676391601563,9.933643960644218
2.0243720467545385,3.1794998046874996,1.9584569580078124,9.313444458007812,10.034192560279749
2.02685899030092,4.070142822265625,0.948103857421875,9.409212524414063,10.295544854338166
2.0293459338473014,4.668693237304687,0.0047884033203125,9.5001921875,10.585384786218066
2.031832877393683,5.05655390625,-0.7517793212890624,9.552864624023437,10.834718827899891
2.0343198209400644,5.238513232421875,-1.350329736328125,9.667786303710937,11.078425127123975
2.036806764486446,5.166687182617188,-1.7956512451171873,9.696516723632811,11.132899730474644
2.0392937080328277,4.96078583984375,-2.04943662109375,9.7683427734375,11.145856052903387
2.041780651579209,4.544194750976562,-2.1260510742187497,9.787496386718749,10.998403730770306
2.0442675951255906,3.9695863525390624,-2.0877438476562498,9.782707983398437,10.761861626695374
2.046754538671972,3.308786694335937,-1.915361328125,9.801861596679688,10.521082129056659
2.0492414822183536,2.5905261962890624,-1.5418658691406248,9.816226806640625,10.268713894713917
2.0517284257647352,1.7812860351562498,-1.13006318359375,9.773131176757811,9.998205625814675
2.0542153693111165,0.74699091796875,-0.5363011718749999,9.897629663085937,9.940255898420368
2.056702312857498,0.201112939453125,-0.0,9.696516723632811,9.69860211505278
2.0591892564038794,-0.5985504150390625,0.59376201171875,9.65342109375,9.690167941741834
2.061676199950261,-1.2593500732421874,1.2306196533203124,9.605537060546874,9.765589053388064
2.0641631434966423,-1.867477294921875,1.838746875,9.524134204101562,9.878137165230513
2.066650087043024,-2.384624853515625,2.480392919921875,9.485826977539062,10.090574719856686
2.0691370305894057,-2.825157958984375,3.0645781249999997,9.418789331054686,10.299842185209968
2.071623974135787,-3.1124621582031247,3.5960908935546874,9.356540087890625,10.495910290072878
2.0741109176821686,-3.265691064453125,4.060566015625,9.332598071289063,10.688794190923783
2.07659786122855,-3.31357509765625,4.496310717773437,9.270348828125,10.822936634467121
2.0790848047749315,-3.308786694335937,4.73094248046875,9.2320416015625,10.888548033374287
2.081571748321313,-3.1651345947265623,4.927267016601562,9.251195214843749,10.949002244897589
2.0840586918676944,-2.93050283203125,5.109226342773437,9.193734375,10.918644257795464
2.086545635414076,-2.5857377929687497,5.128379956054687,9.184157568359375,10.832131422213411
2.0890325789604574,-2.2170307373046874,5.128379956054687,9.203311181640624,10.7664498777419
2.091519522506839,-1.7860744384765623,4.979939453125,9.246406811523437,10.65297600582848
2.0940064660532203,-1.3359645263671873,4.764461303710937,9.203311181640624,10.449202334933599
2.096493409599602,-0.86191259765625,4.505887524414062,9.212887988281249,10.29190073763276
2.0989803531459836,-0.4261678955078125,4.218583325195312,9.246406811523437,10.172222140268296
2.101467296692365,0.033518823242187495,3.902548706054687,9.313444458007812,10.098081876625733
2.1039542402387466,0.4213794921875,3.5098996337890624,9.380482104492186,10.024490043309283
2.106441183785128,0.718260498046875,3.0645781249999997,9.327809667968749,9.844570606640714
2.1089281273315095,1.024718310546875,2.748543505859375,9.433154541015625,9.87871163736727
2.111415070877891,1.2641384765625,2.3511060302734372,9.452308154296874,9.82200972801906
2.1139020144242724,1.3168109130859373,1.9488801513671874,9.476250170898437,9.763782163007727
2.116388957970654,1.4173673828125,1.66636435546875,9.485826977539062,9.73481452883646
2.1188759015170353,1.39821376953125,1.369483349609375,9.552864624023437,9.751292679182722
2.121362845063417,1.35990654296875,1.139639990234375,9.572018237304688,9.735073612882656
2.1238497886097982,1.20667763671875,0.9576806640625,9.528922607421874,9.652646747473568
2.12633673215618,0.9959878906249999,0.8044517578125,9.533711010742186,9.61929208129507
2.1288236757025616,0.7230489013671875,0.7422025146484375,9.605537060546874,9.66126319422353
2.131310619248943,0.38786066894531246,0.718260498046875,9.562441430664062,9.597219397119657
2.1337975627953245,0.1149216796875,0.7709329345703124,9.562441430664062,9.594156070074531
2.1362845063417057,-0.316034619140625,0.8475473876953125,9.485826977539062,9.528857638914142
2.1387714498880874,-0.565031591796875,1.0295067138671874,9.576806640625,9.648542387611986
2.141258393434469,-0.93852705078125,1.2018892333984375,9.481038574218749,9.602888273859648
2.1437453369808503,-1.2401964599609374,1.4317325927734375,9.485826977539062,9.673099757798285
2.146232280527232,-1.5083470458984374,1.656787548828125,9.509768994140625,9.770146473556109
2.1487192240736133,-1.7573440185546874,1.915361328125,9.428366137695312,9.780130625061524
2.151206167619995,-1.9728221679687499,2.2361843505859373,9.366116894531249,9.829379097290838
2.153693111166376,-2.1068974609374997,2.5617957763671875,9.394847314453125,9.963180745756082
2.156180054712758,-2.231395947265625,2.7820623291015623,9.342174877929686,9.999761503470971
2.1586669982591395,-2.2026655273437497,3.0741549316406247,9.34696328125,10.083049466808871
2.161153941805521,-2.1930887207031247,3.246537451171875,9.303867651367186,10.09512738071658
2.1636408853519025,-2.1164742675781247,3.5242648437499997,9.270348828125,10.140970042817951
2.1661278288982837,-1.89620771484375,3.6822821533203123,9.299079248046874,10.179768190678521
2.1686147724446654,-1.8052280517578123,3.859453076171875,9.251195214843749,10.185226520268154
2.171101715991047,-1.5227122558593749,3.9360675292968748,9.294290844726563,10.207601212611
2.1735886595374283,-1.2497732666015624,3.9743747558593747,9.294290844726563,10.185353711299976
2.17607560308381,-0.9720458740234375,3.9408559326171875,9.251195214843749,10.102466608012023
2.178562546630191,-0.6464344482421874,3.9743747558593747,9.260772021484375,10.098288500027826
2.181049490176573,-0.3687070556640625,3.83072265625,9.294290844726563,10.059533948865202
2.1835364337229546,-0.062249243164062495,3.744531396484375,9.342174877929686,10.064870679613934
2.186023377269336,0.2346317626953125,3.5721488769531247,9.356540087890625,10.017990920313677
2.1885103208157175,0.5027823486328125,3.385401147460937,9.342174877929686,9.9493699533763
2.1909972643620987,0.7230489013671875,3.1699229980468746,9.361328491210937,9.909878033945343
2.1934842079084804,0.9337386474609375,3.0071172851562498,9.466673364257812,9.97659896026677
2.1959711514548617,1.0630255371093749,2.7341782958984373,9.423577734375,9.869628744898007
2.1984580950012433,1.1540052001953125,2.4564509033203126,9.481038574218749,9.861844223487049
2.200945038547625,1.197100830078125,2.2601263671875,9.504980590820312,9.843062410901434
2.2034319820940063,1.197100830078125,2.0254946044921875,9.485826977539062,9.77325903872442
2.205918925640388,1.1061211669921875,1.7477672119140624,9.485826977539062,9.708712979119214
2.208405869186769,0.9959878906249999,1.6328455322265625,9.552864624023437,9.742453435110805
2.210892812733151,0.8475473876953125,1.4700398193359374,9.524134204101562,9.674114222116653
2.2133797562795325,0.6416460449218749,1.2976572998046874,9.533711010742186,9.642990705743061
2.2158666998259138,0.40222587890625,1.2210428466796874,9.557653027343749,9.643726597233181
2.2183536433722955,0.12449848632812499,1.149216796875,9.509768994140625,9.579765416816636
2.2208405869186767,-0.1388636962890625,1.158793603515625,9.533711010742186,9.604880601967032
2.2233275304650584,-0.4644751220703125,1.2018892333984375,9.5001921875,9.587175103638055
2.2258144740114396,-0.7565677246093749,1.2832920898437499,9.528922607421874,9.644666887353438
2.2283014175578213,-1.024718310546875,1.43652099609375,9.504980590820312,9.667383111269515
2.230788361104203,-1.3168109130859373,1.5514426757812498,9.485826977539062,9.701643098200705
2.233275304650584,-1.5610194824218748,1.714248388671875,9.481038574218749,9.76040582191072
2.235762248196966,-1.7812860351562498,1.915361328125,9.457096557617186,9.812148809328885
2.238249191743347,-1.915361328125,2.1164742675781247,9.409212524414063,9.83266762746446
2.240736135289729,-2.0733786376953125,2.35589443359375,9.3852705078125,9.89608205616265
2.2432230788361105,-2.1260510742187497,2.6048914062499997,9.366116894531249,9.951366644364255
2.2457100223824917,-2.2266075439453124,2.786850732421875,9.34696328125,10.004501024068631
2.2481969659288734,-2.1930887207031247,3.0023288818359375,9.332598071289063,10.045944635115696
2.2506839094752547,-2.1260510742187497,3.2034418212890623,9.284714038085937,10.049280941520172
2.2531708530216363,-1.9776105712890624,3.366247534179687,9.327809667968749,10.111903838293575
2.2556577965680176,-1.8148048583984373,3.5338416503906247,9.323021264648437,10.134114612791246
2.2581447401143993,-1.62805712890625,3.6439749267578123,9.289502441406249,10.110587465163176
2.260631683660781,-1.407790576171875,3.7301661865234372,9.265560424804686,10.08695316094746
2.263118627207162,-1.120486376953125,3.806780639648437,9.3086560546875,10.119196910022552
2.265605570753544,-0.814028564453125,3.83072265625,9.323021264648437,10.112161196991453
2.268092514299925,-0.5458779785156249,3.768473413085937,9.299079248046874,10.04849488699775
2.2705794578463068,-0.2442085693359375,3.763685009765625,9.303867651367186,10.039268696086799
2.2730664013926885,0.033518823242187495,3.6296097167968746,9.351751684570312,10.031472961516743
2.2755533449390697,0.3064578125,3.4859576171874997,9.327809667968749,9.962622651768012
2.2780402884854514,0.5458779785156249,3.39018955078125,9.375693701171874,9.984738370926333
2.2805272320318326,0.8092401611328125,3.1747114013671873,9.394847314453125,9.949714477423369
2.2830141755782143,0.9864110839843749,2.9927520751953125,9.433154541015625,9.945550583294864
2.2855011191245955,1.0678139404296874,2.7437551025390623,9.466673364257812,9.913945897554285
2.287988062670977,1.2018892333984375,2.5426421630859375,9.490615380859374,9.898552783425764
2.290475006217359,1.20667763671875,2.3223756103515623,9.495403784179686,9.84947675864697
2.29296194976374,1.20667763671875,2.1547814941406247,9.524134204101562,9.839120211898285
2.295448893310122,1.1061211669921875,1.9105729248046874,9.576806640625,9.827971223451154
2.297935836856503,1.005564697265625,1.7190367919921874,9.528922607421874,9.734814528836457
2.3004227804028847,0.8810662109374999,1.5610194824218748,9.552864624023437,9.719582399335625
2.3029097239492664,0.6272808349609375,1.4700398193359374,9.543287817382812,9.676199702452907
2.3053966674956476,0.45968671875,1.407790576171875,9.557653027343749,9.671707066327361
2.3078836110420293,0.1771709228515625,1.3407529296874998,9.533711010742186,9.629156431937144
2.3103705545884106,-0.143652099609375,1.2641384765625,9.485826977539062,9.570767757158032
2.3128574981347922,-0.411802685546875,1.3311761230468748,9.548076220703125,9.649216073793259
2.315344441681174,-0.699106884765625,1.3646949462890625,9.533711010742186,9.65623054660049
2.317831385227555,-1.0486603271484374,1.4413093994140624,9.5001921875,9.665956386515015
2.320318328773937,-1.2785036865234374,1.5418658691406248,9.457096557617186,9.666881468962451
2.322805272320318,-1.5275006591796874,1.714248388671875,9.442731347656249,9.717874310046847
2.3252922158666998,-1.7238251953125,1.867477294921875,9.442731347656249,9.778763728358145
2.327779159413081,-1.915361328125,2.0542250244140625,9.366116894531249,9.778169314868167
2.3302661029594627,-2.0829554443359375,2.2744915771484373,9.414000927734374,9.906332761672786
2.3327530465058444,-2.1739351074218747,2.4947581298828125,9.404424121093749,9.969604055693871
2.3352399900522256,-2.231395947265625,2.7054478759765623,9.375693701171874,10.010105317192897
2.3377269335986073,-2.2266075439453124,2.887407202148437,9.327809667968749,10.015135281543834
2.3402138771449885,-2.1787235107421874,3.0693665283203124,9.294290844726563,10.027546525835811
2.34270082069137,-2.068590234375,3.2704794677734372,9.289502441406249,10.063297526942742
2.345187764237752,-1.867477294921875,3.4715924072265625,9.299079248046874,10.100113868190688
2.347674707784133,-1.7381904052734374,3.5194764404296874,9.255983618164063,10.053917298219922
2.350161651330515,-1.465251416015625,3.7301661865234372,9.294290844726563,10.121508968409136
2.352648594876896,-1.1923124267578125,3.73495458984375,9.284714038085937,10.078561875596442
2.3551355384232777,-0.97683427734375,3.749319799804687,9.303867651367186,10.078370773133816
2.357622481969659,-0.6655880615234374,3.744531396484375,9.265560424804686,10.01574424756376
2.3601094255160406,-0.3399766357421875,3.749319799804687,9.313444458007812,10.045557761839532
2.3625963690624223,-0.06703764648437499,3.6152445068359373,9.299079248046874,9.977342419287293
2.3650833126088036,0.229843359375,3.5482068603515624,9.351751684570312,10.004891776703952
2.3675702561551852,0.4836287353515625,3.39018955078125,9.399635717773437,10.00402087016647
2.3700571997015665,0.6703764648437499,3.23696064453125,9.394847314453125,9.959441494418634
2.372544143247948,0.9002198242187499,2.987963671875,9.409212524414063,9.913203466385204
2.37503108679433,1.0342951171875,2.8730419921875,9.414000927734374,9.8968454643737
2.377518030340711,1.16837041015625,2.6240450195312497,9.418789331054686,9.84704494468493
2.3800049738870928,1.2114660400390624,2.43250888671875,9.471461767578125,9.853595154299153
2.382491917433474,1.22583125,2.212242333984375,9.509768994140625,9.840344745976514
2.3849788609798557,1.1635820068359375,2.0350714111328125,9.5001921875,9.785146413543258
2.387465804526237,1.1013327636718748,1.8531120849609375,9.514557397460937,9.755704009723955
2.3899527480726186,0.9624690673828125,1.637633935546875,9.509768994140625,9.697623313701243
2.3924396916190003,0.8044517578125,1.5275006591796874,9.543287817382812,9.6981824719815
2.3949266351653815,0.5458779785156249,1.3934253662109375,9.504980590820312,9.622072180694719
2.397413578711763,0.33518823242187495,1.3551181396484375,9.509768994140625,9.61168053180487
2.3999005222581444,0.0383072265625,1.3024457031249999,9.548076220703125,9.636575728418896
2.402387465804526,-0.239420166015625,1.3120225097656248,9.5384994140625,9.631287357051356
2.404874409350908,-0.5458779785156249,1.3024457031249999,9.572018237304688,9.675633349414943
2.407361352897289,-0.8044517578125,1.3838485595703125,9.514557397460937,9.64826315644692
2.4098482964436707,-1.1444283935546875,1.5131354492187499,9.5001921875,9.687773058608084
2.412335239990052,-1.3934253662109375,1.6424223388671875,9.457096557617186,9.699271142230476
2.4148221835364336,-1.637633935546875,1.7573440185546874,9.471461767578125,9.77131981469744
2.417309127082815,-1.848323681640625,1.93451494140625,9.437942944335937,9.80986317494684
2.4197960706291965,-2.04943662109375,2.1452046874999997,9.399635717773437,9.856736033900589
2.4222830141755782,-2.1116858642578125,2.346317626953125,9.394847314453125,9.910982779610926
2.4247699577219595,-2.24097275390625,2.5570073730468748,9.337386474609374,9.937154107982039
2.427256901268341,-2.1835119140624997,2.806004345703125,9.380482104492186,10.031691242241054
2.4297438448147224,-2.1787235107421874,3.0693665283203124,9.323021264648437,10.054181842523079
2.432230788361104,-2.1164742675781247,3.21780703125,9.332598071289063,10.09609489733088
2.4347177319074857,-1.9680337646484374,3.385401147460937,9.299079248046874,10.089944137084315
2.437204675453867,-1.848323681640625,3.4668040039062498,9.279925634765624,10.077303717780572
2.4396916190002487,-1.6328455322265625,3.6343981201171873,9.270348828125,10.09031226586879
2.44217856254663,-1.3407529296874998,3.7397429931640622,9.270348828125,10.085765388333396
2.4446655060930116,-1.0821791503906248,3.787627026367187,9.294290844726563,10.09460610973877
2.4471524496393933,-0.7948749511718749,3.768473413085937,9.275137231445312,10.042977084275313
2.4496393931857745,-0.5410895751953124,3.69664736328125,9.255983618164063,9.981543587870604
2.452126336732156,-0.2346317626953125,3.6918589599609373,9.332598071289063,10.03903687634116
2.4546132802785374,0.028730419921875,3.5673604736328124,9.313444458007812,9.973321104740538
2.457100223824919,0.32561142578124996,3.4955344238281247,9.318232861328125,9.957622576031994
2.4595871673713003,0.6081272216796875,3.3327287109375,9.414000927734374,10.00501438508904
2.462074110917682,0.8092401611328125,3.1268273681640624,9.375693701171874,9.916428359388476
2.4645610544640637,0.9193734375,2.906560815429687,9.394847314453125,9.877069370681719
2.467047998010445,1.0869675537109373,2.710236279296875,9.418789331054686,9.861058341538543
2.4695349415568266,1.1731588134765625,2.5043349365234375,9.4618849609375,9.857751370872814
2.472021885103208,1.1875240234375,2.327164013671875,9.476250170898437,9.829812966390726
2.4745088286495895,1.2210428466796874,2.1116858642578125,9.495403784179686,9.803716430382297
2.4769957721959712,1.1109095703125,1.9728221679687499,9.543287817382812,9.808184834374197
2.4794827157423525,1.0342951171875,1.7525556152343749,9.528922607421874,9.743797187552866
2.481969659288734,0.8571241943359375,1.5562310791015623,9.567229833984374,9.730796665862375
2.4844566028351154,0.6751648681640625,1.484405029296875,9.572018237304688,9.70993506803719
2.486943546381497,0.44053310546874996,1.3646949462890625,9.533711010742186,9.640959876992936
2.4894304899278783,0.19153613281249998,1.3311761230468748,9.581595043945311,9.675519600874168
2.49191743347426,-0.12449848632812499,1.2641384765625,9.509768994140625,9.594230155825018
2.4944043770206417,-0.3591302490234375,1.3072341064453123,9.552864624023437,9.648578033562043
2.496891320567023,-0.679953271484375,1.3311761230468748,9.562441430664062,9.678566651981738
2.4993782641134046,-0.9433154541015625,1.446097802734375,9.490615380859374,9.646389127980715
2.501865207659786,-1.254561669921875,1.5466542724609373,9.476250170898437,9.68325264173209
2.5043521512061675,-1.5179238525390624,1.6807295654296874,9.447519750976562,9.71517236796696
2.506839094752549,-1.7573440185546874,1.8052280517578123,9.428366137695312,9.759159510164944
2.5093260382989304,-1.9105729248046874,2.0638018310546875,9.452308154296874,9.861830273465904
2.511812981845312,-2.0925322509765625,2.221819140625,9.34696328125,9.832644308427943
2.5142999253916933,-2.1212626708984375,2.4756045166015626,9.34696328125,9.899196716027063
2.516786868938075,-2.2074539306640624,2.6527754394531247,9.366116894531249,9.981694048115962
2.5192738124844563,-2.2266075439453124,2.8730419921875,9.294290844726563,9.979779243550174
2.521760756030838,-2.1739351074218747,3.0741549316406247,9.313444458007812,10.04572894654281
2.5242476995772196,-2.020706201171875,3.208230224609375,9.313444458007812,10.055657233515271
2.526734643123601,-1.9297265380859374,3.418919970703125,9.270348828125,10.067384251779822
2.5292215866699825,-1.7429788085937499,3.5194764404296874,9.299079248046874,10.094432346764355
2.5317085302163638,-1.5131354492187499,3.7110125732421873,9.313444458007812,10.139104540285619
2.5341954737627455,-1.235408056640625,3.801992236328125,9.289502441406249,10.113171294920528
2.536682417309127,-0.9576806640625,3.73495458984375,9.299079248046874,10.066772715422262
2.5391693608555084,-0.6751648681640625,3.797203833007812,9.289502441406249,10.058303045618823
2.54165630440189,-0.38307226562499996,3.7205893798828122,9.299079248046874,10.023093562161527
2.5441432479482713,-0.105344873046875,3.6583401367187496,9.332598071289063,10.024566666865603
2.546630191494653,0.21068974609375,3.5865140869140624,9.351751684570312,10.018120234585215
2.549117135041034,0.45968671875,3.423708374023437,9.351751684570312,9.969370616022708
2.551604078587416,0.6751648681640625,3.2609026611328122,9.414000927734374,9.98562703248873
2.5540910221337976,0.8858546142578124,3.0885201416015624,9.437942944335937,9.969877736623499
2.556577965680179,1.0486603271484374,2.863465185546875,9.433154541015625,9.913804816782394
2.5590649092265605,1.1348515869140625,2.6623522460937497,9.423577734375,9.85798280189259
2.5615518527729417,1.2497732666015624,2.446874096679687,9.457096557617186,9.848136948834982
2.5640387963193234,1.2497732666015624,2.2170307373046874,9.504980590820312,9.839807647506964
2.566525739865705,1.16837041015625,1.9967641845703124,9.5384994140625,9.815045985433898
2.5690126834120863,1.1013327636718748,1.848323681640625,9.528922607421874,9.768807519174814
2.571499626958468,0.967257470703125,1.6519991455078125,9.509768994140625,9.700535784857863
2.5739865705048492,0.8044517578125,1.5322890624999999,9.5384994140625,9.694226295779123
2.576473514051231,0.5746083984375,1.4413093994140624,9.572018237304688,9.69696244870979
2.5789604575976126,0.3399766357421875,1.3168109130859373,9.557653027343749,9.65392699810631
2.581447401143994,0.047884033203124995,1.2737152832031249,9.572018237304688,9.65650954737759
2.5839343446903755,-0.2442085693359375,1.2593500732421874,9.548076220703125,9.6338652652333
2.5864212882367568,-0.49320554199218747,1.2976572998046874,9.519345800781249,9.620036935960266
2.5889082317831384,-0.7805097412109374,1.426944189453125,9.514557397460937,9.65257311008406
2.5913951753295197,-1.0965443603515623,1.4796166259765624,9.514557397460937,9.691154593940999
2.5938821188759014,-1.369483349609375,1.5945383056640625,9.548076220703125,9.776696608233468
2.596369062422283,-1.5801730957031248,1.7812860351562498,9.447519750976562,9.742974720100577
2.5988560059686643,-1.8100164550781248,1.9393033447265624,9.423577734375,9.789835256342645
2.601342949515046,-1.9967641845703124,2.1116858642578125,9.399635717773437,9.83867043989843
2.603829893061427,-2.1356278808593747,2.2840683837890623,9.34696328125,9.856145159663816
2.606316836607809,-2.1883003173828124,2.5234885498046875,9.318232861328125,9.898793683979296
2.6088037801541906,-2.24097275390625,2.767697119140625,9.342174877929686,9.997916666829646
2.611290723700572,-2.212242333984375,2.9496564453125,9.313444458007812,10.016722865390788
2.6137776672469535,-2.1212626708984375,3.1603461914062496,9.332598071289063,10.078934969961434
2.6162646107933347,-2.0063409912109376,3.361459130859375,9.323021264648437,10.111554636283092
2.6187515543397164,-1.8722656982421875,3.5003228271484375,9.303867651367186,10.11531472635565
2.6212384978860976,-1.6136919189453125,3.5817256835937497,9.270348828125,10.068372652862184
2.6237254414324793,-1.4030021728515625,3.73495458984375,9.313444458007812,10.132055495190377
2.626212384978861,-1.139639990234375,3.744531396484375,9.241618408203124,10.036324301727076
2.6286993285252422,-0.8475473876953125,3.816357446289062,9.255983618164063,10.047693938011678
2.631186272071624,-0.5889736083984375,3.725377783203125,9.289502441406249,10.025975521008714
2.633673215618005,-0.2537853759765625,3.6822821533203123,9.323021264648437,10.027080052278817
2.636160159164387,0.033518823242187495,3.6439749267578123,9.332598071289063,10.018835438242284
2.6386471027107685,0.296881005859375,3.5098996337890624,9.390058911132812,10.028994970856122
2.6411340462571498,0.5219359619140624,3.356670727539062,9.337386474609374,9.936118039640776
2.6436209898035314,0.8044517578125,3.1364041748046874,9.409212524414063,9.950751434337526
2.6461079333499127,0.967257470703125,2.978386865234375,9.433154541015625,9.939355106258924
2.6485948768962944,1.1109095703125,2.7916391357421872,9.423577734375,9.890964889909759
2.6510818204426756,1.1635820068359375,2.5713725830078125,9.433154541015625,9.846333563411322
2.6535687639890573,1.1827356201171875,2.3127988037109373,9.447519750976562,9.798139175304307
2.656055707535439,1.235408056640625,2.1499930908203124,9.533711010742186,9.85090599860411
2.65854265108182,1.1875240234375,1.9680337646484374,9.5001921875,9.774304159605098
2.661029594628202,1.0678139404296874,1.8243816650390623,9.543287817382812,9.774606766336632
2.663516538174583,0.9145850341796874,1.6041151123046875,9.481038574218749,9.65917923656527
2.666003481720965,0.689530078125,1.5035586425781249,9.543287817382812,9.685581174391015
2.6684904252673465,0.49799394531249996,1.4221557861328125,9.548076220703125,9.66624459477182
2.6709773688137277,0.2059013427734375,1.2976572998046874,9.514557397460937,9.604848374663232
2.6734643123601094,-0.062249243164062495,1.2401964599609374,9.471461767578125,9.552515388224627
2.6759512559064906,-0.3447650390625,1.2832920898437499,9.514557397460937,9.606898770654032
2.6784381994528723,-0.6272808349609375,1.350329736328125,9.495403784179686,9.611428856696342
2.6809251429992536,-0.928950244140625,1.4508862060546874,9.533711010742186,9.688119785353374
2.6834120865456352,-1.1923124267578125,1.5418658691406248,9.481038574218749,9.679310498545119
2.685899030092017,-1.4508862060546874,1.7238251953125,9.471461767578125,9.735770750259482
2.688385973638398,-1.714248388671875,1.8770541015625,9.442731347656249,9.778913791534656
2.69087291718478,-1.9009961181640624,2.01112939453125,9.423577734375,9.821519485223797
2.693359860731161,-2.0446482177734375,2.221819140625,9.3852705078125,9.85902475566964
2.6958468042775428,-2.1547814941406247,2.427720483398437,9.370905297851563,9.917195981440809
2.6983337478239244,-2.2026655273437497,2.6671406494140624,9.370905297851563,9.988955939957282
2.7008206913703057,-2.2361843505859373,2.8203695556640622,9.294290844726563,9.966887537576119
2.7033076349166874,-2.1643583007812497,3.0693665283203124,9.294290844726563,10.024435148461073
2.7057945784630686,-2.0733786376953125,3.2321722412109373,9.255983618164063,10.02093154910397
2.7082815220094503,-1.9584569580078124,3.418919970703125,9.241618408203124,10.046495818208491
2.7107684655558315,-1.7286135986328124,3.5625720703124997,9.260772021484375,10.071838122381473
2.713255409102213,-1.5322890624999999,3.6343981201171873,9.3086560546875,10.109789167487062
2.715742352648595,-1.2880804931640624,3.7014357666015623,9.327809667968749,10.117697924577424
2.718229296194976,-1.005564697265625,3.787627026367187,9.284714038085937,10.07785659851757
2.720716239741358,-0.70868369140625,3.7924154296875,9.313444458007812,10.080917370864292
2.723203183287739,-0.43574470214843747,3.7301661865234372,9.299079248046874,10.028802923878265
2.7256901268341207,-0.13407529296874998,3.69664736328125,9.351751684570312,10.056760784790624
2.7281770703805024,0.105344873046875,3.5625720703124997,9.337386474609374,9.994488654987109
2.7306640139268836,0.430956298828125,3.4428619873046875,9.351751684570312,9.974682028264905
2.7331509574732653,0.689530078125,3.2130186279296873,9.327809667968749,9.889740827438983
2.7356379010196465,0.833182177734375,3.0837317382812497,9.375693701171874,9.904909204690938
2.7381248445660282,1.0199299072265624,2.868253588867187,9.394847314453125,9.875742591197474
2.74061178811241,1.1444283935546875,2.6910826660156246,9.5001921875,9.940085203997999
2.743098731658791,1.2114660400390624,2.4564509033203126,9.457096557617186,9.845733914070903
2.745585675205173,1.1827356201171875,2.250549560546875,9.485826977539062,9.820628814866163
2.748072618751554,1.1923124267578125,2.04943662109375,9.485826977539062,9.777663976364146
2.7505595622979357,1.0678139404296874,1.8339584716796873,9.504980590820312,9.739008487474097
2.753046505844317,0.9911994873046874,1.6903063720703124,9.5384994140625,9.73768879802416
2.7555334493906987,0.8044517578125,1.5849614990234373,9.572018237304688,9.735644751084942
2.7580203929370803,0.584185205078125,1.455674609375,9.557653027343749,9.68550423639907
2.7605073364834616,0.33039982910156246,1.35990654296875,9.533711010742186,9.635878553044675
2.7629942800298433,0.086191259765625,1.2880804931640624,9.543287817382812,9.630208858354887
2.7654812235762245,-0.19632453613281248,1.3072341064453123,9.576806640625,9.667607240908204
2.767968167122606,-0.49320554199218747,1.2689268798828124,9.504980590820312,9.601983293310386
2.770455110668988,-0.7996633544921875,1.350329736328125,9.471461767578125,9.600595809220584
2.772942054215369,-1.0582371337890624,1.4317325927734375,9.466673364257812,9.632633525370315
2.775428997761751,-1.3024457031249999,1.5658078857421873,9.447519750976562,9.664561479432653
2.777915941308132,-1.5514426757812498,1.7525556152343749,9.433154541015625,9.719199049068218
2.7804028848545137,-1.8148048583984373,1.9823989746093749,9.457096557617186,9.831586731992639
2.782889828400895,-1.9632453613281249,2.1404162841796874,9.404424121093749,9.842708329914482
2.7853767719472766,-2.0973206542968748,2.3367408203125,9.370905297851563,9.882964013369547
2.7878637154936583,-2.1835119140624997,2.5761609863281247,9.342174877929686,9.933808995352816
2.7903506590400395,-2.2266075439453124,2.7341782958984373,9.351751684570312,9.9944370365909
2.792837602586421,-2.1787235107421874,2.93050283203125,9.313444458007812,10.003745831297412
2.7953245461328025,-2.1499930908203124,3.1603461914062496,9.303867651367186,10.058439820084814
2.797811489679184,-2.001552587890625,3.385401147460937,9.260772021484375,10.061264936638398
2.800298433225566,-1.905784521484375,3.4668040039062498,9.284714038085937,10.092406026952142
2.802785376771947,-1.675941162109375,3.6008792968749996,9.279925634765624,10.094163178604537
2.8052723203183287,-1.4508862060546874,3.69664736328125,9.289502441406249,10.102728746248047
2.80775926386471,-1.1635820068359375,3.7205893798828122,9.251195214843749,10.038990054954581
2.8102462074110917,-0.8714894042968749,3.825934252929687,9.3086560546875,10.101898051060138
2.812733150957473,-0.59376201171875,3.763685009765625,9.289502441406249,10.040554456213433
2.8152200945038546,-0.28730419921875,3.725377783203125,9.279925634765624,10.003899395598314
2.8177070380502363,0.01915361328125,3.6822821533203123,9.313444458007812,10.014979600077048
2.8201939815966175,0.2537853759765625,3.5194764404296874,9.342174877929686,9.986358339335704
2.822680925142999,0.49799394531249996,3.31357509765625,9.351751684570312,9.933933635133627
2.8251678686893804,0.718260498046875,3.1938650146484373,9.3852705078125,9.939817623058529
2.827654812235762,0.967257470703125,3.0406361083984375,9.428366137695312,9.953649731870566
2.8301417557821438,1.0965443603515623,2.786850732421875,9.423577734375,9.888011117248373
2.832628699328525,1.197100830078125,2.6384102294921874,9.5001921875,9.932165450489574
2.8351156428749067,1.1923124267578125,2.327164013671875,9.485826977539062,9.839624724415986
2.837602586421288,1.197100830078125,2.1308394775390624,9.485826977539062,9.795633758171062
2.8400895299676696,1.149216796875,2.001552587890625,9.562441430664062,9.837031977339093
2.842576473514051,1.0917559570312498,1.7860744384765623,9.576806640625,9.802918871510244
2.8450634170604325,0.9097966308593749,1.637633935546875,9.562441430664062,9.744221925390368
2.847550360606814,0.70868369140625,1.5035586425781249,9.543287817382812,9.686963586777011
2.8500373041531954,0.507570751953125,1.3742717529296875,9.562441430664062,9.67401349151526
2.852524247699577,0.2537853759765625,1.3407529296874998,9.600748657226562,9.697236730881784
2.8550111912459584,-0.009576806640625,1.2785036865234374,9.524134204101562,9.609567926260615
2.85749813479234,-0.3064578125,1.3359645263671873,9.495403784179686,9.59382148213983
2.8599850783387217,-0.612915625,1.2880804931640624,9.524134204101562,9.630365998131962
2.862472021885103,-0.8954314208984374,1.4173673828125,9.509768994140625,9.65641931822098
2.8649589654314846,-1.2018892333984375,1.5322890624999999,9.5001921875,9.697736802978943
2.867445908977866,-1.4317325927734375,1.675941162109375,9.447519750976562,9.701250766842104
2.8699328525242476,-1.7238251953125,1.7860744384765623,9.423577734375,9.745021935305317
2.8724197960706292,-1.848323681640625,2.039859814453125,9.476250170898437,9.867960569245652
2.8749067396170105,-2.0254946044921875,2.2457611572265623,9.361328491210937,9.837710236050471
2.877393683163392,-2.1787235107421874,2.446874096679687,9.375693701171874,9.93164947828188
2.8798806267097734,-2.212242333984375,2.5905261962890624,9.356540087890625,9.957393460852936
2.882367570256155,-2.2266075439453124,2.7964275390625,9.337386474609374,9.998228558709759
2.8848545138025363,-2.1835119140624997,3.0406361083984375,9.327809667968749,10.050931569979001
2.887341457348918,-2.1068974609374997,3.19865341796875,9.275137231445312,10.034867774979949
2.8898284008952997,-1.9393033447265624,3.380612744140625,9.289502441406249,10.073941413250639
2.892315344441681,-1.7573440185546874,3.5482068603515624,9.275137231445312,10.08494921085569
2.8948022879880626,-1.5514426757812498,3.6535517333984373,9.275137231445312,10.088785125425014
2.897289231534444,-1.3311761230468748,3.725377783203125,9.294290844726563,10.101203482977736
2.8997761750808255,-1.0534487304687499,3.763685009765625,9.299079248046874,10.087019081072302
2.902263118627207,-0.7613561279296874,3.77326181640625,9.260772021484375,10.02891152232351
2.9047500621735884,-0.4644751220703125,3.758896606445312,9.299079248046874,10.040812501905627
2.90723700571997,-0.16759411621093748,3.6679169433593746,9.279925634765624,9.979915945435184
2.9097239492663514,0.0718260498046875,3.5865140869140624,9.370905297851563,10.03404745745036
2.912210892812733,0.4070142822265625,3.438073583984375,9.375693701171874,9.994480625476319
2.9146978363591143,0.6081272216796875,3.265691064453125,9.399635717773437,9.969338417018403
2.917184779905496,0.8092401611328125,3.0980969482421874,9.3852705078125,9.916469978975025
2.9196717234518776,0.9816226806640624,2.9448680419921875,9.457096557617186,9.95351727642223
2.922158666998259,-8.853757739257812,10.692504614257812,8.595183959960938,16.327763727374364
2.9246456105446406,-7.321468676757812,9.773131176757811,8.633491186523438,14.955105036429506
2.927132554091022,-5.7125651611328125,8.743624462890624,8.710105639648438,13.599643735116123
2.9296194976374035,-4.141968872070312,7.5465236328125,8.757989672851561,12.280403421206145
2.932106441183785,-2.5330653564453125,6.277596752929687,8.892064965820312,11.175574278254597
2.9345933847301664,-1.0821791503906248,5.090072729492187,8.916006982421875,10.323523265613142
2.937080328276548,0.2442085693359375,3.825934252929687,9.0788126953125,9.855062185985696
2.9395672718229293,1.4173673828125,2.6862942626953124,9.150638745117186,9.641540157427668
2.942054215369311,2.389413256835937,1.6328455322265625,9.251195214843749,9.69330145756354
2.9445411589156922,3.19865341796875,0.6607996582031249,9.380482104492186,9.932848754977734
2.947028102462074,3.778050219726562,-0.1292868896484375,9.490615380859374,10.215779895339143
2.9495150460084556,4.141968872070312,-0.7757213378906249,9.552864624023437,10.44101873651114
2.952001989554837,4.261678955078125,-1.3072341064453123,9.610325463867188,10.593824807248028
2.9544889331012185,4.2329485351562495,-1.62805712890625,9.672574707031249,10.683029756551488
2.9569758766475998,4.065354418945312,-1.8291700683593748,9.6917283203125,10.66782862279702
2.9594628201939814,3.7158009765625,-1.7764976318359373,9.744400756835937,10.579057937414197
2.961949763740363,3.246537451171875,-1.62805712890625,9.730035546875,10.385767529667469
2.9644367072867444,2.6575638427734374,-1.407790576171875,9.730035546875,10.184208934827787
2.966923650833126,2.0254946044921875,-0.9720458740234375,9.739612353515625,9.995376449678478
2.9694105943795073,1.426944189453125,-0.5123591552734374,9.725247143554688,9.84271881275825
2.971897537925889,0.689530078125,-0.0047884033203125,9.605537060546874,9.63025528628317
2.97438448147227,0.1149216796875,0.5985504150390625,9.600748657226562,9.620075070967133
2.976871425018652,-0.5267243652343749,1.216254443359375,9.572018237304688,9.663345516083782
2.9793583685650336,-1.0438719238281249,1.838746875,9.519345800781249,9.751338530608528
2.981845312111415,-1.4796166259765624,2.389413256835937,9.519345800781249,9.92554812323537
2.9843322556577965,-1.8291700683593748,2.9735984619140625,9.476250170898437,10.098884505386334
2.9868191992041777,-2.1595698974609374,3.4811692138671875,9.34696328125,10.20529293154449
2.9893061427505594,-2.3415292236328122,3.921702319335937,9.394847314453125,10.446323001348295
2.991793086296941,-2.418143676757812,4.2329485351562495,9.323021264648437,10.520646255996454
2.9942800298433223,-2.437297290039062,4.505887524414062,9.270348828125,10.591638582288418
2.996766973389704,-2.308010400390625,4.7117888671875,9.260772021484375,10.643766474851425
2.9992539169360852,-2.1499930908203124,4.84586416015625,9.2320416015625,10.64591291915553
3.001740860482467,-1.93451494140625,4.84586416015625,9.255983618164063,10.625346124100258
3.0042278040288486,-1.6424223388671875,4.783614916992187,9.251195214843749,10.543487834508465
3.00671474757523,-1.3168109130859373,4.659116430664063,9.299079248046874,10.483998843798204
3.0092016911216115,-1.0199299072265624,4.390965844726562,9.260772021484375,10.299647396834429
3.0116886346679927,-0.6751648681640625,4.170699291992188,9.251195214843749,10.170309389914106
3.0141755782143744,-0.373495458984375,3.83072265625,9.313444458007812,10.077409518293152
3.0166625217607557,-0.08140285644531249,3.5194764404296874,9.3086560546875,9.952106228545158
3.0191494653071373,0.19153613281249998,3.1268273681640624,9.361328491210937,9.87158581995974
3.021636408853519,0.44053310546874996,2.85388837890625,9.414000927734374,9.846936669018124
3.0241233523999003,0.5889736083984375,2.427720483398437,9.423577734375,9.749078621731927
3.026610295946282,0.74699091796875,2.1021090576171875,9.495403784179686,9.753950530234297
3.029097239492663,0.7661445312499999,1.7860744384765623,9.471461767578125,9.668796582679656
3.031584183039045,0.70868369140625,1.5275006591796874,9.4618849609375,9.610554502851269
3.0340711265854265,0.679953271484375,1.2976572998046874,9.514557397460937,9.626684444226752
3.036558070131808,0.5506663818359374,1.1348515869140625,9.509768994140625,9.59306144618724
3.0390450136781895,0.38786066894531246,1.01514150390625,9.495403784179686,9.55738673467186
3.0415319572245707,0.19632453613281248,0.9241618408203125,9.509768994140625,9.55658541286764
3.0440189007709524,-0.0718260498046875,0.8858546142578124,9.5001921875,9.541674327835153
3.0465058443173336,-0.296881005859375,0.9911994873046874,9.514557397460937,9.570653960145659
3.0489927878637153,-0.5506663818359374,1.0773907470703123,9.495403784179686,9.572183518433551
3.051479731410097,-0.7900865478515624,1.2593500732421874,9.485826977539062,9.601620322001853
3.0539666749564782,-1.0773907470703123,1.3934253662109375,9.490615380859374,9.652677627501985
3.05645361850286,-1.3024457031249999,1.6041151123046875,9.437942944335937,9.661486279225032
3.058940562049241,-1.5322890624999999,1.8626888916015625,9.414000927734374,9.718072501547653
3.061427505595623,-1.675941162109375,2.1452046874999997,9.404424121093749,9.790499220138594
3.0639144491420045,-1.7764976318359373,2.43250888671875,9.409212524414063,9.879591269352941
3.0664013926883857,-1.8531120849609375,2.6575638427734374,9.3852705078125,9.928744758662098
3.0688883362347674,-1.838746875,2.93050283203125,9.323021264648437,9.944222564884214
3.0713752797811487,-1.8339584716796873,3.208230224609375,9.318232861328125,10.024251019795852
3.0738622233275303,-1.8100164550781248,3.337517114257812,9.275137231445312,10.022143020220794
3.0763491668739116,-1.62805712890625,3.5865140869140624,9.289502441406249,10.090020263582632
3.0788361104202933,-1.455674609375,3.7397429931640622,9.284714038085937,10.114869301791735
3.081323053966675,-1.3120225097656248,3.7924154296875,9.3086560546875,10.136808935850263
3.083809997513056,-1.0582371337890624,3.840299462890625,9.270348828125,10.089952090625935
3.086296941059438,-0.7900865478515624,3.902548706054687,9.327809667968749,10.142098222659667
3.088783884605819,-0.5123591552734374,3.854664672851562,9.289502441406249,10.070541557086939
3.091270828152201,-0.258573779296875,3.81156904296875,9.299079248046874,10.05324792443286
3.0937577716985825,0.01915361328125,3.6822821533203123,9.34696328125,10.046158036712283
3.0962447152449637,0.258573779296875,3.5434184570312497,9.356540087890625,10.00837235404808
3.0987316587913454,0.49320554199218747,3.3710359375,9.370905297851563,9.971008028272307
3.1012186023377266,0.699106884765625,3.227383837890625,9.433154541015625,9.994456536905247
3.1037055458841083,0.833182177734375,2.9640216552734375,9.433154541015625,9.922903884897192
3.1061924894304895,0.9816226806640624,2.7341782958984373,9.452308154296874,9.888652258257611
3.108679432976871,0.9864110839843749,2.4516625,9.466673364257812,9.828609282399102
3.111166376523253,1.0821791503906248,2.2266075439453124,9.457096557617186,9.775764326557242
3.113653320069634,1.0486603271484374,2.0254946044921875,9.504980590820312,9.774813190359849
3.116140263616016,0.9624690673828125,1.8531120849609375,9.552864624023437,9.778424905372821
3.118627207162397,0.814028564453125,1.6232687255859375,9.5384994140625,9.709820540632132
3.1211141507087787,0.6655880615234374,1.5035586425781249,9.504980590820312,9.646157374373733
3.1236010942551604,0.45968671875,1.39821376953125,9.548076220703125,9.660852609426271
3.1260880378015417,0.229843359375,1.2497732666015624,9.495403784179686,9.58005502136468
3.1285749813479233,-0.009576806640625,1.2785036865234374,9.548076220703125,9.633297613384315
3.1310619248943046,-0.2825157958984375,1.2737152832031249,9.509768994140625,9.598847437037206
3.1335488684406863,-0.584185205078125,1.3072341064453123,9.519345800781249,9.626426015803458
3.136035811987068,-0.86191259765625,1.369483349609375,9.490615380859374,9.6275728134489
3.138522755533449,-1.1444283935546875,1.5035586425781249,9.524134204101562,9.709765047486105
3.141009699079831,-1.3934253662109375,1.6472107421875,9.476250170898437,9.718757882663331
3.143496642626212,-1.5801730957031248,1.85790048828125,9.4618849609375,9.771182541062005
3.1459835861725938,-1.8195932617187498,1.9393033447265624,9.409212524414063,9.777785916584099
3.148470529718975,-1.9632453613281249,2.2074539306640624,9.399635717773437,9.852935442375678
3.1509574732653567,-2.0638018310546875,2.427720483398437,9.34696328125,9.875162141677107
3.1534444168117384,-2.1260510742187497,2.6479870361328124,9.337386474609374,9.935729197695165
3.1559313603581196,-2.1068974609374997,2.882618798828125,9.323021264648437,9.98334781280053
3.1584183039045013,-2.0973206542968748,3.1316157714843746,9.337386474609374,10.069387143385045
3.1609052474508825,-2.0302830078125,3.323151904296875,9.323021264648437,10.103668302746833
3.163392190997264,-1.8770541015625,3.418919970703125,9.284714038085937,10.07066336619864
3.165879134543646,-1.695094775390625,3.6008792968749996,9.236830004882812,10.057768467573858
3.168366078090027,-1.5035586425781249,3.687070556640625,9.246406811523437,10.067334145914925
3.170853021636409,-1.2880804931640624,3.77326181640625,9.275137231445312,10.095782622172596
3.17333996518279,-0.9911994873046874,3.7924154296875,9.294290844726563,10.08705772370382
3.1758269087291717,-0.6943184814453125,3.825934252929687,9.3086560546875,10.088157840056203
3.178313852275553,-0.39743747558593745,3.7924154296875,9.34696328125,10.094854824085768
3.1808007958219346,-0.1197100830078125,3.6918589599609373,9.356540087890625,10.059274104055516
3.1832877393683163,0.13407529296874998,3.5577836669921874,9.34696328125,10.002075953837624
3.1857746829146976,0.4261678955078125,3.4332851806640625,9.375693701171874,9.993632902259467
3.1882616264610792,0.6368576416015624,3.265691064453125,9.3852705078125,9.957591490362033
3.1907485700074605,0.8571241943359375,3.1268273681640624,9.447519750976562,9.988360261820159
3.193235513553842,1.005564697265625,2.877830395507812,9.428366137695312,9.908943241947405
3.195722457100224,1.1061211669921875,2.6431986328124997,9.423577734375,9.84955939950505
3.198209400646605,1.1252747802734375,2.427720483398437,9.442731347656249,9.814542545663642
3.2006963441929868,1.197100830078125,2.2361843505859373,9.528922607421874,9.860726996799723
3.203183287739368,1.16837041015625,1.9632453613281249,9.476250170898437,9.747755591189069
3.2056702312857497,1.0630255371093749,1.8339584716796873,9.514557397460937,9.747832037841594
3.208157174832131,0.9050082275390624,1.6711527587890624,9.524134204101562,9.711895992691591
3.2106441183785126,0.7422025146484375,1.4987702392578124,9.533711010742186,9.6792986543025
3.2131310619248943,0.5985504150390625,1.426944189453125,9.576806640625,9.7010132332183
3.2156180054712755,0.32561142578124996,1.3359645263671873,9.557653027343749,9.656063142264756
3.218104949017657,0.009576806640625,1.2306196533203124,9.533711010742186,9.612812391943912
3.2205918925640384,-0.24899697265624998,1.2737152832031249,9.562441430664062,9.65011068485423
3.22307883611042,-0.55545478515625,1.2832920898437499,9.504980590820312,9.607290181840005
3.225565779656802,-0.852335791015625,1.4173673828125,9.524134204101562,9.66667155417232
3.228052723203183,-1.13006318359375,1.5227122558593749,9.4618849609375,9.650023959922256
3.2305396667495647,-1.407790576171875,1.6136919189453125,9.504980590820312,9.743230057198618
3.233026610295946,-1.6328455322265625,1.8100164550781248,9.471461767578125,9.780129452847747
3.2355135538423276,-1.848323681640625,1.9536685546875,9.423577734375,9.799843803321385
3.238000497388709,-2.001552587890625,2.231395947265625,9.452308154296874,9.916222571087857
3.2404874409350906,-2.1499930908203124,2.39420166015625,9.404424121093749,9.939711511380999
