Time (s),Acceleration x (m/s^2),Acceleration y (m/s^2),Acceleration z (m/s^2),Absolute acceleration (m/s^2)
0.0,-0.23345069492239845,-0.018251855361708147,1.7715485488245442,1.7869573632368076
0.002486943546381497,0.30148177005298216,0.2059378053039157,-2.2161278200213843,2.2460018147811915
0.004973887092762994,0.8172608375184875,0.5689909421491945,-7.5254025491139025,7.5910045115912865
0.007460830639144491,1.2899445034260741,1.0373887826841524,-13.58645617494392,13.686925282985579
0.009947774185525988,1.7051675703616038,1.539305327857064,-19.81031562072146,19.94306050554886
0.012434717731907486,2.0054692110211323,2.0220681918971004,-25.612796212965684,25.770642141319353
0.014921661278288981,2.1908494379371657,2.452158602313215,-30.476750924657214,30.653633552879217
0.01740860482467048,2.2708850702752352,2.796057786611781,-34.02389642503109,34.21403785129307
0.019895548371051976,2.2312109105914124,3.034612182256414,-36.014813079565045,36.21124044244067
0.022382491917433474,2.076615374714819,3.143879823385614,-36.30584932008498,36.500835697434496
0.02486943546381497,1.8310404917473249,3.1238607607335225,-34.97840853440169,35.16532779506504
0.02735637901019647,1.4992746775007528,2.9937086583085,-32.24796940321318,32.42131469758745
0.029843322556577963,1.1244135743403245,2.7438467601888914,-28.416201866889846,28.570501036373056
0.032330266102959464,0.725610808020301,2.4269475536078486,-23.89490914206426,24.028800810281506
0.03481720964934096,0.3315968109258737,2.0765299125069103,-19.115048058533638,19.23036648643501
0.03730415319572246,-0.024109581247454326,1.7069590975348912,-14.536305865888647,14.636204387040848
0.03979109674210395,-0.3271431460957219,1.3661191925702103,-10.58485099033776,10.677657738193352
0.04227804028848545,-0.5679270645458727,1.0827406681963476,-7.5623533716096,7.660552005064978
0.04476498383486695,-0.7225193075748075,0.8855539949819817,-5.6890800928240886,5.802746964189828
0.04725192738124844,-0.7861314594518629,0.779347626878328,-5.065588153918306,5.185129577954466
0.04973887092762994,-0.7587635077781725,0.7593332111789647,-5.667936068314475,5.768692075404558
0.05222581447401144,-0.6547806501275886,0.8302992017999805,-7.357260669548982,7.432860756396794
0.05471275802039294,-0.4646060674844783,0.9826688426773061,-9.913295934502909,9.972709418074109
0.05719970156677443,-0.212181764087773,1.1972885710859267,-13.058314999991946,13.114805056213342
0.059686645113155926,0.0641850458499903,1.4550048242794016,-16.490648985997012,16.554838046267665
0.062173588659537427,0.35970597134549986,1.7079336195668953,-19.855956575730772,19.932522097616612
0.06466053220591893,0.6504390081209335,1.9656518140776957,-22.8525688886729,22.946170982737247
0.06714747575230041,0.92201895852554,2.1898522317132443,-25.212335867277258,25.324048879296836
0.06963441929868192,1.1552922215744135,2.3470160996694833,-26.743721906843145,26.87135735536819
0.07212136284506342,1.335893599588818,2.437143468357623,-27.36053627542558,27.501331336385512
0.07460830639144492,1.4350926849146495,2.4650227914811835,-27.053202693901934,27.20315430927377
0.0770952499378264,1.476831506406519,2.425865716073958,-25.893547739280724,26.048832417157353
0.0795821934842079,1.4658984796227714,2.310095485819236,-24.015647231408792,24.17098904574729
0.0820691370305894,1.3639863902236353,2.1655961842127804,-21.634979846241148,21.785835275542063
0.0845560805769709,1.2141908802990573,1.9780026515539224,-18.99096627598567,19.13226473993554
0.0870430241233524,1.0308771720012249,1.7808337613116656,-16.366122842372928,16.494970552287192
0.0895299676697339,0.8140452775052147,1.5884547736392287,-13.971139816957226,14.084694035253069
0.0920169112161154,0.6020024355321344,1.4104425453338887,-11.983188647667614,12.080917401905557
0.09450385476249688,0.38517185158324485,1.270739143117181,-10.579440782038946,10.662443556041508
0.09699079830887838,0.1731303444239939,1.1645562137509646,-9.841299600793803,9.91147532528486
0.09947774185525989,-0.0006032505959205903,1.111047420559812,-9.797496047714244,9.86029185874435
0.10196468540164137,-0.14560572802721783,1.110212813547113,-10.390569806388212,10.450727937365173
0.10445162894802287,-0.24751186583694818,1.157264039354939,-11.543906946682599,11.604409066134345
0.10693857249440437,-0.2775912320494007,1.247412744583285,-13.118644294849073,13.180740631020537
0.10942551604078588,-0.24542062126982334,1.342351752546814,-14.947188256755013,15.009349629207287
0.11191245958716736,-0.1749420380831419,1.4660231296800363,-16.847580027833125,16.91214892696038
0.11439940313354886,-0.06615547049174086,1.5992733124893754,-18.618707189749987,18.68738368771735
0.11688634667993036,0.06657388352175098,1.7133719307942836,-20.092976146918122,20.1660052042
0.11937329022631185,0.23282284255668473,1.808319034288695,-21.160254143086476,21.238657669584377
0.12186023377269335,0.4086494019503646,1.8649610593368307,-21.748715648047973,21.83235457815313
0.12434717731907485,0.5796883636605763,1.9072400721362088,-21.810477147667385,21.901381616250763
0.12683412086545634,0.7411513362653104,1.9112141056306557,-21.374269580393705,21.472341389707672
0.12932106441183785,0.878673121681245,1.872094805993626,-20.4784006907646,20.582558156577658
0.13180800795821934,0.9874653284447031,1.8090358359474705,-19.261734692481387,19.371683504387626
0.13429495150460083,1.0579511617504553,1.7220372448795773,-17.82961697542914,17.94379877350146
0.13678189505098234,1.0757654234514398,1.6254642920835056,-16.32570015547033,16.441651102533957
0.13926883859736383,1.0600617386209858,1.5241054301564025,-14.879271637910527,14.994644134711868
0.14175578214374532,1.0108401190291076,1.4371143215995037,-13.61961882744816,13.732483836675927
0.14424272569012683,0.9281005764234842,1.3597026122546152,-12.642510304921526,12.74924423970992
0.14672966923650832,0.8118431225291876,1.3062355611858834,-12.005407423977536,12.10351800149855
0.14921661278288983,0.6860097856499765,1.2767132174365807,-11.746617924342042,11.835693419739231
0.15170355632927132,0.5506005774649023,1.2663472266686981,-11.875719125168377,11.955730886662101
0.1541904998756528,0.42476912291085356,1.2751376378025505,-12.34961590842496,12.422536692992377
0.15667744342203432,0.2989386269791604,1.317449709656376,-13.091694332165767,13.161211894314107
0.1591643869684158,0.19226271455909283,1.3789182810625027,-14.020552050441328,14.089508876337476
0.1616513305147973,0.11431820387507774,1.4403897874679021,-15.049998313288123,15.119201057647008
0.1641382740611788,0.055528299845824636,1.5066526808550422,-16.041169933514638,16.1118657680824
0.1666252176075603,0.020681417326245954,1.5729186064986922,-16.931818176339164,17.00473367684133
0.1691121611539418,0.033719584427507776,1.624822402964915,-17.63575228965257,17.71047553493515
0.1715991047003233,0.06591239271208271,1.6623641187116256,-18.08593513389052,18.162291941657262
0.1740860482467048,0.1124714503184906,1.7094858187282158,-18.253636795304097,18.333855236868462
0.1765729917930863,0.18297357532041825,1.7135151148079901,-18.124492569347677,18.206230918954095
0.1790599353394678,0.27741877912488033,1.6888172651565525,-17.732021783910668,17.814422850016342
0.18154687888584928,0.3766534598313833,1.659334334547052,-17.124108976064658,17.20843881607939
0.1840338224322308,0.4711008221534895,1.6202779677567085,-16.353427085412562,16.440249819127953
0.18652076597861228,0.555972474098293,1.5620714061673777,-15.510956277320252,15.599324892663184
0.18900770952499377,0.6264800236458361,1.50386831100676,-14.663734699742152,14.753955824161181
0.19149465307137528,0.6778350787488638,1.4504571334646077,-13.854858483210831,13.947056674431346
0.19398159661775677,0.7196144572935028,1.3922611146917534,-13.175307790631473,13.268193974935057
0.19646854016413826,0.7374529605365233,1.3436455123616284,-12.687332364146434,12.77957834399129
0.19895548371051977,0.7313505996675834,1.3046103741068038,-12.419663121804822,12.509393030318455
0.20144242725690126,0.7108841924886732,1.289520957439893,-12.372300560872555,12.45961643885454
0.20392937080328274,0.666476943491992,1.2744352932291543,-12.530879967783093,12.613141147225068
0.20641631434966426,0.5981288637815823,1.2785070421428457,-12.852306208166366,12.929582872736816
0.20890325789604575,0.5249935777137069,1.29215944484358,-13.303060953401152,13.375975666000796
0.21139020144242726,0.44707109633411046,1.3201809518701826,-13.801741840761226,13.871943921090415
0.21387714498880875,0.3643614306590278,1.3434179970742541,-14.329195749772556,14.396644817536993
0.21636408853519024,0.3008066082765062,1.3618706275020265,-14.832750735797035,14.898176754620783
0.21885103208157175,0.23725302686179117,1.385115696752803,-15.250158046624126,15.314769176816236
0.22133797562795324,0.19764271394271937,1.4035764450561434,-15.543110945703047,15.60760671435326
0.22382491917433472,0.16761047045416333,1.4220413225131194,-15.687667905492354,15.752879708350331
0.22631186272071624,0.1471563072612403,1.4261451658531967,-15.68861781741098,15.753992320476689
0.22879880626709773,0.15543384847938757,1.4015228117145575,-15.512442345344079,15.57640181141439
0.2312857498134792,0.18765470159131958,1.3769047265259917,-15.202237605320738,15.265618530593084
0.23377269335986073,0.22466526408742282,1.3618677633419145,-14.791522905738617,14.855783660134108
0.23625963690624222,0.2712539500280231,1.3324699518805168,-14.304240747354328,14.368728483632161
0.2387465804526237,0.3274207701212858,1.2982881450072237,-13.807429259797178,13.87219734694098
0.24123352399900522,0.39316573504330254,1.2688991954916036,-13.33939615175487,13.405378553289125
0.2437204675453867,0.45412364547692197,1.2443031493658407,-12.933660727565531,13.001311411879724
0.24620741109176822,0.5007177053927843,1.22928845588477,-12.599800273926878,12.66952387704894
0.2486943546381497,0.5473131353303393,1.2190667575640461,-12.371334093089935,12.443294687113706
0.2511812981845312,0.5843331391945092,1.2136381001401875,-12.267416276287065,12.341145196106623
0.2536682417309127,0.6117777274976486,1.2034257226087508,-12.264105283800708,12.338183977792154
0.2561551852772942,0.6152817007577667,1.1980064771453227,-12.370978398079005,12.444070781553235
0.2586421288236757,0.6187870860217471,1.2021688125030783,-12.554517270601492,12.62711412831188
0.26112907237005717,0.5983518770995064,1.20633596737128,-12.78599195507295,12.856704932065304
0.2636160159164387,0.5635528910090961,1.2200847936165922,-13.055826117375078,13.124815974775126
0.2661029594628202,0.5287553480546059,1.2338385297197196,-13.335289808994874,13.402682344418963
0.26858990300920166,0.4843824519040845,1.247597220696409,-13.552557450413879,13.618477838274393
0.2710768465555832,0.435222616151831,1.2517841048153497,-13.721994720747508,13.785844960933693
0.2735637901019647,0.3908526576775502,1.2511876301988736,-13.814871668087616,13.876920245202326
0.27605073364834615,0.35127258668521844,1.2553846481814852,-13.807246742696528,13.86864974172865
0.27853767719472766,0.31169401002318753,1.26437520334807,-13.71348562024028,13.775176429623787
0.2810246207411092,0.28648214778553827,1.2685825335330634,-13.581472798459382,13.643598390478852
0.28351156428749064,0.2612718001087553,1.2632182797805374,-13.377689917472399,13.43973849834685
0.28599850783387215,0.26000499365590235,1.2482824863433735,-13.111714246095303,13.173566799986105
0.28848545138025367,0.26352812517110735,1.2381404073230577,-12.826641875192,12.88895575814547
0.2909723949266352,0.2766296079637389,1.2232152801063527,-12.527261667860923,12.589879445671649
0.29345933847301664,0.2993094519863331,1.2082955519269767,-12.251881309231038,12.314956756088904
0.29594628201939815,0.31241405387346344,1.1933812665835408,-12.014866466609394,12.078028713285338
0.29843322556577967,0.3494622467462287,1.183260871079355,-11.811429192792877,11.875693231440772
0.30092016911216113,0.3721468138839408,1.1779344089809993,-11.679877169223664,11.745022495129483
0.30340711265854264,0.399621378372365,1.1630367137768933,-11.634576059496347,11.699389374144735
0.30589405620492416,0.4318859499785325,1.157721442079621,-11.646795896068175,11.712160306959186
0.3083809997513056,0.454575328470865,1.1572002337813874,-11.687806710133481,11.753747351536841
0.31086794329768713,0.4629011202205515,1.1566847286547908,-11.781550968138744,11.847241882541928
0.31335488684406865,0.4808053514826084,1.1609633729926612,-11.89929869872733,11.965463604097367
0.3158418303904501,0.4795576119503886,1.1604594030057136,-12.017108332575003,12.082530124359197
0.3183287739368316,0.4830999278022702,1.1599612647436517,-12.12540350902231,12.190336579953762
0.32081571748321314,0.4722786952952272,1.1594690008131407,-12.224184672746036,12.288128679472537
0.3233026610295946,0.43272871396777857,1.1685594603379763,-12.270356637227643,12.33346818040222
0.3257896045759761,0.42191083312417726,1.177655879036451,-12.278285054471773,12.34184613416492
0.3282765481223576,0.3967294323029916,1.1819698958221514,-12.247970365193467,12.31126415701258
0.3307634916687391,0.3715497308472401,1.1767131494828933,-12.160259395489888,12.22270884887056
0.3332504352151206,0.355948544740156,1.1618856820002847,-12.039094599996393,12.10026762068518
0.3357373787615021,0.33077227000345466,1.1614295518302302,-11.884476415394294,11.945673215291428
0.3382243223078836,0.31517452918153666,1.151402784097498,-11.729924100246732,11.79051240415875
0.3407112658542651,0.2900017182163208,1.1509590336809277,-11.551496071904912,11.6123154105034
0.3431982094006466,0.27440745957207635,1.1409447287673815,-11.377923182867592,11.438277417653703
0.34568515294702806,0.27318016571182024,1.121359910694772,-11.204417461007683,11.263704812040556
0.3481720964934096,0.271954635776841,1.1017814273107156,-11.045344546088097,11.103491242815721
0.3506590400397911,0.27551928214903687,1.0917861263311817,-10.915070076472825,10.972996974154219
0.3531459835861726,0.2838741138491939,1.08179724205854,-10.827959689119414,10.88556754673977
0.35563292713255407,0.297019139857136,1.0670264119824109,-10.788802212930852,10.845506854133244
0.3581198706789356,0.31974277243188454,1.071415693380522,-10.778444458787137,10.836283125671073
0.3606068142253171,0.3376798105099401,1.0614463035523882,-10.796886849420694,10.854190967038704
0.36309375777169856,0.35083026294731035,1.0466950895451792,-10.844129806127718,10.9001744819074
0.36558070131808007,0.3639825418787389,1.0463157049108407,-10.901020135479687,10.957166597221617
0.3680676448644616,0.372348252756614,1.0411545765022856,-10.943616239276986,10.999335546571416
0.37055458841084304,0.38550421095237986,1.0216349376758438,-10.971918534463573,11.026121157027399
0.37304153195722456,0.3986620218345189,1.0212756515327672,-10.990715839838604,11.045260071005393
0.3755284755036061,0.39745648408871453,1.0209231445123172,-10.995220166088345,11.049666158961587
0.37801541904998753,0.38188760631926955,0.9966354395942221,-10.966278312458835,11.018093318247963
0.38050236259636905,0.38068581700990234,0.9962966094230112,-10.908679093311354,10.960693782150312
0.38298930614275056,0.3794859147189168,0.9959646766979915,-10.827211321513918,10.879543198012467
0.385476249689132,0.36871110128218987,0.9812744706179022,-10.717087001793745,10.768231111325184
0.38796319323551354,0.35793819177396846,0.9665912401615215,-10.592671750652258,10.64270234441205
0.39045013678189505,0.3471671945848612,0.9710686374854627,-10.477907989717673,10.528535282777622
0.3929370803282765,0.33160971474201417,0.9707646847204117,-10.353642509214794,10.404338627929754
0.395424023874658,0.30647735722929037,0.9656794204548718,-10.224664114442689,10.27473704611249
0.39791096742103954,0.2909237435887032,0.960601286453286,-10.114915222447756,10.164590567918843
0.400397910967421,0.2993140919984091,0.9555303210147905,-10.029184635454607,10.079046163803707
0.4028848545138025,0.3029179907100825,0.9600433689335353,-9.957895944179837,10.008652967030194
0.40537179806018403,0.29694704453316156,0.9549868549355722,-9.910626351067709,9.960958393188598
0.4078587416065655,0.29576647151441204,0.940360816881372,-9.868222637080576,9.917337056215615
0.410345685152947,0.2993762796956163,0.9305305024449109,-9.854627211497196,9.90298897557731
0.4128326286993285,0.30298807375407777,0.9302843525115099,-9.841110045500121,9.889624749049297
0.41531957224571003,0.320967071604064,0.9204687912163052,-9.818094721974104,9.866370489005217
0.4178065157920915,0.3245828612326255,0.905872259146782,-9.799946838820178,9.847076552327561
0.420293459338473,0.3282006604651042,0.9008600033812577,-9.791455185707283,9.838285372611217
0.4227804028848545,0.33660888044158177,0.8958552542461151,-9.797408550706777,9.844037610879735
0.425267346431236,0.34501912561676495,0.8860696452371049,-9.78907689704417,9.835150436546249
0.4277542899776175,0.3438545970801904,0.8810800196594026,-9.785614219538408,9.831214759052337
0.430241233523999,0.35226891579829867,0.8760980107051706,-9.758290478189643,9.803870366856446
0.43272817707038047,0.36547368609088815,0.8902772680154949,-9.711894454618632,9.759459950572168
0.435215120616762,0.3738921089122638,0.8948874078751559,-9.64642652549836,9.695058715331163
0.4377020641631435,0.3679473851714415,0.9042936762980072,-9.590617485790425,9.640180293438299
0.44018900770952496,0.3763699422945439,0.9089193025420605,-9.530102498934601,9.580743304785694
0.4426759512559065,0.38000617445907814,0.908764322351139,-9.44093992008531,9.492186463658717
0.445162894802288,0.36927928243758273,0.9086171746340257,-9.337495329309045,9.388864222223354
0.44764983834866945,0.36334288687878097,0.9132662981436273,-9.238922708336617,9.291058400171014
0.45013678189505096,0.3621969951043588,0.9083465181952002,-9.150010827276349,9.202118136584337
0.4526237254414325,0.35147640442918404,0.9082230798689555,-9.065971647928876,9.118127370613296
0.45511066898781394,0.34075792872371125,0.9081076148064211,-9.00117074370358,9.053278420735925
0.45759761253419545,0.33004157517170585,0.9032117544911817,-8.950820073050702,9.002327415447644
0.46008455608057697,0.32411575423108985,0.8935355335686901,-8.895766382776316,8.946402422696169
0.4625714996269584,0.31340366635260597,0.8886557931660795,-8.840798434599552,8.890874419202467
0.46505844317333994,0.2979053185812911,0.883784164290109,-8.809858601827056,8.859087459330963
0.46754538671972146,0.2919859278767083,0.8741322777876135,-8.779005222863423,8.827247346948619
0.4700323302661029,0.2860686945503612,0.8644885709856456,-8.757815457651391,8.805027392214303
0.47251927381248443,0.2897304321484263,0.8692182876909935,-8.746289657783954,8.794149585538555
0.47500621735886595,0.29818274420948465,0.864379444986586,-8.725274559858724,8.77305425258373
0.4774931609052474,0.29227202426444654,0.8595488830357079,-8.699558915355764,8.7468035613155
0.4799801044516289,0.2911518923599109,0.8643034418393505,-8.673931474031129,8.721747363928166
0.48246704799801043,0.3043991618549673,0.8642779446341924,-8.624450563990099,8.67299156842829
0.48495399154439195,0.30807182281955925,0.864260827774957,-8.565481738166763,8.614483875039173
0.4874409350907734,0.30216988187816574,0.8594637208120901,-8.492236934475532,8.540964387946879
0.4899278786371549,0.30584695888941715,0.859463463092879,-8.428658509009567,8.47788323039147
0.49241482218353644,0.30473785042259205,0.854683280518826,-8.360381589551748,8.409478520716632
0.4949017657299179,0.3036309662809882,0.8547000121077128,-8.296983318734156,8.346414563495783
0.4973887092762994,0.2977379095799828,0.8499368834306746,-8.243252434111639,8.292300721820475
0.4998756528226809,0.28705868670790735,0.8403939265336502,-8.175247251555767,8.223340699827487
0.5023625963690624,0.29074691728692337,0.8308595766166511,-8.116910118375385,8.164501900039717
0.5048495399154439,0.2896489943292162,0.8117570587520999,-8.04908775022631,8.095100967448955
0.5073364834618254,0.26461131079943445,0.7926632111266101,-7.971780474271068,8.015461187108698
0.5098234270082069,0.2539410994583855,0.7975200817202688,-7.928084245776201,7.9721417555677
0.5123103705545884,0.2624267697770435,0.7880204751812385,-7.903634178381473,7.947155296361099
0.5147973141009698,0.26612631125680986,0.759376019231615,-7.874488577298836,7.915494015292858
0.5172842576473514,0.26503972995290004,0.7451055679873482,-7.850224569191127,7.889959071670225
0.5197712011937329,0.26874383851335715,0.7404207488328596,-7.826054068964874,7.865593965264337
0.5222581447401143,0.262873432936817,0.7165911723816023,-7.782823779766298,7.820163127261157
0.5247450882864959,0.2522169224552746,0.7023472889209996,-7.734899226180476,7.770815345212806
0.5272320318328774,0.2559279262137284,0.6976891286464506,-7.6727039143837,7.708609121070185
0.5297189753792588,0.2548528367467001,0.6882515116219063,-7.610603365342747,7.645908951603729
0.5322059189256404,0.25378006314225643,0.6883996776623216,-7.577328308170465,7.612765773781271
0.5346928624720219,0.2670748210810322,0.6885568498098669,-7.54414863031735,7.580212269573637
0.5371798060184033,0.28037190627369346,0.6887230575757628,-7.501487830692845,7.53825361273398
0.5396667495647849,0.27930611438277597,0.6888983302993152,-7.449346213021107,7.486344355990625
0.5421536931111663,0.27345425762421416,0.6890826971475716,-7.397300885837412,7.434357577500018
0.5446406366575478,0.28675835812668315,0.6892761871149915,-7.34056374588306,7.378428567483189
0.5471275802039294,0.2952764047675067,0.6751136190621791,-7.274346688062861,7.311572080748898
0.5496145237503108,0.29421999965700263,0.6753254415593084,-7.222592025363575,7.260059602032269
0.5521014672966923,0.2883775514978305,0.6755464731201817,-7.170934842366172,7.208455532429548
0.5545884108430739,0.2873258722646529,0.6661999354050403,-7.1002218184847035,7.137193312674987
0.5570753543894553,0.2862765639228615,0.6664394698218152,-7.034395261166159,7.071690924263077
0.5595622979358368,0.29001803503011714,0.6523230877211397,-6.978243862723211,7.014664872896704
0.5620492414822184,0.2793966774941421,0.6477928334819838,-6.9269795069716835,6.9628114399652565
0.5645361850285998,0.2687777064164505,0.6576371380269885,-6.871025672547747,6.90765675562915
0.5670231285749813,0.26773793352983155,0.6627024155018624,-6.824747852826752,6.862072671374603
0.5695100721213628,0.24754694395614596,0.6582002898375949,-6.797723135998353,6.833999337481063
0.5719970156677443,-0.6393426450046255,-0.9982915507576337,8.22648101075675,8.311458046478787
0.5744839592141259,0.14492293136001233,-0.7633546223533991,5.011556863339813,5.071431270360534
0.5769709027605073,0.8860952892764554,-0.43264014334425105,0.9250429885893787,1.3520528414412023
0.5794578463068888,1.502771577149385,-0.04924371706701902,-3.5685857654834194,3.8724090334531436
0.5819447898532704,1.9470677665770646,0.3628926662456713,-8.02879656558888,8.269482345737856
0.5844317333996518,2.1998302490311312,0.779827016183877,-12.015056576554505,12.239647373904539
0.5869186769460333,2.2562706258957332,1.1488869222383826,-15.196966237691173,15.406442844696361
0.5894056204924149,2.1163889018267743,1.4365535870034019,-17.325528842866955,17.513330290870513
0.5918925640387963,1.818492307994228,1.6236734228560774,-18.26666936374743,18.428630966590877
0.5943795075851778,1.3817344622382373,1.724611665237558,-18.029964869715357,18.16488669722936
0.5968664511315593,0.8731530155536062,1.7345799361292433,-16.739914107945857,16.852177547272554
0.5993533946779408,0.3358436022851665,1.6440014540135608,-14.559323050279751,14.655695800213712
0.6018403382243223,-0.17273293330994255,1.472029857115874,-11.75155413638428,11.844649981610303
0.6043272817707038,-0.5951157470229796,1.2282419768418074,-8.627853837228248,8.735136114715397
0.6068142253170853,-0.9265164312170766,0.9509450643395652,-5.513833831837804,5.671427751265652
0.6093011688634667,-1.1286277550617276,0.6640811606168024,-2.696798570769605,2.997920434015356
0.6117881124098483,-1.1870845043763796,0.3915923065014755,-0.41616846946944186,1.3174636048188193
0.6142750559562298,-1.116251884950806,0.14784373600096057,1.1604621083320836,1.6169565070853
0.6167619995026112,-0.916129892662263,-0.04801091373718713,1.9660552705432845,2.1695557966778076
0.6192489430489928,-0.6298141533192245,-0.16724119910511126,1.981457160189919,2.085859047027681
0.6217358865953743,-0.3004002927785514,-0.2290007098785829,1.2114559388155275,1.26897878339937
0.6242228301417557,0.05774648297640106,-0.24286622937343338,-0.16677771058703428,0.3002223616169613
0.6267097736881373,0.4206841612733083,-0.18010731452384743,-1.9569194898238003,2.009713337255705
0.6291967172345188,0.7261635028290199,-0.04551234568722218,-3.9865871153807664,4.05243897362697
0.6316836607809002,0.9646077048355226,0.11303466671504125,-6.025937461976861,6.10370110308193
0.6341706043272818,1.1216515611162157,0.28116853532238517,-7.883434628968549,7.9677913827503195
0.6366575478736632,1.1781414621259376,0.4732544925146205,-9.391484730387303,9.476917882970358
0.6391444914200447,1.1580194281541207,0.6509853339664726,-10.435166314859934,10.519386242543302
0.6416314349664263,1.0564970595201326,0.8047842750927452,-10.96659557556803,11.046722694278133
0.6441183785128077,0.88315116645612,0.9250745311263024,-10.94267710708246,11.017163933645442
0.6466053220591892,0.6762889790679807,1.0070677204382505,-10.392141551846343,10.462703198044416
0.6490922656055708,0.45985251745258465,1.0268218479362439,-9.425122406814342,9.4920366533553
0.6515792091519522,0.22905338173687328,1.0082789515487285,-8.15175316700606,8.217065874849405
0.6540661526983337,0.022198801882584274,0.9562274557404509,-6.701320938786038,6.769236741208648
0.6565530962447153,-0.15113441211839596,0.8658789781529648,-5.212689633221959,5.286276688524096
0.6590400397910967,-0.2765810470018042,0.7563871528467039,-3.8247231594428666,3.908596403689025
0.6615269833374782,-0.32541067959033376,0.6373288070586893,-2.700227441239649,2.7934402361822452
0.6640139268838597,-0.3072001133170289,0.5087039612024218,-1.8918751240952538,1.9830136446669908
0.6665008704302412,-0.24589136162367708,0.38487784546935044,-1.4427620449102516,1.513326083792877
0.6689878139766227,-0.15106122803888766,0.29458089982877933,-1.3720420220409544,1.4114165619712633
0.6714747575230042,-0.022709709498356934,0.22823633750433814,-1.6557732420172826,1.6715838554028084
0.6739617010693857,0.13916319701455537,0.16669056489577327,-2.2364950661825347,2.247011864874639
0.6764486446157671,0.28667346126575266,0.14346242474292836,-3.028016434012919,3.04493787545157
0.6789355881621487,0.42460948949701627,0.163340339680357,-3.953723089679288,3.9798114974205685
0.6814225317085302,0.5290292679807465,0.1975939089169385,-4.893905145523041,4.926380303285386
0.6839094752549116,0.599932799543454,0.2557999580405008,-5.757583131860132,5.794403895378876
0.6863964188012932,0.6325316836439425,0.33317010249432055,-6.477719593660201,6.517050696603395
0.6888833623476747,0.6172491163733667,0.3961855376161223,-6.98248867062412,7.020905033346774
0.6913703058940561,0.5732387136974781,0.45921149176303055,-7.233583323746004,7.27077750440935
0.6938572494404377,0.4957120749332487,0.5318247897880788,-7.226215335312746,7.262696203241387
0.6963441929868192,0.39903441263174466,0.5948718364386072,-6.989115308903624,7.025726564947088
0.6988311365332006,0.2927825359766282,0.6387758429187209,-6.560590652788364,6.598113814138362
0.7013180800795822,0.18174485078422176,0.6587484235689418,-5.969371966645609,6.008359372783523
0.7038050236259636,0.0850749727848239,0.6547895958661787,-5.2729202681251515,5.3141015534005325
0.7062919671723452,-0.0020154989397268563,0.6412645870643217,-4.562215396168009,4.607063452340457
0.7087789107187267,-0.06994975539346748,0.6038082043114139,-3.889929961201709,3.9371350521576103
0.7112658542651081,-0.10915098762720865,0.5472088678527465,-3.323101781663338,3.369622669446941
0.7137527978114897,-0.10525398341812042,0.4810434010699196,-2.9000382541169323,2.941547726976376
0.7162397413578712,-0.0965659671134268,0.4292538371214625,-2.6446815632143004,2.6810304760471646
0.7187266849042526,-0.0495681133021989,0.3583213691381215,-2.576185488335616,2.601457835858266
0.7212136284506342,0.021374370176906465,0.306553239871318,-2.651454563745842,2.6692027004678223
0.7237005719970157,0.08753106547789746,0.27394946532595865,-2.8704889516416294,2.8848599304771687
0.7261875155433971,0.16326718459130518,0.24135644804168166,-3.185404779065655,3.1987048496336734
0.7286744590897787,0.23900592285986133,0.21835101029600867,-3.56747178439114,3.5821300824071542
0.7311614026361601,0.30038207225982805,0.2192983775027919,-3.9927481073611037,4.010032246322483
0.7336483461825416,0.3521840380026681,0.22983335497005042,-4.384619449245129,4.404741159521103
0.7361352897289232,0.38483501529291264,0.2547443611031195,-4.704778735925467,4.727360323957311
0.7386222332753046,0.3983350059298182,0.2892430074827983,-4.93886090793654,4.963333492953153
0.7411091768216861,0.3878956083465188,0.3141756955450892,-5.062924097223311,5.087471846102957
0.7435961203680677,0.36788203421166715,0.34869605310465657,-5.067391643743219,5.092679471518415
0.7460830639144491,0.31914067190609846,0.3928040945111171,-4.9570520954667785,4.98282162055807
0.7485700074608306,0.2704019429682101,0.41776941400848244,-4.751059208378139,4.777050564475604
0.7510569510072121,0.25039626889094857,0.4379572355398742,-4.47814354315542,4.5064702844622
0.7535438945535936,0.20645121467657745,0.4485791695835242,-4.147882045249506,4.177172588812786
0.7560308380999751,0.1529319917664601,0.45921203639502206,-3.7937936747675707,3.8245436767256495
0.7585177816463566,0.11378061819740393,0.4698558494058154,-3.4637625998332346,3.497336400219706
0.7610047251927381,0.09378549867987962,0.44699179862171246,-3.172154163384249,3.204864961909274
0.7634916687391196,0.0833698279184314,0.4241387203495206,-2.942910513056159,2.974485916954952
0.7659786122855011,0.09211041385396068,0.41087343411117594,-2.776031777941027,2.807784489475123
0.7684655558318826,0.10564204778101327,0.364100322721955,-2.6954601017914968,2.721990897783353
0.770952499378264,0.12875313423069124,0.32691502857961563,-2.691618803178031,2.7144543811062607
0.7734394429246456,0.15665527104887866,0.30889437065667424,-2.759719602052451,2.781368168388234
0.7759263864710271,0.17977165271665607,0.2765195378598708,-2.8853974097880926,2.904186480643168
0.7784133300174085,0.2124674902722784,0.24415575211619966,-3.0351335225402813,3.052341718314285
0.7809002735637901,0.23558917146753083,0.2309566384902002,-3.2137164610912805,3.230606246335897
0.7833872171101716,0.2587135039318954,0.2225569986215583,-3.3924159210467835,3.409538103046196
0.785874160656553,0.2674752786492214,0.2093800372877168,-3.518559579477831,3.5349178970717685
0.7883611042029346,0.26187449652033246,0.2249445889664834,-3.6113011613283064,3.627764380144368
0.790848047749316,0.2562763683631364,0.24052024478927247,-3.68500598629133,3.701728877718873
0.7933349912956975,0.25068089499085777,0.2513186123068478,-3.6965785322871554,3.713582475369507
0.7958219348420791,0.22114606057152497,0.2669165088488201,-3.6268652919099313,3.6433915310412712
0.7983088783884605,0.19161388243276867,0.2681603316409644,-3.509385192351054,3.5248276939021568
0.800795821934842,0.1764495712181855,0.26941530096941246,-3.3728687555569277,3.388209364515667
0.8032827654812236,0.15649951428588926,0.2754698302979759,-3.198162468347695,3.2138168739559405
0.805769709027605,0.12697530891175168,0.28153552626828215,-3.0139968488250926,3.0297791976234802
0.8082566525739865,0.10703056893014218,0.2876123986608574,-2.853890816491276,2.8703430504039416
0.8107435961203681,0.09666529485123365,0.28412365043433097,-2.7130560623676825,2.7296050310465874
0.8132305396667495,0.10066789046268243,0.2758576943271489,-2.6010694855201972,2.6175931617029415
0.815717483213131,0.10467314622818491,0.2723913462171015,-2.513142773139041,2.530027689812161
0.8182044267595125,0.09910425588916072,0.2593594051996049,-2.458852820462454,2.4744789648119867
0.820691370305894,0.12226844634768586,0.24155028347067597,-2.4477765208176034,2.4627029882393394
0.8231783138522755,0.14064689465880176,0.23332919968647348,-2.4511835390599668,2.4662775201834117
0.825665257398657,0.14945119775720117,0.22033095240096578,-2.4690739580596404,2.4833863170004937
0.8281522009450385,0.1678349691370391,0.21213235658954144,-2.525389875383004,2.539835178956392
0.8306391444914201,0.18143299900830778,0.20394501708668233,-2.5914009501697155,2.6057379737157262
0.8331260880378015,0.19024528750008574,0.2005573451877094,-2.6527420496191354,2.6671064658056425
0.835613031584183,0.20384864134035663,0.19239254204739975,-2.699836442351822,2.7143481674727568
0.8380999751305646,0.21266625393425725,0.1842390186020504,-2.7183189917710173,2.7328426761452764
0.840586918676946,0.21669812528608173,0.18088518560873323,-2.7129781726663715,2.7276231582165766
0.8430738622233275,0.2063674487181637,0.19669626028611242,-2.698179264575554,2.713198902861061
0.845560805769709,0.20082783743350308,0.21730703975214238,-2.6739223351849333,2.6902443800545153
0.8480477493160905,0.1857140813518393,0.21877551430551767,-2.60190022373029,2.617677829665013
0.850534692862472,0.16581458363321455,0.22025530394931847,-2.5108434140460307,2.5259337926639307
0.8530216364088535,0.15549455403748702,0.23132322186777854,-2.415117178122255,2.4311478715561115
0.855508579955235,0.15475399232289977,0.2328256611452506,-2.3147215761071642,2.331542957254623
0.8579955235016165,0.13965088160559036,0.24870464457110808,-2.2096566662704262,2.227989890407448
0.860482467047998,0.13412723816441519,0.2454413549133987,-2.1047109083259894,2.123214445680358
0.8629694105943795,0.14297146495670754,0.24218941128625637,-2.0334031800361796,2.0527603472671374
0.8654563541407609,0.13745314165748124,0.24852562598606331,-1.9670031141282944,1.9874002123160006
0.8679432976871425,0.13193747778456433,0.24529639121043,-1.9102991647034848,1.9304975307551793
0.870430241233524,0.1360012794956138,0.24207851890217658,-1.8872333972784219,1.9075503278134942
0.8729171847799054,0.12570252966638285,0.22450680422613,-1.8690754389833053,1.8867027926303055
0.875404128326287,0.1345600509767959,0.21173486541311837,-1.8701905449708391,1.8869421652633431
0.8778910718726685,0.14342022954390132,0.20376270723677203,-1.8810019519345733,1.8974343061841583
0.8803780154190499,0.15228306472670472,0.2005903342950206,-1.9015097013539286,1.9181151577416442
0.8828649589654315,0.15636015252474378,0.19264094436971746,-1.9269254295360412,1.9428331481982375
0.885351902511813,0.15086308889854616,0.18949134834876702,-1.9380955609780237,1.953172047253842
0.8878388460581944,0.145368679730711,0.1815647436638801,-1.9445969382526638,1.9584573167291686
0.890325789604576,0.14466532754480288,0.1736495375330227,-1.9320643854879425,1.9452390620563782
0.8928127331509574,0.158329838146122,0.16574573367942858,-1.905286338252802,1.9190247566441345
0.8952996766973389,0.157631790739037,0.15785333565217652,-1.8738396335992302,1.887071919529145
0.8977866202437205,0.14735958773181923,0.140395540185835,-1.8473011067449807,1.8584797913299447
0.9002735637901019,0.13709003481491566,0.13731436708354616,-1.8065171711547663,1.8169075933382326
0.9027605073364834,0.13161153432047146,0.13424460941261307,-1.765853061707448,1.7758322687303838
0.905247450882865,0.1309240852224779,0.12160946338759082,-1.7157319948554495,1.725011958175195
0.9077343944292464,0.13502768645723395,0.10898573833150493,-1.6465771852294626,1.655695260060811
0.9102213379756279,0.12955712696255928,0.10116184007457374,-1.5823306688839072,1.5908454081791414
0.9127082815220094,0.11930080892013151,0.10292617427480799,-1.522992463456415,1.53112132899548
0.9151952250683909,0.11862394111501462,0.0999135331370522,-1.4589857781320639,1.46720613899384
0.9176821686147724,0.12273811901393261,0.08254711201484488,-1.3998874335685798,1.4076801832178696
0.9201691121611539,0.12206653472636131,0.0795573326528971,-1.3456974419777978,1.35356241578456
0.9226560557075354,0.130974396926554,0.08136739006239768,-1.3203578303712753,1.3293305627414809
0.9251429992539169,0.13030809100994667,0.07840047908381242,-1.3190802040402847,1.327817539571679
0.9276299428002984,0.1392212288979986,0.07065660102781823,-1.3131341498795681,1.3223827741711585
0.9301168863466799,0.1433485992336584,0.06292416035529813,-1.3120964795548886,1.3214028312815904
0.9326038298930613,0.14269020058464532,0.06477996467765523,-1.301601986342522,1.3110013989379736
0.9350907734394429,0.14203443480297717,0.07622401479618457,-1.2768622683749946,1.2869969438585265
0.9375777169858244,0.1365928970641922,0.07810269806177228,-1.2474541319650072,1.2573382449959465
0.9400646605322058,0.14073079578937708,0.07041601493771488,-1.2325311882887409,1.2425363987214522
0.9425516040785874,0.14965972608282652,0.07231757900004299,-1.2129398201863832,1.2242756524726732
0.9450385476249689,0.14901447637282428,0.07423058373472546,-1.188680022009578,1.200281503837727
0.9475254911713503,0.14837185165398914,0.08094343242080226,-1.1693285929845256,1.1814801750289612
0.9500124347177319,0.15252025356555743,0.08766772152916635,-1.1453087172938776,1.1587407454021648
0.9524993782641133,0.14230606711029248,0.09440345068382516,-1.1022551740414528,1.1154055302617816
0.9549863218104948,0.14167130713901666,0.09636221602162198,-1.044956353857625,1.0589099194032028
0.9574732653568764,0.13625076190546126,0.08875561351288708,-0.9973542589031741,1.0105233034434027
0.9599602089032578,0.1404096395508002,0.09073725556334544,-0.9594488729903627,0.9739046443612592
0.9624471524496394,0.1349943249397486,0.09751873781133558,-0.9216633715477869,0.9365878188632865
0.9649340959960209,0.1343700261450982,0.09473484908910113,-0.9270933647883783,0.9415583373284984
0.9674210395424023,0.13853674124475257,0.09196239466532496,-0.8895475715415255,0.9049554645079072
0.9699079830887839,0.12834085500157988,0.08441296968298673,-0.861698405194554,0.8752834204005437
0.9723949266351654,0.12772438202763148,0.08645178240190532,-0.8291806309233483,0.8434026008634599
0.9748818701815468,0.1366873202999337,0.08371362099597546,-0.801571028782357,0.8174396051417137
0.9773688137279284,0.12649924784033617,0.08577529007696505,-0.7788695704664921,0.7937236722503721
0.9798557572743098,0.12110217916098753,0.09263678745269743,-0.7467110159949542,0.7621185298858131
0.9823427008206913,0.13007291878012395,0.08993290080709881,-0.7146721402779033,0.7319584407170664
0.9848296443670729,0.1342578512612943,0.09202883758338576,-0.6875413131987536,0.7065462015518275
0.9873165879134543,0.12886857109633898,0.08934778846099833,-0.6653184996184063,0.6835487121294069
0.9898035314598358,0.1234818827055486,0.08667815391847666,-0.6432152593794971,0.6606714369653464
0.9922904750062174,0.12288618715658439,0.08880833427290202,-0.6212315539512883,0.6394658543307399
0.9947774185525988,0.12229307884432605,0.08137311639902478,-0.5993673431136664,0.6171048478150607
0.9972643620989803,0.12170255545197572,0.07394930361246299,-0.57283418164117,0.590270286533905
0.9997513056453619,0.10674940466937877,0.07132529574816227,-0.546420429268295,0.5613002928313662
1.0022382491917432,-6.544928167874153,-0.48674209931553003,-0.7691230133890894,6.607915919834584
1.0047251927381249,-6.421012464396867,-1.2411226363600991,-0.6615450853118059,6.573235760744138
1.0072121362845063,-6.095981246130338,-1.890146910169721,-0.5588748288568457,6.406713960333074
1.0096990798308878,-5.59856493547071,-2.4098729082654926,-0.4611121937598046,6.112613289412976
1.0121860233772693,-4.938340341563875,-2.79551223160811,-0.36825712809782196,5.686625297888249
1.0146729669236507,-4.167979903469367,-3.061430094597468,-0.2898863849347286,5.179618211413087
1.0171599104700322,-3.3257908503164457,-3.20762650183007,-0.19726948912248687,4.6247884066873635
1.0196468540164139,-2.4500804112649517,-3.234101458059555,-0.11913680371201885,4.0591255019629395
1.0221337975627953,-1.56957900886404,-3.1600085814775434,-0.07464188347341505,3.5291364256495945
1.0246207411091768,-0.7178054690141168,-2.999713087111712,-0.054207861619369524,3.0848763003720583
1.0271076846555582,0.06214457571455734,-2.7723685934658873,-0.01473904648949187,2.773104182287096
1.0295946282019397,0.751117509323072,-2.4731867025978884,0.019822608718431667,2.584806165756944
1.0320815717483214,1.3539017323845355,-2.121321033322133,0.035111959068727217,2.5168006828190372
1.0345685152947028,1.8513436288408194,-1.7455020112484658,0.035917474523730064,2.544708346411843
1.0370554588410843,2.23865479256567,-1.35051804553921,0.03660443329837548,2.614730226264535
1.0395424023874658,2.5110468174034954,-0.9603111587918958,0.041961308574178346,2.688738438805403
1.0420293459338472,2.6589428938494417,-0.5700929538355421,0.03762296185377423,2.719632103065418
1.0445162894802287,2.711073438932325,-0.20859385689435994,0.02358946619828295,2.7191886751996317
1.0470032330266104,2.657861643089798,0.12418612557695585,0.01422610622241649,2.660799332849448
1.0494901765729918,2.5232495199732794,0.4234585836508784,0.019109764808399987,2.558607139680499
1.0519771201193733,2.316813873244805,0.6652814939674019,0.004721696538474873,2.410445660846412
1.0544640636657547,2.048131506538346,0.8688084628978445,-0.009784405903724647,2.2248070810469924
1.0569510072121362,1.7459328367411158,1.0196742734205864,-0.01483165490221694,2.0219389388094338
1.0594379507585177,1.4150062641109504,1.1226673216448928,-0.0056315645933544545,1.8062824687967038
1.0619248943048993,1.0840822054795678,1.1825760035301118,0.008239142488553952,1.6043030000070566
1.0644118378512808,0.7483722544091398,1.1946119082454776,0.017203745367170953,1.4097711201985867
1.0668987813976623,0.4270300210359388,1.1779286414127657,0.0308391379002817,1.253324210072123
1.0693857249440437,0.1248439055081374,1.1229493885832733,0.03956860221226144,1.1305604823905284
1.0718726684904252,-0.1533976920528234,1.0440393517617652,0.07212264853269978,1.0577101192602967
1.0743596120368066,-0.37896435495100733,0.9268333128834052,0.11413615874596061,1.0078000967092353
1.0768465555831883,-0.566221296399813,0.8000616836189565,0.13687880630793003,0.9896671469277779
1.0793334991295698,-0.7295337296390718,0.6589360522502705,0.17386950936582757,0.99832198709804
1.0818204426759512,-0.8401712380521871,0.5082448135534348,0.21074315438583646,1.004297354808128
1.0843073862223327,-0.8933454216501958,0.35277636215873764,0.22834622603071963,0.9872482985671799
1.0867943297687142,-0.8986330904310464,0.19731909255106572,0.24583243703738233,0.9523181414855898
1.0892812733150956,-0.8847646676997293,0.05623820571101046,0.2919323082897325,0.9333786614310281
1.0917682168614773,-0.8421633502243543,-0.07525471080654844,0.3427039256493618,0.9123312778893251
1.0942551604078588,-0.7612523347984861,-0.19237126295009466,0.36462856983304626,0.8657169364080003
1.0967421039542402,-0.6563968348425346,-0.29032305681162773,0.40559037949337373,0.824407567920943
1.0992290475006217,-0.5419620638020247,-0.38347531190744544,0.43685904164308553,0.7947465103467757
1.1017159910470031,-0.41315962186617783,-0.44309761801360326,0.46322306801691937,0.762634894935276
1.1042029345933846,-0.28435472253024296,-0.47876679161075053,0.4798941651833992,0.7351011214462776
1.1066898781397663,-0.15075896603283967,-0.5096364559617785,0.4964492511410121,0.7272684800285548
1.1091768216861477,-0.02673756591822085,-0.5309182178691616,0.5224652453518406,0.7453582924320066
1.1116637652325292,0.08292107088560274,-0.523458474315079,0.5435770521345678,0.7591842266119547
1.1141507087789106,0.19737055402818748,-0.5064108489843857,0.574149997182456,0.7906043908498701
1.116637652325292,0.28788045993197786,-0.48456375574068256,0.5950305843937915,0.8195966013547031
1.1191245958716736,0.3496623815972251,-0.43876359198520776,0.6157957390304567,0.8330556181696824
1.1216115394180552,0.4114467352427692,-0.3977407884610291,0.6364455811499106,0.8558908391335789
1.1240984829644367,0.454079903860895,-0.35670695280724685,0.6521918289199728,0.8710812769089519
1.1265854265108182,0.4727734803815628,-0.29650848283974796,0.6726114118945148,0.8739783495938316
1.1290723700571996,0.48189267099288857,-0.24108740639446014,0.7024928577266394,0.885347332427002
1.131559313603581,0.47664906857881256,-0.1904437348424861,0.7178942755615338,0.8825164823400322
1.1340462571499625,7.179960931039428,3.805855259566639,0.19209142731991058,8.128546754769479
1.1365332006963442,5.493992585588777,3.6745615671430016,0.16895636538771974,6.611724698944589
1.1390201442427257,3.7984498389097636,3.447510771811386,0.16964888768858444,5.132478197280834
1.1415070877891071,2.160370333601136,3.148644878260329,0.18459231892818728,3.8229882123681955
1.1439940313354886,0.618061292317528,2.7588102611613188,0.19463317855731432,2.8338870641480263
1.14648097488187,-0.8093236755895991,2.325890941536499,0.2189252139693032,2.472387860571821
1.1489679184282517,-2.0834773475093873,1.8690405203528848,0.2766221739318233,2.8125984696391524
1.1514548619746332,-3.175669307492804,1.3978357918043343,0.3533589853389323,3.48764720462389
1.1539418055210147,-4.076322752893994,0.9218535499523077,0.4347705764475691,4.201814680285827
1.1564287490673961,-4.775860881088335,0.4650357986874871,0.5256454901530159,4.827153263662649
1.1589156926137776,-5.259918486151426,0.027382525168200722,0.6116186574205731,5.295429129517931
1.161402636160159,-5.547649185422559,-0.3623758636563923,0.6831134138814257,5.601283039385265
1.1638895797065407,-5.639052982980276,-0.6994509775686482,0.7592835164283311,5.73277085476127
1.1663765232529222,-5.562860302845665,-0.9982080397617095,0.8544943199675838,5.71594214303101
1.1688634667993036,-5.333436359099258,-1.2251282403548371,0.9400155508507542,5.552486995727062
1.171350410345685,-4.955569559201262,-1.3849999961582435,1.0110589533531424,5.243866403008002
1.1738373538920666,-4.462778730553851,-1.5017653373914537,1.0628362730663508,4.8271434689493
1.176324297438448,-3.888582700579137,-1.5706358744796285,1.1097128701736683,4.338137287324457
1.1788112409848297,-3.2521350867580683,-1.5772464113342881,1.1564772995222867,3.794934598764537
1.1812981845312112,-2.567801103270894,-1.540750575235592,1.1887645039767474,3.2219056297419866
1.1837851280775926,-1.8738879809188682,-1.4659367836286858,1.2353050575770865,2.6807471726933403
1.186272071623974,-1.194337740561598,-1.3528050507637956,1.2865223090875837,2.2162273790570017
1.1887590151703555,-0.5339387897965597,-1.2205090042972548,1.3280512052329847,1.8810775806810507
1.191245958716737,0.0881552537988729,-1.0738370620487832,1.3503150973331657,1.7274976835549685
1.1937329022631187,0.6384255626676335,-0.9080008353212454,1.3533141446174497,1.7502890875604586
1.1962198458095001,1.1408141490776291,-0.7373655488220512,1.351413717538943,1.916111664616075
1.1987067893558816,1.56180218543466,-0.5619312174203541,1.3494023811669393,2.1391305583902556
1.201193732902263,1.8870244574075095,-0.40563987270900936,1.332915088540286,2.345648661339512
1.2036806764486445,2.1452113805295303,-0.24454951319941065,1.3211056171847737,2.5312163841356283
1.206167619995026,2.3124209337926254,-0.08344855744595536,1.3187625359039732,2.663341672201681
1.2086545635414077,2.393441516092831,0.04414415595463517,1.3258860114137967,2.7365095857176316
1.2111415070877891,2.4170035429100065,0.1525938214886664,1.3472646149770338,2.771337753426178
1.2136284506341706,2.3687417998237175,0.24190042356212738,1.3398028858738442,2.732128346572965
1.216115394180552,2.2438678790367925,0.3168523497823754,1.3370198177237764,2.631151927031544
1.2186023377269335,2.0711121959770593,0.3630843743571739,1.3341271787921798,2.490227162412947
1.221089281273315,1.8600515527740615,0.3949616912983571,1.3311251418668721,2.321137794246726
1.2235762248196966,1.6106859448998438,0.4029074778989439,1.3280138809317172,2.1260913707534095
1.226063168366078,1.3469573844112992,0.39171012129619376,1.3200051678401472,1.9261735793200732
1.2285501119124596,1.0640774634268872,0.3757348151518438,1.3358295988715163,1.7486789918997212
1.231037055458841,0.7811997906502329,0.3358279297698554,1.3611221415999317,1.6049009301757724
1.2335239990052225,0.5079011681280939,0.28635465858134124,1.3767293614505967,1.4951074616084579
1.236010942551604,0.2298163812895831,0.23210338826231425,1.3826514382951718,1.420708468255044
1.2384978860979856,-0.009958944608362774,0.17786250537486836,1.388465359804961,1.3998465297218325
1.240984829644367,-0.21621321752770006,0.11405518640680246,1.40374811480409,1.4248738578540936
1.2434717731907485,-0.40810005540694916,0.03589301105342413,1.414134676661722,1.472280831635999
1.24595871673713,-0.5712542529578403,-0.04704723114122489,1.4196252298483154,1.5309737609450915
1.2484456602835114,-0.6960990082278008,-0.12518875074481794,1.434585169929429,1.5994563646283773
1.250932603829893,-0.796999535880907,-0.18895475843610354,1.4542262803172488,1.6690375176416403
1.2534195473762746,-0.8452254207134214,-0.25749888492625406,1.4737603455456174,1.7183367666616407
1.255906490922656,-0.8647186840598774,-0.3068791311536052,1.502764361224684,1.7607424368904359
1.2583934344690375,-0.869844540628859,-0.3370955147674648,1.5220849041518516,1.7852185766412818
1.260880378015419,-0.8366609785809719,-0.3912436834087938,1.5365105688289047,1.7927459220453619
1.2633673215618004,-0.7747448093333762,-0.4310164283815068,1.5651951608151071,1.7988442324344787
1.2658542651081819,-0.6984612476377625,-0.4324717510581588,1.5841968568771643,1.7845334435797207
1.2683412086545636,-0.6125987016192302,-0.4243400894418703,1.622246271389158,1.7852239763595845
1.270828152200945,-0.5219455794168218,-0.4209866716813768,1.6410363733184372,1.7727541691278728
1.2733150957473265,-0.40734827258174233,-0.4224115160704591,1.6501441659067924,1.7513822747648489
1.275802039293708,-0.2783835926006776,-0.4046726244067429,1.6783002667422533,1.748699271721876
1.2782889828400894,-0.16378196425500868,-0.38213522515518683,1.6967744546277492,1.7469674902518737
1.280775926386471,-0.053966585776900056,-0.3547993369240663,1.7247205426216548,1.7616628258561022
1.2832628699328525,0.055850941267999166,-0.3322417850659667,1.7334083116251815,1.7658449269954606
1.285749813479234,0.1417285953792049,-0.30488578175532055,1.7276263668213456,1.7600384081039362
1.2882367570256155,0.22281998492620647,-0.2631545392690775,1.7504705409889114,1.7841093498130791
1.290723700571997,0.29912510498456507,-0.24056689986893565,1.7636338114882166,1.8049245088836907
1.2932106441183784,0.3610671439766463,-0.21796926939453565,1.7766931899032308,1.8260664763114067
1.29569758766476,0.4086460969530869,-0.19057326374721573,1.7848604788711153,1.8409336572636954
1.2981845312111415,0.43228515231164794,-0.16316730556914916,1.792924288677395,1.851505205891991
1.300671474757523,0.44634951503958137,-0.1405398176021091,1.7960964239683213,1.856055412453921
1.3031584183039044,0.46041598679188267,-0.13226762600722264,1.813530706986656,1.8757321852990234
1.305645361850286,0.45533094928988926,-0.12398554044249721,1.83086213772153,1.8907022121323867
1.3081323053966674,0.42630599420423904,-0.10611677398411246,1.8433025237848337,1.8949305434782557
1.310619248943049,0.4020715364362667,-0.10260336304770945,1.8508520770845003,1.8967979285545757
1.3131061924894305,0.3682623609931669,-0.10386852090342868,1.8678762204587116,1.9066639481340306
1.315593136035812,0.3200900595115495,-0.10033546091750889,1.894375167747592,1.9238456609339414
1.3180800795821934,0.28149664353886794,-0.10636941315326087,1.9111955204664817,1.9347411014989482
1.3205670231285749,0.23332849472886336,-0.11239359116735637,1.918337494361996,1.9357410074860202
1.3230539666749563,0.17558560800577805,-0.12319641857173735,1.9110129028040328,1.9230127347397252
1.325540910221338,0.12742159156449712,-0.1339895124314645,1.9131639800215163,1.9220785275035512
1.3280278537677195,0.07925963366759614,-0.15434969986567149,1.9295793478928216,1.937364802816504
1.330514797314101,0.04546493916885974,-0.15554658152356948,1.9363172092987133,1.9430867543019414
1.3330017408604824,0.011672292990076105,-0.15194538802912616,1.962108204561197,1.9680173398050467
1.3354886844068639,-0.02690671331637917,-0.17706496337893807,1.9830105383902001,1.9910818084258783
1.3379756279532453,-0.06069527824707743,-0.18302129521507293,1.9894476263614802,1.9987702642722651
1.340462571499627,-0.07053979366767182,-0.19854482439476584,1.9814196915898554,1.9925912536204367
1.3429495150460085,-0.08517068465653899,-0.21884716862265874,1.9972341846446078,2.010992918200367
1.34543645859239,-0.10937635969993598,-0.2247747357314509,2.0129493138164625,2.028411154051003
1.3479234021387714,-0.10963800073091268,-0.2402695635250427,2.0046232882751793,2.0219457169409814
1.3504103456851528,-0.11468603285573742,-0.26054326997325905,2.0153519645474516,2.0353572715043957
1.3528972892315343,-0.11015525130687787,-0.2808074731331205,2.030770360182313,2.053050236149347
1.355384232777916,-0.09125725796629469,-0.2866969845076248,2.0413018969087133,2.0633556364282923
1.3578711763242974,-0.07714567132624373,-0.29736543892795453,2.0517352072696715,2.074607196464698
1.360358119870679,-0.06303209328599557,-0.3128128580294458,2.0620705213345474,2.0866144262631505
1.3628450634170604,-0.0441281257532703,-0.31867405357129686,2.077096473333185,2.1018635073275367
1.3653320069634418,-0.025222177284714098,-0.3197374506781654,2.0872364883681778,2.1117349156484284
1.3678189505098233,-0.006314253124823366,-0.32079147455830936,2.092490799009945,2.1169470432401223
1.370305894056205,0.012595641473882702,-0.3170477438623629,2.10243644529025,2.1262447950687746
1.3727928376025864,0.03629590457131493,-0.3132946839639832,2.1074968547738386,2.1309654958657505
1.3752797811489679,0.06478653089932629,-0.31910912363893784,2.1316142790753947,2.156341197986463
1.3777667246953493,0.08849070854155361,-0.3105490685019987,2.1460585340874196,2.1702162475603877
1.3802536682417308,0.1121968355350828,-0.2971913474907186,2.146041453098733,2.1694249803451506
1.3827406117881123,0.1263280999487572,-0.29818959626325725,2.1459284834676806,2.1702269190833956
1.385227555334494,0.13088449648485123,-0.2896018206743505,2.1457198633734658,2.1691274047490703
1.3877144988808754,0.14023122979951985,-0.281004849899698,2.154992638411212,2.177756137652872
1.3902014424272569,0.14957989126075955,-0.27239870655255016,2.1737470483042305,2.195848680854953
1.3926883859736383,0.14456526558916294,-0.25899501000340974,2.1876181235772227,2.2076346132965616
1.3951753295200198,0.1491293640611826,-0.2503705896606778,2.1966061054716555,2.2158527437507396
1.3976622730664012,0.14411856806395296,-0.24173706504817805,2.195922832658038,2.213884382091308
1.400149216612783,0.12953287225949028,-0.23309445908579773,2.2142989677919322,2.2302985698369424
1.4026361601591644,0.1388910945457642,-0.21965439144825938,2.223004334421522,2.2381436635487675
1.4051231037055458,0.13867440633027017,-0.23014730512700865,2.2364043867076946,2.25248816953912
1.4076100472519273,0.12888280225672588,-0.24541960998430268,2.268864579534748,2.285735776932623
1.4100969907983087,0.11909308360364279,-0.23674090931509584,2.286866335300772,2.3021700754369876
1.4125839343446904,0.10930524500320882,-0.23284164633081117,2.2951983036767984,2.309566652437662
1.4150708778910719,0.09951928108205121,-0.2385102477134109,2.2986491350378273,2.3131318750952254
1.4175578214374533,0.0945235897816673,-0.23938152693511183,2.3067958837766582,2.321108673429991
1.4200447649838348,0.07516455243670705,-0.23545550749995403,2.3052735883755364,2.31848556674759
1.4225317085302163,0.05580737361882704,-0.2363090196228823,2.3084477079231167,2.321182292695007
1.4250186520765977,0.04602885457433459,-0.23715368362757694,2.3211068955455048,2.3336447342430775
1.4275055956229794,0.03625218326339219,-0.23320111990678294,2.3288861917591515,2.3408135075831185
1.4299925391693609,0.021688950961692655,-0.23881656220294234,2.3413626543472086,2.3536105965405696
1.4324794827157423,0.02149276554184354,-0.2300580177638465,2.3489597284702457,2.3602966839961197
1.4349664262621238,0.026086814950066706,-0.23086752710763925,2.3612544732222913,2.372657376086846
1.4374533698085052,0.016317480487570868,-0.23645671089721576,2.3734587383821975,2.3852640145486212
1.4399403133548867,0.011338370013807109,-0.24682559318179287,2.3712075677274793,2.3840463001653687
1.4424272569012684,0.006361074783137632,-0.25718579475495673,2.36886642559035,2.3827952363947134
1.4449142004476498,6.762611077645072,7.762615028365804,2.0312473345467286,10.493667919283594
1.4474011439940313,5.321116400511363,7.555947579478118,1.9808429818548081,9.451474090869407
1.4498880875404128,3.9131423455610435,7.181694622360055,1.9686566510895371,8.412195294650346
1.4523750310867942,2.591361343876375,6.659009745922764,1.975534985807915,7.413521625447801
1.4548619746331757,1.3797154066142494,6.0070465390150485,2.001478243448836,6.480288410567884
1.4573489181795574,0.28778133496716685,5.2689006070254605,2.008179455482905,5.645964614562543
1.4598358617259388,-0.665287263234653,4.473302345320793,2.029157703773202,4.956866147280648
1.4623228052723203,-1.4890672000864225,3.6394053425663437,2.059624844201692,4.438991650445685
1.4648097488187017,-2.1548280611238493,2.7863631873674333,2.0804275232643423,4.090877957661286
1.4672966923650832,-2.6577814484865394,1.9381178715910816,2.1155080179084766,3.910943273167613
1.4697836359114647,-3.017080980918944,1.1233997903652764,2.1648665890419965,3.8796200951595625
1.4722705794578463,-3.2614570838086614,0.36615093543959,2.2285034981285694,3.9670387769998237
1.4747575230042278,-3.3717561493424437,-0.3384171214148628,2.292053797220194,4.091060533412676
1.4772444665506093,-3.371920199592487,-0.9663623885629722,2.3650945555134815,4.230528850506575
1.4797314100969907,-3.3002564665940763,-1.5176848910268377,2.452414439421238,4.3828525821009485
1.4822183536433722,-3.142399745861222,-1.9780194439233574,2.506129679363039,4.479723546505055
1.4847052971897536,-2.8935616395505828,-2.3569428790259903,2.54060574944634,4.514704450015502
1.4871922407361353,-2.6112029929847544,-2.63051320492041,2.594150140897592,4.524112702547559
1.4896791842825168,-2.2953238116444807,-2.8130956568085015,2.623667489009028,4.479469797592115
1.4921661278288982,-1.9507125043323166,-2.933420679906351,2.6387348661010446,4.401494956652568
1.4946530713752797,-1.5917342864931021,-2.9723346862794044,2.6632945549533584,4.296688191212111
1.4971400149216612,-1.2471195835340196,-2.9298377013263144,2.678193208954906,4.1607661645710525
1.4996269584680426,-0.9168684009416921,-2.829871767098623,2.688219498581889,4.009407182542467
1.5021139020144243,-0.5818271309226919,-2.6868021190579667,2.693373691469567,3.848595884105334
1.5046008455608058,-0.27551460220811397,-2.491051976114526,2.6888676524059303,3.6757662460892364
1.5070877891071872,-0.012296030248771905,-2.25698657382954,2.679490053286316,3.5033992824779463
1.5095747326535687,0.2174053861052082,-2.0085479544537836,2.670029566466493,3.348221598558447
1.5120616761999501,0.4183780446827426,-1.7457361436846348,2.660486461436011,3.209489536222818
1.5145486197463316,0.581045133351002,-1.458974360626751,2.6317073948510155,3.0646538865050714
1.5170355632927133,0.7101950499377487,-1.1817814543144203,2.6028462503716527,2.9454699145962024
1.5195225068390947,0.7962509823093262,-0.9045806439456938,2.593056912093335,2.8594100646085714
1.5220094503854762,0.8440013282927383,-0.6369487620456886,2.5879744412982504,2.795649061746562
1.5244963939318577,0.8773880989960594,-0.3884626411847587,2.5732338996913056,2.7463149495964005
1.5269833374782391,0.8820460789647933,-0.15912230733726052,2.5440471560344813,2.697313687029492
1.5294702810246208,0.8579752627054176,0.03191860019719028,2.529144902742148,2.6709013998123496
1.5319572245710023,0.8099640480448941,0.2086020719583006,2.5237390093904546,2.658724350336018
1.5344441681173837,0.7619544460916439,0.34698606524001097,2.4990993293517123,2.635615936618184
1.5369311116637652,0.69479283807171,0.45664736053604615,2.4935333628741203,2.628492444631827
1.5394180552101466,0.6132676218131156,0.5423743349783634,2.5022529807083425,2.63278124322385
1.541904998756528,0.5269555984648078,0.5898017523766246,2.5013164407028743,2.6233818338912154
1.5443919423029098,0.44543356917640986,0.6132947964219904,2.5098776309618955,2.621836626159308
1.5468788858492912,0.363913125137433,0.6272186507658337,2.518360020034402,2.6206818175855457
1.5493658293956727,0.2776058575382467,0.6028428691375467,2.531552286790834,2.6171055610665452
1.5518527729420541,0.19608856753118764,0.5593210384310607,2.5494547071356415,2.6174434194618446
1.5543397164884356,0.1193612496291,0.5062299388617317,2.5529139440402036,2.6053570704584583
1.556826660034817,0.052212301666316296,0.4292043340059535,2.556295484060099,2.5926027629779393
1.5593136035811987,-0.0005698785214930391,0.35218621396585625,2.578753217407101,2.6026916087690086
1.5618005471275802,-0.04856210305814401,0.25602193892465364,2.577191791458655,2.5903326120454184
1.5642874906739617,-0.08218757078472849,0.1598650955923917,2.5851303070408296,2.5913722908839776
1.5667744342203431,-0.12059990046255076,0.06850406068328185,2.602569042054995,2.6062622203041523
1.5692613777667246,-0.15422229092931894,-0.022849595763475783,2.6055662581123578,2.610226454631796
1.571748321313106,-0.16390113438028509,-0.11419590042213512,2.6084874436919243,2.6161251937594265
1.5742352648594877,-0.1735784528915818,-0.20553488000012887,2.6065444742906596,2.6203908415845287
1.5767222084058692,-0.16888904197481225,-0.28728975459680806,2.6188912423002213,2.6400095171404705
1.5792091519522506,-0.16419811706132104,-0.3498837443435443,2.645528027118077,2.673611452412188
1.581696095498632,-0.1547172802989747,-0.41247048932493824,2.667301495141464,2.7034360742157295
1.5841830390450136,-0.13086973051299822,-0.4654732097345087,2.660269909722281,2.703854320764875
1.586669982591395,-0.11180908644806531,-0.4993151257959685,2.662740777645423,2.711458153023341
1.5891569261377767,-0.08795854692444771,-0.5379382810048168,2.6747143793962014,2.7296906988697973
1.5916438696841582,-0.054529714080121194,-0.5574006856824258,2.6866141890762174,2.7443696571458007
1.5941308132305396,-0.04025301329251452,-0.5672791734207756,2.6936520843582903,2.753032422119988
1.596617756776921,-0.02118643341281823,-0.5819389811599676,2.700616749800785,2.7626857715018573
1.5991047003233025,0.0026700201091274245,-0.5726497159845194,2.702720063560392,2.7627215871666153
1.601591643869684,0.02173953518585281,-0.5681418248493388,2.7095391139877147,2.7685483471961554
1.6040785874160657,0.031233703053307638,-0.5588385281728812,2.69234376309788,2.749907449982437
1.6065655309624471,0.045517728231875165,-0.53516304639906,2.6846531162911553,2.737852023873154
1.6090524745088286,0.05980320196397315,-0.5210574232388496,2.667313842659511,2.718389301869859
1.61153941805521,0.06930171549539532,-0.5021564758650121,2.6403262247853885,2.6885472707976024
1.6140263616015915,0.08359007003634022,-0.4736718281146315,2.646786175337364,2.6901355650812704
1.616513305147973,0.07393784023806527,-0.45475712044946803,2.643598347415802,2.6834461174538458
1.6190002486943547,0.07865224723985353,-0.43583557343193613,2.6307630241954225,2.667780521808057
1.6214871922407361,0.08815647898159984,-0.41211881096671643,2.6082804890366162,2.6421091174719002
1.6239741357871176,0.08808532008672276,-0.38839526362047305,2.6048814454014444,2.6351503275931556
1.626461079333499,0.07843876514349446,-0.3550881520197118,2.610989370363434,2.6361915195472525
1.6289480228798805,0.08315882534575925,-0.32177431009239754,2.626604547804866,2.647547081246626
1.631434966426262,0.08309188200864626,-0.30281897510642475,2.627785245168754,2.6464804717335157
1.6339219099726436,0.0734495264124071,-0.2838569644268536,2.624108553296794,2.640438469017831
1.636408853519025,0.07817376976344037,-0.26967670871846083,2.625151563181375,2.6401245037266454
1.6388957970654066,0.08768780003031607,-0.24591302538266024,2.6261261559988673,2.6390719871857224
1.641382740611788,0.08283799854542395,-0.22693115176005563,2.627032616385093,2.6381167997632824
1.6438696841581695,0.06841276324724721,-0.21751951856735774,2.632659632429573,2.6425161848808254
1.646356627704551,0.06356570203981604,-0.20810134657650226,2.6621611023104137,2.6710388435171373
1.6488435712509326,0.0635084062303054,-0.19867666321564892,2.682018487804191,2.6901168939456697
1.651330514797314,0.058664063810355715,-0.18924549592796813,2.687443670725556,2.6947372438578534
1.6538174583436955,0.049032669417100716,-0.1989614854523314,2.697590549601202,2.7053622028595874
1.656304401890077,0.04419102433324884,-0.19909423933836168,2.7028826031407487,2.7105655736635947
1.6587913454364585,0.05371592984654083,-0.19443218839117904,2.708108520113865,2.71561061894285
1.6612782889828401,0.0536653640076431,-0.20891737670989619,2.713268586063374,2.721828955262207
1.6637652325292216,0.048827724794293426,-0.2186078152026707,2.7135746832995933,2.722803901389294
1.666252176075603,0.05356821683012769,-0.223503531390834,2.7042386942150127,2.7139878956414396
1.6687391196219845,0.04873322150195092,-0.22839295612707433,2.7044145178802337,2.714478983858191
1.671226063168366,0.03911113680356881,-0.2476413269151747,2.6997372301946188,2.7113533557832863
1.6737130067147474,0.03427876405460861,-0.27167186466728976,2.694995520404138,2.7088708885281494
1.6761999502611291,0.04381290458029352,-0.2813309836642959,2.6854012711739017,2.700453050915659
1.6786868938075106,0.0389831331490178,-0.28619551811774535,2.670954768543556,2.686526927999487
1.681173837353892,0.02936625109742086,-0.2814770922864964,2.661233105242019,2.6762386609982407
1.6836607809002735,0.034115866408593765,-0.28154094371833915,2.646659760760082,2.661810865662179
1.686147724446655,0.038866763829340734,-0.29117550332756803,2.6607538445089522,2.676920772106974
1.6886346679930364,0.03883053475306719,-0.3055923953944242,2.660420012806931,2.678195132378472
1.691121611539418,0.03400717389954366,-0.31521484088485163,2.6600237618426723,2.6788511151906778
1.6936085550857995,0.04355028927591764,-0.3248312707311931,2.678718991146268,2.6986936498366276
1.696095498632181,0.04351785901272398,-0.3248649059097666,2.687775567060359,2.7076869298409383
1.6985824421785625,0.043486684488959204,-0.3296809840028123,2.6919821791799787,2.712443307419252
1.701069385724944,0.04345676044934199,-0.33927953263544897,2.6961275171049603,2.7177385230710915
1.7035563292713254,0.04342808164501044,-0.34408377279543245,2.6858466571532533,2.708145473699264
1.706043272817707,0.04818904615390651,-0.3345169254732361,2.6707166922383347,2.6920162346831717
1.7085302163640885,0.04816284209959665,-0.34409784154431744,2.665103118582599,2.6876565287613046
1.71101715991047,0.04334946425290742,-0.35367293536232713,2.67858302907133,2.70217889209574
1.7135041034568514,0.04811411735230364,-0.3488770246023152,2.6872146933255063,2.7101942651050774
1.715991047003233,0.04809158622114962,-0.3488637501820602,2.690998397540187,2.7139438263199573
1.7184779905496144,0.048070268970901275,-0.3440563330974733,2.6899344278776374,2.7122744583439204
1.720964934095996,0.048050160399612296,-0.33924320430486743,2.674446263821391,2.6963044315599194
1.7234518776423775,0.043242851992004394,-0.33442439143917335,2.654110998092836,2.675446655800712
1.725938821188759,0.04801354852109263,-0.33438832545402297,2.6385057233646805,2.6600438540125064
1.7284257647351404,0.04799703484513207,-0.32476982401965815,2.6180539189744563,2.638557461304414
1.7309127082815219,0.05277011243111818,-0.3247225280458279,2.616697887442709,2.6372973361253
1.7333996518279033,0.0527559694720422,-0.34382327179845085,2.620072704663084,2.6430623549711525
1.735886595374285,0.04795460080882952,-0.34376485633658005,2.6186018497799344,2.641505170894378
1.7383735389206665,0.05273121125071456,-0.33891251923843857,2.6362276251049863,2.658446608021908
1.740860482467048,0.05750898901281132,-0.3340546914368261,2.6585851063074903,2.6801071971412336
1.7433474260134294,0.05749952563804572,-0.3339798038592199,2.671309368971551,2.692720269465365
1.7458343695598109,0.057491219317533315,-0.33868788410693673,2.650458681950349,2.6726290329683677
1.7483213131061923,0.06227246825001631,-0.33860215313429665,2.6534941704469626,2.675735523366453
1.750808256652574,0.05747805736067535,-0.3337226385293488,2.6564741031186268,2.677971095266874
1.7532952001989555,0.057473191504315624,-0.3288377711930379,2.6354567485169555,2.656514581328034
1.755782143745337,0.057469462262302096,-0.3191591753777452,2.6383264248875253,2.6581820183313845
1.7582690872917184,0.06225526786449476,-0.309475281968024,2.655506610516418,2.6742038117956644
1.7607560308380998,0.062253796587745325,-0.31415132848007765,2.667843976928264,2.686997967548134
1.7632429743844813,0.07183025331845583,-0.3140337291784401,2.6609735988421814,2.6804024440536205
1.765729917930863,0.06704261638857467,-0.31391091491920475,2.6588377774089444,2.678143592396527
1.7682168614772444,0.06225609070065363,-0.30420610658701674,2.651859990401298,2.669977262975348
1.770703805023626,0.06225907452478052,-0.2944961383367466,2.64482892541211,2.6619023672089317
1.7731907485700074,0.05747475617832298,-0.2991462476320459,2.63295646324785,2.650519111877656
1.7756776921163888,0.05747993726817213,-0.29900284868233795,2.6162428878845914,2.633900813454298
1.7781646356627703,0.057486209448609715,-0.2892775656454365,2.604265289783376,2.620912794015285
1.780651579209152,0.05749356770261327,-0.2891240392676635,2.5970239526040766,2.6137007538754173
1.7831385227555334,0.05750200702159747,-0.2937538936802313,2.6040959664817525,2.621242765084978
1.7856254663019149,0.05272311908515537,-0.2983787530002937,2.6063280014592793,2.6238817158398735
1.7881124098482963,0.05752210886267439,-0.2886334346898294,2.6132971473262367,2.6298174904073295
1.7905993533946778,0.047956954769639015,-0.28845998275826457,2.634580493692213,2.6507590250543673
1.7930862969410595,0.04318126511299569,-0.2882816179572898,2.6414479034194764,2.657483384593021
1.795573240487441,0.05277184156776216,-0.28330996434286604,2.643476465743177,2.659138437181571
1.7980601840338224,0.052786662575524224,-0.2879102592356624,2.6358780597431277,2.6520806727839568
1.8005471275802039,0.05759093314916375,-0.29250572333775526,2.613864564299975,2.630810573619742
1.8030340711265853,0.05281943838853842,-0.28273117401338643,2.606166681332632,2.62199000393194
1.8055210146729668,0.038472173363344075,-0.27774025185097484,2.593631079348259,2.608743362499032
1.8080079582193485,0.04327955307409226,-0.272744580818876,2.5810464432422187,2.595778008276837
1.81049490176573,0.0432995560068562,-0.2821093981477065,2.5732014576918303,2.588981712168128
1.8129818453121114,0.028955370617687937,-0.29146952112675173,2.560519597190769,2.577218171368393
1.8154687888584928,0.0385542185748472,-0.2816713637050263,2.5573663526068993,2.5731202549331584
1.8179557324048743,0.043365675071359466,-0.281445373014237,2.563742004615138,2.57950870244579
1.8204426759512558,0.04338973523129963,-0.28600317292299415,2.574858430333454,2.5910570083085247
1.8229296194976374,0.03383799086765349,-0.285767983958209,2.571562296677649,2.5876129919243183
1.825416563044019,0.029075647083929512,-0.2903166399061696,2.549065480278662,2.5657092523136837
1.8279035065904004,0.03389110235231374,-0.30443757121052073,2.5408870840795323,2.5592846687356614
1.8303904501367818,0.029130738552788582,-0.29940038504989985,2.551815790846521,2.5694849719175856
1.8328773936831633,0.029159760816918512,-0.2943587217827921,2.5626982664848645,2.5797131146282584
1.8353643372295447,0.03397816432476797,-0.2988894151033028,2.5687463865968017,2.586299943310095
1.8378512807759264,0.024432330984629935,-0.2986272820797562,2.574748833156721,2.5921239835782512
1.8403382243223079,0.014887465956504142,-0.29836075303704135,2.5615522712645546,2.578912719348221
1.8428251678686893,0.02449717773025839,-0.2980898549545854,2.543522188985044,2.5610472075311037
1.8453121114150708,0.029319444922549454,-0.30260301810651447,2.525447267460521,2.5436808206104695
1.8477990549614522,0.02456585944091927,-0.29753505945963266,2.5264813975080207,2.5440595207289864
1.8502859985078337,0.024601626483832795,-0.28767440923546594,2.522682839771165,2.5391515346332785
1.8527729420542154,0.01984993465790519,-0.2873863042691691,2.5092634678798422,2.5257450502819534
1.8552598856005968,0.029464392501370895,-0.2918823680872027,2.5053771717661615,2.522494447968653
1.8577468291469783,0.029502978679441183,-0.3011626275084436,2.496659017816368,2.514930536854356
1.8602337726933598,0.024754091789018107,-0.3056503026827899,2.487897685389961,2.5067249082336707
1.8627207162397412,8.940801516178666,3.6163568989639425,1.6698532890810087,9.787971137035576
1.8652076597861227,6.829157014724168,3.463437002457196,1.5796035701201978,7.818435191295152
1.8676946033325044,4.789339479214104,3.186022720351819,1.5276187254719442,5.951649552197219
1.8701815468788858,2.8500793248883833,2.803267639256664,1.509110626580389,4.273017259351723
1.8726684904252673,1.078414193556979,2.3486905557718174,1.524079547880631,3.000357140059314
1.8751554339716487,-0.506502306163248,1.8510218632079627,1.5773141667946025,2.4840987309270774
1.8776423775180302,-1.8998817756049662,1.3246267449467015,1.654449547125286,2.846294095606959
1.8801293210644117,-3.082570606130904,0.7838703844012458,1.7411207523338375,3.626044097295447
1.8826162646107933,-4.035415189093747,0.26705998161857014,1.842116458816717,4.444017307571391
1.8851032081571748,-4.744050319155084,-0.21622768324271924,1.9478601326591845,5.132925767832516
1.8875901517035563,-5.237206420850577,-0.6468390233509913,2.0535636429127537,5.662495514543148
1.8900770952499377,-5.529248708744233,-1.019985661801653,2.1448620516299792,6.017756662906294
1.8925640387963192,-5.63933080070997,-1.326090818335475,2.264851260344704,6.220138259700888
1.8950509823427006,-5.567452701330451,-1.565154519299652,2.3752243137791362,6.252033972364788
1.8975379258890823,-5.347133238420116,-1.7275999843657766,2.475981482847538,6.140596052404174
1.9000248694354638,-5.007102836462994,-1.8182156431308911,2.5671230380896235,5.913299217233315
1.9025118129818452,-4.571303516612062,-1.8417899251564291,2.6486492496668133,5.595028938008999
1.9049987565282267,-4.054100493370001,-1.807899663287866,2.7109835807173415,5.201313678079633
1.9074857000746082,-3.4794357878689954,-1.7117564803731211,2.7445494939932233,4.750698430229114
1.9099726436209896,-2.876039824551763,-1.5773024191450271,2.7637124684576957,4.289241728109645
1.9124595871673713,-2.263066221209626,-1.414114312337981,2.7924147893204534,3.862482150839629
1.9149465307137528,-1.6692454022640977,-1.2317689926485227,2.806714708189995,3.4901694109885604
1.9174334742601342,-1.0850005655640635,-1.0350548894147118,2.801824089554115,3.177858253632686
1.9199204178065157,-0.5294853288694371,-0.8287604319358293,2.7777432008151477,2.9467025395694795
1.9224073613528971,-0.04579532653129581,-0.6224624527924085,2.7536259222470516,2.8234752410353052
1.9248943048992788,0.385223050273526,-0.4209493812053444,2.724684117108823,2.7837921470584486
1.9273812484456603,0.7731466037383912,-0.24337485631645794,2.6861296482422503,2.8057582716130947
1.9298681919920417,1.0796681028642967,-0.08495050062562415,2.637962781388423,2.8516218956744037
1.9323551355384232,1.3095759465451215,0.04474685344679363,2.580183781863787,2.8938451563371275
1.9348420790848047,1.4868121469668827,0.15529398680291662,2.5271581245172294,2.936197331416752
1.9373290226311861,1.6161651030448898,0.2514792770660055,2.4788860738045644,2.96986660205403
1.9398159661775678,1.6784811971033902,0.29978387533861817,2.4305794904254894,2.9689873964400224
1.9423029097239493,1.6785488280789316,0.3289381759297174,2.3870270412807875,2.93660085602978
1.9447898532703307,1.6403100081998696,0.3389421532689769,2.343440586187511,2.8804882376524525
1.9472767968167122,1.5637647331036586,0.31543057186818135,2.2950319845159326,2.795000607534636
1.9497637403630936,1.4537014017587548,0.2584034062434877,2.251378305146903,2.6923455125075884
1.952250683909475,1.3149084131442228,0.20137945419701175,2.2172682131869923,2.585694519609689
1.9547376274558568,1.1617509728904694,0.13957028701257101,2.1927019699649453,2.4853746432111348
1.9572245710022382,0.9894406733573454,0.04424545941698543,2.182468239668765,2.3966889919085737
1.9597115145486197,0.8075543168762929,-0.05107623065395206,2.1674136694202977,2.313532962901828
1.9621984580950012,0.6304571091097684,-0.1320295985003881,2.1666921324358066,2.260412081472412
1.9646854016413826,0.45336064244984386,-0.21776828261889847,2.1611502748974933,2.218902748595988
1.967172345187764,0.29541852590069534,-0.2939270982179054,2.1459999524734714,2.1860880678802217
1.9696592887341458,0.16141915851632704,-0.36050607042032334,2.159548650236199,2.1953749438952364
1.9721462322805272,0.022632116119418733,-0.4270820309428429,2.1778546096121856,2.219450827219056
1.9746331758269087,-0.0970005889333182,-0.47928979485350975,2.186552878183284,2.240567185066258
1.9771201193732901,-0.18790215423530865,-0.5171293871337643,2.200008922964571,2.2677674668553087
1.9796070629196716,-0.2740146006113222,-0.5310240260765173,2.2277998071587426,2.3065477446598037
1.982094006466053,-0.34097272231301545,-0.5401273498483556,2.24598377023102,2.3350466906588623
1.9845809500124347,-0.3791997169014585,-0.5444393832859915,2.2401958577885157,2.336382705941773
1.9870678935588162,-0.412637605169195,-0.5295949412162644,2.2487435514598255,2.346825122414062
1.9895548371051976,-0.41734437469486874,-0.5003824516979614,2.257261895844861,2.3494233742537443
1.992041780651579,-0.4076852396088345,-0.47595555270114165,2.2561743383553488,2.3415942406393038
1.9945287241979606,-0.39802541403066793,-0.45631426886462556,2.274211552453777,2.3534411247146085
1.997015667744342,-0.373999692147283,-0.42230501149562416,2.297008581204879,2.3652622929792444
1.9995026112907237,-0.335608078095751,-0.37392780513191726,2.3006236605146153,2.3548511657541256
2.001989554837105,-0.35467662580703996,-0.6990433432055552,7.322457335337949,7.364294842849409
2.0044764983834864,-0.287553239787269,-0.7512172019097156,6.813657342488198,6.860972273009165
2.006963441929868,-0.18212195734426917,-0.7650811683233658,5.912180695594831,5.964260069684599
2.0094503854762498,-0.07190160581414606,-0.7262700568171772,4.718584114787875,4.77469099363261
2.011937329022631,0.03353100407934384,-0.6443606983110026,3.371731546226073,3.4329140183783333
2.0144242725690127,0.1293874649435427,-0.5337183269922927,1.9961217255703616,2.0702894270961165
2.016911216115394,0.21566777271688925,-0.4134965803157664,0.7114649846214816,0.8506905632860529
2.0193981596617756,0.29237192334859086,-0.28848388572185835,-0.3721051520031988,0.5542260712300173
2.0218851032081573,0.34034629951744355,-0.15868026727688722,-1.1540319668737045,1.213591698795222
2.0243720467545385,0.3595908971941745,-0.043239362274620774,-1.5864311796309591,1.627248949454294
2.02685899030092,0.3501057123603609,0.04347359536603834,-1.6501489303908734,1.6874405043709095
2.0293459338473014,0.31189074100831143,0.09667017842136882,-1.359550183065764,1.3982123079121014
2.031832877393683,0.24973438246146074,0.13071557300387182,-0.7720955320089988,0.8219399816029128
2.0343198209400644,0.18279024601487587,0.13124454535949504,0.04517762122541491,0.22951780363271704
2.036806764486446,0.1014815210525502,0.09346866843039159,1.006078261238276,1.01549414514783
2.0392937080328277,0.020173413570794052,0.02217632185527174,2.0244153720639266,2.024637339010336
2.041780651579209,-0.04198046710308234,-0.06826730803036529,2.9804791139260374,2.981556394488161
2.0442675951255906,-0.10413373819345106,-0.16828543815474495,3.812020486318996,3.8171539151887486
2.046754538671972,-0.15192119367178747,-0.2730896887095513,4.428060068240783,4.439073551442317
2.0492414822183536,-0.1757660308191913,-0.3683148731888095,4.780714067995062,4.798101347754955
2.0517284257647352,-0.17566825354663418,-0.4539610149899769,4.889136339789057,4.913307855964329
2.0542153693111165,-0.16120467239501057,-0.506086120851235,4.738961914004816,4.768633989992146
2.056702312857498,-0.13716369457419963,-0.5486322306558669,4.334979433719823,4.3717110945712685
2.0591892564038794,-0.09396851732244849,-0.5624457543460291,3.7585919945480644,3.801603489359516
2.061676199950261,-0.031619144507943564,-0.5523151184068262,3.0720490782311085,3.1214639673366027
2.0641631434966428,0.01636559676962457,-0.5038751359832059,2.3232349559556447,2.377304912289113
2.066650087043024,0.05956250930401452,-0.441067846723473,1.588764318234297,1.6499274519876208
2.0691370305894057,0.10275999257937479,-0.37825848357577474,0.935675048339232,1.014458916150172
2.071623974135787,0.15553484941078288,-0.29629345618636327,0.4405818355821136,0.5532569524235551
2.0741109176821686,0.1843682527411477,-0.20474959406332482,0.1322153354671327,0.3056058635245837
2.07659786122855,0.18926019876619055,-0.1275689366153725,0.005787379649541791,0.2283128340444374
2.0790848047749315,0.18936429697349616,-0.07432831322969813,0.08045181577688254,0.2187602106820068
2.081571748321313,0.18468054358000158,-0.04502774659201059,0.3179016510411543,0.37039959621313173
2.0840586918676944,0.1752089348132338,-0.010936839405014442,0.7085603119419641,0.7299832196385425
2.086545635414076,0.14179585363004754,-0.010362840794387207,1.204543997799683,1.2129054766185394
2.0890325789604574,0.09880650624005022,-0.028940563300701605,1.7292384873936415,1.7323007903256802
2.091519522506839,0.06060609886340196,-0.052304819402597236,2.268278802045635,2.269691084082096
2.0940064660532207,0.027194627769860036,-0.10439764807902918,2.7498391226097887,2.7519545085156016
2.096493409599602,0.0033604925600371205,-0.16127705504333045,3.121247242594838,3.125412921647246
2.0989803531459836,-0.020473117115901718,-0.21336625590711256,3.372926584763964,3.3797304705984703
2.101467296692365,-0.03472939831604327,-0.2798188861408848,3.4809353612882594,3.4923367148108078
2.1039542402387466,-0.0489851613692196,-0.3414813545893849,3.4500622036271054,3.46726668580063
2.106441183785128,-0.04408679667193649,-0.3839884733542278,3.270730532643456,3.2934888811829692
2.1089281273315095,-0.024822711211801574,-0.426493877715481,2.976459398445029,3.006962544713924
2.111415070877891,-0.005558118606622697,-0.4402671696861047,2.6007678504995972,2.6377754805096956
2.1139020144242724,0.01849538081748503,-0.43967358109766996,2.1963285509133605,2.2399808125481826
2.116388957970654,0.03776097678386203,-0.42950153707664773,1.791872144546578,1.8430147161975747
2.1188759015170353,0.0570270689871768,-0.40496265604418547,1.416129275612671,1.4739976135105843
2.121362845063417,0.08587046045279778,-0.36126855635647015,1.1026189909961124,1.1634678100813742
2.1238497886097987,0.10513753429455946,-0.32714967954672014,0.8848603369305943,0.9492410809788977
2.12633673215618,0.12440509355851137,-0.28824083719993787,0.7820071490353966,0.8426711035009401
2.1288236757025616,0.14367313466041898,-0.25411885743700857,0.7701176323915488,0.8235894189756243
2.131310619248943,0.14378804074508922,-0.22478376167234693,0.8539804113445575,0.8946984313907684
2.1337975627953245,0.12474980824887072,-0.20023557125426006,1.0335957062600496,1.060177759931258
2.1362845063417057,0.11050045021994492,-0.18526271078503642,1.2754449135998671,1.2935580192376386
2.1387714498880874,0.10582836643549492,-0.1798652014801081,1.5507978324825444,1.5647763581670204
2.141258393434469,0.09157994008137482,-0.18404306448813434,1.8548662779625555,1.8662228281033741
2.1437453369808503,0.06775516763490352,-0.1882195142501617,2.139766434543957,2.149096959815159
2.146232280527232,0.053507658864845764,-0.2067597817415896,2.3719796960221666,2.3815751836220573
2.1487192240736133,0.03447220030795517,-0.22529867794852176,2.5371410688023435,2.54735797050256
2.151206167619995,0.02022559511270572,-0.2582014337113048,2.6208855586162185,2.6336511094735546
2.1536931111663766,0.0011910331564582988,-0.2863144565602589,2.637578590442045,2.6530733512953653
2.156180054712758,-0.003477875751429438,-0.30963776723888525,2.5728551686590375,2.59142265202262
2.1586669982591395,-0.0033579417133813294,-0.32338298310214375,2.4410807168891404,2.4624099772175616
2.161153941805521,0.006339235139197763,-0.3323385280771398,2.261409061393741,2.285707773557318
2.1636408853519025,0.020825248044334943,-0.3317160193816977,2.0529940277514838,2.0797244256039806
2.166127828898284,0.030523286929782234,-0.32630388080540706,1.8254126342158576,1.8545989266762082
2.1686147724446654,0.035433348373933415,-0.31610213274849164,1.6026071083149889,1.633868300728937
2.171101715991047,0.049920638926115646,-0.29632239222160806,1.4085196768889263,1.4402175913750024
2.1735886595374283,0.06919675186438023,-0.27654148612690976,1.2718809694082305,1.3034356847810638
2.17607560308381,0.07410807051579404,-0.242394224695353,1.192691194730056,1.2193273769861168
2.178562546630191,0.0790198014595428,-0.20824583800995145,1.1757389643386578,1.1966505631700977
2.181049490176573,0.08393194132378445,-0.18846155608370818,1.2162360823827578,1.233609556134205
2.1835364337229546,0.07447927678562771,-0.1638877856172476,1.2902407390332913,1.3027384747547026
2.186023377269336,0.0793922244148596,-0.13452454652207146,1.4073299470051754,1.4159723015130268
2.1885103208157175,0.08909397422860932,-0.11473706860006638,1.5387734917510638,1.5456151494050987
2.1909972643620987,0.0796425062928966,-0.10452537162145914,1.6606295613424127,1.6658208253367204
2.1934842079084804,0.07497983388665508,-0.09910107196524764,1.7920519730306737,1.7963555527783084
2.195971151454862,0.07031755037672482,-0.09367578593936621,1.9138873168001833,1.9174682193379233
2.1984580950012433,0.060867249139706425,-0.09782633974143007,2.006982181929156,2.0102866197003246
2.200945038547625,0.051417330202539246,-0.12591796281796386,2.0569715603087273,2.0614633334416363
2.2034319820940063,0.046756193601886875,-0.14443185134077385,2.078220863042662,2.083758300981102
2.205918925640388,0.04209543274346428,-0.16294483129273996,2.061153483922701,2.06801274845915
2.208405869186769,0.027858237722335977,-0.19582213190514874,2.010558025989515,2.0202638353996556
2.210892812733151,0.02798662188539125,-0.2286985624153446,1.9312230915703381,1.9449187419709586
2.2133797562795325,0.0281153720266335,-0.251997335308761,1.8087836689963162,1.8264696801137126
2.2158666998259138,0.03303288823090622,-0.27050687295939246,1.681547182405791,1.7034864445248747
2.2183536433722955,0.03795076395199404,-0.2842271943483876,1.5638790386179435,1.5899506300260644
2.2208405869186767,0.038080592653223944,-0.2835815117435896,1.4557794337720393,1.4836314788832299
2.2233275304650584,0.04299917776837847,-0.2829350539415727,1.376402176568309,1.4058392958299522
2.22581447401144,0.05749491942042162,-0.27749943638468544,1.3209590583838065,1.3510160757293792
2.2283014175578213,0.06720260446053661,-0.26727467776246616,1.284661869872684,1.3138904304865342
2.230788361104203,0.06733382638997731,-0.2570492000115041,1.2866644175664774,1.313816371809452
2.233275304650584,0.07704219532098022,-0.23245781171373414,1.3078132807088014,1.3305441410509207
2.235762248196966,0.07717409481267778,-0.22223095126036574,1.3528970544181531,1.3731980470644278
2.238249191743347,0.07251792503513621,-0.20721502376580458,1.4171275264445384,1.434031848228093
2.240736135289729,0.0822272961287055,-0.19698685419252326,1.4957164838088834,1.510871585837431
2.2432230788361105,0.08236018836024461,-0.196334864108743,1.5647220995206084,1.5791408512920924
2.2457100223824917,0.0777050019277854,-0.18610545840705361,1.6337213690999182,1.6461223590083478
2.2481969659288734,0.06347333039800285,-0.1854522684683424,1.7075028840142128,1.718716819743358
2.2506839094752547,0.07797239722963623,-0.1895869089976263,1.75254800843466,1.7644963623258914
2.2531708530216363,0.07810656944532979,-0.20329780126609887,1.7640685257196083,1.777461221974955
2.255657796568018,0.06387584395973378,-0.212219753189141,1.7612182350931143,1.7751076076423458
2.2581447401143993,0.0448570243373112,-0.21635278256838575,1.729632111800182,1.7436880229352494
2.260631683660781,0.0402037207922612,-0.23006211709161262,1.678887146949414,1.695053677344219
2.263118627207162,0.05470433358699944,-0.23419416112949554,1.613771927590192,1.6315940988795314
2.265605570753544,0.05484003643051838,-0.238325738899563,1.534286636711638,1.5536544245776256
2.268092514299925,0.04539922960338261,-0.2472452712238944,1.459585069843202,1.4810738976500608
2.2705794578463068,0.05032392667644958,-0.24658756556808115,1.3896674084912153,1.4122724352304055
2.2730664013926885,0.05046051134678109,-0.23635263928330552,1.3293222367394932,1.3511130383471444
2.2755533449390697,0.06017419056261841,-0.24048252624686484,1.2881265412484222,1.3117632274570603
2.2780402884854514,0.06988815467960408,-0.2398236303776966,1.266080501293116,1.290488110602607
2.2805272320318326,0.07002559406232733,-0.21522235551908775,1.2440306821218972,1.2644510999637903
2.2830141755782143,0.060586505724906314,-0.20019754196201456,1.260284488080469,1.277523687208905
2.285501119124596,0.06551290329191872,-0.17559559339817188,1.2861116762829141,1.2996957323888694
2.287988062670977,0.08001638047491755,-0.1509933333652147,1.3119356163764824,1.323018015516866
2.290475006217359,0.07536651439274544,-0.15033279528568588,1.3569100971814532,1.3672911440739681
2.29296194976374,0.07071691537616975,-0.1400951726622841,1.406670083526258,1.4153968572140343
2.295448893310122,0.07564438712412003,-0.12985728880431902,1.4420621361685928,1.4498717851348502
2.2979358368565035,0.08057212006303494,-0.12919596694481994,1.4630864283962204,1.4709878862055485
2.3004227804028847,0.08550011126870716,-0.12853441695920287,1.4793199393856131,1.4873529669966903
2.3029097239492664,0.0808515511850163,-0.12787265528706637,1.4907628409200022,1.4984199134979033
2.3053966674956476,0.07141484022545863,-0.1367875049321139,1.4926269007089932,1.5005818756836014
2.3078836110420293,0.061978378812178714,-0.14091377221989898,1.4753354823878961,1.4833451372604265
2.3103705545884106,0.06690737401658498,-0.15940508664148334,1.4484655621186242,1.4587457156710337
2.3128574981347922,0.06704820967649283,-0.17789625436900947,1.4263825186281238,1.4389960490519966
2.315344441681174,0.05761247959924032,-0.19159888813842452,1.3947213099655897,1.4089985323674343
2.317831385227555,0.0673306008428931,-0.20051300392912363,1.3391168934237,1.3557186023682375
2.320318328773937,0.06268374730998583,-0.2094270209638598,1.283511452100571,1.3019948452125052
2.322805272320318,0.043671916153737,-0.21355255174776255,1.2566355716569966,1.2753998935911146
2.3252922158666998,0.04381392777802584,-0.21767801534951436,1.220182190511217,1.2402209305904304
2.3277791594130814,0.05832137603267806,-0.21701502412005347,1.188516682846199,1.2095738129605422
2.3302661029594627,0.058463838174377614,-0.2115635936534468,1.1760044220857093,1.1963124906556746
2.3327530465058444,0.0442413113900787,-0.2109005461071476,1.1778571676125615,1.197407132632044
2.3352399900522256,0.044384212796979794,-0.21023749360038568,1.1844982747290658,1.2038296909850301
2.3377269335986073,0.054104136278433246,-0.20957445149536147,1.210293114578473,1.229495071758353
2.3402138771449885,0.04945906244486575,-0.21369983839719886,1.2312998309804986,1.2506850497073667
2.34270082069137,0.04960260179779841,-0.20824845955233773,1.242730180274604,1.2610337584602493
2.345187764237752,0.06411155820640047,-0.1932203300906732,1.2637379346399662,1.2800304509284492
2.347674707784133,0.06425550898557986,-0.19255748166613929,1.2751696389310005,1.2912260693743833
2.350161651330515,0.05482285470064707,-0.1966831226129182,1.267448643880142,1.283789648264819
2.352648594876896,0.05496720588603954,-0.20080886450790647,1.2597287193787405,1.2768171522248104
2.3551355384232777,0.055111753162483734,-0.20014631885036493,1.2567984245939225,1.273828141606143
2.3576224819696594,0.05525649379946995,-0.19469550038219463,1.2442927046479682,1.2606442610095203
2.3601094255160406,0.05540142507460122,-0.1988216337285249,1.2270001171805411,1.2442381795700685
2.3625963690624223,0.05554654427356842,-0.21731313679613518,1.2240744290280734,1.2444551521872194
2.3650833126088036,0.05569184869012411,-0.23580481413278687,1.2259389863407222,1.249652707998842
2.3675702561551852,0.04626052898543298,-0.23514306688815667,1.2086519245430498,1.2321817127149706
2.3700571997015665,0.046406195750546386,-0.22969311937627745,1.1817902015369643,1.2047989643677577
2.372544143247948,0.05134044298294005,-0.22424338919272868,1.1597191777796052,1.1823153174987329
2.37503108679433,0.04669805804742644,-0.21879389053492337,1.1280737930410094,1.1500443285833546
2.377518030340711,0.05642105487925464,-0.21334463752240307,1.0916425996070487,1.1137247573211653
2.3800049738870928,0.05177901089814829,-0.20310724087651,1.0695793589589737,1.0899236773174297
2.382491917433474,0.04713713341453041,-0.19287011788130837,1.0570958152107899,1.075580008299826
2.3849788609798557,0.05686062974668504,-0.17784487910232638,1.0446153083903695,1.0611706152931382
2.3874658045262374,0.07616109393949,-0.15803153834746508,1.036926387720646,1.0516609781169566
2.3899527480726186,0.07151970012375486,-0.14300691598734705,1.0436060049788676,1.0557838505839896
2.3924396916190003,0.06687846228182925,-0.13277102567400512,1.0502890945746852,1.0607582458591691
2.3949266351653815,0.07181418444289134,-0.13211228430185695,1.061764203432915,1.0723591545942923
2.397413578711763,0.07196165404229582,-0.12187709208581543,1.0780314743919277,1.08728301973655
2.3999005222581444,0.0768976751246756,-0.13079588236596162,1.0799374362427496,1.0905437549598977
2.402387465804526,0.07704543846110512,-0.1445034585216285,1.1057894568540174,1.1178495301255347
2.404874409350908,0.07240494147095178,-0.1390578172135788,1.0885500302814108,1.0997821241060783
2.407361352897289,0.07734139154216435,-0.14797779486839246,1.0808917328223657,1.0937120538347955
2.4098482964436707,0.08227797946874948,-0.14732138799097738,1.0732378968442617,1.0864220360834653
2.412335239990052,0.08242629937262258,-0.146665416250511,1.070377063909497,1.0835182961518075
2.4148221835364336,0.07299794538327176,-0.1412214892773287,1.0579441615333955,1.0698215075359465
2.4173091270828153,0.082723334879922,-0.14535482990512394,1.026362519785863,1.0398996099295303
2.4197960706291965,0.08287204540557491,-0.149488644288148,1.0235163078149565,1.0376898684308202
2.4222830141755782,0.06386726779198537,-0.14883454182310896,1.0158868375579768,1.0287161005148384
2.4247699577219595,0.06401622608151314,-0.14339253514918315,1.0034742434291157,1.0156869860167872
2.427256901268341,0.068953707800538,-0.14273944346835687,1.0102206756790082,1.0225825033269689
2.429743844814723,0.07389130712349845,-0.14687527926419275,0.9882422339886734,1.001825826162551
2.432230788361104,0.07404061823224484,-0.13664644166124074,0.9758462770400271,0.9881448373491476
2.4347177319074857,0.0789784452769543,-0.1359949595891048,0.9586677262270502,0.9714813601718509
2.437204675453867,0.07912797913392078,-0.15449765193874088,0.9271299054997755,0.9432394304779805
2.4396916190002487,0.07448921732740743,-0.14427049767966338,0.9099633646067282,0.9243354071575884
2.44217856254663,0.06985056070931206,-0.13404392882873495,0.8928030226499057,0.9055076548213474
2.4446655060930116,0.0604236034982093,-0.14297157068457045,0.8995910245303484,0.9128832856938963
2.4471524496393933,0.06536195652150834,-0.16626503186664898,0.9111738845031585,0.9285225328351017
2.4496393931857745,0.06072360073107186,-0.17519390431532722,0.9227633260215296,0.9412079555790582
2.452126336732156,0.060873743648491296,-0.17454660313565418,0.9199942651355641,0.9383824258873908
2.4546132802785374,0.06581238284163637,-0.18826515663646015,0.907655230414484,0.929307837176366
2.457100223824919,0.07075111256525302,-0.18761915652571703,0.9096883629470032,0.9315254078691795
2.459587167371301,0.06611312376095102,-0.1821854209965248,0.9069401731776505,0.9274173550676192
2.462074110917682,0.061475220658740226,-0.1863291714849642,0.8850455741102952,0.9065337451819077
2.4645610544640637,0.07120261081606682,-0.18568520942796685,0.8679467045507288,0.8904382576730417
2.467047998010445,0.06656487191468297,-0.1802535461461705,0.8700088959039949,0.8909757022631852
2.4695349415568266,0.06671561484654553,-0.17482259620335094,0.8672902522529622,0.887246468046303
2.472021885103208,0.07644324054974161,-0.17418077408616162,0.845425683561901,0.8665604984726154
2.4745088286495895,0.07180573004753865,-0.16875128424325414,0.8331457289191491,0.8530913576034092
2.4769957721959712,0.0671682909327288,-0.15853413768690805,0.8160852967719876,0.8340502764979928
2.4794827157423525,0.07210772748479632,-0.14831774867275715,0.794244504770889,0.8111855597168454
2.481969659288734,0.07704723070896713,-0.14767893469987348,0.7819886797700519,0.7995321374419662
2.4844566028351154,0.06762158829712306,-0.14225249658893935,0.7601643246248067,0.7763106674662537
2.486943546381497,0.0677728145105958,-0.13682684836512848,0.781443991239037,0.7962219868000491
2.4894304899278787,0.07750090701608492,-0.14576721061754938,0.7883669543939007,0.8054668987983625
2.49191743347426,0.07765225020595135,-0.1499199806164957,0.7952985379202602,0.8130225316485402
2.4944043770206417,0.07780364840132414,-0.13970836219633886,0.7974504516133667,0.8133259229549386
2.496891320567023,0.07795509928958144,-0.14386278567746968,0.8043996144756402,0.8208728515285961
2.4993782641134046,0.0685297939243319,-0.13365284146012524,0.796992524834506,0.8110218858500413
2.501865207659786,0.0638929399675845,-0.1282321530713384,0.7752292935461593,0.7883566771652852
2.5043521512061675,0.06883293844754335,-0.1323891340009542,0.7630520473165312,0.7775045229005396
2.506839094752549,0.06419617379765097,-0.12697018106107993,0.7556724921785349,0.7689496024085452
2.5093260382989304,0.06434785370032237,-0.13112891755023437,0.7578791400552447,0.7718265544956402
2.511812981845312,0.08365318584473913,-0.13050014344873828,0.7505184855184179,0.7663590151143101
2.5142999253916933,0.07901653808308196,-0.1298722719422396,0.7383790389923384,0.7538660527794864
2.516786868938075,0.06959152143832636,-0.119668506179611,0.7310377134732828,0.7440293473698508
2.5192738124844567,0.0649549402995383,-0.11425406583553643,0.7141294046084106,0.7261225394901544
2.521760756030838,0.06510679242185768,-0.11841736386840607,0.6828658139387151,0.6961086742249297
2.5242476995772196,0.07004707556710621,-0.1177931998797983,0.6707658688216434,0.6846230214574149
2.526734643123601,0.06062217422252525,-0.11716998667705836,0.6730412693069194,0.6858486742537581
2.5292215866699825,0.060774102764813875,-0.12133613699215129,0.6705385047388877,0.6841329081724614
2.5317085302163638,0.06571445565543266,-0.12550325684112584,0.6728344836401376,0.6875868669012739
2.5341954737627455,0.0658664240421517,-0.12967135548515474,0.6751409038295417,0.690628906340611
2.536682417309127,0.07080681236058528,-0.12426363546969377,0.672669462384011,0.6877057956719621
2.5391693608555084,0.06138200513106895,-0.12364531586676852,0.670208662280011,0.6842774040437586
2.54165630440189,0.05674561344300744,-0.13739321235320512,0.6486049891522239,0.6654212135173574
2.5441432479482713,0.0568976351111139,-0.13677691396854508,0.6318005577788242,0.6489354435424448
2.546630191494653,0.06183806795664504,-0.13616163956046456,0.6389490788792429,0.6562163241927448
2.5491171350410347,0.05720169984644874,-0.14033580126144507,0.6269550192713407,0.6450106726020447
2.551604078587416,0.05735373857576309,-0.13972260116856683,0.6197604915207648,0.6378988348131601
2.5540910221337976,0.06708258530570221,-0.14868725790612158,0.6221539941762657,0.643182374124493
2.556577965680179,0.07202302792261761,-0.16244137674291492,0.619770411770654,0.6447401652880342
2.5590649092265605,0.0817518709208972,-0.16661975623300362,0.617398241384274,0.6446907010579622
2.561551852772942,0.08190390219982613,-0.1755876147783102,0.6150375760444184,0.644833683677961
2.5640387963193234,0.07247911962608122,-0.16540294414437007,0.5935348947653907,0.6203990876988463
2.566525739865705,0.07741953767432663,-0.1647961725463758,0.5720439023932435,0.6003214052196807
2.5690126834120863,0.08235994426315552,-0.16897890488368317,0.5505646897630747,0.5817718696608059
2.571499626958468,0.08251193395819467,-0.16358593934148757,0.5243089436609747,0.555399358298734
2.5739865705048492,0.08745231129240594,-0.1534056873128269,0.5124303667469761,0.5420019302684678
2.576473514051231,0.08760426752388706,-0.15759177007838865,0.5053522410326607,0.5365543413313967
2.5789604575976126,0.09254460719836022,-0.16656738892383283,0.5126514610853565,0.5469192992822186
2.581447401143994,0.09269652158666064,-0.15160213178053805,0.5151745008261042,0.5449592808422438
2.5839343446903755,0.09763681524722512,-0.15100323299135887,0.5081330434135669,0.5390121648666172
2.5864212882367568,0.10257708278389377,-0.1599822969435687,0.5058923845654579,0.5404104902841165
2.5889082317831384,0.10751732212714893,-0.14980891135024033,0.49408739935653045,0.5273756182079684
2.59139517532952,0.11245753121379254,-0.13963669705506687,0.4870833820634619,0.51903306693652
2.5938821188759014,0.11260930466662378,-0.14861927482937176,0.4800920129628796,0.5150309556318519
2.596369062422283,0.103184237114741,-0.1480262321691197,0.47311337493409233,0.5063546363376801
2.5988560059686643,0.10333593979509481,-0.1330691730997442,0.46614755013995435,0.49566042789824005
2.601342949515046,0.10827600734935383,-0.12769012149659886,0.4783482333092959,0.5067992632250545
2.603829893061427,0.10363922778483281,-0.13188908456166226,0.4761966819334411,0.5048753311925318
2.606316836607809,0.10379080903698334,-0.1121472461830555,0.4692697826736527,0.4935216973929025
2.6088037801541906,0.10873074908657243,-0.0876182267008101,0.47193282479987,0.4921584303562284
2.611290723700572,0.13761265920186183,-0.07266724306326289,0.46982067694974994,0.494923469514777
2.6137776672469535,0.1425525041729731,-0.06729430218658106,0.44856820705178,0.4754610141014855
2.6162646107933347,0.1331270886400135,-0.06671100759553328,0.45127112217029186,0.4752039624929613
2.6187515543397164,0.12370162056961287,-0.08049417270488979,0.45877588549893744,0.48193019814733257
2.621238497886098,0.11427609797368321,-0.07033657765550805,0.4136217329635059,0.43484387854046413
2.6237254414324793,0.10963892219065752,-0.060180245681683786,0.3924231927544941,0.41187172449813514
2.626212384978861,0.08584807464328359,-0.0787556032675285,0.3808151292736959,0.3982367381969334
2.6286993285252422,0.07163397328394772,-0.07339022038153331,0.3644324062214892,0.3785875450678216
2.631186272071624,0.08615022943059292,-0.06802612004701603,0.36242870984032294,0.37868718588845307
2.633673215618005,0.07672440460265506,-0.06266330861572245,0.3700157090723142,0.3830469285460838
2.636160159164387,0.0720869167710565,-0.0525133890492393,0.3728282655215427,0.3833472253333731
2.6386471027107685,0.0674493606707004,-0.042364770880088276,0.3756548533772879,0.38400619647672385
2.6411340462571498,0.06760013768327733,-0.04179426689157717,0.368918736173212,0.3773825290861283
2.6436209898035314,0.07732764919663582,-0.0364366731960879,0.3669851933512476,0.3768094062293682
2.6461079333499127,0.0726898766829015,-0.03586880243836532,0.3602774870598644,0.36928343700023786
2.6485948768962944,0.0680520281828485,-0.04009066055349564,0.34400728207735654,0.3529579999456943
2.651081820442676,0.07777931174339425,-0.05389065672801152,0.3373282590945106,0.3503486529181834
2.6535687639890573,0.07792970885509531,-0.05811518347818678,0.34024048483322034,0.35385590512592563
2.656055707535439,0.0828684275771443,-0.05755264985332609,0.3575324286494723,0.37149551993293
2.65854265108182,0.07823025605299083,-0.07135667479531893,0.36047373597232735,0.3757034233618434
2.661029594628202,0.0688035957134634,-0.0803736506153716,0.3634296814303557,0.37851683164809646
2.663516538174583,0.06416525131582862,-0.0846035828379299,0.35203511904843054,0.367700517743558
2.666003481720965,0.06431522098285058,-0.10798849352116902,0.3310785154523277,0.3541340788136065
2.6684904252673465,0.06925350284341403,-0.1170095648118541,0.30534833658898464,0.33425273756725177
2.6709773688137277,0.06940328839189636,-0.1212436086720814,0.29399825768892285,0.325502388021286
2.6734643123601094,0.06955297908972846,-0.13505584031696083,0.28266313006465005,0.32089895917862044
2.6759512559064906,0.06970257308414285,-0.14886945829291065,0.2617662076746843,0.30909887056953295
2.6784381994528723,0.06985206852848536,-0.14353085443879054,0.2504611637266514,0.29700372420046517
2.680925142999254,0.07000146358221337,-0.14298205040951295,0.23917125083507074,0.28730986559631533
2.6834120865456352,0.07015075641089497,-0.16158826115277902,0.2183197209448018,0.28052699570774925
2.685899030092017,-0.547404083134104,-2.536090311901485,21.16590157826227,21.324324020260004
2.688385973638398,0.008199784921879338,-2.224299511220746,16.57694383316332,16.7255087336661
2.69087291718478,0.5111311087627429,-1.7975884469065404,10.70470935961664,10.866617767670904
2.6933598607311615,0.9661782898988692,-1.2607455270014154,4.138171821942006,4.432543942212057
2.6958468042775428,1.3158804866824394,-0.6808084026467545,-2.495387889635314,2.902068616708541
2.6983337478239244,1.5602376973158694,-0.10566111163662217,-8.587842498838555,8.729063221646149
2.7008206913703057,1.6848847100464999,0.4407543249013228,-13.622044393130675,13.732923734933161
2.7033076349166874,1.6946099264090948,0.9344958859044996,-17.190979236999254,17.299559314918866
2.7057945784630686,1.594201747944541,1.322891130453677,-19.026496391878716,19.138941587934173
2.7082815220094503,1.3932369795201422,1.5963632475765803,-19.056769755986082,19.174200333572752
2.710768465555832,1.125234442610836,1.7501238296860775,-17.372778941082885,17.496929276470365
2.713255409102213,0.8141361520572754,1.7506540493373564,-14.166060029309143,14.297022907883239
2.715742352648595,0.46951891274496665,1.636261128954375,-9.786166413020325,9.933118923826461
2.718229296194976,0.1153247395267013,1.4069450644624748,-4.702361568228894,4.9096841576947
2.720716239741358,-0.20056233613709273,1.0674942551709923,0.5969374151268134,1.2393964309607
2.7232031832877395,-0.4685655093423935,0.6897347469370474,5.608948236504807,5.670589738066755
2.7256901268341207,-0.6838963784992016,0.27366653587665013,9.90750304784325,9.934848980855538
2.7281770703805024,-0.8369781386912958,-0.16155676855030876,13.147836856890187,13.175441055597023
2.7306640139268836,-0.9086571783555176,-0.5728395402191353,15.080952737158185,15.119157994644226
2.7331509574732653,-0.9132987091648387,-0.9170861529428398,15.548833424611296,15.602608192555214
2.7356379010196465,-0.8509027328250623,-1.194296610354344,14.613728207311064,14.687117891928017
2.7381248445660282,-0.7310460576764798,-1.3853173027433807,12.438442842413352,12.536681886037806
2.74061178811241,-0.5680938953736364,-1.4805714269781236,9.233667119647764,9.368854300329847
2.743098731658791,-0.3716230542444201,-1.4800589865056424,5.329800911118779,5.543956714310153
2.745585675205173,-0.15599874593097474,-1.3789915813910052,1.1290701381101087,1.789064774414633
2.748072618751554,0.054837011290141624,-1.1917344249191366,-2.966299278721051,3.197212762436308
2.7505595622979357,0.26088421575008336,-0.9422295369544347,-6.616330662505066,6.688175275061325
2.7530465058443174,0.433412445864492,-0.6448421306594538,-9.524142966880394,9.555781861013829
2.7555334493906987,0.5628448933361464,-0.32351422577710043,-11.440739179303858,11.459143458264803
2.7580203929370803,0.6587583631555669,0.0026005613311075315,-12.241620774183762,12.259333119010758
2.7605073364834616,0.7019992403974833,0.30477180772308765,-11.88848048630888,11.913087637621429
2.7629942800298433,0.7021443300647435,0.5686343004778243,-10.467509537411734,10.506431722698606
2.7654812235762245,0.659193630525799,0.779822826734391,-8.160667216243247,8.224302359342651
2.767968167122606,0.5827239467959625,0.9096069637303228,-5.188220038729689,5.299488578807624
2.770455110668988,0.4679468739358526,0.9675635153253066,-1.89493300773389,2.1785142957562633
2.772942054215369,0.34359283025452775,0.9632692854382197,1.4127360998359801,1.744066236428752
2.775428997761751,0.21923862078605688,0.8919358680860201,4.457059926387915,4.550714048700003
2.777915941308132,0.08530743728952783,0.7487748573444644,6.965099517046406,7.005751382129415
2.7804028848545137,-0.039047108547818676,0.5625166705900702,8.750107176099652,8.76825668389152
2.7828898284008954,-0.13945980835278138,0.3571033219373474,9.649277223837398,9.656889911516629
2.7853767719472766,-0.22071906702705502,0.11816959899660029,9.662609692841889,9.665852628551624
2.7878637154936583,-0.2828248861458025,-0.13034248400172554,8.814046631700764,8.81954630948524
2.7903506590400395,-0.30183525067625006,-0.35970250944903004,7.199356138212053,7.2146530906666815
2.792837602586421,-0.2921153721418137,-0.5507568663199414,4.990920762706454,5.029707205797816
2.7953245461328025,-0.27281886537988564,-0.6939287501724976,2.428160701408638,2.5400652817375424
2.797811489679184,-0.2247921186590126,-0.7892181631483788,-0.23992704340455617,0.8549630353479386
2.800298433225566,-0.15282353684294625,-0.8222598973715729,-2.7643454700427927,2.8880914545742495
2.802785376771947,-0.0712783314296973,-0.8074191648314191,-4.939193207283104,5.005260817094352
2.8052723203183287,0.005478286089102613,-0.7542727741406492,-6.568145691125721,6.611315697293669
2.80775926386471,0.0870231208297737,-0.6484555172543762,-7.512339197995237,7.540776339817559
2.8102462074110917,0.1637793646337733,-0.5139094126344075,-7.762196894543266,7.78091429038588
2.8127331509574733,0.24532382263028552,-0.35542286540558177,-7.322507157958981,7.3352314394000935
2.8152200945038546,0.29813767007198655,-0.1777842806376495,-6.2411539958895395,6.250799670535424
2.8177070380502363,0.33179771210091263,-0.014512483266826415,-4.647424272999074,4.6592759852993195
2.8201939815966175,0.351092350545184,0.14396933170824422,-2.7184888877258517,2.7448451394883464
2.822680925142999,0.3512331805987659,0.2832959527419381,-0.6123651257968401,0.7606657552997029
2.825167868689381,0.33222020078240294,0.38431376502289183,1.4458920800125927,1.532537516290258
2.827654812235762,0.2988418129436613,0.45181117039533003,3.2743234262424767,3.3188301647565104
2.8301417557821438,0.2558864189365776,0.48099976411688194,4.734065238755173,4.765313454251122
2.832628699328525,0.21293082394200497,0.4766679481394691,5.695830649492876,5.7197061687005
2.8351156428749067,0.16039821986611202,0.4340273178278262,6.073428419720861,6.091029475468828
2.837602586421288,0.10786541190282428,0.35307787192023676,5.881223779875567,5.892800020338256
2.8400895299676696,0.06969760857293894,0.23381960920795075,5.1431587664794325,5.148942752012804
2.8425764735140513,0.026741195161623987,0.1097713517771175,3.974155078588243,3.9757607359923424
2.8450634170604325,-0.011427023117471236,-0.014278498155412933,2.489134414708591,2.489201596266076
2.847550360606814,-0.03523024104414585,-0.13832994164099288,0.8221720860785364,0.8344718579827372
2.8500373041531954,-0.04466846003218927,-0.25280617303825714,-0.849560966726095,0.8875021513396313
2.852524247699577,-0.04931848812940143,-0.36249559661504405,-2.3776242235956415,2.405604356386445
2.855011191245959,-0.03960352009569379,-0.43387939002518916,-3.6423075848844197,3.6682726598222186
2.85749813479234,-0.02510036396558768,-0.4813227640743496,-4.5382661614468915,4.563788052004747
2.8599850783387217,-0.0010206178059868343,-0.4952489129156499,-5.012827501199659,5.037232581903327
2.862472021885103,0.02784731368225002,-0.4804462406123444,-5.037261169195879,5.060198034631301
2.8649589654314846,0.06150342912527429,-0.4464915544974817,-4.611567150944267,4.633539572260063
2.867445908977866,0.0855825171950102,-0.38380804857258033,-3.7884178690083923,3.8087718408458935
2.8699328525242476,0.10966138317166563,-0.29718412675008077,-2.673158183004751,2.6918615669303265
2.8724197960706292,0.14331683234220866,-0.2057734028534992,-1.3950749696775322,1.4174330949908291
2.8749067396170105,0.15781844343782836,-0.10478747405541888,-0.0738782996574816,0.20333489363199508
2.877393683163392,0.16753142507933116,-0.018168357400848212,1.1802985625445999,1.1922674047144814
2.8798806267097734,0.17245577593335937,0.07323755999696546,2.2429571419350793,2.250769085313877
2.882367570256155,0.17259149467336243,0.1502766645110749,3.042271399525383,3.0508664618924723
2.8848545138025368,0.17272698329991998,0.20816055252400778,3.5255689090917457,3.5359300840290033
2.887341457348918,0.15849703053920827,0.24688922378685474,3.630600437255385,3.642435329900974
2.8898284008952997,0.1299016350851837,0.2568858714581461,3.3813080098911605,3.3935392503265285
2.892315344441681,0.11567121556053683,0.2525157053457292,2.825575668965243,2.839193877248238
2.8948022879880626,0.09186375407143466,0.23856712866434338,2.016075859256585,2.032219253542398
2.897289231534444,0.0680560559731137,0.18630972143381763,1.0581534615617265,1.0765833396771596
2.8997761750808255,0.06340173326835752,0.13405071020536052,0.023634532931408714,0.15015979433549895
2.902263118627207,0.04917036476377057,0.08657849833478792,-0.9965012568029366,1.0014630876646136
2.9047500621735884,0.04451556247602029,0.015162665982183299,-1.9064858349897662,1.9070657515562672
2.90723700571997,0.04464892182719171,-0.06104317344296062,-2.644069952715916,2.6451513586370563
2.9097239492663514,0.03999363492604324,-0.12288540648515411,-3.1326391516021035,3.1353035527859126
2.912210892812733,0.04970331381020909,-0.17515243624477472,-3.3338862003244216,3.3388539938188084
2.9146978363591147,0.06420115060247589,-0.2178442624563406,-3.2525994979315236,3.2605185790558266
2.917184779905496,0.06433353079204074,-0.24617248148885462,-2.9079326539217085,2.9190429961839723
2.9196717234518776,0.07883087307828363,-0.2697138996273063,-2.333404488239667,2.350263049094606
2.922158666998259,0.09811636960515868,-0.27889170983069933,-1.5768990312749818,1.6043746328812243
2.9246456105446406,0.11261321252370937,-0.24976389505265173,-0.7485495570628657,0.7971136545598718
2.927132554091022,0.12710980395303684,-0.22542608468693492,0.07981788644531207,0.27082229766926014
2.9296194976374035,0.1368177393787291,-0.19151306823965886,0.8363772508202398,0.8688631968295679
2.932106441183785,0.15131382425446688,-0.15760165177479246,1.4397256805177783,1.456208841202056
2.9345933847301664,0.16102125075984097,-0.10932662471131982,1.8659211593647989,1.876044223101446
2.937080328276548,0.16115161440193582,-0.061053196346935845,2.091021670717824,2.0981108080890505
2.9395672718229293,0.1660701239762843,-0.017569769295799453,2.0767199875043385,2.0834235981601594
2.942054215369311,0.16141156836376114,0.01154685055026361,1.8421697220297037,1.8492637207608533
2.9445411589156927,0.16154115637435063,0.03108506730276428,1.4400433093776588,1.4494090380204407
2.947028102462074,0.1616704835440399,0.05541009175593592,0.8847059576088512,0.9010617375886956
2.9495150460084556,0.15701114541608768,0.07015671482405317,0.24319531084717383,0.2978563808915781
2.952001989554837,0.13798633422072615,0.06574813078329278,-0.422239390560323,0.4490536138078881
2.9544889331012185,0.1285380654376871,0.05654955055273314,-1.0637141166816537,1.0729434318555708
2.9569758766476,0.12387793463214969,0.04256097513161761,-1.6285564347173338,1.6338155466123203
2.9594628201939814,0.11442913405632293,0.01899400223969705,-2.0353634923960193,2.0386660700125665
2.961949763740363,0.10019166261041368,-0.014151367042374297,-2.2697700843784077,2.2720243982811827
2.9644367072867444,0.10031913248324398,-0.04250992163273137,-2.3269878124116357,2.3295371430590457
2.966923650833126,0.09565792930854522,-0.06608166037037799,-2.2070166820062838,2.2100768900495136
2.9694105943795073,0.09099645532902678,-0.10402019533578155,-1.9194335057546708,1.9244026447014169
2.971897537925889,0.09591151611514359,-0.13238350868709858,-1.4977571132892127,1.5066521770814416
2.9743844814722706,0.08167269068230876,-0.15117159914474954,-1.0042367546008801,1.0188300840093882
2.976871425018652,0.0817988012174673,-0.16038446539017093,-0.4676028568728192,0.5010655170481481
2.9793583685650336,0.08671304003224245,-0.15044529942543772,0.03553011907734316,0.17724369887951752
2.981845312111415,0.09162700276607871,-0.1357193098157019,0.46206653524415486,0.4902251744711641
2.9843322556577965,0.09654068838626062,-0.11620649512696168,0.8120063830777422,0.8259409302019017
2.986819199204178,0.08708888590667885,-0.09669525720756367,1.042254023720405,1.050346560320106
2.9893061427505594,0.07763680427067021,-0.058031981266625454,1.1384442378134985,1.14256311284666
2.991793086296941,0.09212645906976802,-0.014581875717981418,1.0910002088983415,1.0949800780728447
2.9942800298433223,0.10182742937967504,0.004924641100742644,0.9094987333792766,0.9151945276729708
2.996766973389704,0.10673971420558526,0.034006394052895406,0.613093413885414,0.6232442021991399
2.9992539169360852,0.09728650591965426,0.07266338479627255,0.22572625595250173,0.25631421019998174
3.001740860482467,-0.1851059757543564,-0.00839127462332323,-0.4537156913491902,0.49009444429237314
3.0042278040288486,-0.1466757200696892,-0.012833046342803911,-0.46276337252313304,0.4856216561124333
3.00671474757523,-0.1082457504513823,0.001877231560278414,-0.4574280547445948,0.4700649867375125
3.0092016911216115,-0.06023926121525203,-0.0025676656747926074,-0.4616517673120768,0.46557246026922683
3.0116886346679927,-0.012233059950638281,-0.016590929570271307,-0.46106931336363033,0.4615298673167005
3.0141755782143744,0.02619604576086354,-0.030615751613336073,-0.4652575130385994,0.4669990476427305
3.016662521760756,0.06462486162667125,-0.03506532325635181,-0.46463957359249797,0.47042096358852586
3.0191494653071373,0.09347658008073301,-0.03472804587806477,-0.46400391263688334,0.47459829238676693
3.021636408853519,0.12711641016635744,-0.03918072414324225,-0.4777157548167352,0.4958891542251086
3.0241233523999003,0.15117914101279367,-0.048423356041996435,-0.4578910820034441,0.48462789546828694
3.026610295946282,0.1704531750383741,-0.05287913289004287,-0.45241394286282954,0.48634233135987354
3.029097239492663,0.18972691466928193,-0.062124859250839215,-0.4660727565637526,0.507030191110743
3.031584183039045,0.20900035901925584,-0.0809489363342819,-0.47971392605705176,0.529489689433987
3.0340711265854265,0.21390829724898197,-0.08540934539540634,-0.47897225799509613,0.5314752485692552
3.036558070131808,0.21402753512861128,-0.08029448757839441,-0.46863617269039537,0.5214161992905552
3.0390450136781895,0.21893487843621168,-0.08954637727621328,-0.47264770411329415,0.5285327680312175
3.0415319572245707,0.20468830971561058,-0.0940113989668041,-0.48143006336620964,0.5315170300025409
3.0440189007709524,0.2095950546826355,-0.09847795369773049,-0.4949832685641198,0.5464763768639307
3.046505844317334,0.19534788593608798,-0.10294603916455047,-0.5180957415119263,0.5631890276738004
3.0489927878637153,0.16194680264528327,-0.09305044307046861,-0.5268254844599376,0.5589545982627648
3.051479731410097,0.1476990305499799,-0.09273317965000327,-0.5307493232656171,0.5586674237686623
3.0539666749564782,0.14302776219489088,-0.08284063322397017,-0.5298672775084405,0.555048505128726
3.05645361850286,0.12877938349211004,-0.07773801132471192,-0.528967770448519,0.5499402060138957
3.0589405620492416,0.11453070028366141,-0.08700211813387071,-0.5376276290242767,0.5565340217430658
3.061427505595623,0.10028171177902179,-0.09147933788107654,-0.5414816639282503,0.5582358671269677
3.0639144491420045,0.09560922383636117,-0.09595807136765266,-0.5453182994875654,0.5618906681011894
3.0664013926883857,0.08135962240008443,-0.09086150940436388,-0.5491375570600514,0.5625186740208763
3.0688883362347674,0.07189811666489576,-0.08576645605386846,-0.5385742483912903,0.5500794898869094
3.0713752797811487,0.06722470587269203,-0.08546131202940677,-0.5423588154560459,0.5531508669760383
3.0738622233275303,0.05776258263289058,-0.08036926805443567,-0.5413376673699908,0.550311007807049
3.076349166873912,0.05787695616463129,-0.07527872478475883,-0.5546644401530099,0.5627337466603136
3.0788361104202933,0.06277942241397916,-0.0749780828478479,-0.56318554360187,0.5716125657368857
3.081323053966675,0.06289317401487604,-0.07467893620247201,-0.5669010011316526,0.5752471120606069
3.083809997513056,0.06300661357040549,-0.06480447545926671,-0.5705992398124895,0.5777135500122461
3.086296941059438,0.06311974037155688,-0.054931504482552906,-0.5790686870469255,0.5850829993492714
3.0887838846058195,0.07280936035817887,-0.04506002046871593,-0.5731557539660255,0.5795162868330548
3.091270828152201,0.08249866619710966,-0.04476682722770864,-0.5720140785911063,0.5796638723008102
3.0937577716985825,0.08739925388377046,-0.03489830862080723,-0.5756436859876679,0.5832856716408364
3.0962447152449637,0.09229952606247416,-0.034608075045238884,-0.5792561982239963,0.5875837510947797
