Time (s),Acceleration x (m/s^2),Acceleration y (m/s^2),Acceleration z (m/s^2),Absolute acceleration (m/s^2)
0.0,0.40688379755278303,0.02933865795847057,1.9339768075411117,1.976532689754634
0.002486943546381497,0.1551225768116451,0.544851421424628,1.89852895359049,1.9812466461514888
0.004973887092762994,0.1284161259025649,1.1513438227704569,3.155950767138617,3.361860875203841
0.007460830639144491,0.3076108999398892,1.796143484289161,5.533860181047344,5.8261792270146975
0.009947774185525988,0.6783417573607813,2.4026360116730583,8.74974185177884,9.098944434226297
0.012434717731907486,1.168782716759667,2.9420910438169927,12.482773209190317,12.877949360872009
0.014921661278288981,1.7358382166523738,3.380989816293609,16.378612859844406,16.813779636504474
0.01740860482467048,2.3172590822715184,3.7145439845942407,20.078131006921076,20.54991171267995
0.019895548371051976,2.860372945486898,3.8996579776432467,23.241351466809245,23.73919720069797
0.022382491917433474,3.3268726481243203,3.945908660882653,25.600124105620285,26.115218379328695
0.02486943546381497,3.654509015401622,3.8532960931068017,26.948548032537442,27.46684488591257
0.02735637901019647,3.838493712372494,3.640973946382928,27.238739666212176,27.747786647980465
0.029843322556577963,3.869250000760936,3.323307489448309,26.499429878308923,26.9858342860328
0.032330266102959464,3.746777948920715,2.933815604310536,24.797656766932633,25.250136635852375
0.03481720964934096,3.495019641794822,2.496440366324348,22.363264142947035,22.77197751462015
0.03730415319572246,3.1474939709530463,2.0447006574715885,19.435672623714666,19.79476924371846
0.03979109674210395,2.737719827949881,1.612115359719295,16.28782164968861,16.594793155729835
0.04227804028848545,2.299216104323038,1.2274149516980968,13.207015871121296,13.461731329144861
0.04476498383486695,1.8846553048732186,0.9193299120212374,10.466194728132738,10.674189673812117
0.04725192738124844,1.5323447244204584,0.6974371060020407,8.295202030778825,8.464329601493839
0.04973887092762994,1.2566496411620212,0.5856786088948079,6.837690329158602,6.976832862482708
0.05222581447401144,1.0910889465537374,0.5696892693700998,6.2133701565685,6.33411317040225
0.05471275802039294,1.0500279187460302,0.63510393607595,6.431818769726852,6.54783997409649
0.05719970156677443,1.1143130126215017,0.8010762808787688,7.4212105686859395,7.54703802843606
0.059686645113155926,1.2743674896762809,1.0340875390964366,9.066624323384648,9.213958224273023
0.062173588659537427,1.511037804737306,1.3006189460204634,11.157370737115235,11.334097522764134
0.06466053220591893,1.7955936059608535,1.6054589634772034,13.51627933616194,13.729219277669618
0.06714747575230041,2.104092944792011,1.9055120200609548,15.91829561334588,16.1694254199952
0.06963441929868192,2.388651856041345,2.181624560937376,18.104846237976254,18.39159048899844
0.07212136284506342,2.649270407688116,2.4194314345609484,19.913125945488954,20.233755634594853
0.07460830639144492,2.852429844433515,2.6045674893534,21.199483084311847,21.548508321135266
0.0770952499378264,2.9693998142616964,2.722667573702428,21.83463121253473,22.20318387441819
0.0795821934842079,3.0001803850398923,2.764154939280746,21.80899397094645,22.187245275065287
0.0820691370305894,2.959136834556012,2.7433948543260542,21.141725419939274,21.523365440016004
0.0845560805769709,2.841480827275002,2.65559897375697,19.933382476022647,20.309257892315937
0.0870430241233524,2.671154447540526,2.515132565734256,18.289310458688497,18.653681539045447
0.0895299676697339,2.4577345696906985,2.345937705018933,16.377103930245333,16.7258308036683
0.0920169112161154,2.225163277978509,2.128860836447573,14.393087872566335,14.718844335817959
0.09450385476249688,2.0069594632500953,1.9022092446576364,12.504856847236283,12.806940738031946
0.09699079830887838,1.7935463864198187,1.6995018109220932,10.880005415463321,11.157044092683252
0.09947774185525989,1.6232313415547928,1.5015849799450862,9.647820911507239,9.89798392505862
0.10196468540164137,1.5199564127093763,1.3324008262669111,8.875341426068214,9.102595502803343
0.10445162894802287,1.4741448606424916,1.2111030210596394,8.624816646121005,8.833308314385071
0.10693857249440437,1.4810083493786945,1.1281148155243117,8.886670208421057,9.079588986356882
0.10942551604078588,1.5453353495270528,1.1121666873740588,9.603441716096535,9.79035591168501
0.11191245958716736,1.6575491216781595,1.1249514677859884,10.688940351920063,10.875037045571611
0.11439940313354886,1.7841309097620905,1.1951996343686857,12.03782168493991,12.227868832612373
0.11688634667993036,1.9250807808907218,1.3037576314734745,13.501645653868895,13.700370627731827
0.11937329022631185,2.0708219954735063,1.4266835000759932,14.941549003598448,15.151686908501631
0.12186023377269335,2.1974126038957476,1.5687657010171487,16.23782209182982,16.460756794946104
0.12434717731907485,2.3096410763999926,1.71563908179875,17.251601662502136,17.489871905832697
0.12683412086545634,2.3883538665611934,1.8577268931838473,17.91585050886899,18.169564740458632
0.12932106441183785,2.4048206212462375,1.9806639825548817,18.173108230325035,18.438222657926357
0.13180800795821934,2.392560230417226,2.084450407193694,17.9994332489982,18.277004000693495
0.13429495150460083,2.351572760723832,2.145144207717824,17.457075246263848,17.7448869896261
0.13678189505098234,2.2674930687831445,2.172322247923025,16.6082839029698,16.902532442431422
0.13926883859736383,2.154686431061099,2.180349794860175,15.515308899427188,15.815227127322267
0.14175578214374532,2.032306527269512,2.1548616955918805,14.293072351924529,14.59676731352736
0.14424272569012683,1.9147186337240778,2.091069603753755,13.075649989476425,13.379512030764348
0.14672966923650832,1.8114996233429832,1.9937619795532204,11.920503087408068,12.221088804741951
0.14921661278288983,1.727437965645529,1.8916692997292297,10.932976953674233,11.229088998412273
0.15170355632927132,1.6529569201101264,1.7847916210276364,10.19926328236574,10.485357371746773
0.1541904998756528,1.6072101660557387,1.6731290001218635,9.791188557020666,10.06229886894909
0.15667744342203432,1.5997745760780107,1.5614698969320193,9.7039648074512,9.95813235087493
0.1591643869684158,1.6210734094072778,1.478544787904962,9.937592466179883,10.176920836500765
0.1616513305147973,1.6758951351493971,1.4099885195287247,10.45376473854779,10.680725131662427
0.1641382740611788,1.7402978024015685,1.3510127448547697,11.185444409346111,11.40035256088056
0.1666252176075603,1.8047046701337983,1.3159827301374318,12.060805859408763,12.265879808263712
0.1691121611539418,1.8834810138281712,1.3048985315905473,12.979293049001853,13.179996546246368
0.1715991047003233,1.962261688954064,1.3225486086675269,13.825984727775714,14.027026037293599
0.1740860482467048,2.017104744248053,1.3593562107789352,14.552997291201294,14.75487346657922
0.1765729917930863,2.048010244954766,1.415321393892882,15.107658730756624,15.311395525439783
0.1790599353394678,2.069343466184913,1.4665021972916579,15.418143423956973,15.625362642748843
0.18154687888584928,2.0667392630311587,1.5272638867346608,15.460509780830554,15.672629289440737
0.1840338224322308,2.040197700449596,1.5928181146134484,15.268277050550221,15.486115080791539
0.18652076597861228,1.9992956499381145,1.6535881299115494,14.865387674940429,15.090105616778057
0.18900770952499377,1.9344563696132075,1.7191507948048612,14.280572498429407,14.513178555509942
0.19149465307137528,1.8648335374117802,1.746410534855817,13.547350768040468,13.786162145819908
0.19398159661775677,1.7904272178867227,1.7449442120591125,12.751914166586525,12.994682560098893
0.19646854016413826,1.7208142821274692,1.753059108239002,11.966089166176983,12.215633752018427
0.19895548371051977,1.6559947944774507,1.7516016652825372,11.23776022156861,11.493375568153455
0.20144242725690126,1.6151224324546725,1.7262067283024964,10.662695819961616,10.921606671624923
0.20392937080328274,1.5838320502269831,1.6816627555971886,10.279203607944215,10.535584483096432
0.20641631434966426,1.5621237118139149,1.6323350120087028,10.087284004765412,10.337216582583382
0.20890325789604575,1.5643626910853952,1.5782235523202257,10.096514235529627,10.33816327587307
0.21139020144242726,1.5713954385573476,1.5193284312158604,10.297317911266381,10.526746822827416
0.21387714498880875,1.5927988245544769,1.460438106599821,10.641811415640639,10.859007218193126
0.21636408853519024,1.6333613159668103,1.4063410362750122,11.091687938147547,11.299168359488043
0.21885103208157175,1.6787177662874966,1.371402484582544,11.57991024754162,11.781050863767963
0.22133797562795324,1.714503028892789,1.3508341024787591,12.092113548273664,12.287533661107327
0.22382491917433472,1.740717167001732,1.3350591374950673,12.58999102735761,12.77968517707102
0.22631186272071624,1.7573602437139675,1.328866047018104,13.001717047721538,13.18707117543986
0.22879880626709773,1.759643918688179,1.3418316916480133,13.303350004644841,13.486140306083545
0.2312857498134792,1.7619334647424099,1.3500141086348632,13.4374294693047,13.619524895172766
0.23377269335986073,1.7642289446106396,1.36777856168225,13.403955851853913,13.588574407981445
0.23625963690624222,1.7425884043009265,1.3855482977821583,13.21729477152994,13.403478634660623
0.2387465804526237,1.7209539228988682,1.4176885804170143,12.896600250006223,13.087926547938997
0.24123352399900522,1.6897487561210636,1.4498342530351793,12.46581471138413,12.663088353109117
0.2437204675453867,1.6489729661967134,1.4724085622920673,11.97761099878655,12.179912317246423
0.24620741109176822,1.617780228507026,1.4949883680100324,11.475085147787365,11.684595938123136
0.2486943546381497,1.5961706050215168,1.5223621265757383,10.986967983083273,11.206195273421926
0.2511812981845312,1.5649905442968008,1.5401646809781775,10.551567135087392,10.777609737531202
0.2536682417309127,1.5529705279597734,1.5483960840498072,10.202401829960502,10.435432477563824
0.2561551852772942,1.550533810940789,1.54226798518426,9.949049276321958,10.186575829967465
0.2586421288236757,1.548103648034977,1.5217804369759282,9.825028698445013,10.061989342505287
0.26112907237005717,1.545680100541684,1.4965102985392427,9.85428251300691,10.086404408558995
0.2636160159164387,1.5624168429039202,1.4760344288670242,9.998503892557679,10.22692055878414
0.2661029594628202,1.5839487261837535,1.4411992669075748,10.228962815317209,10.450723858721759
0.26858990300920166,1.5959106013033275,1.4063700747277283,10.54565967844881,10.758054911930088
0.2710768465555832,1.6078793356452645,1.3667585009883976,10.871980425004729,11.074893368322114
0.2735637901019647,1.6246433931296347,1.327153000865431,11.169618223606149,11.364909700638208
0.27605073364834615,1.6462028342128034,1.3067072393689259,11.443361871755894,11.634775395715467
0.27853767719472766,1.6486157026050356,1.2862676548187892,11.65969293938566,11.845710517122589
0.2810246207411092,1.6414588651131103,1.265834298687488,11.775516188770451,11.956567450133297
0.28351156428749064,1.6295207850766837,1.250195625638122,11.814774027646145,11.991964493597516
0.28599850783387215,1.631955135648408,1.25850530016406,11.76789003947556,11.946980754002174
0.28848545138025367,1.6296083632693756,1.2716097600645215,11.61571100004268,11.798192947906951
0.2909723949266352,1.598538510910187,1.2751438463264158,11.382179313968802,11.56439895260564
0.29345933847301664,1.5722644612338967,1.288261223045234,11.105602594783388,11.290085983203168
0.29594628201939815,1.5364210635480358,1.2870199242990925,10.757250808471547,10.942369712563117
0.29843322556577967,1.5053735869285076,1.2953620172337021,10.404161986357469,10.592011094701494
0.30092016911216113,1.4886988969763042,1.3084991489364108,10.084643738769158,10.277569448392054
0.30340711265854264,1.4624550358945447,1.3120661597165024,9.784331238429782,9.979650801646288
0.30589405620492416,1.441007272292076,1.3156399063464352,9.570262513419348,9.76715592676443
0.3083809997513056,1.4243556646589584,1.3048552288577717,9.442437944237989,9.638001377801773
0.31086794329768713,1.4077118680060132,1.2988657903839953,9.376915893681804,9.570541088252913
0.31335488684406865,1.4102295537856344,1.2880948339955105,9.38327354667967,9.575685779491453
0.3158418303904501,1.4031783600860357,1.2821192159018426,9.480664893684756,9.669319832353517
0.3183287739368316,1.391346748075509,1.266573775567901,9.62599468086301,9.808151125382377
0.32081571748321314,1.3938883887201248,1.2510353689161842,9.804898073172247,9.982186161346865
0.3233026610295946,1.3916497262592467,1.2450808517243088,9.99343342779286,10.16639695091903
0.3257896045759761,1.3846308180482456,1.2295566597022234,10.17244750408207,10.339617996087311
0.3282765481223576,1.3824085279168408,1.2092512450147446,10.31799865692655,10.480192660250335
0.3307634916687391,1.3801945095665102,1.1889530596790985,10.42529885333735,10.583260482656321
0.3332504352151206,1.3636236098897832,1.1686621522437133,10.484771655841731,10.637465734406758
0.3357373787615021,1.3614263054926607,1.1627437810685866,10.472475415835946,10.624415090770379
0.3382243223078836,1.3640258462482953,1.1472559778009632,10.393198903461533,10.544920399640171
0.3407112658542651,1.3522686752178616,1.1365640004994604,10.246942484356637,10.398088217308015
0.3431982094006466,1.3357316552120593,1.1306678971097572,10.057648539571431,10.208765013155778
0.34568515294702806,1.323991648868248,1.1152025054637313,9.844471045639828,9.99551102660121
0.3481720964934096,1.3074719053682098,1.1188982931223461,9.621775574573144,9.774455554205137
0.3506590400397911,1.2861724803590455,1.122601694288858,9.39913929385374,9.55292068838209
0.3531459835861726,1.2744586392725124,1.1215243529720307,9.195716176389679,9.351109971240874
0.35563292713255407,1.2723304374021809,1.1204547196649755,9.021083387227302,9.179008061880541
0.3581198706789356,1.265422719902476,1.1050276314224357,8.88481809018556,9.04225487486064
0.3606068142253171,1.2633123483502176,1.1087619583443318,8.782132237888986,8.941541131904204
0.36309375777169856,1.2755761841421092,1.112504133848362,8.73217979832408,8.894702023094387
0.36558070131808007,1.278272265251612,1.1210426077941855,8.744537931591028,8.90829165158145
0.3680676448644616,1.2809774527123765,1.1200122165997914,8.800053376616457,8.963050263776779
0.37055458841084304,1.2836918007345006,1.1237782164438088,8.879572871069293,9.041988525299972
0.37304153195722456,1.2959921699848567,1.1323406533818883,8.978308361315802,9.14176197955496
0.3755284755036061,1.3035134043439824,1.1361227666662141,9.077106582491778,9.24033473669419
0.37801541904998753,1.311043960787984,1.1351246020259549,9.17596788173891,9.338400863956702
0.38050236259636905,1.3090070861454377,1.1437114149867846,9.26052739495675,9.42225784963957
0.38298930614275056,1.297402833698055,1.1331528310263514,9.29726664347668,9.455498743654664
0.385476249689132,1.290596466500099,1.1273909119797434,9.30533958386083,9.461817704792473
0.38796319323551354,1.2933764407759356,1.131214106234029,9.265592944810495,9.423570479951804
0.39045013678189505,1.2722239859972744,1.1302572487274896,9.178027067004237,9.334463892560205
0.3929370803282765,1.2702347845697926,1.1340971908316642,9.066584306412603,9.225108337112937
0.395424023874658,1.2682552755432053,1.1140035571865328,8.945630211050382,9.103503459779906
0.39791096742103954,1.2519203010947755,1.1130720220669483,8.805588311010187,8.963516010450402
0.400397910967421,1.2355951231300217,1.1169374197334543,8.651247345019474,8.810126283579027
0.4028848545138025,1.2144913900787389,1.1016577776346712,8.501761260435128,8.658440028378891
0.40537179806018403,1.207762766776969,1.0768099462893685,8.352341986675595,8.507633467870164
0.4078587416065655,1.1962556913020994,1.0759127926451153,8.222143468418684,8.378082073578064
0.410345685152947,1.1799702148157811,1.0846011502728612,8.139896455635323,8.29618006503536
0.4128326286993285,1.1684831949224774,1.0693562392880969,8.072082453779654,8.226019139531465
0.41531957224571003,1.1617946823873972,1.0589085227954567,8.047432210111964,8.199525554568387
0.4178065157920915,1.1503279211356796,1.067623253763004,8.056369243966936,8.207810861201432
0.420293459338473,1.129294558212525,1.0619816517793477,8.074951863350153,8.222405902371065
0.4227804028848545,1.1322134670245827,1.0419837594982537,8.098391988175184,8.243275458463701
0.425267346431236,1.1351426809329035,1.0363600393176449,8.126689940297645,8.270772661783477
0.4277542899776175,1.1237170397365328,1.0403221302148513,8.164634443510227,8.307001006149124
0.430241233523999,1.1123018029529748,1.044293267667807,8.19307220361588,8.333918397933347
0.43272817707038047,1.124839036536167,1.0386966869746888,8.202426731665124,8.344097192266064
0.435215120616762,1.123021563071032,1.0283208332141869,8.207063553912143,8.347126053025546
0.4377020641631435,1.1212146414602073,1.0227425546042157,8.192617775286555,8.331993195938432
0.44018900770952496,1.1146299171186063,1.0123850858996946,8.149512902630851,8.287453406471418
0.4426759512559065,1.1032674385742314,0.992460064993461,8.092114457976932,8.227058552278832
0.445162894802288,1.0967040607877414,0.9725443395562472,8.006057542018011,8.139137525282068
0.44764983834866945,1.0949398318704668,0.9622147570751067,7.900919270627433,8.034256393414488
0.45013678189505096,1.0788211864430566,0.9518945515715285,7.786276758252551,7.918084626078066
0.4526237254414325,1.0627133821581878,0.9272185535617496,7.671707117910178,7.800268205752987
0.45511066898781394,1.0609816764576623,0.9073404166186276,7.5715758645024325,7.69920189508785
0.45759761253419545,1.0544725033295113,0.901836987488214,7.476306494890431,7.603971397751353
0.46008455608057697,1.0527627164713493,0.8963430961282073,7.385899311132072,7.514203145866503
0.4625714996269584,1.0654291693678037,0.8860703789495354,7.324296630438619,7.454232432789177
0.46505844317333994,1.063741488727324,0.875807278815754,7.267556735365744,7.397024080414128
0.46754538671972146,1.052488124286183,0.8655538350815173,7.2348335368951675,7.362046658353288
0.4700323302661029,1.055611138846861,0.8648868935529259,7.21655052462579,7.344449992312152
0.47251927381248443,1.049168561792999,0.8498644766041346,7.222284799972621,7.347409205397775
0.47500621735886595,1.03794884221373,0.8540054462627102,7.228094639639247,7.352007563984195
0.4774931609052474,1.0315288323014569,0.8581562278418742,7.229191932137166,7.3526661718678685
0.4799801044516289,1.0251201740699534,0.8575284564243115,7.239942177781781,7.362267936070126
0.48246704799801043,1.0187229126349644,0.8569105735413001,7.250768858805577,7.371956398921461
0.48495399154439195,1.007548689572945,0.8610910205315336,7.2568838592760585,7.376923169894178
0.4874409350907734,0.9963859528813613,0.8509162219390092,7.239133851810628,7.3567589540699805
0.4899278786371549,0.9948115536577528,0.8311746187156135,7.2070959274555015,7.32275446684058
0.49241482218353644,0.9884603261772367,0.8305966682205865,7.179923982400691,7.295084169133221
0.4949017657299179,0.9773323144543936,0.8443940043762397,7.128887878132472,7.244944586847261
0.4973887092762994,0.9662159656020334,0.8438362443080625,7.063564701195302,7.1791071302331515
0.4998756528226809,0.9503229198696571,0.8337118281879461,7.0031083432662555,7.116299286287467
0.5023625963690624,0.9392300272444264,0.8331744059524222,6.928365467948302,7.041205911793108
0.5048495399154439,0.9329373308490089,0.827858804099034,6.834547947290135,6.9474288702097375
0.5073364834618254,0.9266564702613115,0.8129766555686444,6.759963281704524,6.871442848948838
0.5098234270082069,0.9155990848342169,0.8220468196668171,6.690246533558566,6.80246141758011
0.5123103705545884,0.9045536203356391,0.8311273156570766,6.611032763693688,6.724190960221538
0.5147973141009698,0.8887317156667142,0.8258529692448011,6.551052661305038,6.6624446084327165
0.5172842576473514,0.8681334128221808,0.830165832498617,6.4959412841725195,6.606064191280867
0.5197712011937329,0.8667007701710797,0.8297007307249289,6.455275705141852,6.56583261719146
0.5222581447401143,0.8604918126515243,0.8100924890299523,6.448209802160361,6.555616344257801
0.5247450882864959,0.8399297749342266,0.8000715622020655,6.436436611789382,6.5401309458640275
0.5272320318328774,0.8337451180235295,0.7948495815863532,6.41037958896671,6.513054832704625
0.5297189753792588,0.8227842694912578,0.7896381783263464,6.417923026925348,6.518453680615629
0.5322059189256404,0.8166240766012033,0.7796489833635802,6.4111831509404,6.509838463022466
0.5346928624720219,0.8248413863867364,0.7648820307574655,6.380583411294802,6.478985453152559
0.5371798060184033,0.8091290124471778,0.7549141610051742,6.36443128991693,6.459920339550912
0.5396667495647849,0.7934290113144883,0.7353801977990211,6.348361830651101,6.439876673056575
0.5421536931111663,0.7968950359684005,0.7158569812291726,6.318010075778082,6.408177918375784
0.5446406366575478,0.8051619159140607,0.7107097545019796,6.263799469332562,6.3552008511134845
0.5471275802039294,0.7894992704627991,0.7103617440176946,6.209672277022182,6.299837513257228
0.5496145237503108,0.7882143651769716,0.7052361759716328,6.150840343060726,6.2411118300503015
0.5521014672966923,0.7965188355023066,0.7049098896350237,6.077727106766929,6.1700978105816695
0.5545884108430739,0.8048359133299453,0.6998061107921187,6.014274829124309,6.108108640186901
0.5570753543894553,0.7940120236756761,0.6899248716616821,5.94133013965352,6.033726481258016
0.5595622979358368,0.7879892212029266,0.6848430108966126,5.873258489534743,5.965324990911884
0.5620492414822184,0.805921157019197,0.6797721569820045,5.829213731683284,5.92379370221348
0.5645361850285998,0.7951354321912526,0.6747123415160321,5.780465684223596,5.873777372850165
0.5670231285749813,0.7795741006743829,0.6696635958892725,5.731802986932159,5.823207929578511
0.5695100721213628,0.7783908128666696,0.66462595128435,5.702379487953788,5.793509449143237
0.5719970156677443,0.7724319923663844,0.6548110353552716,5.6682534039555295,5.757996641741604
0.5744839592141259,0.7760628857762696,0.6545840888286434,5.639001773249298,5.729667959902716
0.5769709027605073,0.774918319539072,0.6495799323002089,5.609836422586506,5.700238344015324
0.5794578463068888,0.7689983298199622,0.6445869994376381,5.585545983757348,5.674960331824158
0.5819447898532704,0.7726681625061437,0.6396053203786403,5.561342280307367,5.651074146915932
0.5844317333996518,0.7667742400033456,0.6346349250509531,5.542013940816547,5.630685814661665
0.5869186769460333,0.7513165977588837,0.6296758431720262,5.53234959225658,5.618528304501449
0.5894056204924149,0.7454488842612911,0.624728104248711,5.513195843387231,5.598330791479441
0.5918925640387963,0.7539595377977643,0.6150033342566428,5.4893413179574475,5.574903783099562
0.5943795075851778,0.748118173172562,0.6100783689211908,5.4607862347815,5.545454239215729
0.5968664511315593,0.7231364215503965,0.609953237115604,5.417954004416737,5.499926802205269
0.5993533946779408,0.7077447370967193,0.6194163708216582,5.375210052403877,5.456872947100168
0.6018403382243223,0.7067315571336291,0.6193141852075026,5.322977786062034,5.405285567364376
0.6043272817707038,0.7009433021395449,0.6240119184711281,5.2612574177291025,5.344299954420393
0.6068142253170853,0.6951684089520017,0.6382980019572853,5.209202771400617,5.294003869442805
0.6093011688634667,0.6798301042048317,0.6430188501962879,5.152448846204592,5.236732886547293
0.6117881124098483,0.6597168242497263,0.647751297427184,5.1005726562436084,5.18369071734963
0.6142750559562298,0.6587706184762424,0.652495371035005,5.048786004030667,5.133222092554114
0.6167619995026112,0.6674147127880633,0.6524626948708281,5.0018774970891755,5.08821466360561
0.6192489430489928,0.6617071228839543,0.6476532958921624,4.969424144631074,5.054946828345242
0.6217358865953743,0.6512246874605997,0.6428556041627087,4.937060937633473,5.021148038374079
0.6242228301417557,0.6455442449701342,0.6380696462115056,4.904788075399679,4.98806638991638
0.6267097736881373,0.6398774236589283,0.6380838516733283,4.877394158917157,4.960399973844233
0.6291967172345188,0.6294358515282575,0.6381098433275318,4.8453025775749055,4.927507557740994
0.6316836607809002,0.6237963662949756,0.6285708404181478,4.813301929084,4.894088134530328
0.6341706043272818,0.6133821921490697,0.6190436752552408,4.8005460194762986,4.879005520659804
0.6366575478736632,0.6077701663159104,0.6143167766131412,4.783093023259452,4.860529656965923
0.6391444914200447,0.5973835124935055,0.6048133630896242,4.756154726579764,4.831529162525865
0.6416314349664263,-1.2756782275071117,-1.0327352658786584,-19.341995367310222,19.41150900519007
0.6441183785128077,-1.4536313568480532,-0.49633684915698795,-18.70316202828723,18.766130774504592
0.6466053220591892,-1.4543996984694911,0.11668798354817689,-16.148875296428628,16.21465596021129
0.6490922656055708,-1.2971368363008136,0.7440900134468382,-12.047842044513484,12.14029372996167
0.6515792091519522,-1.0009963545186535,1.3236200215324767,-6.864537213375083,7.062282550066417
0.6540661526983337,-0.5851318375470942,1.7882403852615751,-1.0634357454956738,2.161267805615409
0.6565530962447153,-0.09263888665943565,2.0900670951550215,4.804796155227029,5.240517962840666
0.6590400397910967,0.4046564767012979,2.2434653846807704,10.28047194633052,10.530194073980118
0.6615269833374782,0.8876006673674814,2.2292816638474453,14.899116680380438,15.09109702894618
0.6640139268838597,1.3178864866420186,2.042727552407323,18.32554229793851,18.486077495200846
0.6665008704302412,1.6572067355794136,1.7268987030983824,20.373001240843102,20.513110267694834
0.6689878139766227,1.8864078282668486,1.3009487518394915,20.936148805724073,21.06118061659604
0.6714747575230042,2.0102781951443327,0.812761754253716,20.053292387166238,20.170184323804026
0.6739617010693857,2.009664249801417,0.32937537902757263,17.901603074388394,18.017064998778004
0.6764486446157671,1.874989212219228,-0.10611472197189631,14.768385231320892,14.887311618316273
0.6789355881621487,1.6349835286921952,-0.4697665103769184,10.96488523683947,11.096060560866935
0.6814225317085302,1.3279544519060356,-0.7136959314362827,6.845445098045986,7.00948953200214
0.6839094752549116,0.973055621015743,-0.8379029638201232,2.769195223705501,3.052435225416297
0.6863964188012932,0.6085942882079602,-0.8471759897372011,-0.9430412056369901,1.406207979196473
0.6888833623476747,0.24893568881804173,-0.736726584974053,-3.999171431016274,4.074077462792232
0.6913703058940561,-0.07240132878725158,-0.5161315354966356,-6.169351938289451,6.191327567882359
0.6938572494404377,-0.3314747231317372,-0.20933283745040265,-7.362602911261233,7.373033117911697
0.6963441929868192,-0.5043424529892941,0.13099709287868766,-7.545405375238883,7.563376483087018
0.6988311365332006,-0.5910044939855228,0.4809162589078566,-6.760854810313674,6.803655232750595
0.7013180800795822,-0.5818840153556519,0.8069058571949448,-5.147814764642304,5.243060453663606
0.7038050236259636,-0.491346203186815,1.0706586807586715,-2.8882444179235978,3.119244607230542
0.7062919671723452,-0.3289678404962473,1.2578095390004598,-0.20719858139847336,1.3165241845917048
0.7087789107187267,-0.11869092051265717,1.3396280311418773,2.608018688868124,2.9343572171633454
0.7112658542651081,0.12990777324567127,1.3304793860683835,5.317987368355666,5.483433329246648
0.7137527978114897,0.39767465036916916,1.235152025805812,7.72638306076656,7.834586195588053
0.7162397413578712,0.6510909102366012,1.0680111788016484,9.60815094822176,9.68922762119111
0.7187266849042526,0.8805797685776183,0.848210476604621,10.862734697511584,10.931325941987648
0.7212136284506342,1.0621992309101012,0.5805383405834923,11.46140402357156,11.525149637318199
0.7237005719970157,1.157642092540153,0.32245562841144304,11.35148662307683,11.414918370299771
0.7261875155433971,1.1956387950074114,0.06917395437845775,10.600020274051616,10.667463005532122
0.7286744590897787,1.1857661663193453,-0.12663422760075482,9.321926786064761,9.397893201858563
0.7311614026361601,1.1136590176309564,-0.25060369039304176,7.632127967027243,7.717021181924328
0.7336483461825416,0.988894176447852,-0.30273441704527393,5.683852849754307,5.777174312510951
0.7361352897289232,0.8306252766653167,-0.29260319746396646,3.6686376919664845,3.7728580010806985
0.7386222332753046,0.6484291452870802,-0.2154216118137402,1.7588651364463193,1.8869216717978763
0.7411091768216861,0.44709420574555403,-0.0759780471188174,0.10776421103804701,0.46613197448350374
0.7435961203680677,0.2553508978237825,0.10178549609635068,-1.1553780746714049,1.1876290934742186
0.7460830639144491,0.08756445109295041,0.28913861376803496,-1.968312359234953,1.9913618994507194
0.7485700074608306,-0.041899905126728476,0.47650451489490786,-2.2927312994622255,2.342099264826025
0.7510569510072121,-0.13304215172685452,0.644729601616131,-2.1286347803795485,2.2281073810697936
0.7535438945535936,-0.18107386652960056,0.77944867917238,-1.5286951251904055,1.7254671177349215
0.7560308380999751,-0.17162982096735768,0.8615081492652705,-0.5982570952747173,1.062809784835603
0.7585177816463566,-0.11428680332488561,0.9004848332996027,0.5621229496556337,1.067668777733237
0.7610047251927381,-0.03298681209864329,0.9011671491412412,1.8662538581981822,2.0727020585948632
0.7634916687391196,0.0722701705657618,0.8539783044765579,3.1848488474169363,3.298145555151144
0.7659786122855011,0.2062725655923784,0.7541299100937606,4.379044326085395,4.448290627020088
0.7684655558318826,0.33550156709216106,0.6255639964845336,5.386591154453044,5.433162603903069
0.770952499378264,0.45038038552709825,0.4682805773206855,6.14045178780097,6.174728929197739
0.7734394429246456,0.5652742477102846,0.3062216826573638,6.573588679763097,6.604950781403558
0.7759263864710271,0.6466643470013111,0.15854093901127841,6.66684831553031,6.700013169338889
0.7784133300174085,0.6945506997516602,0.0396035693607959,6.4298075985702265,6.467332902508039
0.7809002735637901,0.7089333220626076,-0.04101360685395283,5.905562253948564,5.948103404139839
0.7833872171101716,0.6898122297853166,-0.0928873836918993,5.151573215048978,5.198382014475329
0.785874160656553,0.6515526484818731,-0.12559455542967246,4.244455026894497,4.296008999225593
0.7883611042029346,0.5797893835425796,-0.10082788335835824,3.2751874428283916,3.327638017722479
0.790848047749316,0.48888766002981515,-0.023375758869311092,2.3203850045934926,2.3714434717645045
0.7933349912956975,0.3884242994359643,0.0684546031865998,1.4518738489740537,1.50449232049369
0.7958219348420791,0.278399316363224,0.17466321430381404,0.7414801111173386,0.8110525093759536
0.7983088783884605,0.17317793512529445,0.28088487579878274,0.22272269797243105,0.3981109278315242
0.800795821934842,0.0775485731459471,0.36796598545073467,-0.06609108182560952,0.381812491601024
0.8032827654812236,0.02024166420134954,0.43590655410338996,-0.11059593787623445,0.45017297825908625
0.805769709027605,-0.017896391384479182,0.48470659238386204,0.06047778870675735,0.48879272135724466
0.8082566525739865,-0.036865580255146635,0.5095777073825034,0.4279765618201079,0.6664776427879014
0.8107435961203681,-0.027089082662357877,0.5105199092936958,0.934439617169458,1.0651487193441744
0.8132305396667495,0.001856307612367547,0.4683795948144498,1.5176177855130586,1.5882526982889278
0.815717483213131,0.03560539321879741,0.40709879030864604,2.143992315905506,2.182590254665058
0.8182044267595125,0.09331179980065474,0.345831118604083,2.7513140358556036,2.774533326250207
0.820691370305894,0.16539873283172912,0.2606345724301615,3.2725453679295162,3.2870716916923377
0.8231783138522755,0.23271259089730645,0.18023958082431824,3.669379152994636,3.681166231629522
0.825665257398657,0.29525338561622894,0.10943455600721919,3.917873440260344,3.9305066820530614
0.8281522009450385,0.35302112835983346,0.05300790998451976,4.0036630839594025,4.01954622382287
0.8306391444914201,0.3964390236115233,0.015748054547060075,3.936324953310666,3.956269207058626
0.8331260880378015,0.42071867892789877,-0.00713340536954421,3.739801125880275,3.7633984048206184
0.835613031584183,0.4258601049389757,-0.010848058403457372,3.414091661020927,3.440566287575694
0.8380999751305646,0.42622852198900685,0.018969313233606844,3.0070806496784472,3.0371968361421757
0.840586918676946,0.4026703269335827,0.06316510387377328,2.571440584510958,2.603543720049702
0.8430738622233275,0.34560872302265433,0.11216251427606716,2.1119599233671806,2.142988692678332
0.845560805769709,0.30292775310389014,0.16596155162662107,1.6669459457338718,1.7023563804965984
0.8480477493160905,0.25068540997447597,0.22935062621859403,1.2794943328159398,1.3238393528782257
0.850534692862472,0.18888170278757943,0.28796453485087437,0.9687587476164543,1.0281504666454306
0.8530216364088535,0.14145865705260974,0.3322264774298489,0.7586812548607478,0.8402274873137945
0.855508579955235,0.08926266815108808,0.3669248636102891,0.6779923209984222,0.7760639579272498
0.8579955235016165,0.0418705511415669,0.37769448955342133,0.7123267810023544,0.8073510472062907
0.860482467047998,0.028012734119280625,0.374112167809983,0.8233774516521288,0.9048176917288234
0.8629694105943795,0.023747208411708298,0.36096630739861446,1.0111443747002395,1.0739057460840213
0.8654563541407609,0.014708771742903748,0.32389170384518184,1.2516855737103345,1.2929961172488063
0.8679432976871425,0.029627851475954148,0.28204197570648315,1.5306358773015827,1.5566861194622001
0.870430241233524,0.05892764816793561,0.24020553136740608,1.8096880959087436,1.8265109278326028
0.8729171847799054,0.0834545554920828,0.18880556904118206,2.055323441706496,2.065663732498971
0.875404128326287,0.11757379012087343,0.13741890001187684,2.2483883352522644,2.25565016265872
0.8778910718726685,0.1612853585231897,0.09083393203311152,2.3840944054886455,2.3912695172992957
0.8803780154190499,0.19064725032400787,0.05862747596896156,2.4624416831052383,2.470506546781197
0.8828649589654315,0.21044787482811322,0.04079953583333129,2.4546997772988277,2.464042188521698
0.885351902511813,0.23026404441885323,0.03256171211055925,2.370445522260275,2.381825721846896
0.8878388460581944,0.24051895795688072,0.03391400839634562,2.2144673472941907,2.22774889997377
0.890325789604576,0.23642421738203045,0.05443323471837225,2.0298609067042985,2.0443078750944066
0.8928127331509574,0.22755663435426254,0.07975418429443071,1.8214146266709772,1.837306178621866
0.8952996766973389,0.2139162136524228,0.1050884567749244,1.5747633185351173,1.5926968448560634
0.8977866202437205,0.18113774985425757,0.13043605492287735,1.33779103524604,1.3562851111881966
0.9002735637901019,0.1531632638601842,0.15100857797362943,1.1296514082782352,1.1499455988188843
0.9027605073364834,0.12520435640925265,0.16680602827579438,0.959921260915257,0.9823182829868011
0.905247450882865,0.0876842246810503,0.17304000465096392,0.8573310281743556,0.8790039012075089
0.9077343944292464,0.0549680822179226,0.17928731567529477,0.8027271103248168,0.8243398845592754
0.9102213379756279,0.04142114232376182,0.17597115643766514,0.7769559060938658,0.7977104982031731
0.9127082815220094,0.013524584861235422,0.15351472182126535,0.7895942325913339,0.8044928441900691
0.9151952250683909,-0.009567974021286063,0.13107162642582493,0.8454305020703057,0.8555840409986807
0.9176821686147724,-0.008702918412807348,0.11343027468515432,0.9300995119690221,0.9370310934910658
0.9201691121611539,-0.0030338592018352983,0.0862254575471848,1.034024461515365,1.037617762397608
0.9226560557075354,-0.0021376008728820617,0.05903398235714663,1.157205355050058,1.1587121360229928
0.9251429992539169,0.0035626651345364024,0.036644252936062216,1.2804885821077345,1.2810177605187132
0.9276299428002984,0.014066940504412151,0.014267866260797124,1.3799321273808705,1.3800775800659488
0.9301168863466799,0.029375226685254385,0.001481629065999801,1.4555359906446235,1.4558331357780412
0.9326038298930613,0.054275928210799185,0.003073944563225073,1.4929349601974096,1.493924402671689
0.9350907734394429,0.07919223941914078,0.009468005800695067,1.4777638228248282,1.4799145144122043
0.9375777169858244,0.08497054777346469,0.020663812265244275,1.4435413970059319,1.4461876614036278
0.9400646605322058,0.0907644670655644,0.036661363242084466,1.371114063189724,1.3746039496207985
0.9425516040785874,0.10615080421312839,0.0478838511745705,1.255693410282701,1.2610815980997432
0.9450385476249689,0.10239913933828015,0.05911967826616449,1.135586655573885,1.1417257868739745
0.9475254911713503,0.09387468221330919,0.07994564984020602,1.0060053849724113,1.013533717980074
0.9500124347177319,0.08057743241734083,0.09599655441845156,0.8861031994950554,0.894922868872262
0.9524993782641133,0.06250738929770105,0.10248398696366268,0.7902452953476846,0.7993108082091295
0.9549863218104948,0.04445295529066551,0.11377315552064005,0.6992780440066113,0.7098663106394822
0.9574732653568764,0.031202532601571686,0.11071044469321212,0.613201428745322,0.6238961394496885
0.9599602089032578,0.01796771656464191,0.11244946544933399,0.5559574479581286,0.5675001366154052
0.9624471524496394,-0.00482830103626497,0.11420181195745327,0.5323344852807015,0.5444679701913895
0.9649340959960209,-0.018031908725012702,0.10160227154787593,0.5040252929918818,0.514479996978996
0.9674210395424023,-0.016854705215557764,0.08901605127569301,0.5093370750248916,0.5173318030698791
0.9699079830887839,-0.034815516013044,0.07644314803840535,0.5386930006426596,0.5452025531659481
0.9723949266351654,-0.03839552036647631,0.06388355853730676,0.5825162376443522,0.5872652655784552
0.9748818701815468,-0.0323831243151258,0.05612568259822881,0.6360183556892132,0.6393106504361838
0.9773688137279284,-0.03114354076618786,0.03401590325011439,0.6704689063781544,0.6720532391301263
0.9798557572743098,-0.04425357953337128,0.026284636530155225,0.6906562631010349,0.692571537950936
0.9823427008206913,-0.04298282409423404,0.03772028167955632,0.7205224110792958,0.7227882730680006
0.9848296443670729,-0.04169648803501569,0.030015607862742932,0.7552789141663947,0.7570242875986162
0.9873165879134543,-0.03560617188608972,0.031901030535012254,0.7661953181717287,0.767685313662997
0.9898035314598358,-0.029500283043345288,0.03379973839611905,0.7532715873877152,0.754606369825283
0.9922904750062174,-0.023378825806764536,0.030923323273559067,0.7260844913121431,0.7271186353975517
0.9947774185525988,-0.02681861134085639,0.0328485867636612,0.6846339913706334,0.6859460399380597
0.9972643620989803,-0.025454434431970485,0.03957552363050176,0.6337084508812669,0.6354530281784918
0.9997513056453619,-0.03365151001026501,0.04631572512730431,0.5685194250972554,0.5713947035394646
1.0022382491917432,10.751228047353795,6.843025093837632,-0.5117094227731815,12.754518552044733
1.0047251927381249,10.450969461740844,6.921617857353823,-0.5096574826968432,12.545569225951763
1.0072121362845063,9.872999021459417,6.751226895419849,-0.48356193413891546,11.970338609050586
1.0096990798308878,9.050835543895055,6.351005815130138,-0.4334228241846372,11.065295036779412
1.0121860233772693,8.022786249533302,5.764050239991988,-0.37360541128536795,9.885795637084252
1.0146729669236507,6.846311971921165,5.038244196644797,-0.29932134201254,8.505614937656198
1.0171599104700322,5.559719931105143,4.178376081657444,-0.20099386101472128,6.957708740976471
1.0196468540164139,4.225259363514707,3.2466951312554393,-0.10256503757621083,5.32957461259522
1.0221337975627953,2.866872278798053,2.3006621781568817,-0.01840013573023569,3.675913721231389
1.0246207411091768,1.5276542996681854,1.3498540216913972,0.07065440234638487,2.039810183262663
1.0271076846555582,0.25070104861983217,0.4325778809239891,0.15981011649369492,0.5248941914114698
1.0295946282019397,-0.9352570620291561,-0.4080706219447512,0.2634321584552275,1.053861426696207
1.0320815717483214,-2.0062780234974227,-1.1673030914614935,0.36236685535867075,2.3492674928085173
1.0345685152947028,-2.9432082305390113,-1.8163891157552108,0.42788372632140437,3.4849431259917667
1.0370554588410843,-3.7173172714827,-2.3409634930997254,0.46477111233743784,4.417529848201666
1.0395424023874658,-4.338181961433729,-2.7314494252719768,0.4826057563595505,5.149130704245036
1.0420293459338472,-4.781860292468959,-2.9926353241924026,0.49575280330341975,5.662846005523962
1.0445162894802287,-5.053140676800255,-3.129309601963392,0.4994237834501689,5.964581577944031
1.0470032330266104,-5.16159993017246,-3.1366838642281607,0.5031954356927013,6.060866699554414
1.0494901765729918,-5.116814868542304,-3.033911733412371,0.48312567433671383,5.968234682238639
1.0519771201193733,-4.942727518038915,-2.8305700254813284,0.4392144289486506,5.712756891495489
1.0544640636657547,-4.648914695041326,-2.550600766541121,0.3762500310786354,5.315969920714188
1.0569510072121362,-4.240164812818487,-2.2083691762364217,0.3085976175850078,4.790733195242072
1.0594379507585177,-3.7499967047708687,-1.8134520710702673,0.24104551735731938,4.172431741958096
1.0619248943048993,-3.1831987845860668,-1.4041566876456468,0.17838205796121365,3.483709325453644
1.0644118378512808,-2.573289886082224,-0.985271439501068,0.12060716232240232,2.7581020167704158
1.0668987813976623,-1.9585772466053717,-0.5711615469924665,0.05814394541062562,2.0409877662717677
1.0693857249440437,-1.3294840705056035,-0.17619223065216882,-0.023372882435698017,1.3413120022961431
1.0718726684904252,-0.7195291922229586,0.1900596921316411,-0.09521298230198383,0.7502735881217167
1.0743596120368066,-0.1430778331217013,0.49886379051459206,-0.16216483981818897,0.5437221561520618
1.0768465555831883,0.3902931885485758,0.7693736666805839,-0.22422853859188585,0.8913714430740942
1.0793334991295698,0.8614302476927491,0.9920125027174644,-0.27661576020387635,1.3426344089069544
1.0818204426759512,1.2703333322930295,1.1428382705787197,-0.3289033974850568,1.7401159538120683
1.0843073862223327,1.6122140268075997,1.2362161686072861,-0.3810915379104003,2.067049889099963
1.0867943297687142,1.8774955121714545,1.2721461850128075,-0.4236034635945245,2.307116210474858
1.0892812733150956,2.0709661790782383,1.2458399045128283,-0.4420740546075397,2.4569182836064374
1.0917682168614773,2.173472401418378,1.1812393315755703,-0.45086861221274255,2.514476315988503
1.0942551604078588,2.2089561827640964,1.0879212605377173,-0.4643524389402529,2.50573008802853
1.0967421039542402,2.177417509885675,0.946732065644071,-0.47294882198093724,2.420976911225834
1.0992290475006217,2.0740679660333465,0.7816137508528387,-0.4862346630646712,2.269163310741111
1.1017159910470031,1.9228495541801283,0.602143109992487,-0.4946332518933225,2.074750295047745
1.1042029345933846,1.7141854538584083,0.4083201300826551,-0.49814468605800677,1.8312032184054023
1.1066898781397663,1.4815944742856157,0.21451000793634378,-0.506345871034533,1.5803552989287695
1.1091768216861477,1.220288197919435,0.04465474684011239,-0.5000832936162816,1.3195380377052133
1.1116637652325292,0.9254782070212971,-0.12997608660912618,-0.49372226507367145,1.0569604390851413
1.1141507087789106,0.6306833102190736,-0.2998056994178797,-0.5016280979073091,0.8598114001351909
1.116637652325292,0.3502687026643532,-0.4313152821561568,-0.5190124925621138,0.7603255908643036
1.1191245958716736,0.060292352751704914,-0.534081655441319,-0.5362987473835794,0.759272499781516
1.1216115394180552,-0.22488054475562674,-0.622470043374943,-0.5439101619334075,0.8566670756853075
1.1240984829644367,-0.47651958532661437,-0.6916920569406346,-0.5370584403051115,0.996965689047308
1.1265854265108182,-0.6946247845445865,-0.7225940973237157,-0.5253204977599424,1.1316392738666516
1.1290723700571996,-0.8887729648253014,-0.7008109691918436,-0.5134848474409086,1.2428676864796915
1.131559313603581,-1.0445989321740803,-0.679015123858445,-0.5015516003680087,1.3430571377865645
1.1340462571499625,-1.1716795093882602,-0.6476297696336388,-0.5134628853553806,1.4338414577189162
1.1365332006963442,-1.2652263094939695,-0.5970781149876894,-0.5444304124830541,1.50123428007405
1.1390201442427257,-1.3060857357455216,-0.5321485785112565,-0.5657238764125161,1.5195675579166183
1.1415070877891071,-1.3181998214683954,-0.45762957895386736,-0.5677665862646908,1.5064642369905314
1.1439940313354886,-1.2824149702929595,-0.37830953522325306,-0.5792890788963874,1.4571486188446774
1.14648097488187,-1.2514036358412686,-0.298976866384709,-0.6098682790517245,1.4238460395083026
1.1489679184282517,-1.1820702055154237,-0.21963158834013408,-0.6307738860760228,1.3577200376806455
1.1514548619746332,-1.0935683100672249,-0.1450621204680389,-0.6420060203953195,1.2763645238731
1.1539418055210147,-0.9954747737927094,-0.0800568823025194,-0.6627184168708666,1.1985719960525831
1.1564287490673961,-0.8734244045705364,-0.015039083571702694,-0.6833343915911279,1.109072700622141
1.1589156926137776,-0.732205623744203,0.03562604924036039,-0.7038540684293793,1.0162700627646684
1.161402636160159,-0.6101256760820671,0.06715009613663359,-0.7242775723981634,0.949389529068409
1.1638895797065407,-0.4880309666908575,0.09868665356861728,-0.7637586429256196,0.9117239410508914
1.1663765232529222,-0.35634470749932434,0.1254473012338999,-0.7839901807255458,0.8702638562089786
1.1688634667993036,-0.24379733717929042,0.12349000539715238,-0.794549120839326,0.8402352221105988
1.171350410345685,-0.13123526137942887,0.11675676537514468,-0.8145892060684563,0.8333129128565281
1.1738373538920666,-0.01387009588854582,0.11003596705304552,-0.8345337604070746,0.8418710654633695
1.176324297438448,0.06520251012294259,0.08896238288508895,-0.8543829155994569,0.8614730636317971
1.1788112409848297,0.1251361504709223,0.048747591817120295,-0.8741368044944036,0.8843927503289118
1.1812981845312112,0.1802960154739321,0.008545189248202245,-0.893795561040232,0.9118388993623199
1.1837851280775926,0.22589368199295534,-0.04122164949214957,-0.903782513639122,0.9324966551741822
1.186272071623974,0.25235232339308833,-0.08618773261985435,-0.9232514117045731,0.9609907333530998
1.1887590151703555,0.25488351618489813,-0.12156467513777924,-0.9617791990938649,1.0023785736306254
1.191245958716737,0.24785244998609476,-0.16650610879599892,-0.9619051742592362,1.007182548248919
1.1937329022631187,0.22647070095976612,-0.2066468422473693,-0.9763019130943906,1.023307051336882
1.1962198458095001,0.19073824841669018,-0.24677529757026928,-0.9906043460778484,1.0385451831135146
1.1987067893558816,0.14544347481606595,-0.29167989698668517,-1.0000242113928604,1.051798169823777
1.201193732902263,0.09058635912562285,-0.3126302396193399,-1.0093500549222956,1.060533398133092
1.2036806764486445,0.030955283463009187,-0.33835676457692676,-1.028158826923205,1.0828453735826469
1.206167619995026,-0.028661370223763694,-0.34970587790655383,-1.042085462099834,1.099571637277591
1.2086545635414077,-0.0978404301165634,-0.35146600239774806,-1.0511301061609846,1.1126435191402728
1.2111415070877891,-0.17179351460442732,-0.3532139643005099,-1.0600813091742385,1.1305067440301233
1.2136284506341706,-0.22657862896258713,-0.3453729767230631,-1.0641508155998736,1.1415066037894792
1.216115394180552,-0.2957146184766446,-0.3423082695139712,-1.0681271775669412,1.159964548775331
1.2186023377269335,-0.35047108543403427,-0.3344430560583169,-1.07679894822747,1.180753197910013
1.221089281273315,-0.3908480522091967,-0.3313541631598178,-1.1141082950325245,1.2262932253010879
1.2235762248196966,-0.43599915462219235,-0.31867640115731355,-1.1369597399613909,1.2587006640893288
1.226063168366078,-0.47155920541450264,-0.29162138716625563,-1.150141839203883,1.2768074905604285
1.2285501119124596,-0.48795142081076615,-0.26455435171862973,-1.158443149951994,1.2845528894347666
1.231037055458841,-0.5139062437602004,-0.25662892880131594,-1.1618638270743666,1.2961040032101294
1.2335239990052225,-0.5398468908108343,-0.24869152597257305,-1.1556156231110588,1.299511296213716
1.236010942551604,-0.5370429653899889,-0.2455305675253987,-1.163640711510503,1.3048985063018836
1.2384978860979856,-0.534224910928507,-0.22799246128369655,-1.1907276534211242,1.3248430708882264
1.240984829644367,-0.5218159444537311,-0.22001924508594506,-1.2033577844048349,1.3299512417310801
1.2434717731907485,-0.5046044931121656,-0.20724573033917304,-1.2158964741974003,1.3326592674717992
1.24595871673713,-0.4921673875280824,-0.18488353522138912,-1.2379206901797417,1.344938026125094
1.2484456602835114,-0.4653510385605432,-0.18166310128240504,-1.2502769807710745,1.3463824122822428
1.250932603829893,-0.4385206804666963,-0.17843083699784001,-1.2529655086267546,1.339425442716774
1.2534195473762746,-0.416464741018177,-0.16560995761214192,-1.2459864373517444,1.3241418884077814
1.255906490922656,-0.3800296315393898,-0.16714250173943856,-1.2341283348155958,1.302087509935641
1.2583934344690375,-0.3483689900707878,-0.16866328155813237,-1.2413333831081026,1.3002756722355093
1.260880378015419,-0.32627124484464964,-0.1701723193336222,-1.2628133453308337,1.315336112415953
1.2633673215618004,-0.30415961428429333,-0.16688123413633704,-1.2889915821934075,1.334863931730085
1.2658542651081819,-0.2868225269251651,-0.16357845180195252,-1.3246566652893943,1.3651887608463817
1.2683412086545636,-0.2694716048124792,-0.17462920493066614,-1.3554435538488079,1.3929599896211002
1.270828152200945,-0.2616836801020071,-0.1856683063239828,-1.366987208013981,1.4041385598575395
1.2733150957473265,-0.24430516517645534,-0.19190737554648374,-1.368864605435812,1.4036750915136935
1.275802039293708,-0.23170129580874355,-0.19813483892510986,-1.3658643213465105,1.3994742760060628
1.2782889828400894,-0.22866050127839538,-0.20435071958749784,-1.3819285451558194,1.4155463063274527
1.280775926386471,-0.23039440437074232,-0.215343444101884,-1.4026922406018905,1.4377064729379783
1.2832628699328525,-0.23690303133706186,-0.216747825874815,-1.4281555822693317,1.4638070342245257
1.285749813479234,-0.23860960193284547,-0.21335229171292003,-1.4487419389823142,1.4836802041814607
1.2882367570256155,-0.24030254601855688,-0.21952207518155387,-1.4548746804397652,1.4908372114016089
1.290723700571997,-0.2467702935978956,-0.23046879668220255,-1.4609191938115718,1.4994320040914115
1.2932106441183784,-0.27237808145761855,-0.2030968501704904,-1.4716640604909745,1.5103752039637337
1.29569758766476,-0.28360711332298694,-0.199655502764835,-1.482321056089157,1.5223570631875265
1.2981845312111415,-0.2852458196225857,-0.21056797189414223,-1.48331355375017,1.5250977500274308
1.300671474757523,-0.310813050846893,-0.20710386182052387,-1.4746417341064628,1.5212051163883995
1.3031584183039044,-0.33157841446153463,-0.20841681012293156,-1.4658825852734676,1.5172981135843637
1.305645361850286,-0.34275353467210135,-0.20493003457143022,-1.4953435161254252,1.5477495068059355
1.3081323053966674,-0.35870364910302627,-0.2062203663295854,-1.524717483243096,1.5798602947970102
1.310619248943049,-0.35548676895302456,-0.20749942671154198,-1.5396394606348753,1.5937115560007493
1.3131061924894305,-0.3570449387599065,-0.20876724046253692,-1.5592632463720104,1.613185271588787
1.315593136035812,-0.3729549932357022,-0.22438904239878887,-1.5740122194190675,1.6330830769463711
1.3180800795821934,-0.3840633473049102,-0.2304228408833251,-1.5838865661910102,1.6459939231066876
1.3205670231285749,-0.3999468359474326,-0.2364454676299319,-1.5793096672665108,1.6462329591733234
1.3230539666749563,-0.4206054876352592,-0.2472453511399122,-1.5746469206246836,1.6484999740740038
1.325540910221338,-0.41730891105039974,-0.2532457100607277,-1.5794753217177728,1.6531855336959898
1.3280278537677195,-0.4092107482090711,-0.2783885863883695,-1.593795060145382,1.6688727738281803
1.330514797314101,-0.4058878346171151,-0.28915518238071636,-1.6223947296099457,1.6972095664513338
1.3330017408604824,-0.4073401992691968,-0.29512233028330837,-1.6461209079894186,1.7212603729512939
1.3354886844068639,-0.41356787128859474,-0.3058668624458263,-1.6506085772536672,1.7289018471295614
1.3379756279532453,-0.40541726664513633,-0.3118119980400986,-1.6550115433808745,1.7322393284242557
1.340462571499627,-0.39725362467781083,-0.3273229729421536,-1.668906806469261,1.7464823788446238
1.3429495150460085,-0.3938653782111321,-0.31888098992681924,-1.677929350770679,1.752786903210946
1.34543645859239,-0.3808873469136911,-0.3152164950341412,-1.677290967927334,1.7486399288793484
1.3479234021387714,-0.37268477050045623,-0.3163295144827152,-1.6669918536459924,1.7371874222483739
1.3504103456851528,-0.3644692755288215,-0.3126432679501896,-1.666185817653437,1.7340008202848494
1.3528972892315343,-0.33708727871809246,-0.3089461851740838,-1.6700846538081997,1.7315479576647141
1.355384232777916,-0.3432112467142844,-0.30044988934948025,-1.6834769633372417,1.744178540737292
1.3578711763242974,-0.3493223865189792,-0.2919428104095343,-1.6919977349086235,1.7521738124995034
1.360358119870679,-0.3458439218556887,-0.2738481684231573,-1.705223974508817,1.7613601678455455
1.3628450634170604,-0.3471410931690202,-0.2605312001567808,-1.7231558821950532,1.7769776698555126
1.3653320069634418,-0.3532139310613484,-0.25199193251110774,-1.7266400454491908,1.780321842166544
1.3678189505098233,-0.35927406293260866,-0.23865358584067442,-1.7252534723753694,1.7783511830552439
1.370305894056205,-0.36053311629977786,-0.2348813971953012,-1.7333615750929532,1.7859719339076887
1.3727928376025864,-0.3569911221163544,-0.24067539375684266,-1.746176153129488,1.7984711463317953
1.3752797811489679,-0.36301332141215004,-0.23209358619781906,-1.7493322000558376,1.80161295799876
1.3777667246953493,-0.3690229387299573,-0.2235012118447246,-1.7571951300431756,1.8093826146098584
1.3802536682417308,-0.3654431987262756,-0.22926350811478713,-1.7793419546153153,1.8308927546698748
1.3827406117881123,-0.37621614941266324,-0.23501529259334308,-1.7774656527604105,1.8319811477126664
1.385227555334494,-0.3917650156705331,-0.24075659291590013,-1.7898736572535938,1.847996556670537
1.3877144988808754,-0.38814781253155645,-0.2416990334861433,-1.8069893683233396,1.8639441312428733
1.3902014424272569,-0.3940949916612102,-0.2522078520767508,-1.8240245901694347,1.8830786942250695
1.3926883859736383,-0.41439498823293575,-0.23876425334426887,-1.8409795309574868,1.9020875921870868
1.3951753295200198,-0.4203174142866768,-0.23967549183618164,-1.8387007862118665,1.9012973600559409
1.3976622730664012,-0.42143910853272903,-0.25015319230266053,-1.8459189852946025,1.9098702683928896
1.400149216612783,-0.4225485064680887,-0.25104376961769415,-1.8530575316342635,1.9171313022661602
1.4026361601591644,-0.4236456403756135,-0.24713565534084037,-1.855328232603286,1.919060840996148
1.4051231037055458,-0.42951894596380763,-0.2527940877555377,-1.8670965094734182,1.9324701165694225
1.4076100472519273,-0.4401684557253573,-0.24886548198554914,-1.8835741708477283,1.9502650985505157
1.4100969907983087,-0.44601739561597725,-0.24492667315827577,-1.8664542026941806,1.934572790869139
1.4125839343446904,-0.4374889916941954,-0.2505544964821351,-1.854044044707333,1.921367610134965
1.4150708778910719,-0.4385252933626985,-0.2513837706442512,-1.8559207172559997,1.9235227947186346
1.4175578214374533,-0.4347611235628028,-0.25699133101283245,-1.8672960313387108,1.9343878223951465
1.4200447649838348,-0.42619651529705355,-0.25301199643330063,-1.8881702018594702,1.9521386352358656
1.4225317085302163,-0.422408308308062,-0.26817621571190964,-1.9041782343410478,1.968817414017722
1.4250186520765977,-0.4281849391167316,-0.2737535978884513,-1.920108748161672,1.9862278266126105
1.4275055956229794,-0.4291612310604783,-0.2745325753214334,-1.931173556627689,1.997242800206325
1.4299925391693609,-0.4349140241751934,-0.2800899837654658,-1.913430860327475,1.9821246844443314
1.4324794827157423,-0.44065494863190713,-0.29042585240957663,-1.9051881035712697,1.976933400368133
1.4349664262621238,-0.43680723137656463,-0.3055402105170848,-1.911233907979474,1.9841800393704643
1.4374533698085052,-0.4377361160510591,-0.3206446841045456,-1.912414879117792,1.9879025606430234
1.4399403133548867,-0.4338648297892621,-0.3261624959410061,-1.9135196396949024,1.9890143478076374
1.4424272569012684,-0.4347702130989923,-0.3268820788285076,-1.9241252162757494,1.9995336655244367
1.4449142004476498,-0.4452407032596035,-0.33238026896071515,-1.939443425994833,2.017462943815345
1.4474011439940313,-0.44133431771958664,-0.3522339026018657,-1.940320876550743,2.020814144377903
1.4498880875404128,-0.42783949393946485,-0.36728939616413925,-1.9363345960835314,2.01676468659558
1.4523750310867942,-0.42869828275032795,-0.3583931661287978,-1.9370616132473994,2.0160445363824486
1.4548619746331757,-0.4247571051889232,-0.36385246888918754,-1.9377137472443149,2.016814761891839
1.4573489181795574,-0.4255928023014961,-0.36451372106249735,-1.9478680277404568,2.026866877648151
1.4598358617259388,-0.4168401986195122,-0.35558854929370476,-1.972313081579518,2.047002163981184
1.4623228052723203,-0.4128645386822395,-0.3514421935751382,-2.001472326136657,2.0736104299065157
1.4648097488187017,-0.4184542604734087,-0.33292107072230825,-2.016192372633377,2.0858983894006538
1.4672966923650832,-0.4144557854594321,-0.3239672274981653,-2.0308386560148985,2.097864154171581
1.4697836359114647,-0.41044595511198667,-0.31021548416703215,-2.050199805061947,2.113768854288667
1.4722705794578463,-0.4016364010243608,-0.31081948429855766,-2.0551224324243798,2.1169432592068502
1.4747575230042278,-0.4071807714731055,-0.3114140482826082,-2.059971974459531,2.122795191648006
1.4772444665506093,-0.4031370849328172,-0.3167876098519562,-2.0599602547033786,2.122807139134748
1.4797314100969907,-0.4038705865205974,-0.3221517961596705,-2.050299097146377,2.1143839807813154
1.4822183536433722,-0.4141697147920853,-0.3227182344189985,-2.050142342829636,2.116309816010043
1.4847052971897536,-0.4100924884593603,-0.3232753585432575,-2.0594902199566913,2.1246606252833233
1.4871922407361353,-0.4107925561947835,-0.3286116025044681,-2.0496125372475102,2.1160452883546172
1.4896791842825168,-0.42105835678639725,-0.3387269970123068,-2.044451540378411,2.1146650371347926
1.4921661278288982,-0.4217363124964623,-0.34883316951337573,-2.03921905553136,2.1113882764364003
1.4946530713752797,-0.41761486226372746,-0.3493533441904568,-2.019550102669866,2.091657847133339
1.4971400149216612,-0.42305925174165016,-0.3402875519227142,-2.0093869287367134,2.081444348969177
1.4996269584680426,-0.423704306735049,-0.33600103360527545,-2.032671781086126,2.103372673530177
1.5021139020144243,-0.4291268697226954,-0.32691701358599623,-2.0558860676346544,2.1254863272164957
1.5046008455608058,-0.4249617666533422,-0.3226123295475376,-2.064664809980833,2.1324896238590254
1.5070877891071872,-0.4255742434683151,-0.31829860926444686,-2.087738660001376,2.1543166326767405
1.5095747326535687,-0.42138752957722964,-0.3091874805633621,-2.0915890267989656,2.1559009729684164
1.5120616761999501,-0.4219784677399563,-0.30964418460352716,-2.100158159704735,2.1643959074229753
1.5145486197463316,-0.4321354974642124,-0.3053035426729478,-2.1086578885073077,2.1740260881832563
1.5170355632927133,-11.53701234152816,-6.932892588023588,-1.0923701361427867,13.504107742460516
1.5195225068390947,-8.17611211242486,-5.855931810987835,-1.3928243600956787,10.152866902897708
1.5220094503854762,-4.863085310408318,-4.678405715618396,-1.7075750914560892,6.960811121500231
1.5244963939318577,-1.693700038336375,-3.429044753281319,-1.988738531594116,4.3106900476505965
1.5269833374782391,1.2266987942285663,-2.1653097953115124,-2.2171613021545387,3.3330407560072546
1.5294702810246208,3.826285100903402,-0.9446617130900443,-2.426362461653113,4.628183036667082
1.5319572245710023,6.066751618483972,0.20895744519815462,-2.6019770357446372,6.604500201288822
1.5344441681173837,7.881060663784962,1.2524520180432042,-2.734428453741339,8.435452104800868
1.5369311116637652,9.274000603362698,2.1523031505304124,-2.8237169519275778,9.930401475648303
1.5394180552101466,10.22162938379366,2.889357197663656,-2.8985731868361437,11.01053217582012
1.541904998756528,10.709581758235382,3.4684025310053066,-2.925478572156889,11.631138483809794
1.5443919423029098,10.814472142873429,3.8702855054743512,-2.923586958419053,11.852395467849874
1.5468788858492912,10.536300500711262,4.090217685909437,-2.9024753898219355,11.669099037540848
1.5493658293956727,9.927739231219297,4.12819904042916,-2.857355700909334,11.125040007209414
1.5518527729420541,9.036672330492154,4.003383150393509,-2.793016533165895,10.27080643435924
1.5543397164884356,7.910983794570158,3.744500403764159,-2.7190349316915956,9.165047672080092
1.556826660034817,6.612922829400169,3.3563391718627584,-2.6497763451964857,7.875092105095989
1.5593136035811987,5.190373430915275,2.8819950525358324,-2.56608739943303,6.467663904124981
1.5618005471275802,3.710373208278639,2.321468013710577,-2.4775451403550086,5.029345186591389
1.5642874906739617,2.2351713672802425,1.703488443199276,-2.379361404229389,3.6822852427751127
1.5667744342203431,0.798286693738802,1.066363535419777,-2.2667480275922127,2.629170868480514
1.5692613777667246,-0.5476084132955874,0.43882367811443723,-2.16364726716526,2.274601215927243
1.571748321313106,-1.7737835714231591,-0.17434275760999052,-2.0748477666477694,2.735269056262106
1.5742352648594877,-2.841931591651529,-0.744405384078576,-2.009926573312825,3.5595673020159624
1.5767222084058692,-3.737687301636644,-1.2426338136488357,-1.9497303147600586,4.3949850352343205
1.5792091519522506,-4.441897125760869,-1.683393288593287,-1.9086244420745047,5.119288065816164
1.581696095498632,-4.964137908373537,-2.042741824652981,-1.8913975999387347,5.691471182092711
1.5841830390450136,-5.290044477267076,-2.301525840919831,-1.8788964166667679,6.067276449318
1.586669982591395,-5.429193676879211,-2.474110579757739,-1.8759095374020855,6.254310812107957
1.5891569261377767,-5.386373948370247,-2.570072880239393,-1.872860397550033,6.255070342540918
1.5916438696841582,-5.185527346223876,-2.5654707582236935,-1.884114449335227,6.084506662658056
1.5941308132305396,-4.855384328285233,-2.4794578594800467,-1.9144603385542869,5.778202717125162
1.596617756776921,-4.4198869491196096,-2.345553039765791,-1.9447446946098363,5.368337883606573
1.5991047003233025,-3.8790352467302367,-2.1254491050598485,-1.9749677603882283,4.8440629638917905
1.601591643869684,-3.2711364857217973,-1.8622417178121433,-2.0099181822935552,4.267089080777961
1.6040785874160657,-2.629709527416243,-1.579872927216111,-2.0400193969613785,3.6841620220496316
1.6065655309624471,-1.9739080232118817,-1.2735543625676107,-2.070060051175549,3.1310385200422157
1.6090524745088286,-1.327674027863527,-0.9432860565063022,-2.114405598542877,2.66893573242445
1.61153941805521,-0.7101611928410988,-0.6177984616165406,-2.153902669605305,2.3505957902468295
1.6140263616015915,-0.15488837961004578,-0.3162452238641853,-2.1741862983973963,2.202518447571803
1.616513305147973,0.34772118021323023,-0.03383797263497179,-2.2039871490038347,2.231504958662422
1.6190002486943547,0.797667448338796,0.21026964606307796,-2.2289402557888174,2.3766912601494408
1.6214871922407361,1.1662199665226205,0.42565440612369176,-2.25383426655514,2.5731341948811535
1.6239741357871176,1.4342250831301082,0.5883742581790923,-2.273881022617344,2.7520393823102642
1.626461079333499,1.6208363730587072,0.6936407661240724,-2.274715558796782,2.8779469998753364
1.6289480228798805,1.7212653945745926,0.75581910711663,-2.2802801366197674,2.9552824878013393
1.631434966426262,1.7403005125557625,0.7844860549771431,-2.2714213878673384,2.9670556728374065
1.6339219099726436,1.697095301813144,0.7604879635874724,-2.248139557734392,2.917637036584204
1.636408853519025,1.5724961105679778,0.6886132034150809,-2.220011698184152,2.806311476251964
1.6388957970654066,1.3952333202182559,0.5975921615137083,-2.201403264622943,2.6739425466607236
1.641382740611788,1.1796721021754797,0.4778479983599886,-2.2018913092546875,2.5432833731141886
1.6438696841581695,0.9258124178654945,0.32938068105726215,-2.2023224644744506,2.4116062082472163
1.646356627704551,0.6432310353307549,0.17613219329711605,-2.2170621860276416,2.315196201414038
1.6488435712509326,0.36065833587198753,0.018102502157071765,-2.226957106520773,2.2560452322818514
1.651330514797314,0.08767108748627786,-0.12555481201606344,-2.232007471940035,2.237254474841331
1.6538174583436955,-0.18530755513200778,-0.26920499212889926,-2.227425125044917,2.251273618522965
1.656304401890077,-0.44870082402793476,-0.4032712644970551,-2.2419407319258813,2.321693000316958
1.6587913454364585,-0.6785667413055044,-0.5229652587663747,-2.2659777321948695,2.4225194668125076
1.6612782889828401,-0.8749053456893635,-0.6330754112325789,-2.2612291456210976,2.505873318671445
1.6637652325292216,-1.052081885883295,-0.719236544918687,-2.246848831891917,2.5831196595443258
1.666252176075603,-1.1861543840461337,-0.7814486928166184,-2.2276254408033243,2.6419574914844617
1.6687391196219845,-1.2771228789548748,-0.82928869456615,-2.213136025536448,2.686397895772792
1.671226063168366,-1.339352619363297,-0.8531797765324032,-2.1938040260512466,2.708238777286424
1.6737130067147474,-1.3728436440793292,-0.8483335684067645,-2.188783302284861,2.719401011019851
1.6761999502611291,-1.3680191852845032,-0.8291153131671449,-2.183708890982839,2.7069342833530756
1.6786868938075106,-1.3296676851347662,-0.805101850475785,-2.1642158289365963,2.664589142203897
1.681173837353892,-1.2769427957596429,-0.7523511967567025,-2.1398811695802475,2.603018756526319
1.6836607809002735,-1.2050561526989767,-0.6900169983200612,-2.13464717634532,2.546566778352245
1.686147724446655,-1.1044309881833698,-0.62767609483807,-2.1245720794919922,2.47538918326953
1.6886346679930364,-0.9942209543755813,-0.5509633093834099,-2.119232932549737,2.4048251696972835
1.691121611539418,-0.8696376868463017,-0.464667078311392,-2.1377835957110793,2.3542098254278914
1.6936085550857995,-0.7402580311358626,-0.38794104793900264,-2.146705492662905,2.3036546359136043
1.696095498632181,-0.6252356394331386,-0.30642004134113554,-2.1603640803083604,2.269798626759532
1.6985824421785625,-0.5102053406919493,-0.22968089819369553,-2.1787596055981915,2.2494568730366975
1.701069385724944,-0.39516717383340005,-0.15772365153077583,-2.177950298885495,2.2191217519422173
1.7035563292713254,-0.2944863877450998,-0.1001251410252717,-2.1818784237258093,2.203937551826891
1.706043272817707,-0.22252823131943722,-0.05209699638667775,-2.1761790171069038,2.188147167185754
1.7085302163640885,-0.15056232357001673,-0.013639250641718892,-2.1847943425692176,2.1900185756653596
1.71101715991047,-0.10253072003708849,0.005671256545996872,-2.183782630435644,2.18619561995137
1.7135041034568514,-0.06406824970085687,0.020199702118780305,-2.1970861442132534,2.198112893752111
1.715991047003233,-0.04475175814477922,0.020369246422364373,-2.2151283241434463,2.215673964842169
1.7184779905496144,-0.04936968763290378,0.006179856448725651,-2.209178997158366,2.2097392149682147
1.720964934095996,-0.053980060507542754,-0.022368500803923386,-2.2079688300014,2.208741847980059
1.7234518776423775,-0.0729481256728696,-0.06048745501017638,-2.1971328594961026,2.1991755190366944
1.725938821188759,-0.12542753535198134,-0.10817703915747234,-2.171882929065161,2.1781895684237433
1.7284257647351404,-0.16832269860174207,-0.1367068663032529,-2.1657381086477887,2.1765667583164845
1.7309127082815219,-0.2016336543588987,-0.18438419598060918,-2.1786986448906003,2.1957644335278035
1.7333996518279033,-0.24930245815808758,-0.24642065783049816,-2.177245961143159,2.2052833903068962
1.735886595374285,-0.29696393896696527,-0.2940858648823128,-2.18053391721916,2.2202257185055503
1.7383735389206665,-0.3494065390292491,-0.3369566567174047,-2.1885627595873505,2.241747459165543
1.740860482467048,-0.40663029726238786,-0.3846098729059446,-2.1869675246874394,2.2574542978820036
1.7433474260134294,-0.4590584459364724,-0.42746873972505206,-2.1853252654881974,2.273567834090022
1.7458343695598109,-0.5019026206344392,-0.451168080119134,-2.1644826149596454,2.2672546984361173
1.7483213131061923,-0.5495280702122535,-0.479649943582094,-2.1531702391937095,2.2733647413644396
1.750808256652574,-0.5827812202747225,-0.48897234639110376,-2.165753594235813,2.2954774094260784
1.7532952001989555,-0.5968737063778671,-0.4887121280513105,-2.1735025061586555,2.306341455584504
1.755782143745337,-0.6061707773485085,-0.4884461280530492,-2.176417220862575,2.311452909013828
1.7582690872917184,-0.6202492786819361,-0.47859757258999247,-2.174497984149374,2.3113213292972024
1.7607560308380998,-0.6343208459005618,-0.4687433011210569,-2.167745041718039,2.306773023897889
1.7632429743844813,-0.6196550979125472,-0.45409494312762044,-2.156158639160463,2.2889287308628425
1.765729917930863,-0.6097708967766936,-0.44422933803480324,-2.1349506186368643,2.2643264771990417
1.7682168614772444,-0.5998798779751437,-0.42478130864837826,-2.1280632421137167,2.2514324752503785
1.770703805023626,-0.5851936769751489,-0.40053929103699826,-2.116343141554829,2.2319927544779974
1.7731907485700074,-0.570500735868963,-0.38586852789098325,-2.090213755440578,2.200763311643664
1.7756776921163888,-0.5414358834512382,-0.35682703531861115,-2.0688289420449415,2.1680709260689985
1.7781646356627703,-0.5123643684214259,-0.3469336692517868,-2.0617657528688085,2.152616602321714
1.780651579209152,-0.49765143946116425,-0.3274580424376441,-2.054659222674868,2.1392779730735683
1.7831385227555334,-0.4781435219913929,-0.2936117842036028,-2.0379327894053176,2.1137642161742867
1.7856254663019149,-0.4538406546950444,-0.26933694377709205,-2.0355287140995912,2.1028292548519354
1.7881124098482963,-0.44868489283665114,-0.259421957081861,-2.0570240476870794,2.121312286684579
1.7905993533946778,-0.4339458551366263,-0.25907845337802016,-2.064111807740833,2.125085458293415
1.7930862969410595,-0.4192003868564853,-0.24436444862085027,-2.090311061481298,2.145889857807588
1.795573240487441,-0.39966012327470457,-0.23922199194461413,-2.1212568427643976,2.171793261003607
1.7980601840338224,-0.39447871624849523,-0.24843951917760743,-2.1377957819602855,2.1880371243718537
1.8005471275802039,-0.3988678010099862,-0.25286344952128825,-2.1590817358320695,2.210128817238934
1.8030340711265853,-0.40325060944676283,-0.2572822187528394,-2.161172931086478,2.2134754645503723
1.8055210146729668,-0.4028387767417855,-0.2616958593027259,-2.1536464174948247,2.2065712529649484
1.8080079582193485,-0.4072091480133192,-0.2756812102150903,-2.1460792446468027,2.2016983317873455
1.81049490176573,-0.4115733583923527,-0.30402670718622415,-2.1193180420246254,2.180214170963933
1.8129818453121114,-0.4207198496234732,-0.31800196264219727,-2.102093472123995,2.1672395819700694
1.8154687888584928,-0.4346486601032298,-0.31760700890231774,-2.108770987286105,2.176398113088004
1.8179557324048743,-0.44857142487943713,-0.3267838948582882,-2.1058320064514984,2.177735630546707
1.8204426759512558,-0.46248818229111743,-0.33595584612990814,-2.0980651749217376,2.17454342967143
1.8229296194976374,-0.46682216400687987,-0.3451228949473477,-2.080682331152362,2.1601554825045652
1.825416563044019,-0.47593861826639816,-0.35907347683026014,-2.0776257333114803,2.1614763514409234
1.8279035065904004,-0.48983758331726623,-0.36344241398572974,-2.0841072194321217,2.171528067606533
1.8303904501367818,-0.49415388741428656,-0.3630181418701892,-2.0953386273302286,2.1832118996917504
1.8328773936831633,-0.4984643753813026,-0.36737749922796237,-2.11132019792111,2.200251335328057
1.8353643372295447,-0.47403866544646567,-0.3717321148094843,-2.098533348653122,2.183286430344925
1.8378512807759264,-0.4639724256087392,-0.3617168106910702,-2.0713435299491216,2.1532704154201965
1.8403382243223079,-0.45868888730911084,-0.36127363547751523,-2.087211821882338,2.167341072475073
1.8428251678686893,-0.45818808859397897,-0.37519102445781494,-2.09346602792259,2.1756159218550257
1.8453121114150708,-0.43852805087231306,-0.3795269929640108,-2.0757411778621737,2.155237580236299
1.8477990549614522,-0.42843923203996703,-0.36470476625348835,-2.0675563344527106,2.1427456541116907
1.8502859985078337,-0.41834486339310484,-0.35945479611001074,-2.049758123674856,2.122670144121538
1.8527729420542154,-0.408244982830648,-0.36377711435882265,-2.0319235911798437,2.1042127352838684
1.8552598856005968,-0.40771643485363007,-0.3537297361864571,-2.0092645724030067,2.0805051164143125
1.8577468291469783,-0.39281724068172585,-0.3436779033042696,-1.9865697091615893,2.0539910163276724
1.8602337726933598,-0.38270105137760146,-0.33362164742449885,-2.002146466252654,2.065515424944522
1.8627207162397412,-0.37736790468219716,-0.31877259690036963,-2.0081110484415614,2.06797787388838
1.8652076597861227,-0.3672410316547232,-0.29913078336623755,-1.9948868867864427,2.0503460420037953
1.8676946033325044,-0.3523204699532356,-0.2986382550182829,-2.00078144527518,2.0533974073875405
1.8701815468788858,-0.34697146715434113,-0.2933530268093749,-2.006641347774922,2.057438868097279
1.8726684904252673,-0.34161725419003386,-0.2832751302532204,-2.002890024512837,2.0514666943612196
1.8751554339716487,-0.3506230785501923,-0.2779814034629329,-1.984739308752209,2.0345516281454823
1.8776423775180302,-0.3596237677585109,-0.27268347454898567,-1.9617662434294747,2.0130107613940686
1.8801293210644117,-0.3590425526140547,-0.27695818154057594,-1.9674898877912845,2.0190675688225097
1.8826162646107933,-0.3488794705109378,-0.27644034582264654,-1.9779684609456591,2.0274356666089988
1.8851032081571748,-0.3530765753986388,-0.2807068053385051,-1.978836988342831,2.0295948376689137
1.8875901517035563,-0.3668455012579433,-0.2658155747456066,-1.979672511732657,2.0308463248804465
1.8900770952499377,-0.38060947870188316,-0.2604971051806708,-1.9900520725595712,2.042799444043363
1.8925640387963192,-0.37521493165479936,-0.26953983113421653,-1.9956106953575166,2.04838961453379
1.8950509823427006,-0.38418072051579594,-0.2785785737703881,-1.9963486143090172,2.0519767634243604
1.8975379258890823,-0.3883532691112545,-0.2684597508874149,-2.0018428699213935,2.0567605050980178
1.9000248694354638,-0.39730942113952206,-0.2774906200811893,-2.0025168891014555,2.060322720229973
1.9025118129818452,-0.4062608102875147,-0.2769407924166827,-1.9935825017536466,2.0533181048678686
1.9049987565282267,-0.41520747351133175,-0.27159870215402115,-1.994193554057894,2.054986869086386
1.9074857000746082,-0.42414944771537244,-0.2854063967870841,-1.9804082619818661,2.045330401047781
1.9099726436209896,-0.4282983664313994,-0.3039986971992845,-1.9665920677228907,2.035519358644683
1.9124595871673713,-0.4372310730992046,-0.2986452142646794,-1.9479567998608758,2.0186370821450055
1.9149465307137528,-0.4413707978238255,-0.29807639865217794,-1.943656303237777,2.0153058194033564
1.9174334742601342,-0.44071757729682204,-0.2927154744188414,-1.9536908090715048,2.0240607968519866
1.9199204178065157,-0.4400598514753834,-0.2921392788531696,-1.9541185316322789,2.0242473334052042
1.9224073613528971,-0.43939765694111327,-0.29155943923246586,-1.9401512981221547,2.010538302827373
1.9248943048992788,-0.44351943354006956,-0.2861875827833198,-1.9309429519920762,2.001787577220654
1.9273812484456603,-0.4524252177415582,-0.28560054664209034,-1.9217053197355014,1.9947951237634614
1.9298681919920417,-0.4565382393172541,-0.29458676457321076,-1.917227034127361,1.9927287889247267
1.9323551355384232,-0.4462817279812342,-0.29878105700779933,-1.9175083242598916,1.991299996073568
1.9348420790848047,-0.45517454327222395,-0.29339505096509777,-1.917761015539437,1.9927548352711988
1.9373290226311861,-0.4544863015061583,-0.3023707933332731,-1.9323505462848303,2.007975231083546
1.9398159661775678,-0.4394286355412359,-0.30176629774398567,-1.9229699179195432,1.9954883435919235
1.9423029097239493,-0.4435204047382819,-0.29158159437663445,-1.9135613746560267,1.9858114991544118
1.9447898532703307,-0.4380312252336463,-0.2909703266376127,-1.8945483370863414,1.9661761077838145
1.9472767968167122,-0.42774953634487545,-0.29993252459737585,-1.875507838702454,1.9469100744998373
1.9497637403630936,-0.4174637773279809,-0.2945262016696977,-1.8803821225728505,1.9485529543080178
1.952250683909475,-0.40717398405656446,-0.29390500109562057,-1.8756525915347453,1.9417114736985301
1.9547376274558568,-0.3968801923415889,-0.28849214613834473,-1.8613194712769658,1.9249030571983017
1.9572245710022382,-0.39137084125113963,-0.2782876666453098,-1.8565366003759678,1.9176400364312567
1.9597115145486197,-0.39064596646925387,-0.2872336090087053,-1.851727397089686,1.914158240688425
1.9621984580950012,-0.38034039365476013,-0.2865995830400623,-1.8468920859170215,1.907303990733287
1.9646854016413826,-0.3891845782844767,-0.27638561841514386,-1.8420308909542058,1.9028745227341537
1.967172345187764,-0.38844813592613203,-0.27574535803290434,-1.841932439212144,1.9025358255242342
1.9696592887341458,-0.3637658920425014,-0.2751020248119662,-1.8513853572931342,1.906733984977597
1.9721462322805272,-0.35823351187370167,-0.27445564825270496,-1.846447851466042,1.900796364703684
1.9746331758269087,-0.37185103071009024,-0.26422945115559493,-1.8366969508274398,1.8924973133605656
1.9771201193732901,-0.3758880638526931,-0.24921186622236702,-1.836498087376814,1.891064149031348
1.9796070629196716,-0.3751330497767288,-0.25813334269623756,-1.8362746760918007,1.891893843137709
1.982094006466053,-0.3743744268889163,-0.2574750865958957,-1.826450131526867,1.8821184114397476
1.9845809500124347,-0.37361223020664003,-0.24723712712133405,-1.8118130777713723,1.8663812376817772
1.9870678935588162,-0.3728464946777508,-0.26093831665347,-1.8019405418061236,1.8585190421128268
1.9895548371051976,-0.3720772551800563,-0.2698482643475044,-1.7824675335786662,1.840774314753359
1.992041780651579,-0.37609294984112657,-0.2596017892575322,-1.7725478858441939,1.8305094928780439
1.9945287241979606,-0.38010521007685216,-0.2685061468986527,-1.7626050109987226,1.8230062935842366
1.997015667744342,-0.3793256672315702,-0.2821961561997206,-1.7478507243184893,1.8106641839102138
1.9995026112907237,-0.3785427592181869,-0.2815182327060781,-1.7474388572384534,1.809997153503094
2.001989554837105,-0.4304289570801868,-0.2616840018604405,-1.2921061020760973,1.3868257940149218
2.0044764983834864,-0.4200626155770758,-0.26100071892438725,-1.3012261135912269,1.3920356945769132
2.006963441929868,-0.4192698188870174,-0.2459495892904897,-1.3582080197254172,1.4425697232190033
2.0094503854762498,-0.3993201813875965,-0.23568425481006505,-1.4726288434743378,1.5439039432106403
2.011937329022631,-0.3793673505850236,-0.23499314730843723,-1.6061815741741476,1.6670214801220673
2.0144242725690127,-0.373776570590217,-0.23908789190487845,-1.7205592007019597,1.7768499958910062
2.016911216115394,-0.37297106883707515,-0.25275692029349806,-1.83012714799664,1.8847702397852208
2.0193981596617756,-0.3530088627226308,-0.2664234541413206,-1.9396740338921141,1.9894552198611115
2.0218851032081573,-0.34740880941125163,-0.28008752168949824,-2.015681249192996,2.0644885078418205
2.0243720467545385,-0.3561709427482599,-0.2889607477919851,-2.0581490074764357,2.10863306224647
2.02685899030092,-0.36493008654070014,-0.28825475723554295,-2.0910195384492205,2.1421081866488247
2.0293459338473014,-0.36889787115843936,-0.2971231913409156,-2.0855626348200254,2.138677005518899
2.031832877393683,-0.3680743302134001,-0.3059892714390533,-2.0465669120625893,2.101795487754993
2.0343198209400644,-0.3816131105200397,-0.30527621879265343,-1.9788209851709642,2.038272461481562
2.036806764486446,-0.39993743889177247,-0.30934927119735933,-1.8823250653367118,1.9490496602735663
2.0392937080328277,-0.3991053321014564,-0.31820845641892737,-1.7905981865089498,1.8619300613550096
2.041780651579209,-0.40305884004500836,-0.31270018887258466,-1.6796985423058484,1.7554557897263519
2.0442675951255906,-0.4165863992565857,-0.3071897061461084,-1.5639915524185888,1.6474159522246976
2.046754538671972,-0.42053442958782794,-0.3016770357963936,-1.4913614592885214,1.5786124421930945
2.0492414822183536,-0.41969136741055235,-0.2913738019897285,-1.4426548583781358,1.5304550227847036
2.0517284257647352,-0.41405724569443514,-0.27628003214209995,-1.4130835546140972,1.498191974078527
2.0542153693111165,-0.40842050064720825,-0.2707609635594874,-1.4074361590644884,1.4903004215857882
2.056702312857498,-0.38841595511266735,-0.27002822019535166,-1.4257128789755154,1.5021449354721426
2.0591892564038794,-0.37798565841399523,-0.26450502261125175,-1.4583371144488542,1.5295696140850377
2.061676199950261,-0.3675528365486519,-0.24461459129683938,-1.5244626850018346,1.5871099092039223
2.0641631434966428,-0.3571175220707667,-0.21993375995079756,-1.6097245864010699,1.6634653670576238
2.066650087043024,-0.35625655409072143,-0.21919297548052175,-1.6806042006210227,1.7318760844753376
2.0691370305894057,-0.3506047550325492,-0.2136618448768104,-1.7323133290450077,1.7803046223033274
2.071623974135787,-0.3449505605163361,-0.21291720161980665,-1.7840057891424834,1.8294811503921102
2.0741109176821686,-0.32971719611562583,-0.20738226583494246,-1.816528171302803,1.857820074908733
2.07659786122855,-0.33363511388045297,-0.19705706421450886,-1.8250922753564183,1.8657721429307845
2.0790848047749315,-0.337550732571316,-0.20588363997828862,-1.8049099006117384,1.847708938008478
2.081571748321313,-0.3318872775025293,-0.20513159974825834,-1.7847116690951257,1.8268617572185448
2.0840586918676944,-0.3405867971433897,-0.19958937331391935,-1.7405557657830943,1.7847603923577555
2.086545635414076,-0.34928411331309717,-0.2036221970304415,-1.667653988404835,1.7159636406343153
2.0890325789604574,-0.3579792577038031,-0.20765329057618276,-1.609102167361943,1.6614688751349467
2.091519522506839,-0.3810374718802239,-0.2212594868352138,-1.5361700827185096,1.5981125863126313
2.0940064660532207,-0.3849399641151954,-0.23007560201422006,-1.4727999505271256,1.539562682351036
2.096493409599602,-0.3840519757955429,-0.22931325888440401,-1.4237803730221579,1.4923910484238911
2.0989803531459836,-0.38316194157795486,-0.22376088678120754,-1.3891115485785281,1.4582568025972438
2.101467296692365,-0.39184669934954575,-0.22778372160402727,-1.3735820783503652,1.446429046163075
2.1039542402387466,-0.3957410703056108,-0.2270165792534482,-1.372403756308028,1.4462501831671284
2.106441183785128,-0.39963348883207106,-0.22145948551377037,-1.3855767791969829,1.4589634128962938
2.1089281273315095,-0.3939471792629183,-0.22547767605273972,-1.4083129398951986,1.4796553311915621
2.111415070877891,-0.3786821724814295,-0.2247059665384703,-1.4358240307314674,1.5018267564466952
2.1139020144242724,-0.363415305919783,-0.2287211891626093,-1.4776870534444253,1.538812235091077
2.116388957970654,-0.362511820238416,-0.24231177271820137,-1.5339022025789788,1.5946741930836685
2.1188759015170353,-0.36160653608347265,-0.23674732267755427,-1.5901044621640903,1.6477987687601385
2.121362845063417,-0.3559110806489574,-0.23596988095759963,-1.6415056223124598,1.6961412647923133
2.1238497886097987,-0.3454254843560749,-0.24955627943527547,-1.6737406659372667,1.7271377821877243
2.12633673215618,-0.3349381808528959,-0.25835292998631143,-1.6772329787113271,1.7297515099870358
2.1288236757025616,-0.32923760369368854,-0.2575714543678198,-1.6711363656667615,1.7226250916682446
2.131310619248943,-0.3426889929792231,-0.2567886842180189,-1.6458742113494012,1.7006698956107116
2.1337975627953245,-0.34177355551268057,-0.2560046444544364,-1.601446706379468,1.6574013076511276
2.1362845063417057,-0.34085653120557385,-0.2695845698752266,-1.5474308474497747,1.607296252350336
2.1387714498880874,-0.3447263532336708,-0.26879806531517847,-1.479038420722338,1.5422850931341443
2.141258393434469,-0.34380624471635757,-0.2680103654111017,-1.4345768416703706,1.4993475262695741
2.1437453369808503,-0.3476730419585051,-0.26722149475783974,-1.4044694919905734,1.4713321940668442
2.146232280527232,-0.3467499678876518,-0.2712198811892885,-1.3695629461639047,1.4385751380055107
2.1487192240736133,-0.3458254552958758,-0.27521714581722545,-1.34901100465696,1.4195669810079272
2.151206167619995,-0.354476340198859,-0.26963650635139436,-1.3284486441155945,1.401118525097261
2.1536931111663766,-0.3535490385933923,-0.2592663903805281,-1.298299243925726,1.3703273005561014
2.156180054712758,-0.3621971929414373,-0.25368362873150563,-1.2825050061335457,1.356599159965333
2.1586669982591395,-0.35169041240421567,-0.25288824550818223,-1.2954313255610295,1.365935917288238
2.161153941805521,-0.341182339248143,-0.2520918614114902,-1.3131363698824376,1.379957543228331
2.1636408853519025,-0.3354614056804792,-0.24650609705953253,-1.345197129427378,1.4081388168814553
2.166127828898284,-0.32973923716934644,-0.23613097630768243,-1.382036980655739,1.4403166382435055
2.1686147724446654,-0.3192274590840645,-0.2257549262483649,-1.4188677027576961,1.471753041541812
2.171101715991047,-0.3182913099761143,-0.21537797057022967,-1.4317474610505574,1.482429701685034
2.1735886595374283,-0.31735401169604155,-0.20500013287825247,-1.4350416468209666,1.4839417614348294
2.17607560308381,-0.31641559263536373,-0.21377504997478303,-1.4383272474405437,1.4881545181816302
2.178562546630191,-0.31068767776535594,-0.20818392205465308,-1.4368160397237535,1.4846911162005174
2.181049490176573,-0.3097471019180264,-0.19780357911123048,-1.4352966065279382,1.4816024675217183
2.1835364337229546,-0.30880548986397033,-0.19221085105340618,-1.4194039168299817,1.4652690268155861
2.186023377269336,-0.3030744662730397,-0.19140576106477658,-1.3939265522873363,1.4392781283154186
2.1885103208157175,-0.31649607563595333,-0.1905999289237621,-1.3636530939552856,1.4128155787124252
2.1909972643620987,-0.31555152249841056,-0.18021657100342292,-1.3285837189652643,1.3773835610006637
2.1934842079084804,-0.30981764118739485,-0.17940932351344774,-1.3030838138046015,1.3513704532636563
2.195971151454862,-0.3232364758890443,-0.17381299933591787,-1.2775767477526738,1.3292460737130711
2.1984580950012433,-0.3270776341640191,-0.1682160245485642,-1.2472742928013751,1.3003728585172891
2.200945038547625,-0.3213411433925781,-0.1674068251433205,-1.2217534302943385,1.2743494889461835
2.2034319820940063,-0.3156038374930651,-0.1618086170652271,-1.2105911409647234,1.2614748199544774
2.205918925640388,-0.3242309536013664,-0.16099822945442988,-1.2137875982931874,1.2666200988974778
2.208405869186769,-0.328068905508166,-0.16497568472414015,-1.2169777651862823,1.2711731055483053
2.210892812733151,-0.32711772018214685,-0.16416419856046316,-1.2297386205376561,1.2830483084389388
2.2133797562795325,-0.3261658278088202,-0.1633521965237934,-1.2424935293439603,1.2949356191722319
2.2158666998259138,-0.3204248518293566,-0.1721165074080213,-1.2552426626254327,1.3068780814854868
2.2183536433722955,-0.33383683550285903,-0.17130353999818437,-1.2679861907840397,1.322339183255753
2.2208405869186767,-0.32330617549988816,-0.17527852623436857,-1.285512686922532,1.337083510149626
2.2233275304650584,-0.2984097049100536,-0.1840414880084258,-1.2982455135619695,1.3447531501270569
2.22581447401144,-0.2974546766402331,-0.19759244712475432,-1.3013964359217756,1.3495016647806681
2.2283014175578213,-0.3108643102893581,-0.20635461865952154,-1.304542428559179,1.3568529013732016
2.230788361104203,-0.3051198087497639,-0.21032802424175978,-1.298106852125862,1.34996939780465
2.233275304650584,-0.3041632146522932,-0.2143010887329102,-1.286878276608988,1.3395879652295501
2.235762248196966,-0.29841774728015263,-0.22306223690636307,-1.256491658087878,1.3105652216772183
2.238249191743347,-0.2974602390921477,-0.22224628016606562,-1.216523968615702,1.2719302532391106
2.240736135289729,-0.2869255058396703,-0.22621844974950367,-1.2052825995386964,1.2594471714443511
2.2432230788361105,-0.2763903797696275,-0.23019036352443756,-1.2036141017294373,1.2562110297918387
2.2457100223824917,-0.27543169302268505,-0.23895044591063996,-1.1779998154685867,1.2331437460273074
2.2481969659288734,-0.2888378743127647,-0.24292191127820706,-1.147593516928202,1.2080601196597018
2.2506839094752547,-0.29266693232529434,-0.24210478054897067,-1.1315489816472848,1.1935961443923866
2.2531708530216363,-0.2917072955607738,-0.24128747787607452,-1.1729620011323014,1.232539106626427
2.255657796568018,-0.29074739241271763,-0.24047002400321693,-1.1712762666452257,1.2305478338712723
2.2581447401143993,-0.28499884452685714,-0.24922924622545528,-1.1552223584603976,1.2156801619021986
2.260631683660781,-0.2936152900431397,-0.23883474518598513,-1.1535308562150721,1.2140368241101458
2.263118627207162,-0.28786633379088683,-0.23801696128223426,-1.151836709025682,1.2108868255321588
2.265605570753544,-0.2916940170151744,-0.2324107049392108,-1.150140075330624,1.209099800766803
2.268092514299925,-0.29073315429073454,-0.2268043997734388,-1.1340759029674672,1.192515893584612
2.2705794578463068,-0.28977217336554184,-0.23077487263191054,-1.1371631723360895,1.195978693293799
2.2730664013926885,-0.29359950187940353,-0.22995693367010395,-1.145036829991552,1.2042384319078565
2.2755533449390697,-0.2926383574028652,-0.22913900623468209,-1.138543418526023,1.1976739991627887
2.2780402884854514,-0.29167716735893184,-0.22832111026182567,-1.1272598998101095,1.186558460873134
2.2805272320318326,-0.2859275524213545,-0.22271486227713044,-1.1159748317498241,1.1733525898943744
2.2830141755782143,-0.2753895364754202,-0.21710868535644234,-1.1094767716060776,1.1635782246118196
2.285501119124596,-0.2744283532584325,-0.20671419584450845,-1.1029774693532346,1.1552493141035152
2.287988062670977,-0.27346721979706945,-0.1963198166361395,-1.1060538842798717,1.1561492056123976
2.290475006217359,-0.27729456296974503,-0.1811371638948467,-1.085187345144261,1.1346076506254046
2.29296194976374,-0.27154519626428625,-0.17553146697465083,-1.0547432132595276,1.1031914319054132
2.295448893310122,-0.27058435298092565,-0.16034913189653865,-1.053028865891351,1.0989984206442267
2.2979358368565035,-0.288777266310298,-0.14995538783275375,-1.0369488232103556,1.086803473418751
2.3004227804028847,-0.2973935394504931,-0.14435025390359257,-1.0208684445804437,1.0730574515136728
2.3029097239492664,-0.2916447920913239,-0.1387453458179393,-1.0287298953549726,1.0782356668823305
2.3053966674956476,-0.28110785377356534,-0.13792908583412977,-1.0365913070323263,1.082851603862323
2.3078836110420293,-0.28972476388883733,-0.13711308947861944,-1.015722407138048,1.0650973882603998
2.3103705545884106,-0.298341931835755,-0.13629737550684595,-0.9948537623882476,1.0475299000026665
2.3128574981347922,-0.2973825735432368,-0.13069355926252912,-0.9931391322045826,1.044912693671571
2.315344441681174,-0.29163511479072096,-0.12987846595885166,-0.9818482421511447,1.0324463311543677
2.317831385227555,-0.2906763845674251,-0.138640517397139,-0.9705580436994694,1.0225932083673728
2.320318328773937,-0.2897180017910019,-0.1330377153652309,-0.9736338909857558,1.0244991498031777
2.322805272320318,-0.2887599885886849,-0.11785848148116784,-0.9767107175681087,1.0252983850953798
2.3252922158666998,-0.2878023669768802,-0.12662165719313023,-0.9797886663087745,1.029003924742251
2.3277791594130814,-0.2868451588610732,-0.1353852440137593,-0.9732910727720494,1.0236722238082199
2.3302661029594627,-0.2906767893560458,-0.13457245332477097,-0.971583288465915,1.0230233758279563
2.3327530465058444,-0.28014366686392245,-0.13854851301754412,-0.9603002443181001,1.0098775786107639
2.3352399900522256,-0.27439942623813857,-0.1473134409305552,-0.9538072905193342,1.0033666540435024
2.3377269335986073,-0.2830208955802365,-0.14650204484932994,-0.9473161633197247,0.9994856626119644
2.3402138771449885,-0.2724892729976065,-0.15526795570952112,-0.9408270016298488,0.9917227379488631
2.34270082069137,-0.2715349996502684,-0.16882278775311432,-0.939128347020306,0.9920657447351444
2.345187764237752,-0.2705812900242528,-0.16801294516900445,-0.9326435304400249,0.9855285582504372
2.347674707784133,-0.2648397618143347,-0.1672036552960834,-0.9117958821767829,0.9640896703817455
2.350161651330515,-0.2590988392442806,-0.17118333874038782,-0.9053159584192958,0.9570960915857342
2.352648594876896,-0.25335854310584605,-0.1847404160156838,-0.8988386848115031,0.9519614246323416
2.3551355384232777,-0.25719570071965164,-0.19350969426218523,-0.88757579297563,0.9441326276103562
2.3576224819696594,-0.2658219293335612,-0.197491190488702,-0.8763158205118167,0.9367995974137479
2.3601094255160406,-0.26008363612263014,-0.18710811497105828,-0.8698473043571564,0.9269774956082822
2.3625963690624223,-0.24955764807185632,-0.2006677110957975,-0.8825355874259806,0.9388373730635693
2.3650833126088036,-0.2486091953745761,-0.20943957567267013,-0.8952271887267216,0.9524196487464396
2.3675702561551852,-0.25244989483085023,-0.2086353220205468,-0.8935570299241409,0.951684723383525
2.3700571997015665,-0.2515029598083577,-0.20783177332675962,-0.8823136452999236,0.9407046047931037
2.372544143247948,-0.2553452168439168,-0.21181734936584817,-0.8758623751118222,0.9365909829770747
2.37503108679433,-0.25918828240125946,-0.21580366317922017,-0.8598381390308809,0.9236186508011701
2.377518030340711,-0.25824377283193245,-0.2245791343563881,-0.8533946793052518,0.919460772660394
2.3800049738870928,-0.25730011101588973,-0.2237785691130778,-0.8613205275568365,0.9263656115777792
2.382491917433474,-0.2515689130802123,-0.213401983533406,-0.8644621981404477,0.925268726704932
2.3849788609798557,-0.2554154083209546,-0.22217981353080818,-0.8436662047451726,0.9090509146233055
2.3874658045262374,-0.2592628093203113,-0.20701644512147643,-0.8276630935972946,0.89168335711195
2.3899527480726186,-0.2535343285481537,-0.1822771040727913,-0.8212413936554555,0.8786023133788581
2.3924396916190003,-0.24780679164326136,-0.1766922260204824,-0.8291896332120565,0.8832801348082865
2.3949266351653815,-0.24686862081174793,-0.17110821330459736,-0.8371427266118605,0.8893987189786853
2.397413578711763,-0.2459314315067322,-0.15115987149293986,-0.8307355875331126,0.8794618764600877
2.3999005222581444,-0.2402068390689528,-0.1360008293029118,-0.833910355549925,0.8784088069913574
2.402387465804526,-0.2344832653673859,-0.12563110207812134,-0.813148329725923,0.8555558320079255
2.404874409350908,-0.24312593879924022,-0.11047389842899369,-0.7828148416610485,0.8271117099134336
2.407361352897289,-0.24219286108683014,-0.10489444347497923,-0.7572752222883476,0.8019513629424272
2.4098482964436707,-0.2364724537619513,-0.1041043489617497,-0.7413179952333024,0.7850536968371467
2.412335239990052,-0.24990675152525915,-0.09852682322215012,-0.7397316834544103,0.7869967489503704
2.4148221835364336,-0.23940014248065022,-0.09773868777777706,-0.7429395992822165,0.7866540074835302
2.4173091270828153,-0.23847146774464784,-0.09216315077649728,-0.7365766510599343,0.7796844555177475
2.4197960706291965,-0.2471207450792176,-0.10095384019558695,-0.74458497302623,0.7909912278623672
2.4222830141755782,-0.2414059755324236,-0.10016875403708125,-0.7478110688699466,0.7921691858640517
2.4247699577219595,-0.24048078992280392,-0.08023110017153545,-0.741466651573873,0.7836075772686236
2.427256901268341,-0.2443452056753363,-0.08423652290055861,-0.7159750301335368,0.7611968307222631
2.429743844814723,-0.2386340301417702,-0.09303142326934033,-0.6857015294791324,0.7319751591326334
2.432230788361104,-0.2281356838428475,-0.09703900887136285,-0.684165087155284,0.7276979634212105
2.4347177319074857,-0.23200379714800146,-0.09625929384844234,-0.6778469935555034,0.7228887606094913
2.437204675453867,-0.23587317707227873,-0.10026909889075597,-0.6715357649691551,0.7187839254513438
2.4396916190002487,-0.23016703383886417,-0.09949163131501049,-0.6700199170190739,0.7154034787238245
2.44217856254663,-0.22925059416036897,-0.10350371162697769,-0.6685111580210563,0.7142660720222518
2.4446655060930116,-0.22833547135605664,-0.1075169502793436,-0.6765864055855779,0.7221261290799382
2.4471524496393933,-0.22742168195344675,-0.10195455431238454,-0.6607269467741883,0.7061695623298364
2.4496393931857745,-0.2265092423680462,-0.11075855391650347,-0.6448749078262388,0.692414284144775
2.452126336732156,-0.22080976558308374,-0.1147753493072825,-0.6338188010340495,0.6809233480574044
2.4546132802785374,-0.22947688107143405,-0.11400495388959042,-0.6323471380243735,0.6822900200246643
2.457100223824919,-0.22856858831129478,-0.10844738097638862,-0.6404600264382552,0.6886170775318795
2.459587167371301,-0.2180849032706172,-0.10767945042940053,-0.6342155566500391,0.6792534588621917
2.462074110917682,-0.22196785840715877,-0.11648957869822585,-0.6375558515722624,0.6850671616602151
2.4645610544640637,-0.22585225950448856,-0.13487777882040808,-0.6504810168512254,0.7016600399243311
2.467047998010445,-0.22973812219548229,-0.15326725710118172,-0.6490491408672661,0.705361782456182
2.4695349415568266,-0.23841386532175712,-0.15729281643382365,-0.6428371345787411,0.7034356991742401
2.472021885103208,-0.2327258910118763,-0.17089648618254438,-0.6366335049598479,0.6990487600834959
2.4745088286495895,-0.22703942452515746,-0.17492466573724919,-0.625649951680586,0.6881739612989747
2.4769957721959712,-0.23571969100955903,-0.16458896435733728,-0.624251787028955,0.6872725758581574
2.4794827157423525,-0.23003628561895545,-0.17340821777332893,-0.6228623060284697,0.6862540017834439
2.481969659288734,-0.21956602995851143,-0.19180563174163412,-0.6071163997197484,0.6734901370385602
2.4844566028351154,-0.21388574552227085,-0.17668558868524675,-0.6057445883639918,0.6662517660156194
2.486943546381497,-0.21778385037292514,-0.16156692406100115,-0.580439745076152,0.6406590154659952
2.4894304899278787,-0.22647195582158486,-0.15602645663309112,-0.5695091954346925,0.632435392453492
2.49191743347426,-0.21600805978725057,-0.16485260175438654,-0.5729530377944645,0.6341222640123495
2.4944043770206417,-0.2007573866406367,-0.15452654812434652,-0.552464143287132,0.6077817140914893
2.496891320567023,-0.1950851606417806,-0.1442019208750165,-0.5463498355090532,0.5977880532826357
2.4993782641134046,-0.19420299265887953,-0.13866713508674255,-0.5258797909123487,0.5774884684570293
2.501865207659786,-0.18853409012932754,-0.13313379910856904,-0.5245729284537859,0.5731024942124706
2.5043521512061675,-0.1924436769816915,-0.127601924519261,-0.5376409398686626,0.5851278494261845
2.506839094752549,-0.19635496043268824,-0.10770631284614574,-0.5219882896712669,0.5680032525147798
2.5093260382989304,-0.19069114758885214,-0.1069657987292647,-0.5159222981631828,0.5603397305282957
2.511812981845312,-0.1898174620482055,-0.10143837687458968,-0.5050778484650227,0.5490209888623837
2.5142999253916933,-0.1841571106972436,-0.09591246181974178,-0.5038202429622576,0.5449292421693193
2.516786868938075,-0.19286372023448461,-0.0855996613715857,-0.5025727667822792,0.5450716489791144
2.5192738124844567,-0.19678369068620755,-0.07528838988757736,-0.49654710771682,0.5393989180132716
2.521760756030838,-0.18634022860970317,-0.07934386827586293,-0.48574335622247844,0.5262743945372713
2.5242476995772196,-0.18547536369493978,-0.07861249411257099,-0.4749500054212721,0.5159055557154193
2.526734643123601,-0.19897751224126398,-0.06830587484503559,-0.468955547780892,0.5139815645629174
2.5292215866699825,-0.19811626719657993,-0.06757763443252962,-0.46297166847464766,0.5080940442611017
2.5317085302163638,-0.19725685128247777,-0.071639380143242,-0.44742164870237566,0.494194898691536
2.5341954737627455,-0.2059760837912365,-0.06612591251532995,-0.4270939789722821,0.4787567756954837
2.536682417309127,-0.2003319606640851,-0.06540245191951932,-0.41635395578126655,0.4666486812102981
2.5391693608555084,-0.20426651093663983,-0.0694690086764127,-0.41520166501397426,0.4679136387059992
2.54165630440189,-0.21777974693436225,-0.06874878637690962,-0.4284255952246845,0.4854924350046229
2.5441432479482713,-0.22171806759300489,-0.07281860180419475,-0.43208381439576726,0.4910782757653712
2.546630191494653,-0.22086988834156962,-0.08646686833229689,-0.4165995998211578,0.4793905020610661
2.5491171350410347,-0.21523522118056532,-0.07617477268401318,-0.415491858028906,0.4740910044689949
2.551604078587416,-0.20481407800248297,-0.0610959380169831,-0.39524184841467225,0.4493302114574859
2.5540910221337976,-0.20876008387317296,-0.07953760068159488,-0.37979166957053323,0.440623098368767
2.556577965680179,-0.21749644382888705,-0.07403893053363308,-0.3787182094810184,0.44296043672689883
2.5590649092265605,-0.20229274951704784,-0.0781187604265785,-0.3920215488441414,0.448001999990973
2.561551852772942,-0.2014562389620314,-0.08698869656330199,-0.3861829444705549,0.44417216948662713
2.5640387963193234,-0.21019852019812846,-0.0862835384180678,-0.3755676857296155,0.43895256401999116
2.566525739865705,-0.20457758787128222,-0.09515690861947501,-0.3889062713079561,0.4496164082636496
2.5690126834120863,-0.20374706640329576,-0.10882041310683821,-0.3831031494446133,0.4473508382590488
2.571499626958468,-0.20291856350762882,-0.12248565773188558,-0.37252360758025027,0.4415342772318096
2.5739865705048492,-0.19251528347081054,-0.1265758449385812,-0.3715329325141852,0.43717307652044674
2.576473514051231,-0.18690244707448694,-0.13066779036481746,-0.360977587163017,0.42697940769466713
2.5789604575976126,-0.18608006503308233,-0.14433830956131466,-0.36001126036611275,0.43019466035753057
2.581447401143994,-0.1804713413142927,-0.1532222013901885,-0.34948041376143735,0.42211788357933955
2.5839343446903755,-0.17965309306113098,-0.14774266794697288,-0.3437503315910675,0.4150511055851914
2.5864212882367568,-0.1788369273499169,-0.15184173448263394,-0.34282108749891194,0.41540926439908726
2.5889082317831384,-0.17323445115139302,-0.14636579627871793,-0.3371159478518795,0.40630073059508354
2.59139517532952,-0.17242248129184318,-0.1456800717724951,-0.3362117916626186,0.40495748445912616
2.5938821188759014,-0.16203581789077542,-0.1545729726742966,-0.3161666740669631,0.38744002884506734
2.596369062422283,-0.14686287424391936,-0.1443140873660993,-0.3104994894107378,0.3725656889299178
2.5988560059686643,-0.1412688701827885,-0.1388454406673003,-0.30963350152411095,0.36757020464518064
2.601342949515046,-0.1404654121529948,-0.1381670407098703,-0.31356878024593193,0.3703323414107323
2.603829893061427,-0.14445250981600216,-0.132702088899447,-0.3175169914637159,0.3732203261594797
2.606316836607809,-0.14365336608838253,-0.1224505931967399,-0.31190139711457654,0.3645722409684823
2.6088037801541906,-0.13806799042326073,-0.11220096479737318,-0.29672206514710986,0.34597082308504673
2.611290723700572,-0.14206160213082514,-0.101953211491419,-0.28155586952234657,0.3314357611904236
2.6137776672469535,-0.14126900049571522,-0.09170734098386779,-0.28076808689439403,0.327410881782704
2.6162646107933347,-0.14526700130065684,-0.0862517642151075,-0.27999357336923225,0.3270141734316346
2.6187515543397164,-0.15405561358448677,-0.07122127875951456,-0.26965558774787546,0.31862162297729474
2.621238497886098,-0.1436928296814114,-0.06098110202875562,-0.2641194048086053,0.3067986051189681
2.6237254414324793,-0.1381206750259113,-0.06989645135006128,-0.24901987878456566,0.2932127807767333
2.626212384978861,-0.1421275616685615,-0.07402531740392426,-0.22435707324754794,0.27571015164264095
2.6286993285252422,-0.14613669159657328,-0.0637909007476658,-0.209284664429374,0.26310697903002533
2.631186272071624,-0.14535967001524475,-0.05834682177657324,-0.20380271466039268,0.25703955295112363
2.633673215618005,-0.14458490866849422,-0.06248149084124588,-0.19833447901116763,0.25326922054812107
2.636160159164387,-0.14381241587813914,-0.06182970492745943,-0.19766842189508793,0.25214624404622415
2.6386471027107685,-0.15261900650505306,-0.056391470898525586,-0.19701620046787305,0.2555150531445962
2.6411340462571498,-0.1614278820275118,-0.05574360217515606,-0.20116627790988595,0.26388289381365326
2.6436209898035314,-0.1654506471429787,-0.055097702134079274,-0.19096510018504453,0.25860654073161077
2.6461079333499127,-0.16947571308864223,-0.04966537406915439,-0.18556633920596433,0.2561709057536313
2.6485948768962944,-0.17829149100101793,-0.053811834472801134,-0.17060484303038947,0.2525659948570236
2.651081820442676,-0.172744375314615,-0.04359507319243461,-0.16523428234667747,0.24298871922809878
2.6535687639890573,-0.16241118028560458,-0.04295711319626827,-0.15987790731085383,0.23191302314018097
2.656055707535439,-0.17123393003111448,-0.047109557448499206,-0.14974737078992817,0.23230291486632337
2.65854265108182,-0.17527061536540145,-0.05605241215168144,-0.14920793832397905,0.23690645912992916
2.661029594628202,-0.1745212436047749,-0.06499728010629102,-0.15825966488513288,0.2443940106060854
2.663516538174583,-0.1689858219662717,-0.05479055407028399,-0.17690260483964693,0.25070449625006225
2.666003481720965,-0.1682411642085216,-0.06852786988428816,-0.18598319866783264,0.2599825157041049
2.6684904252673465,-0.16749887403042607,-0.07269041018273104,-0.17592469288711676,0.2535532805968414
2.6709773688137277,-0.16675895835265192,-0.07206658408153377,-0.15151554337354334,0.23655676404580436
2.6734643123601094,-0.1612330206772517,-0.08102160725642626,-0.12233260872233664,0.21800425444458185
2.6759512559064906,-0.15092106772853459,-0.08997867870095355,-0.13147157017101918,0.21944955016660112
2.6784381994528723,-0.14539991277363223,-0.08936099732823832,-0.13104844527246762,0.2151748532854344
2.680925142999254,-0.1494579656618038,-0.0887453752524241,-0.13064009082584604,0.21744024112257554
2.6834120865456352,-0.15351842618406736,-0.09292022118731103,-0.14461176635439266,0.23046613124637033
2.685899030092017,-0.13363928407345832,-0.09709713712625145,-0.15859831086452125,0.2289994246605434
2.688385973638398,-0.11855096548965155,-0.09648772498296454,-0.1534461594485883,0.21658701794068438
2.69087291718478,-0.11783028321453598,-0.09109198991205592,-0.1387321665283654,0.20353953006286019
2.6933598607311615,-0.10753522669153387,-0.0904867436295329,-0.12882158925473775,0.1906480464373888
2.6958468042775428,-0.10203101183055319,-0.08988358781144923,-0.09977245762619624,0.1686532834954485
2.6983337478239244,-0.1156828544457415,-0.08928252737535924,-0.06595002761507907,0.1603224832943779
2.7008206913703057,-0.12454874369325786,-0.08389516383989859,-0.05608476456736433,0.16030062036021242
2.7033076349166874,-0.11426347527466191,-0.08329830860624465,-0.055811503360187587,0.1520186630181593
2.7057945784630686,-0.11355747467936023,-0.06833835307551173,-0.04118827164536931,0.1387872626639764
2.7082815220094503,-0.11764234405989177,-0.05338051181302328,-0.04094553301478321,0.13552024509714766
2.710768465555832,-0.11694128215405669,-0.05278999930633832,-0.050294927236077314,0.13781011285199724
2.713255409102213,-0.1162426975664465,-0.05220161004358648,-0.045294480214938204,0.13523669164323876
2.715742352648595,-0.1251234021280912,-0.046826945076183346,-0.04030944384020074,0.1395474106100941
2.718229296194976,-0.13400659429517164,-0.04145441201904676,-0.03533985946176976,0.14465524967042592
2.720716239741358,-0.12373866578992099,-0.04566082173049901,-0.03038576785292868,0.13534941056608354
2.7232031832877395,-0.11826163812434198,-0.049869371710922206,-0.03023561253202267,0.13185962821076644
2.7256901268341207,-0.12715232275672855,-0.044503259384228944,-0.03010102980290874,0.13803740534162048
2.7281770703805024,-0.13125711113102562,-0.053504505340266295,-0.029982058717280324,0.1448795539718957
2.7306640139268836,-0.13057600788021984,-0.06250790353034974,-0.025090334435445172,0.14692466341556557
2.7331509574732653,-0.12989742086569467,-0.06193665115030722,-0.0345795081496032,0.1480041590197476
2.7356379010196465,-0.12922135453688954,-0.061367558601619354,-0.04408440724151497,0.14969158519738984
2.7381248445660282,-0.13812461989252695,-0.0608006295697856,-0.029663051885483682,0.15380189798470703
2.74061178811241,-0.15181881787932533,-0.06023586766516509,-0.010469091573231282,0.1636670861658499
2.743098731658791,-0.14636193607200226,-0.05488487310289347,-0.0056561752325112735,0.1564166165870061
2.745585675205173,-0.14569599515791515,-0.05432445598436164,-0.015224337947318034,0.15623779948842798
2.748072618751554,-0.14982099913267938,-0.05376621637556589,-0.010443194318716209,0.15951864502946655
2.7505595622979357,-0.15873695190202125,-0.05321015758858971,-0.000889584950682476,0.16742022617094876
2.7530465058443174,-0.14850184068051892,-0.05265628286152202,-0.005717156529698286,0.1576647287413387
2.7555334493906987,-0.14784608911688235,-0.05210459535868672,-0.000983925302785238,0.15676199486371387
2.7580203929370803,-0.1471928942083311,-0.04197829153025001,0.018098479756943675,0.1541281286291899
2.7605073364834616,-0.15133066282432284,-0.04621939099526662,0.027588010308164712,0.16061849186063734
2.7629942800298433,-0.14589418846466956,-0.05046268673722487,0.0370614418038997,0.15876129077671186
2.7654812235762245,-0.14046028114264802,-0.030766165026161918,0.051307146927515035,0.15266980976909078
2.767968167122606,-0.13981734746343705,-0.030225458543890138,0.06553669227088399,0.1573452478777432
2.770455110668988,-0.13917698730410072,-0.029686956735805126,0.08453845161412765,0.1655243154240294
2.772942054215369,-0.14332760709514925,-0.024362258936117875,0.0795819760412666,0.16573959553083464
2.775428997761751,-0.13790399989897068,-0.028616577688405087,0.08418606034492981,0.16408447355899336
2.777915941308132,-0.13727137861326422,-0.023296302222415743,0.09835067661857089,0.1704670193173887
2.7804028848545137,-0.13185293944791276,-0.027555048258996795,0.09334537757522021,0.16388361065180074
2.7828898284008954,-0.12643708848779445,-0.027027608205648868,0.09311215299122644,0.1593320494603957
2.7853767719472766,-0.13060063505246583,-0.021713984359897687,0.10243937990003005,0.16739728058481693
2.7878637154936583,-1.939994826852734,-1.2470222355892133,-16.504009295573503,16.664362190394385
2.7903506590400395,-1.9776823861237753,-0.7006234822140796,-15.35507486544121,15.497755482892302
2.792837602586421,-1.8669320408754548,-0.13986174487541803,-13.167073345595407,13.299504390811562
2.7953245461328025,-1.6173206000879576,0.38737894120734717,-10.169848119560488,10.304930816967563
2.797811489679184,-1.2671552925792893,0.8523681541657369,-6.626761393572638,6.800454438718957
2.800298433225566,-0.8499549437634129,1.1928566489585277,-2.853847809862695,3.2077683384637576
2.802785376771947,-0.3944499756505684,1.3992676171371285,0.8424347965063053,1.680249098801714
2.8052723203183287,0.046687173230533174,1.4668126536422061,4.222666237481247,4.470417117696422
2.80775926386471,0.4447260810355099,1.381126546842498,7.076156745454815,7.223384671453679
2.8102462074110917,0.7757247293226767,1.1853049250189684,9.220946973263464,9.329124273193791
2.8127331509574733,0.9917990831311616,0.8937129965986972,10.55648043071126,10.640567063158759
2.8152200945038546,1.1073143507455114,0.5302927767177956,11.039661467962352,11.107721675826177
2.8177070380502363,1.1222705305711609,0.1572935071420356,10.69922048550502,10.759068332742746
2.8201939815966175,1.0318792177741956,-0.2109196034982701,9.621348724185937,9.678822917669716
2.822680925142999,0.8457172175626017,-0.5408277332242073,7.916179441968691,7.979575753544419
2.825167868689381,0.6020917551464695,-0.789335253349702,5.784825560412894,5.869392761453467
2.827654812235762,0.3201564425351232,-0.9612305683247782,3.3853043717090046,3.533659582117499
2.8301417557821438,0.01906489181742088,-1.0325716626114072,0.9187287984368293,1.3822555167570414
2.832628699328525,-0.2628756715570585,-1.0081469405272099,-1.399423026355601,1.7446629127385087
2.8351156428749067,-0.5256652486218136,-0.9023216129644911,-3.449441035518669,3.604046573554729
2.837602586421288,-0.7309966137692426,-0.7294608907499729,-5.102038354759974,5.205503300730651
2.8400895299676696,-0.8549277512741471,-0.5039299846449903,-6.261446932526652,6.339602872276021
2.8425764735140513,-0.9214006785363107,-0.25924771862696705,-6.8606291366872085,6.927078802870798
2.8450634170604325,-0.9208385896355218,-0.0002024966867875122,-6.899584981095712,6.960762649345858
2.847550360606814,-0.8436646785741013,0.2253216473667221,-6.416621705671711,6.475768220708871
2.8500373041531954,-0.7186093658397409,0.4077479063513785,-5.507507389683134,5.56913776299535
2.852524247699577,-0.5504610552417792,0.5327110698287929,-4.253644901943379,4.322069343391535
2.855011191245959,-0.3535849571536936,0.590634330744694,-2.769955934015881,2.8542121699287533
2.85749813479234,-0.1423462818730032,0.5910944953895942,-1.1761505802954009,1.3240035324621138
2.8599850783387217,0.04494774377720134,0.5388799667969653,0.393695855352437,0.6688858981974776
2.862472021885103,0.19872031297097625,0.43399074474297317,1.8486036994303028,1.9092337119528464
2.8649589654314846,0.3237598289184322,0.29079203902745965,3.097593278925995,3.128012876960473
2.867445908977866,0.40570108162316376,0.13801426947367723,4.0448965179901055,4.067533545953498
2.8699328525242476,0.444544071124086,-0.0195541606344527,4.633052567816925,4.654371911711042
2.8724197960706292,0.4259235875732359,-0.18191325127152025,4.862061419924439,4.88407049340579
2.8749067396170105,0.3642048411182258,-0.30596737246737504,4.741499872948491,4.765299806358368
2.877393683163392,0.28811825194091634,-0.38213971743290465,4.304886742602733,4.331407710823117
2.8798806267097734,0.17372180377276975,-0.43916070588025047,3.6144712649968778,3.645194633511829
2.882367570256155,0.04016911030070258,-0.4435115142966577,2.7229258700723875,2.759101541198789
2.8848545138025368,-0.083809408075462,-0.40476894899158156,1.7116534081629986,1.7608575492145062
2.887341457348918,-0.20779055744635788,-0.32772141289390566,0.6716335367126263,0.7756738024905551
2.8898284008952997,-0.3221975305498785,-0.24109932547396884,-0.31573089300942314,0.5114940177919683
2.892315344441681,-0.3982999067714077,-0.14490268622045788,-1.1977674491905042,1.2705457357168783
2.8948022879880626,-0.43609768534720283,-0.029554687922016765,-1.9122268929131208,1.961546930543219
2.897289231534444,-0.45474447872430357,0.085791056770121,-2.420802001400528,2.46463688529097
2.8997761750808255,-0.44945188267796193,0.18676933858398126,-2.6995507613770533,2.7430756631797983
2.902263118627207,-0.40106628295268376,0.26380335162652413,-2.7388963690700665,2.7806473512756096
2.9047500621735884,-0.3335296951062467,0.29773948342256595,-2.543627230211894,2.5826208284960908
2.90723700571997,-0.2564189246663895,0.30294294479717854,-2.166415783283771,2.2024718928491436
2.9097239492663514,-0.17452237377176438,0.2794137366723657,-1.640780853033447,1.6735267858236722
2.912210892812733,-0.078263234531602,0.23194026334799567,-0.9906644571171714,1.0204594485997698
2.9146978363591147,-0.0011603288699515435,0.17488773582186923,-0.31183466254768355,0.35753031098106075
2.917184779905496,0.06636315123967407,0.09867934854727656,0.3669781105933314,0.38576497420946104
2.9196717234518776,0.11473040060992684,0.008103505995109117,0.9883130227478585,0.9949830966235237
2.922158666998259,0.1391530174407235,-0.06810937070566503,1.5090744447613904,1.5170063046911435
2.9246456105446406,0.15399621327988322,-0.12517087697145968,1.8957435545612746,1.9061023600024642
2.927132554091022,0.14010637649933277,-0.18702302808470117,2.148320353756638,2.16099230728265
2.9296194976374035,0.10227191213847314,-0.22972380606900789,2.2668048443936257,2.28070970832627
2.932106441183785,0.0644348385835346,-0.2389079995333172,2.2368318189932737,2.2504767199695834
2.9345933847301664,0.012229947723454593,-0.2337292202736827,2.067978087111774,2.0811805036578477
2.937080328276548,-0.04955435520672824,-0.20939906342981152,1.7793972653777246,1.7923610768812632
2.9395672718229293,-0.10176445494654551,-0.17070593072753049,1.3902429708496147,1.4043760312227214
2.942054215369311,-0.153977156093272,-0.1272266271587572,0.9531876442561007,0.9738902732953338
2.9445411589156927,-0.19182724657885786,-0.0789611510208239,0.5065385167908438,0.5473699159555878
2.947028102462074,-0.22010312755305006,-0.021121097237173814,0.06944920679107369,0.2317642764341513
2.9495150460084556,-0.22922799014166595,0.022351519400367614,-0.3006194404220537,0.3787045152141197
2.952001989554837,-0.23356704200935952,0.04187989411395332,-0.5988790156300876,0.6441766558996536
2.9544889331012185,-0.22354347415689158,0.06619444874102198,-0.8109643025552398,0.8438106955361299
2.9569758766476,-0.19915728416368472,0.08092997528875889,-0.9081448745425043,0.9332418753428902
2.9594628201939814,-0.1604084695475454,0.08608647577752127,-0.8999975310846651,0.9182250891654357
2.961949763740363,-0.12645064104630754,0.0720871456390153,-0.8104642812227993,0.8234310367756316
2.9644367072867444,-0.0829185860946956,0.043720390317544044,-0.6682755369074194,0.6748178700052048
2.966923650833126,-0.04417751198880915,0.020139825269750666,-0.44948927315681075,0.45210382857310055
2.9694105943795073,-0.015015819323959123,-0.013019757238795115,-0.17804749778549223,0.17915328737202063
2.971897537925889,0.00935489800498912,-0.04139314496984836,0.08858895855500748,0.09822886614961747
2.9743844814722706,0.028934642842267932,-0.06019193227521891,0.3791505253815881,0.38498753637561883
2.976871425018652,0.038935014770887344,-0.07899292341740694,0.6649067927685124,0.6707136948019975
2.9793583685650336,0.044144420073202406,-0.09779611596833604,0.9027621412285178,0.9091162157598939
2.981845312111415,0.03977445844928895,-0.10702470080960635,1.0735629682729346,1.0796174049056981
2.9843322556577965,0.021036729657215314,-0.11146707873436279,1.1868860917302904,1.192294447013424
2.986819199204178,-0.0024919565263888943,-0.09196963388506729,1.233154716541181,1.2365820548318025
2.9893061427505594,-0.026023193587921822,-0.06768597691787503,1.2171572579985384,1.2193155411026146
2.991793086296941,-0.054345381597527886,-0.057769718440375595,1.1341053251440574,1.1368753886815253
2.9942800298433223,-0.08267011392816581,-0.03349043580879618,1.0031525440084703,1.0071102142160135
2.996766973389704,-0.10142058057630543,0.0003634704264170452,0.8386641376876796,0.8447744090102427
2.9992539169360852,-0.11538518144336929,0.024638389801608707,0.6645821363016964,0.6749742263524303
3.001740860482467,0.8091747344052673,0.29311970115813857,0.3564080674226222,0.9315093239097502
3.0042278040288486,0.6754949859290654,0.2886598488144485,0.36904026075963614,0.8220758471056238
3.00671474757523,0.5322359038603112,0.279409421666859,0.3912325151497722,0.7172221156549955
3.0092016911216115,0.3746090885170785,0.2605800194004564,0.42298484562597416,0.622213866238585
3.0116886346679927,0.2169797535527031,0.23217164506688537,0.44035525099330997,0.5430438594646261
3.0141755782143744,0.07371311267417158,0.20376110840437134,0.45292055367074546,0.5020848934350721
3.016662521760756,-0.06955604028011464,0.170560009235873,0.460680769806336,0.49614063647251105
3.0191494653071373,-0.19846249149694928,0.13256835075004192,0.44927070595494456,0.5087296879296677
3.021636408853519,-0.32258304371211954,0.10415134614156418,0.44742079892000675,0.5613311805876209
3.0241233523999003,-0.4323408863279533,0.08052059536868228,0.4455542593062276,0.6260357867209257
3.026610295946282,-0.5085824020543039,0.05209929511384637,0.44367110472073,0.6769153901299617
3.029097239492663,-0.5704612001120362,0.01888744874436421,0.441771353130445,0.7217649513519203
3.031584183039045,-5.9474701718974465,-11.353265599508198,1.2634603939538618,12.878873141143838
3.0340711265854265,-4.132299840591999,-9.198181403806121,0.9502812878637243,10.128448925474489
3.036558070131808,-2.331497199053307,-7.023945727252684,0.6514508507694217,7.429406502511008
3.0390450136781895,-0.6073114861823931,-4.907173019431174,0.37175750537744534,4.9585661159943
3.0415319572245707,1.0019500757698292,-2.8957473099616418,0.10641286810368733,3.0660365516385
3.0440189007709524,2.467557071244133,-1.0423410317397874,-0.15415984760872625,2.683109760130963
3.046505844317334,3.751202278088691,0.6003733823797246,-0.35249978148628713,3.815261829200682
3.0489927878637153,4.828943684160563,2.046761146067606,-0.49339531607562925,5.267956646724756
3.051479731410097,5.686416084007623,3.248938229874734,-0.5816348335817914,6.574893655538307
3.0539666749564782,6.31404267554405,4.192539427632942,-0.6315835225103594,7.605486145326597
3.05645361850286,6.697458253412221,4.896718356458614,-0.6384529577479583,8.321142944207566
3.0589405620492416,6.851028032223396,5.36626342354776,-0.6166083271266061,8.724309374288556
3.061427505595623,6.813059243237268,5.610751439457026,-0.5612612048632926,8.843829606415676
3.0639144491420045,6.573975084556855,5.644547618103833,-0.4771999714837669,8.677890644517253
3.0664013926883857,6.143352367612589,5.505959190046918,-0.34048258726214087,8.25665145851162
3.0688883362347674,5.569075130443186,5.223716579244064,-0.19420465862911307,7.638031693978714
3.0713752797811487,4.865508587890599,4.802608193090838,-0.03836616180678476,6.836643272655975
3.0738622233275303,4.085325181404366,4.285729665584366,0.12703292730651228,5.922288237573933
3.076349166873912,3.2333133192756285,3.692234614158988,0.2972042298138948,4.916832498755497
3.0788361104202933,2.3334150231211535,3.060430269568778,0.45778256049759847,3.8756449757061153
3.081323053966675,1.4478795411642356,2.4190470559653887,0.6039795410982158,2.883216105456194
