Time (s),Acceleration x (m/s^2),Acceleration y (m/s^2),Acceleration z (m/s^2),Absolute acceleration (m/s^2)
0.0,0.31119116695979404,-0.2951412749952569,-4.005873540974617,4.028767943289877
0.002486943546381497,-0.07213629649234188,-0.4038732521052455,0.8653986986804902,0.9577223797717083
0.004973887092762994,-0.44109842085084006,-0.5987957052928023,5.157271530753533,5.210621244676598
0.007460830639144491,-0.7382343637637785,-0.8559666742038989,8.635113092231233,8.708779882326377
0.009947774185525988,-0.9683325260445621,-1.1562326018253488,11.093021940081112,11.195073803849645
0.012434717731907486,-1.121816098546988,-1.4708631245227042,12.440018311019525,12.576802664769014
0.014921661278288981,-1.1699546588449812,-1.7902814919609509,12.642583281670078,12.822200035804103
0.01740860482467048,-1.1319018177170084,-2.1049109538220803,11.753389188487677,11.993915510146396
0.019895548371051976,-1.0076575726617523,-2.381232743202351,9.906511224440443,10.238388926047206
0.022382491917433474,-0.7972219211794066,-2.5857280932126727,7.28869701908995,7.774744806083924
0.02486943546381497,-0.5532672972951539,-2.7327622701805563,4.096271008710607,4.955151915368659
0.02735637901019647,-0.27579369851234226,-2.817546927164564,0.5878068728153121,2.891392358474116
0.029843322556577963,0.020833667703098913,-2.8257169105937545,-2.968544902365874,4.0984593371031375
0.032330266102959464,0.28873077064136804,-2.7524838735477544,-6.33815265376636,6.9160474256977995
0.03481720964934096,0.5231092094737393,-2.6217898890368287,-9.31990354148083,9.695773692171187
0.03730415319572246,0.7143921800493996,-2.4384234167975816,-11.73183833880222,12.003845040414848
0.03979109674210395,0.8386376682547769,-2.2119613198933425,-13.43030504550075,13.637051720754124
0.04227804028848545,0.8814804666150602,-1.9663456713536172,-14.333900904423375,14.494972861309684
0.04476498383486695,0.8524973842550918,-1.7207301408916558,-14.423472401491622,14.550746376888208
0.04725192738124844,0.7708420369383859,-1.4703263816220296,-13.766057282301025,13.865799299499402
0.04973887092762994,0.6221492171842733,-1.2390764665828908,-12.438270098993979,12.515308353932404
0.05222581447401144,0.4303609440725469,-1.0509224688129288,-10.56939784014043,10.630231384161121
0.05471275802039294,0.22420764000122623,-0.905864444748623,-8.307881107493554,8.360128465181798
0.05719970156677443,0.013266114084958258,-0.7991140475043266,-5.83089092262827,5.885409773523881
0.059686645113155926,-0.1976752278840922,-0.7594017534335871,-3.329963516978168,3.4211728315363787
0.062173588659537427,-0.37509756019409957,-0.7771508123232871,-0.9487510886693222,1.282493739949453
0.06466053220591893,-0.5094240737370532,-0.8427844739549695,1.1547289543177222,1.51762891194854
0.06714747575230041,-0.595866362727553,-0.9706680047052303,2.841612817392253,3.061374936455274
0.06963441929868192,-0.6392128280231644,-1.1320710410601746,4.020920739277392,4.225870498851981
0.07212136284506342,-0.6203098538822711,-1.2982632194970525,4.659133798652768,4.8762485022474875
0.07460830639144492,-0.5583110511281827,-1.4788214030455888,4.741886687594141,4.998411080523502
0.0770952499378264,-0.45800482062573833,-1.6641688414430682,4.288332921536412,4.622664339369602
0.0795821934842079,-0.31939115992197054,-1.844728784414421,3.3702984525569466,3.8553789256558373
0.0820691370305894,-0.14725846988677782,-1.9917708683898003,2.093128056096381,2.8930989109149845
0.0845560805769709,0.029662832005788675,-2.090929939745611,0.5190708778357216,2.154600304637576
0.0870430241233524,0.1922191349196693,-2.156571264764279,-1.227374693254733,2.4888142665692063
0.0895299676697339,0.3404104412973795,-2.1886948997502773,-2.978614638194591,3.71192804289149
0.0920169112161154,0.4598715436177845,-2.182512497669587,-4.624515777717916,5.134295357444416
0.09450385476249688,0.5506024443179156,-2.133235711468855,-6.0788869490287505,6.465811951444842
0.09699079830887838,0.5838727259101478,-2.0504414040351624,-7.250748585877604,7.55768300255108
0.09947774185525989,0.5740476007868213,-1.943706438233932,-8.073063138481004,8.32357337949885
0.10196468540164137,0.530703878017084,-1.817819273587459,-8.48836986355864,8.697041822259965
0.10445162894802287,0.44905315670622536,-1.6727799662737564,-8.506245664175074,8.680786649400611
0.10693857249440437,0.3338838425972008,-1.5373189923675867,-8.150632653214297,8.301062627897991
0.10942551604078588,0.20913795471121233,-1.411436407995565,-7.455049750057387,7.590366143589314
0.11191245958716736,0.07481549546485955,-1.280767059295933,-6.510476713783641,6.635681476627569
0.11439940313354886,-0.05471832276740507,-1.174041422261169,-5.393528093363853,5.520100782588723
0.11688634667993036,-0.16988669093455855,-1.0912595529321503,-4.171241630978708,4.314969947013801
0.11937329022631185,-0.2611127999887418,-1.0419983139595081,-2.9298086819386135,3.120531892702796
0.12186023377269335,-0.31881984088529725,-1.0262577613212285,-1.745843794759871,2.05007844711263
0.12434717731907485,-0.3573730211843683,-1.034461144321515,-0.7103267277642811,1.304756450667224
0.12683412086545634,-0.3576187252071915,-1.0666085188708925,0.11928158412595202,1.1312705164806391
0.12932106441183785,-0.30998014391894635,-1.1322767474850708,0.6998854161089714,1.3667398868114624
0.13180800795821934,-0.24797609817098454,-1.212312272721301,1.0075426568254642,1.5957240980751362
0.13429495150460083,-0.17160658557586572,-1.2971383437397455,1.0326764050403607,1.6668644997539481
0.13678189505098234,-0.07608320042926975,-1.3915434196226606,0.7896517762853517,1.6017901453914927
0.13926883859736383,0.024228849688392895,-1.4859507494513808,0.3119874995405585,1.5185430078933928
0.14175578214374532,0.11496435719320769,-1.5707835822661411,-0.3380672761229917,1.6108591958724754
0.14424272569012683,0.21048853441957893,-1.6412535703852438,-1.1174170147445093,1.9966570787856746
0.14672966923650832,0.27249415717488695,-1.7069375760445693,-1.9590241635887526,2.6125972953618346
0.14921661278288983,0.3201348411066354,-1.7486820415136393,-2.8150047830269394,3.3293583657015993
0.15170355632927132,0.35819899189772547,-1.756910215656994,-3.61832131997234,4.03822847276412
0.1541904998756528,0.3627445953054824,-1.750775767214325,-4.297147817839335,4.65427532456446
0.15667744342203432,0.33377165368505185,-1.7207019449556067,-4.846695966346241,5.153899542130656
0.1591643869684158,0.29043378266905456,-1.6666888042424826,-5.23823543842744,5.504662919807152
0.1616513305147973,0.2327309846050437,-1.6031016103474647,-5.433459100192523,5.669795082519192
0.1641382740611788,0.16545166515703508,-1.529940418530948,-5.43715544744783,5.650730156136417
0.1666252176075603,0.08380742334452984,-1.4567820906416706,-5.244536169171171,5.443748467147118
0.1691121611539418,0.0021634714643534725,-1.3740498751937298,-4.903485390674046,5.092365532508687
0.1715991047003233,-0.06990338151094311,-1.291320633927978,-4.41400320387324,4.599545602139199
0.1740860482467048,-0.1276047299331201,-1.2085944218890488,-3.8574925569374336,4.044407530226192
0.1765729917930863,-0.17094057147828667,-1.1450249073461327,-3.2578955579962976,3.457482636866359
0.1790599353394678,-0.20469930714693063,-1.0910353385887626,-2.6487311216231735,2.8719394964119775
0.18154687888584928,-0.2193041279827177,-1.065779383769455,-2.063518162192386,2.332828155076173
0.1840338224322308,-0.20038982171313968,-1.0644686943792028,-1.5453524005184214,1.887157577879398
0.18652076597861228,-0.16710999931205617,-1.0727381152073168,-1.1564831704944947,1.5862364701789013
0.18900770952499377,-0.12425306179660411,-1.100164507582527,-0.8681801427236877,1.4069603858424222
0.19149465307137528,-0.07181900686785614,-1.1323827161687845,-0.7091738274468522,1.3380493649940188
0.19398159661775677,-0.014596235551487036,-1.188546408807917,-0.6986179280564659,1.3787395059924772
0.19646854016413826,0.042626851122511966,-1.2399252200732565,-0.8029937112120695,1.4778465752764955
0.19895548371051977,0.09027344879948024,-1.2817308010732438,-1.0318780732447603,1.6479549447789315
0.20144242725690126,0.13313196308130293,-1.3379052227706643,-1.3613290870304446,1.9133560536152296
0.20392937080328274,0.1616255896045064,-1.3940833294972181,-1.7434628086287631,2.238136217004843
0.20641631434966426,0.18533113728240475,-1.435899965514949,-2.149548907164153,2.591662949864975
0.20890325789604575,0.18988339842225638,-1.4537783783354894,-2.5604338581835044,2.950482811413179
0.21139020144242726,0.184859181928354,-1.4620838320002618,-2.9473873303732017,3.2952927220786106
0.21387714498880875,0.16547008673949076,-1.4608163805169179,-3.2721021855574506,3.587201912343654
0.21636408853519024,0.13650451843048894,-1.4451876744989125,-3.5297901085793963,3.8166240460255527
0.21885103208157175,0.0979624792512262,-1.4199861711253843,-3.7012975740963228,3.965546759973926
0.22133797562795324,0.0450555681266086,-1.3804235208588644,-3.772259459859219,4.017155776623177
0.22382491917433472,-0.0030625994215971453,-1.3456533906864125,-3.742675853351754,3.9772371026434086
0.22631186272071624,-0.04160361783728961,-1.3108874309154581,-3.6269120517886115,3.8567664887777116
0.22879880626709773,-0.07535588820975692,-1.2569720818133816,-3.4345449488325936,3.658108299366987
0.2312857498134792,-0.09474260167214665,-1.212637816770552,-3.1847282445539307,3.4090996798118445
0.23377269335986073,-0.1093405626436863,-1.1730962858539735,-2.891827235467691,3.1226230983447767
0.23625963690624222,-0.1143613655875283,-1.1335591390484505,-2.5845724278134483,2.824544118662835
0.2387465804526237,-0.10980500829203288,-1.1083916395368045,-2.286905924272398,2.5437232304072097
0.24123352399900522,-0.09567148855048768,-1.097593840456673,-1.9892510040438633,2.2739799536098406
0.2437204675453867,-0.0671724008408292,-1.0963773915401105,-1.7394917859296992,2.057276643874594
0.24620741109176822,-0.029096146286608393,-1.0855887324719502,-1.571147178527962,1.9099353230921623
0.2486943546381497,0.008980470663284335,-1.0795931260919143,-1.4411216370673223,1.8006758563333505
0.2511812981845312,0.03748064555490582,-1.0783906251904831,-1.3781456663351435,1.750319004332716
0.2536682417309127,0.08034639717141073,-1.0867696857891413,-1.3917961575900257,1.7676595932958967
0.2561551852772942,0.11842411440802303,-1.1047303604987504,-1.4677079852399242,1.840820515481632
0.2586421288236757,0.14213699279544167,-1.1131190885576112,-1.5963044267624973,1.9512623741910784
0.26112907237005717,0.16106184114043381,-1.1263011323539094,-1.7632203560629396,2.0984377954678486
0.2636160159164387,0.16562185496330434,-1.1538533508622204,-1.958879050113083,2.2794769766570124
0.2661029594628202,0.1701822463806772,-1.1670453764003468,-2.1641269789889943,2.464630294536816
0.26858990300920166,0.15080100094140114,-1.1658772611126933,-2.355022209189741,2.6321360784810297
0.2710768465555832,0.11705492743121004,-1.1695026703286642,-2.5267764202374536,2.786761100239811
0.2735637901019647,0.09288604459143579,-1.1731332526788774,-2.6793896947149634,2.926431031472553
0.27605073364834615,0.06871754791585893,-1.1719806566957511,-2.8080737116236136,3.043606204976621
0.27853767719472766,0.030184229572553734,-1.1612565308125333,-2.903251746381864,3.127027105884916
0.2810246207411092,0.0012281082866654192,-1.1601145399638981,-2.9601354774644353,3.179350452376902
0.28351156428749064,-0.037304427104930094,-1.1398243157802956,-2.9547829697993198,3.1672280451116452
0.28599850783387215,-0.0710481645286507,-1.1147511196729352,-2.9063479179304057,3.113611427354633
0.28848545138025367,-0.09521469855705811,-1.0944718096296993,-2.805253596211365,3.012703457021985
0.2909723949266352,-0.1145924304088819,-1.0741980335735701,-2.6562884886870393,2.867560178195327
0.29345933847301664,-0.12439295466780032,-1.053929842642931,-2.4977599023732875,2.713861870156282
0.29594628201939815,-0.13419307588403218,-1.0384556911906189,-2.320091110810285,2.545431351783486
0.29843322556577967,-0.13441598533217913,-1.0134104201814327,-2.152012613826747,2.3824832899549486
0.30092016911216113,-0.12027327761281625,-0.9883708870739958,-2.0126781043354445,2.2454878809279926
0.30340711265854264,-0.09655335397283293,-0.9681255458979519,-1.8781456450896368,2.1151880972983887
0.30589405620492416,-0.08240982562577348,-0.9526744472530386,-1.7723573317676369,2.013859601183521
0.3083809997513056,-0.06826588386905474,-0.9468060449487856,-1.6857364365261844,1.934634138819013
0.31086794329768713,-0.054121526646491946,-0.9409435827223431,-1.618283037881893,1.8727370227047775
0.31335488684406865,-0.03518834858739328,-0.939875514159441,-1.5843624240302425,1.8425006085946805
0.3158418303904501,-0.025831557608145483,-0.9483902927325385,-1.583974672922384,1.84637135516595
0.3183287739368316,-0.02126274834974451,-0.9521227585186645,-1.6219082655450894,1.880844563912727
0.32081571748321314,-0.011905112138760332,-0.965438171401634,-1.6790096659975582,1.936823702097741
0.3233026610295946,-0.016912260229551057,-0.9787597745477137,-1.7648557580135673,2.0181606891950916
0.3257896045759761,-0.026707383960541065,-0.9825108110062843,-1.8555046017961399,2.0997471527278933
0.3282765481223576,-0.022136868035497193,-0.9862681369901973,-1.9413794672193845,2.1776522024211205
0.3307634916687391,-0.027142727046994053,-0.9900318019530139,-2.0320572371475656,2.2605654849071897
0.3332504352151206,-0.03214815235144097,-0.9985902585490485,-2.117961180871344,2.3417889682562354
0.3357373787615021,-0.027576335311295774,-1.0071551526715572,-2.1799377607471744,2.401510065886353
0.3382243223078836,-0.032580887216966725,-1.0061497267721706,-2.2371406653991794,2.4532014070757096
0.3407112658542651,-0.042373402763401624,-0.9955740298209563,-2.2799931632335593,2.488238730208068
0.3431982094006466,-0.03780026669073877,-0.9850049173055488,-2.2893417157186295,2.4925386734427053
0.34568515294702806,-0.03801509030777084,-0.9696540346287259,-2.27955160726642,2.4775047172818447
0.3481720964934096,-0.023864258366971924,-0.954309833709106,-2.250622912028378,2.4447045330036112
0.3506590400397911,-0.004924575548895249,-0.9389723630193587,-2.1834020905738853,2.3767494691449724
0.3531459835861726,0.014015556779986227,-0.9284300742259739,-2.0970428297327963,2.293418293354449
0.35563292713255407,0.03295614056725227,-0.9226830155477872,-2.0154872193521367,2.2168939500466087
0.3581198706789356,0.06147398439482732,-0.9073660251145097,-1.9339469290527376,2.1371108718739875
0.3606068142253171,0.08520388023676767,-0.8968443608487,-1.8667872414312328,2.0727962064718146
0.36309375777169856,0.10893423334204078,-0.8863296672618035,-1.8044314221761173,2.0133106326642105
0.36558070131808007,0.1278766423126364,-0.8710335887345715,-1.7564563499494419,1.9647368418265834
0.3680676448644616,0.1420311090644703,-0.8653213827974837,-1.7228620964638282,1.9331859028299294
0.37055458841084304,0.13703242554611578,-0.8644046935674248,-1.6892835231610501,1.9025383521852735
0.37304153195722456,0.14161101358252431,-0.8634951650281155,-1.6796627177343701,1.893923024977946
0.3755284755036061,0.14619006842969268,-0.8673812476699228,-1.679634541002466,1.8960205579701594
0.37801541904998753,0.15076959197776224,-0.8856397951687391,-1.6939874667521249,1.917467823501857
0.38050236259636905,0.1409843761494331,-0.8847520311820487,-1.7275099684559105,1.946009620252055
0.38298930614275056,0.14556484274368747,-0.8934484223949979,-1.75147169602897,1.971571025581808
0.385476249689132,0.14535738034983198,-0.9069406121133512,-1.7754495256326432,1.9989725010594528
0.38796319323551354,0.13078518419122154,-0.9204402435048831,-1.8281739463921998,2.0509839064542876
0.39045013678189505,0.11621346608617533,-0.9435241695595216,-1.880914607270812,2.1075063909956384
0.3929370803282765,0.10164222788545163,-0.9378852099245067,-1.904941156912308,2.1257376650901816
0.395424023874658,0.08707147143316218,-0.9322538305911081,-1.9289840834839076,2.144215063869196
0.39791096742103954,0.0772896018870628,-0.9266300774875966,-1.9482550515892942,2.1587762109833744
0.400397910967421,0.06750821775759336,-0.9210139964003514,-1.9436005155489067,2.151838075941619
0.4028848545138025,0.05772732086879018,-0.9106172296527788,-1.9293857526020624,2.13426464264838
0.40537179806018403,0.06710052631920366,-0.8954398227451743,-1.9103992330232415,2.110909800613473
0.4078587416065655,0.06210901267718716,-0.875481821033651,-1.881852620121096,2.076462191390146
0.410345685152947,0.05711799170743748,-0.8603200763700123,-1.8437459801984595,2.03538997203975
0.4128326286993285,0.06170427184753535,-0.8451662304994372,-1.8104445891920538,1.9989554734599884
0.41531957224571003,0.06150264492667279,-0.8300203283409875,-1.7627948994684246,1.949400466395797
0.4178065157920915,0.05651311272813209,-0.8053056080259298,-1.705585379666795,1.886990286557236
0.420293459338473,0.04194727370801321,-0.7901757274594967,-1.6436044980966162,1.8241636440300826
0.4227804028848545,0.032170339596776065,-0.779842327796727,-1.5960059326976204,1.7766327488198541
0.425267346431236,0.031970715477343425,-0.76951705004329,-1.5484245378358192,1.7293921378124544
0.4277542899776175,0.026983193144454964,-0.7591999383750796,-1.5104371841463653,1.6907197066317636
0.430241233523999,0.0076309677062083026,-0.7536794401374936,-1.491620741931154,1.6712340853134087
0.43272817707038047,0.0026444608262264913,-0.748167195883779,-1.4823984678767097,1.6605018409302876
0.435215120616762,-0.0071299390419891084,-0.7378748460149538,-1.477982021654924,1.6519506592957038
0.4377020641631435,-0.03126903681132909,-0.7371676440603445,-1.478371465922228,1.6522639254567124
0.44018900770952496,-0.036254007518907505,-0.7364688267940775,-1.4835668629984635,1.6567049595168502
0.4426759512559065,-0.03645005941202262,-0.7166248241953177,-1.5079334848270225,1.6699530353116754
0.445162894802288,-0.055799207385674676,-0.7063660992913285,-1.5323177797709242,1.6882133739474436
0.44764983834866945,-0.07035943313883741,-0.7104810983521008,-1.5423545991745335,1.6995856996756775
0.45013678189505096,-0.08013073497916445,-0.7002394442490454,-1.56677442392529,1.718004164557507
0.4526237254414325,-0.080324707901136,-0.6852179862589987,-1.5912121046873295,1.7343389834446208
0.45511066898781394,-0.09488336682826393,-0.6797819768213635,-1.6156677017444565,1.7554169054022586
0.45759761253419545,-0.10465309680842394,-0.6647778449749411,-1.6209876617572139,1.7551304377197268
0.46008455608057697,-0.10005708953731451,-0.6545708428416392,-1.6263256576059124,1.755963995659477
0.4625714996269584,-0.09546055331941072,-0.649161012422693,-1.6316817485461783,1.7586665590237445
0.46505844317333994,-0.10044029314610992,-0.6437599922386283,-1.5987487669269633,1.7264161722611502
0.46754538671972146,-0.10063109741450027,-0.624002614008305,-1.5801992078382696,1.7019210958527835
0.4700323302661029,-0.0864561578492562,-0.6042541292107644,-1.5760331295011145,1.690111873570324
0.47251927381248443,-0.08185748942452897,-0.6036681924830289,-1.5527317665480922,1.667960393426107
0.47500621735886595,-0.09162349384053015,-0.5887260217757158,-1.5150835798273867,1.6280268570272345
0.4774931609052474,-0.08223534624230167,-0.5737928680789643,-1.4918190464411598,1.600476483724296
0.4799801044516289,-0.068058254985355,-0.5828107888593133,-1.4685730132605297,1.5814572510692722
0.48246704799801043,-0.06824583175288035,-0.5774725982543836,-1.445345536768663,1.5579331872527158
0.48495399154439195,-0.06843286499326318,-0.5625667401191419,-1.4269250764195327,1.5353434690043637
0.4874409350907734,-0.0638309498029157,-0.5620352714237211,-1.3989464780357235,1.508976237349559
0.4899278786371549,-0.06401689124660559,-0.5615130224090619,-1.380563410331268,1.4917608275609533
0.49241482218353644,-0.06420228443559961,-0.5610000331097464,-1.362199121746988,1.4745946621916655
0.4949017657299179,-0.0500219178479947,-0.5700731500330813,-1.343853667012386,1.4606259846368845
0.4973887092762994,-0.05020620985216906,-0.5743672029163207,-1.3303155038247816,1.4498819562330654
0.4998756528226809,-0.050389948941177876,-0.5834590379291962,-1.33594989616903,1.4586725886810925
0.5023625963690624,-0.055361536896830765,-0.5829834844702084,-1.3320264777935353,1.4550701634201895
0.5048495399154439,-0.05075576222721134,-0.5777289850488603,-1.3281221086550072,1.4492257460668694
0.5073364834618254,-0.04136102672919151,-0.5772723853241399,-1.3050832284335598,1.4276541508812555
0.5098234270082069,-0.027177328886887064,-0.576825320822699,-1.2916403096571702,1.4148500795062728
0.5123103705545884,-0.027358280473236074,-0.5715994268992204,-1.2973702112167906,1.4179717364230746
0.5147973141009698,-0.027538670026578393,-0.5759599520171084,-1.2935425650845822,1.416241721020809
0.5172842576473514,-0.018141689413171513,-0.5707533212244917,-1.2993110360790396,1.4192595404154729
0.5197712011937329,-0.018320950428769245,-0.5655563793177318,-1.309887272059818,1.4268827355168006
0.5222581447401143,-0.018499644954888095,-0.5603691642783755,-1.3109061138881923,1.4257737115569722
0.5247450882864959,-0.009100964880697893,-0.5551917139132359,-1.302367612028137,1.4157973243439712
0.5272320318328774,0.0050866879360252915,-0.5739660824554154,-1.2986370265458742,1.4198313508720972
0.5297189753792588,0.009698104989195766,-0.5735966774778332,-1.299714407187551,1.420691642090175
0.5322059189256404,0.009521691046277758,-0.568448746220823,-1.2816577867381724,1.4020953327028076
0.5346928624720219,0.014134254187331607,-0.5680991324275402,-1.2588324241852327,1.3811572950198052
0.5371798060184033,0.009170585883124582,-0.5629710663825058,-1.2503919814761222,1.3713134683831698
0.5396667495647849,0.01857270415917811,-0.553064584832966,-1.2563365069161438,1.372809818928501
0.5421536931111663,0.027975400470753087,-0.5479565309883769,-1.2527240318478103,1.3676097699465841
0.5446406366575478,0.027801869585646566,-0.5380701345980259,-1.2347662005332651,1.3471970842004337
0.5471275802039294,0.02762891954511526,-0.5281938351927149,-1.2359818834351373,1.3443970027155998
0.5496145237503108,0.03224495506229863,-0.518327668803015,-1.2276407074896127,1.3329684977745477
0.5521014672966923,0.02728476756126641,-0.5084716712790835,-1.20974271919202,1.3125415595981407
0.5545884108430739,0.01753676173950447,-0.4938374749698662,-1.201441577955837,1.2990938591718202
0.5570753543894553,0.022154552247588333,-0.4792135186835509,-1.207525732870165,1.2993286020934003
0.5595622979358368,0.021984527165731516,-0.46459983772615043,-1.2184184226993935,1.304177818176319
0.5620492414822184,0.01702668784752126,-0.45478487054164907,-1.2245428858438245,1.3063783777464182
0.5645361850285998,0.02643464891990488,-0.44976865207091565,-1.225899166979973,1.306070211991453
0.5670231285749813,0.026266395119114105,-0.43039760379029746,-1.2081221004587217,1.2827669431653503
0.5695100721213628,0.02609873441565147,-0.42061377687522405,-1.1903653435081267,1.2627615547919409
0.5719970156677443,0.02114326481115225,-0.4252056090356864,-1.182205746350343,1.2565258749051111
0.5744839592141259,0.016188390939933295,-0.42023111787516054,-1.159701335599772,1.23359776435584
0.5769709027605073,0.02081092074866675,-0.42005554737453954,-1.1467941707081124,1.2214813249790757
0.5794578463068888,0.02064564557449433,-0.41989052804794413,-1.1434842941594354,1.2183146675694547
0.5819447898532704,0.02526937334813706,-0.41494769022353317,-1.1449833447511732,1.2181161630192898
0.5844317333996518,0.02989370203138264,-0.4243806806446333,-1.1273493476329577,1.2049519273124545
0.5869186769460333,0.02494182625770025,-0.42903591930525575,-1.1193127641110774,1.1989808082922577
0.5894056204924149,0.02956736057441367,-0.42412503597310414,-1.1112968285623275,1.189847433969251
0.5918925640387963,0.03419349959893847,-0.4144364668688483,-1.074571161715049,1.1522282595367928
0.5943795075851778,0.03882024458127231,-0.395181841384459,-1.0570198370551793,1.1291442047309632
0.5968664511315593,0.04344759676335519,-0.39509161196560694,-1.0442776845370059,1.1173633956471203
0.5993533946779408,0.04807555737905744,-0.3950121976659533,-1.0219795337470519,1.096716947493762
0.6018403382243223,0.04312732101354577,-0.3949436306311238,-1.0092790371460847,1.0846587537176966
0.6043272817707038,0.057333308806394256,-0.38530913617643625,-1.0061762335455366,1.0789535910647887
0.6068142253170853,0.06675150536563379,-0.37568555270838644,-1.0078827580682734,1.0776933942423947
0.6093011688634667,0.06180510525212102,-0.3804381217633228,-1.0096102454687816,1.080678436576563
0.6117881124098483,0.06164772294045939,-0.389990068085194,-1.006570330133023,1.0812384216503506
0.6142750559562298,0.06627935961586562,-0.39476461622673265,-1.0035514527189466,1.0804386026008312
0.6167619995026112,0.05654640317415777,-0.3995502005100211,-0.9861884402344927,1.0655540803223804
0.6192489430489928,0.05639087138580706,-0.4043468517448745,-0.9784233458812395,1.0601832627697354
0.6217358865953743,0.05623595877092741,-0.4091546005487934,-0.9706793992496312,1.054887892781386
0.6242228301417557,0.04650485984145203,-0.41397347734660794,-0.9533798295610811,1.040418108910659
0.6267097736881373,0.0415627857026859,-0.4092267057294965,-0.9504666889100832,1.0356548114913966
0.6291967172345188,0.036621334170482966,-0.3997027190562017,-0.9571516091000767,1.0379029764579217
0.6316836607809002,0.022103699732172966,-0.39497835381206103,-0.9686462215652583,1.0463135171040212
0.6341706043272818,0.012375093468426801,-0.39026523632741705,-0.975373754050219,1.0506255554259396
0.6366575478736632,0.007435516490746474,-0.371198186097597,-0.9916994505317991,1.0589198177636976
0.6391444914200447,0.007284969902392691,-0.3712960556263365,-0.9984697313752857,1.065296032182036
0.6416314349664263,-0.007230158482874782,-0.3714052606988858,-0.9861078232172176,1.053756509767173
0.6441183785128077,-0.016956254297056494,-0.35716062022544204,-0.9737673722466145,1.0373399242541885
0.6466053220591892,-0.012316509821048482,-0.3381389695220802,-0.966236814322178,1.023769134363357
0.6490922656055708,-0.022041343906525568,-0.3287055470291964,-0.9539393749722826,1.0092242013603707
0.6515792091519522,-0.03655394885095142,-0.32407197770963636,-0.9416634893168769,0.9965384914922599
0.6540661526983337,-0.04627751696008697,-0.30987307968902034,-0.9150439788253202,0.9671961627696949
0.6565530962447153,-0.05600045050893676,-0.3052624941382587,-0.8836576811992316,0.9365746837957543
0.6590400397910967,-0.07529955510113306,-0.29587503878887933,-0.8570814337709525,0.909835504743369
0.6615269833374782,-0.0802328131064447,-0.27692233781555675,-0.8496804768239272,0.8972626138293868
0.6640139268838597,-0.08037703014516095,-0.2723464351170759,-0.842301227030255,0.8888781720531835
0.6665008704302412,-0.09967422180684993,-0.267782147831678,-0.8349437139741944,0.8824812942466085
0.6689878139766227,-0.09981716052536671,-0.2536526962196013,-0.8323963701913097,0.8758920441141637
0.6714747575230042,-0.09517105526636138,-0.2491117202643678,-0.8155056112466763,0.8579997557740914
0.6739617010693857,-0.09531271168353739,-0.24458243982877104,-0.8034250788990356,0.8452200543556602
0.6764486446157671,-0.10024212879834704,-0.23527647789680417,-0.7865779946165254,0.8271084856610434
0.6789355881621487,-0.10995930564062462,-0.23555907053433955,-0.7697527894596057,0.8124644493692104
0.6814225317085302,-0.11009903128765575,-0.22627663036543888,-0.7529494907999439,0.7938865446875343
0.6839094752549116,-0.1006613047860605,-0.21221758641585886,-0.7313797223205185,0.7681700986676345
0.6863964188012932,-0.10079973847211332,-0.202958770831557,-0.7194087206173378,0.7542557638054732
0.6888833623476747,-0.0913607181280005,-0.2032886122378308,-0.7266133185980106,0.7600262860233592
0.6913703058940561,-0.09149785610682715,-0.20841873241876785,-0.7482051388412945,0.7820621174073785
0.6938572494404377,-0.0916343448482494,-0.18961873635608173,-0.7506653836363011,0.7796477643929214
0.6963441929868192,-0.09177018344098142,-0.180407471994513,-0.7387824814670587,0.7660079486812571
0.6988311365332006,-0.08232856434155211,-0.18078496383535914,-0.7221332637704929,0.7489577066158793
0.7013180800795822,-0.0680978899758744,-0.17159762289719316,-0.7246597715772314,0.7478066938357123
0.7038050236259636,-0.06344336941893924,-0.17199908655940854,-0.7272084156680663,0.7499605501084426
0.7062919671723452,-0.0539997918323214,-0.167624168757321,-0.7154140097772661,0.7367706867507033
0.7087789107187267,-0.034978753026689846,-0.1584728931850936,-0.7084301905146795,0.7267809201337232
0.7112658542651081,-0.030322268743055547,-0.1589104932955374,-0.7110453841628281,0.7292170617864211
0.7137527978114897,-0.030453531488722874,-0.1593601857374214,-0.7232596133177687,0.7412338056476974
0.7162397413578712,-0.016218927138857087,-0.15503359027716224,-0.7307076902487051,0.7471493801779937
0.7187266849042526,-0.0019836648192974593,-0.15071913311894836,-0.7238128301794884,0.7393410614504536
0.7212136284506342,-0.0021129536643820224,-0.15599364358424994,-0.7217286678904173,0.7383974210862022
0.7237005719970157,0.0025468204252377946,-0.1564919341897668,-0.7196668211950747,0.7364893382050798
0.7261875155433971,0.0072072549388424445,-0.15700243053007368,-0.7176273108624791,0.7346364168837652
0.7286744590897787,0.016656753997824292,-0.16231355799620717,-0.7203985606173458,0.7386455338676838
0.7311614026361601,0.026106915074431192,-0.158060128494252,-0.7040385738981918,0.722035240671065
0.7336483461825416,0.03076933563239148,-0.15860737364831134,-0.6781241770216955,0.6971050497968191
0.7361352897289232,0.040220823087841806,-0.16874371823785594,-0.6713858092220697,0.6934342520234876
0.7386222332753046,0.04488457156713649,-0.16452716691632485,-0.6646698761669843,0.6861995757081986
0.7411091768216861,0.04954898514903133,-0.15553454737504158,-0.6483995898016364,0.6686315318704228
0.7435961203680677,0.049425661263114706,-0.15134268710088872,-0.6560937915912728,0.6751344816366782
0.7460830639144491,0.049303003971053194,-0.14716320341523437,-0.6733872894355724,0.6910414142534372
0.7485700074608306,0.0443926106853379,-0.14299611675505508,-0.6715496809111912,0.6880389285661154
0.7510569510072121,0.04905969209115518,-0.13405304403218343,-0.6649461931158491,0.6800959577454005
0.7535438945535936,0.05372744226356985,-0.12991081191443588,-0.653576842824938,0.6685253522354009
0.7560308380999751,0.05360745858939597,-0.11141582694268548,-0.6374416464528299,0.649322030076164
0.7585177816463566,0.05348814508750632,-0.10729852865575129,-0.6117522167329472,0.6233897100484302
0.7610047251927381,0.05815790576820323,-0.11755893646529003,-0.5956621826400088,0.6099310464090614
0.7634916687391196,0.058039934672277194,-0.10867824633537948,-0.5987483661482198,0.6112930567317596
0.7659786122855011,0.05792263579287871,-0.09981009054804435,-0.5779151523488739,0.5893241970484713
0.7684655558318826,0.04822920315363971,-0.11010810117972447,-0.5523161691382388,0.5652459647567412
0.770952499378264,0.038536444050857765,-0.10605347357774564,-0.5411050440539338,0.5527450275476027
0.7734394429246456,0.04320956909255608,-0.1067998394071088,-0.5347049843534482,0.5469759527172743
0.7759263864710271,0.03351815899535515,-0.11234721684571936,-0.5139623902958181,0.5271647776113346
0.7784133300174085,0.014250617709470559,-0.10833041390462572,-0.4980308883451805,0.5098757931376412
0.7809002735637901,0.00456055913745923,-0.10432625499044512,-0.48691049132748887,0.4979825225294099
0.7833872171101716,0.004447983892029828,-0.09554635434279524,-0.47102440507155485,0.48063799325679085
0.785874160656553,-0.0004523173836472605,-0.09156753595610212,-0.4838914649329542,0.4924792057204528
0.7883611042029346,0.009013269187182704,-0.07802460701704383,-0.4967812627475965,0.5029519871107989
0.790848047749316,0.013691130910169047,-0.06449439110762123,-0.5001170032775235,0.5044442392546797
0.7933349912956975,0.008792865043291131,-0.055765308283229675,-0.5082639075316937,0.5113895616679903
0.7958219348420791,-0.0008931245234562457,-0.04704897175230016,-0.5020683729227216,0.5042688315805689
0.7983088783884605,-0.015366837229002117,-0.03834539783719482,-0.4863188131111116,0.4880701765192334
0.800795821934842,-0.0250514658802633,-0.029654602653854667,-0.4993224646463901,0.5008292075167476
0.8032827654812236,-0.020370203292771394,-0.035341812072704926,-0.5075605139207191,0.5091970779121142
0.805769709027605,-0.02047666221254918,-0.03625342851550073,-0.5014561635756714,0.5031817651331632
0.8082566525739865,-0.03494764875361156,-0.03238946747873683,-0.5097398424636737,0.5119620325296133
0.8107435961203681,-0.030264339155779862,-0.02853834757269036,-0.5132579458829127,0.5149408573017514
0.8132305396667495,-0.03515715283155796,-0.029488487201093427,-0.4976452721013196,0.4997563537539338
0.815717483213131,-0.04962608928019585,-0.020874691279868962,-0.4772670389586473,0.4802940015757336
0.8182044267595125,-0.049729131408002836,-0.0026969744793126083,-0.4617000606248549,0.4643783007020582
0.820691370305894,-0.049831488692410275,-0.0036857711850228903,-0.4653095542412711,0.46798476838754116
0.8231783138522755,-0.05950996729915947,0.00010092094740477009,-0.4593651067180229,0.4632037863220088
0.825665257398657,-0.07397616344167746,0.008663087867376351,-0.44386672453929243,0.45007242861809227
0.8281522009450385,-0.06928806006076471,0.012423909090228502,-0.4331796238029533,0.4388619091036889
0.8306391444914201,-0.06938767330897111,0.0161717742987757,-0.42730381029928033,0.43320286447285455
0.8331260880378015,-0.0742750027459066,0.015118266741732,-0.41187407951153254,0.4187906343217943
0.835613031584183,-0.08395004793980654,0.01405177651493661,-0.40604404981966624,0.4148696582859213
0.8380999751305646,-0.079259195186279,0.01776069392070667,-0.3954485160165646,0.40370408852255246
0.840586918676946,-0.07935605735205609,0.021456602827180316,-0.38487588583208243,0.39355713325815395
0.8430738622233275,-0.09381744067186804,0.02035108730890789,-0.3982681799336554,0.40967477598277974
0.845560805769709,-0.09391292482656777,0.02402094160774748,-0.3973181754815993,0.40897234093912793
0.8480477493160905,-0.08921931606813116,0.03246615353126403,-0.39160268249693253,0.40294763732223826
0.850534692862472,-0.07973661401652876,0.0313215011323682,-0.3763333006979348,0.3859607716623647
0.8530216364088535,-0.08461843158160287,0.034952182592073555,-0.36108683942265607,0.3725126033244017
0.855508579955235,-0.0894995584396262,0.043358186336631466,-0.34586330102800567,0.35987709885637204
0.8579955235016165,-0.08959159091611602,0.046962694357786994,-0.33066268753102435,0.3457888962206037
0.860482467047998,-0.08968293198583022,0.050554098814274084,-0.315485000609538,0.3318576966202511
0.8629694105943795,-0.08977358131183033,0.05413238875049897,-0.2859650316418829,0.30457447485849837
0.8654563541407609,-0.07549832860485484,0.06248595673709412,-0.26125639491069386,0.2790329663197685
0.8679432976871425,-0.06122238350612941,0.08040319555052688,-0.24614749440046246,0.26608540564362704
0.870430241233524,-0.06131095566548994,0.07436527161051965,-0.23584992711854014,0.2547830744538238
0.8729171847799054,-0.06139883481950592,0.07310259470652758,-0.2351520963770568,0.25379187280238985
0.875404128326287,-0.04233240739304078,0.08140355823202405,-0.24884240515300604,0.2652189936841962
0.8778910718726685,-0.04241889966331247,0.07532613586410175,-0.2625556428076763,0.27642151754705235
0.8803780154190499,-0.047293101392703485,0.07881233468836601,-0.27629180832955136,0.29117895680901307
0.8828649589654315,-0.033012995711571125,0.09665054871446754,-0.2948393036943795,0.31202788570197765
0.885351902511813,-0.02830900228230704,0.10011034891505499,-0.30862132058464375,0.3256848186353229
0.8878388460581944,-0.028392717533709977,0.09876853303035338,-0.3080610503512222,0.3247506432163227
0.890325789604576,-0.023687334582857766,0.11177870564617454,-0.30273529729535653,0.3235803286420271
0.8928127331509574,-0.014192853196041466,0.10562203502973233,-0.29264405874751986,0.31144501358327803
0.8952996766973389,0.004879130172175117,0.10902893281703019,-0.2921525416697168,0.3118721239651488
0.8977866202437205,0.009586599136770846,0.11721098760647841,-0.28689553277340174,0.31006348579610143
0.9002735637901019,0.009506360546333026,0.10622617491970487,-0.2960266416843069,0.31465241730486937
0.9027605073364834,0.009426817920561659,0.1048049070061099,-0.3003922511384953,0.318289864703103
0.905247450882865,0.014136374770585047,0.1129471763974137,-0.29999235682687697,0.3208618330408701
0.9077343944292464,0.028423434598963238,0.11149936254813975,-0.2900385507944172,0.31202942237867376
0.9102213379756279,0.037922787618441756,0.11003826503859226,-0.27531923140183245,0.29891008141772785
0.9127082815220094,0.037846030673832354,0.11814068365283426,-0.2701996033263754,0.2973169500877041
0.9151952250683909,0.037769970562326394,0.13580661173790398,-0.2555260476797976,0.29182797588796555
0.9176821686147724,0.04248301075225164,0.12951721960210172,-0.23129855853258086,0.2684744672315874
0.9201691121611539,0.042408344742451975,0.12800292092106513,-0.22145914623503593,0.2592824115115989
0.9226560557075354,0.05669958594510238,0.13605211297198627,-0.2355846108556019,0.27789409738688864
0.9251429992539169,0.05183791124040238,0.1440879832740647,-0.24015612225977456,0.2848218373380222
0.9276299428002984,0.04697693402345593,0.1377453162289588,-0.22559686659528744,0.2684670383694652
0.9301168863466799,0.05169346104021355,0.13138931636278972,-0.21584885293354006,0.257926527680505
0.9326038298930613,0.05641068574685304,0.13459678508377593,-0.2061236701063791,0.2525577704198423
0.9350907734394429,0.04676339827072207,0.14257931404142177,-0.19642130994907525,0.24717808805082062
0.9375777169858244,0.0371168086525307,0.1601253017278852,-0.19153016730116335,0.25239170890583246
0.9400646605322058,0.03225932028385614,0.1680811302356009,-0.18666183004633652,0.2532480382603207
0.9425516040785874,0.041767739868088405,0.1712351984602023,-0.2057583056757739,0.2709289900323669
0.9450385476249689,0.046488454178245875,0.1743759054987586,-0.21530076152337507,0.28093157655012735
0.9475254911713503,0.04163305993979621,0.18229165064957042,-0.2105007845322131,0.28155663349524
0.9500124347177319,0.03198996051034597,0.17104041349008225,-0.21051197793509502,0.2731180577597493
0.9524993782641133,0.027135962559337035,0.15498740036104097,-0.1913923147710257,0.2477669729566609
0.9549863218104948,0.0174942594664933,0.16286302776471917,-0.15314178437045634,0.22423831306701364
0.9574732653568764,0.0030648512436949327,0.15157166259906463,-0.12449079567643118,0.19616656296204407
0.9599602089032578,0.0030013511756161737,0.14984372176685135,-0.11022774072205976,0.18604382248951606
0.9624471524496394,-0.001849854024020936,0.15289079912857062,-0.1055642045922962,0.18580317464803256
0.9649340959960209,-0.011488764368685844,0.1511360854240773,-0.09613496542483446,0.17948827148665536
0.9674210395424023,-0.030703783200598744,0.14936798155359465,-0.07715160769223672,0.17089729894214584
0.9699079830887839,-0.035552893948539555,0.15237488861653992,-0.06297932884345236,0.1686668634041398
0.9723949266351654,-0.03561290329189071,0.1601568045909607,-0.06798332602344992,0.17759564621599094
0.9748818701815468,-0.045249021238766174,0.15834851769266178,-0.058644762870997624,0.17481686186041973
0.9773688137279284,-0.05009603788381134,0.161315236257765,-0.05890564256643849,0.1788912887390546
0.9798557572743098,-0.054942356611320964,0.1834221688205755,-0.06876595138727737,0.20344805389840095
0.9823427008206913,-0.05021117085304472,0.19115049091019465,-0.08343727199033601,0.2145261061289077
0.9848296443670729,-0.06463290061161397,0.19886541145650405,-0.09813118673299748,0.23098613275446178
0.9873165879134543,-0.07426552937459974,0.2161437362664569,-0.09369406771316235,0.24700619811080016
0.9898035314598358,-0.06474384727856664,0.21425504478162205,-0.09885631993423516,0.24468257389063303
0.9922904750062174,0.059700211976853046,1.8499868853903902,2.045951969280136,2.7589735504400514
0.9947774185525988,-0.5053851095349746,1.6325932373418124,7.724579375010421,7.911377965208734
0.9972643620989803,-1.0082204906475907,1.30026450586241,12.479022421851989,12.587024944284966
0.9997513056453619,-1.3961334949681978,0.8913079176636414,16.017188523364368,16.102606830350705
1.0022382491917432,1.792891477949149,-0.10663568218285358,-0.21119676694677203,1.808434431984211
1.0047251927381249,1.4911711271765125,-0.17085403727782955,-0.1686100437290694,1.5103680940172577
1.0072121362845063,1.155932649823409,-0.2111437777453289,-0.13083417574759437,1.1823195707387615
1.0096990798308878,0.811118062327282,-0.2370817092959503,-0.10744595237717292,0.8518596601544716
1.0121860233772693,6.724747310804789,-3.772932674555194,-0.27561627891444296,7.715776804321461
1.0146729669236507,5.699980844294002,-4.215488493493458,-0.15171640216470905,7.091060762028493
1.0171599104700322,4.584235410652848,-4.456944770066986,-0.04699251981794639,6.393886085991038
1.0196468540164139,12.245633958902193,-7.8396070201475645,-0.11946192302783487,14.540607292572723
1.0221337975627953,9.990249926338436,-8.037994455704041,0.07619691569658649,12.822646155556024
1.0246207411091768,7.634310119387096,-7.9826099066746625,0.2814102360446409,11.049160313891159
1.0271076846555582,5.2448521843107,-7.678241774095372,0.4530824274031282,9.309626999120505
1.0295946282019397,2.8841253640434017,-7.163197282051812,0.6055787192848907,7.74572785491226
1.0320815717483214,0.6191673048310709,-6.470995251117369,0.7149571149216776,6.539748570666339
1.0345685152947028,-1.4542539271660004,-5.6351545016741955,0.7907944410677761,5.8732594519943
1.0370554588410843,-3.29783110564056,-4.708347467194075,0.8474559280772365,5.810542782150094
1.0395424023874658,-4.892410617574035,-3.714516161036383,0.8753647899809192,6.204802613870159
1.0420293459338472,-6.199685236674947,-2.6919678063308883,0.8745210477277379,6.815245759845058
1.0445162894802287,-7.200501349941125,-1.6933748359782725,0.8545015291836329,7.446133955886475
1.0470032330266104,-7.894858957660212,-0.7187372461655093,0.8105178525289976,7.968834317492206
1.0494901765729918,-8.292334866767781,0.1984261438664383,0.7569352494999233,8.329174115668243
1.0519771201193733,-8.38814067424736,1.0245965150669574,0.6650233222229929,8.476612413502862
1.0544640636657547,-8.215795203652714,1.7358318552139593,0.5730893195815856,8.416699734822252
1.0569510072121362,-7.813605681866073,2.341708975515971,0.4954984741288566,8.17199812870548
1.0594379507585177,-7.205514125816813,2.847016284049092,0.38436677552424037,7.757104701956345
1.0619248943048993,-6.425039359082921,3.208658155873817,0.26842466682146693,7.186700893231778
1.0644118378512808,-5.515277011891388,3.45057661272205,0.1668257847019543,6.507886778409977
1.0668987813976623,-4.514534311156542,3.5967136765125285,0.07478174951276095,5.772604405940366
1.0693857249440437,-3.4563300804803005,3.6183389328268376,-0.0029190114922048593,5.0038587888420185
1.0718726684904252,-2.3789715467937573,3.5250291939949734,-0.07585328075473186,4.253362218195434
1.0743596120368066,-1.3255543403553913,3.369456902415268,-0.15838624377284205,3.62428204320323
1.0768465555831883,-0.3248088814711373,3.137256854186796,-0.21699905257829144,3.1614822421523163
1.0793334991295698,0.5945344095448516,2.833217458874696,-0.2564800855032505,2.906264676120361
1.0818204426759512,9.764297309636564,-2.503447116935817,-0.5306146932751563,10.094072585977852
1.0843073862223327,9.630193246130323,-3.6167532484677256,-0.45042924198647327,10.296815649517692
1.0867943297687142,9.194420460797707,-4.528959717987135,-0.36068874493168934,10.255678432351807
1.0892812733150956,8.50007458309766,-5.196970888631794,-0.28533519268649954,9.967005092187655
1.0917682168614773,7.609404855762461,-5.620786753239648,-0.20042654236667623,9.462370568899777
1.0942551604078588,6.541564891633647,-5.833926127708644,-0.10117436411349345,8.765671768151558
1.0967421039542402,5.3444387234667365,-5.8316006011924735,-0.025885857696366088,7.910199802681842
1.0992290475006217,4.099429207251532,-5.628175375944761,0.03980421389233335,6.9629923354188366
1.1017159910470031,2.8304783591262193,-5.25238086399919,0.10547268459247405,5.9674313543753374
1.1042029345933846,1.5758934051820457,-4.723370670568384,0.17590798527507623,4.982430544961508
1.1066898781397663,0.3883467814634508,-4.084240417286598,0.23195653045999087,4.109213652378452
1.1091768216861477,-0.6986426892747313,-3.349355305686374,0.27840675151798067,3.4327529608606104
1.1116637652325292,-1.6754982008860733,-2.552234150403045,0.3200470800680133,3.069792096073622
1.1141507087789106,-2.5087009306313504,-1.721607362572348,0.35208914133564306,3.062920017509499
1.116637652325292,-3.179097265739625,-0.8957821597928151,0.37453296411279524,3.324057767855931
1.1191245958716736,-3.6818988034087767,-0.10827735616488576,0.3825901741160873,3.703306364011924
1.1216115394180552,-4.017105544164774,0.626541847669492,0.3810492039466631,4.083489945581947
1.1240984829644367,-4.1895058918616686,1.3230406711670195,0.3746984864484819,4.40939850674131
1.1265854265108182,-4.223041863642515,1.9189698808356996,0.36353805138691797,4.652815051174721
1.1290723700571996,-4.11292505673623,2.404752679882802,0.3475679287679778,4.777006535356666
1.131559313603581,-3.892674294941962,2.804331094933129,0.3363649554778352,4.809399904331553
1.1340462571499625,-3.5527127721837206,3.0841863129426215,0.3203523553598462,4.715569836845229
1.1365332006963442,-3.121770908955872,3.2538951509243526,0.28995335249471843,4.518557314877738
1.1390201442427257,-2.638155932400868,3.3086692161044433,0.2643215911212433,4.239932146720269
1.1415070877891071,-2.116233053067423,3.267662132483924,0.24824550575241489,3.9009850010081717
1.1439940313354886,-1.5703674815118795,3.1260855076351883,0.21778311121337168,3.505123979485817
1.14648097488187,-1.0197128316185398,2.917458175865548,0.18251124580434563,3.095914537214696
1.1489679184282517,-0.49299952391992485,2.6513569550526372,0.16637195801830096,2.701929285178668
1.1514548619746332,0.004984037645206163,2.3086282433237595,0.15500007001639027,2.3138310716663137
1.1539418055210147,0.4598726424900848,1.9563096987426003,0.13403040418933188,2.014098963296574
1.1564287490673961,0.8429358700594212,1.5704593164572733,0.11303979975784983,1.7859623013965258
1.1589156926137776,1.1637505263525272,1.1750191249892152,0.11118190281062823,1.6575121861358357
1.161402636160159,1.4223166107208536,0.7891427497085899,0.09972632645942703,1.629624545942771
1.1638895797065407,1.6234225258284618,0.4271954128342581,0.08346150728328361,1.6807624583241654
1.1663765232529222,1.738337851089669,0.07960032015195706,0.06717588208520375,1.7414555103801153
1.1688634667993036,1.7766393924738233,-0.22491209582243554,0.060446291211315284,1.7918389257570557
1.171350410345685,1.771845972544277,-0.46718820904623737,0.05369596194821824,1.8331901781928546
1.1738373538920666,1.7095923806537643,-0.6807468298334589,0.06607854172494676,1.841327979474109
1.176324297438448,1.5803018094678418,-0.8320691218474876,0.09280566158842696,1.7883807545828292
1.1788112409848297,1.4031278715664661,-0.9355202817891215,0.10514693620231874,1.6896810053374491
1.1812981845312112,1.2115893894830692,-1.0054655061939772,0.11746761033029074,1.5788313311847393
1.1837851280775926,0.9913211525405095,-1.0179627648705265,0.1345561223114089,1.4272600212254856
1.186272071623974,0.7518999666557752,-0.9778004473850113,0.1372588940980961,1.241083107117455
1.1887590151703555,0.5220562510196847,-0.9041321531010515,0.13036436445808874,1.0521371331819978
1.191245958716737,0.28742479493283735,-0.7921694646176869,0.14739139229361697,0.8554938316183859
1.1937329022631187,0.04800559764936113,-0.6514891743324125,0.16439799687464252,0.6736240665641303
1.1962198458095001,-0.1626825183417473,-0.49166807448084526,0.17659581096271992,0.5471646714539378
1.1987067893558816,-0.3542163604417109,-0.3127061504965878,0.19356167748952302,0.5106079607247862
1.201193732902263,-0.5122307194575656,-0.12418019429301808,0.20571882631353056,0.5657925999078492
1.2036806764486445,-0.6367255961645788,0.06433300237671036,0.21785569746105793,0.676032044301292
1.206167619995026,-0.7468546046265645,0.25283345455970974,0.23954913448446113,0.8240754480196296
1.2086545635414077,-0.8186757290318903,0.42216756418109247,0.2468571578985248,0.9536214437386731
1.2111415070877891,-0.8521889701777239,0.5771237499259767,0.263721821624582,1.0624721468453555
1.2136284506341706,-0.8569711355091597,0.7272788339578957,0.2757779532237521,1.1573191041814255
1.216115394180552,-0.8330222258379141,0.8486908153555719,0.27823718709891665,1.2213181653826228
1.2186023377269335,-0.7899190486235758,0.9413597099561639,0.28546477113418156,1.2615943652639776
1.221089281273315,7.800484708784225,-1.0680931039421944,0.048463770795281746,7.873419416476242
1.2235762248196966,7.043925837544274,-1.3058493240575384,0.14663102615967638,7.165447251902561
1.226063168366078,6.100619888573776,-1.4430616928746454,0.23520153668102317,6.273381053081446
1.2285501119124596,5.0328161041890125,-1.494095403895618,0.3189637443911302,5.259590942721904
1.231037055458841,3.878821710097527,-1.458950440507655,0.38355247823473704,4.161839346988468
1.2335239990052225,2.6865207386403425,-1.356780399225823,0.4289677773105467,3.0401085646467934
1.236010942551604,1.4894320121904068,-1.1923736664514553,0.4695748908700441,1.964857057783101
1.2384978860979856,0.3306511597541719,-0.9848838383946181,0.5197390683554044,1.161660476969342
1.240984829644367,-0.7419377863487001,-0.7630413177543915,0.550729929515505,1.198335172928059
1.2434717731907485,-1.6948160037666464,-0.5220576838366271,0.5625475142094611,1.8604852102663039
1.24595871673713,-2.5136182834361325,-0.28108653239840264,0.5791338790851359,2.5947413288080114
1.2484456602835114,-3.193556222941745,-0.044916249085906745,0.5861238544139269,3.247208030175297
1.250932603829893,-3.6963225966326285,0.19124158724443419,0.5787290772927101,3.7462383036818174
1.2534195473762746,-4.041071018708774,0.3986565746426467,0.5473727816817284,4.097413697063034
1.255906490922656,-4.213436280134993,0.5677519245880238,0.511208621645622,4.282139861036305
1.2583934344690375,-4.222995188484651,0.7081044619885168,0.47502504146944347,4.3082187828702025
1.260880378015419,-4.084112954658397,0.8245026085785656,0.45797569557936413,4.191601712436763
1.2633673215618004,-3.8255199995247793,0.912157979598176,0.43611860869775754,3.9568718563230174
1.2658542651081819,-3.4424279207171353,0.9806474003938623,0.4094538223263804,3.6027255995773286
1.2683412086545636,-2.9779323490787135,1.0060288732149418,0.38755818478427173,3.167076967177285
1.270828152200945,-2.460763705498941,1.002667627017542,0.3656433346050303,2.6822370202334755
1.2733150957473265,-1.900498797592749,0.9897172942218568,0.33413250717623555,2.168658694789292
1.275802039293708,-1.301926029661669,0.9528126841489968,0.29302574469923215,1.6397339677040152
1.2782889828400894,-0.703352629256278,0.8967422195438108,0.2566882995082569,1.1682210460775477
1.280775926386471,-0.15266263057457718,0.8310827266133218,0.2251202141473847,0.874461827678457
1.2832628699328525,0.3597207720222156,0.7701994350261221,0.2078983379709154,0.8751159480148247
1.285749813479234,0.8385859808458624,0.6997271546695321,0.20023431054064034,1.1103775562261793
1.2882367570256155,1.2360489616779327,0.6340311154927263,0.20212817490591384,1.4038049330903641
1.290723700571997,1.5568981168166711,0.5731113376232875,0.2087915709618553,1.672119096106605
1.2932106441183784,1.8011334452330812,0.5169678413275536,0.21064773544816617,1.8856590107846911
1.29569758766476,1.96875494589157,0.4608122436896065,0.20769671190888772,2.032604704571091
1.2981845312111415,2.0453974077888186,0.42858658185287446,0.19993854405059608,2.0993600061282063
1.300671474757523,2.0502144431570253,0.41071406985539083,0.20652688902247007,2.1011231915326025
1.3031584183039044,1.9784176476201063,0.3928295185510664,0.19394296761043428,2.0263428371687944
1.305645361850286,1.8347954234359334,0.3749329488902782,0.18612884060315693,1.8819386034962142
1.3081323053966674,1.6385013828166568,0.36181278527860883,0.20702656894713378,1.6906966828302419
1.310619248943049,1.4134775412880742,0.3630458555762015,0.2183289705814211,1.4755977068198427
1.3131061924894305,1.1597238977678876,0.3642669711752382,0.22003609016304715,1.235340368609949
1.315593136035812,0.8772404511670548,0.3798413635227331,0.23130158578455706,0.9835297119014951
1.3180800795821934,0.5995460236322216,0.40019224759644434,0.24733709909003743,0.7620924550707593
1.3205670231285749,0.30748700078000213,0.4205312418260996,0.24420065859423268,0.5753509734573667
1.3230539666749563,0.0345822047438919,0.4312815614521228,0.250622729486059,0.5000114665370905
1.325540910221338,-0.22395676891167138,0.4420200351265402,0.2713917605024232,0.5649706483200948
1.3280278537677195,-0.45376471134741714,0.45753508831075873,0.2825657806067259,0.7036221931332375
1.330514797314101,-0.6452648170510958,0.4586731299936795,0.28893323883142585,0.8427515296953194
1.3330017408604824,-0.7984570871573617,0.47416460249569914,0.3096477943159446,0.9789011935923118
1.3354886844068639,-0.9133415228074299,0.4944327217024447,0.3303442831023382,1.0898549439960714
1.3379756279532453,-0.994706528469299,0.5003238969859902,0.3558111546575713,1.1689168736285083
1.340462571499627,-1.0329752986563867,0.501414957766678,0.36210643866920655,1.203983388769175
1.3429495150460085,-1.028147834529212,0.4977059269499766,0.3731721981692182,1.2016890816075054
1.34543645859239,-0.9898009438952863,0.49398523088674207,0.37943167308750425,1.1694852335161015
1.3479234021387714,-0.9275114345685033,0.49982969937255906,0.3856733134538324,1.1219853360631071
1.3504103456851528,-0.8364909044081774,0.48650893576426046,0.39668556943571254,1.0458333608824206
1.3528972892315343,-0.7311045645612133,0.4683881734245725,0.38373806809504707,0.9492925103631481
1.355384232777916,-0.6017756095792625,0.46462104915894376,0.37556127647287774,0.8479698555915699
1.3578711763242974,-0.4580808473015815,0.465630779972686,0.376943645142898,0.7541462706505428
1.360358119870679,-0.3095970855736343,0.4570521796718654,0.36873160821027184,0.6638599620641576
1.3628450634170604,-0.16590113224720326,0.45325048210481533,0.3509252131932765,0.5967475935970736
1.3653320069634418,-0.041358198500618504,0.46380251791927796,0.35704333098304986,0.5867735648535561
1.3678189505098233,0.0831853277237482,0.4456126813586043,0.35835558943616874,0.5778487596389356
1.370305894056205,0.19336423523512636,0.44656502987045155,0.35007363313909856,0.5994677655975096
1.3727928376025864,0.27481331283655386,0.45229437785610704,0.35135112340701724,0.6352481192981351
1.3752797811489679,0.35626297920770045,0.4580123464744936,0.3573997050795015,0.6814933375081026
1.3777667246953493,0.4233480231393013,0.4589305570008704,0.35385421648029514,0.717672356556923
1.3802536682417308,0.4569148300955879,0.4646258407870798,0.3407147060176978,0.7353467513935905
1.3827406117881123,0.47132860877690974,0.46552141601868824,0.3515000454646433,0.74994208322061
1.385227555334494,0.4713777612368792,0.47598251759711063,0.3574798635512675,0.7593077134412693
1.3877144988808754,0.44269707624177645,0.4912207672561131,0.3490774024090584,0.7477523496247653
1.3902014424272569,0.4092285691143287,0.5112361901626925,0.3550231308509346,0.7448972327446421
1.3926883859736383,0.36618383524934633,0.5216636016351384,0.3465866779638045,0.7254969605800224
1.3951753295200198,0.31356287335593347,0.5177146237439132,0.3285564961933538,0.6886940382901424
1.3976622730664012,0.25615408545750634,0.5281197019125194,0.3200862480616049,0.6685660335695309
1.400149216612783,0.18438066361056304,0.5385136517918161,0.32596438624388924,0.6559313709367652
1.4026361601591644,0.1269730264281405,0.5345312891421363,0.3318257502473667,0.6418365656765772
1.4051231037055458,0.0552007526735846,0.5353262530747895,0.3376703896520432,0.6353287435450929
1.4076100472519273,-0.01657094901286804,0.5408985695279265,0.3434983541486556,0.6409656606803359
1.4100969907983087,-0.07397686999688247,0.53688305458616,0.3445212902171999,0.6421922695028534
1.4125839343446904,-0.12659381825157123,0.5328565410423711,0.3503160544070152,0.65014108170954
1.4150708778910719,-0.1696333917949513,0.5240306518345199,0.3513058900934318,0.6532988903161474
1.4175578214374533,-0.21746080193217143,0.5343474299277475,0.3474908473984861,0.673473284750843
1.4200447649838348,-0.24613403341165208,0.5446532885090116,0.3532361865100633,0.6942657780326934
1.4225317085302163,-0.27480670087045833,0.5453714475098126,0.34938834447762446,0.7035772550751402
1.4250186520765977,-0.27474838574830585,0.5508671435664367,0.33115896841414205,0.69900468359909
1.4275055956229794,-0.27468950933440706,0.5467751934958245,0.3177017221355847,0.6894576295964022
1.4299925391693609,-0.27463007300184783,0.5426724308183002,0.3233818662378667,0.6888329809022856
1.4324794827157423,-0.24583965820755438,0.5433472858350012,0.3242574348535179,0.6788271463558695
1.4349664262621238,-0.21704868625790008,0.5392229789865532,0.3251168821348891,0.6660124175437906
1.4374533698085052,-0.19304556186337152,0.5302995374539279,0.34511387229206036,0.6615041747618946
1.4399403133548867,-0.16904188309948553,0.5309421984780522,0.37467164970888156,0.6714563436755232
1.4424272569012684,-0.12588403808645177,0.5124205695153563,0.3946366522230704,0.6589079741399598
1.4449142004476498,-0.08751404483291958,0.5034650979636326,0.41458573768755436,0.6580403838705358
1.4474011439940313,-0.06350871139217129,0.5088642147160125,0.41057694080526375,0.656924325750118
1.4498880875404128,-0.020349215940261067,0.49988752751964194,0.40655232957327847,0.644659931623289
1.4523750310867942,0.018022423497461193,0.5004770807405992,0.41208876211761947,0.6485516663759227
1.4548619746331757,0.037240995530743615,0.5106329022381839,0.4080326767311586,0.6546934533632559
1.4573489181795574,0.06124851532633052,0.5399318266064004,0.39917252839592265,0.6742525234941263
1.4598358617259388,0.07567977148297778,0.5500666553294935,0.4094503854616107,0.6898915648649091
1.4623228052723203,0.08053476255492387,0.5554026265078118,0.3957706698788517,0.6867258176651792
1.4648097488187017,0.09975550369252723,0.5607281716930257,0.36771024020583454,0.677921871456723
1.4672966923650832,0.10939997683759911,0.5660433192077305,0.35399956836502433,0.6765272267650397
1.4697836359114647,0.09989137388750019,0.5713480974650547,0.3450618997982229,0.6748960288417978
1.4722705794578463,0.09996011329670923,0.5718541316476302,0.32653207670764495,0.666057331805426
1.4747575230042278,0.09045258031124248,0.5579846437068925,0.30798695797667897,0.6437270370128927
1.4772444665506093,0.06179196681239896,0.5584700822451572,0.31815701584836553,0.6457019178065018
1.4797314100969907,0.05707390119961697,0.5685220727102398,0.34267709276028135,0.6662599847353353
1.4822183536433722,0.042779558742049584,0.5689870306759812,0.3576052245855408,0.6733927742220802
1.4847052971897536,0.018908937945777637,0.5550765817634118,0.3773066738348003,0.6714371792481194
1.4871922407361353,-0.0001727527269532736,0.545944368280451,0.39699308981134607,0.6750250339495601
1.4896791842825168,5.200105701038407,-1.8143040142543176,0.02880385626637505,5.507597300116203
1.4921661278288982,4.639935484257124,-2.139491095239471,0.23041969003035057,5.1146374923577
1.4946530713752797,3.998362933304632,-2.3593433834815407,0.4272322455044062,4.6621813284342855
1.4971400149216612,3.308906869903244,-2.464284042978034,0.5952995589949754,4.168446003381676
1.4996269584680426,2.605086115770152,-2.473466657566382,0.7394100867986566,3.667592978116659
1.5021139020144243,1.9060542826565152,-2.3916796010418424,0.8595638819588913,3.176794659659505
1.5046008455608058,1.2261765789881043,-2.2237112471191547,0.9318189809835875,2.704937582781623
1.5070877891071872,0.5798182131856421,-1.974349969433259,0.9896942602893297,2.2833619272889143
1.5095747326535687,-0.01386720301481037,-1.672326158141603,1.0284013697939844,1.9632820622412488
1.5120616761999501,-0.5500912678433834,-1.327216590041885,1.0287867495171774,1.7670615314193419
1.5145486197463316,-1.004911966253455,-0.9581748484950816,1.0147924694229058,1.7198112850558334
1.5170355632927133,-1.3974829130866229,-0.5604125001833791,0.9624765663324997,1.787003582388703
1.5195225068390947,-1.6990736899860743,-0.16265993495511633,0.8957811103297626,1.927623784888047
1.5220094503854762,-1.9144727018421297,0.20156405409656442,0.8434365748770567,2.1017181185503655
1.5244963939318577,-2.067621966831238,0.5609899171173405,0.7671357870094972,2.2755807172106812
1.5269833374782391,-2.148944679892517,0.9060408777644229,0.695609220302595,2.433669142835251
1.5294702810246208,-2.1536524392902234,1.1936213365261663,0.6144917185039702,2.537824027859537
1.5319572245710023,-2.100898859895007,1.4380965338071534,0.5285717386963409,2.600247246514216
1.5344441681173837,-1.9954723466212982,1.6346780968028165,0.4474261413353915,2.618066561080422
1.5369311116637652,-1.8421613043883884,1.7881544594200824,0.3662665769675897,2.5933001846167776
1.5394180552101466,-1.6601193480811332,1.8889488456755523,0.3090351161117333,2.533698224817336
1.541904998756528,-1.4445580759875902,1.9226960763351357,0.2613666027735846,2.419053686444536
1.5443919423029098,-1.209842699681716,1.918126602116534,0.20889588100722456,2.2774034576293345
1.5468788858492912,-0.9751268340625202,1.880028857204148,0.1611998115155604,2.1239976990716776
1.5493658293956727,-0.740410480752268,1.8036144692092595,0.14222046500858632,1.9548553640144486
1.5518527729420541,-0.5104820446982088,1.684095065809946,0.1232274757179379,1.7640728781477497
1.5543397164884356,-0.28055312421160883,1.540624291351969,0.11858610780207357,1.5704444999974676
1.556826660034817,-0.06977733420973065,1.3827789836057374,0.12829641550141524,1.3904699076577114
1.5593136035811987,0.11226851702620577,1.2057707704453708,0.15235845309820562,1.2205328627309322
1.5618005471275802,0.2847380411322469,1.033541699730871,0.18119546827480626,1.0872515784645858
1.5642874906739617,0.41411241321670644,0.8565149961430447,0.20044230543295605,0.9722572433288231
1.5667744342203431,0.5243336482270698,0.6699022877455798,0.23882943889579877,0.8835917330267142
1.5692613777667246,0.6154017445048624,0.5072224292263567,0.26283809985994644,0.8396890892395241
1.571748321313106,0.6633746837856426,0.3541102421311271,0.2964103594022145,0.8082815943907276
1.5742352648594877,0.692194481003719,0.22493096798778112,0.32518106207231057,0.7971636362895664
1.5767222084058692,0.7162263444484145,0.1196846384228567,0.34915026241518987,0.805735995783324
1.5792091519522506,0.7067398525219262,0.02400607516071851,0.38747162829032433,0.806344698945365
1.581696095498632,0.6733118101846433,-0.04773948009426099,0.41141479438624273,0.7904998322160895
1.5841830390450136,0.6350958290333083,-0.0811867855803523,0.4497102352663518,0.7824176007169654
1.586669982591395,0.5825151007385407,-0.10506622936199683,0.48320439232101897,0.7641002813107094
1.5891569261377767,0.5059928169667315,-0.11937777952584216,0.5071089169305694,0.7262501213059753
1.5916438696841582,0.4294709926222904,-0.08581417754085718,0.5166354605033021,0.6772898977693733
1.5941308132305396,0.34816122268354255,-0.05225942458715327,0.5213608844353672,0.6290981292754795
1.596617756776921,0.26685190876532244,-0.0043482786270514495,0.5308620501487802,0.5941745240473378
1.5991047003233025,0.18075464583770962,0.06749609910983256,0.5307738024888202,0.5647555177201913
1.601591643869684,0.113811448788593,0.13454332088364618,0.5067309863245502,0.536499062041314
1.6040785874160657,0.03729189597832461,0.20637022556862838,0.48746407643057665,0.5306605141870081
1.6065655309624471,-0.04401561099456919,0.3021304587304514,0.46339632104070283,0.5549381393073973
1.6090524745088286,-0.09659225061370236,0.3930936327817758,0.439316178370337,0.5973703805764993
1.61153941805521,-0.1395916378901101,0.46968297346589205,0.4200121066545037,0.6453666327514614
1.6140263616015915,-0.18737898451847113,0.5462637231763097,0.40548416082651784,0.705643212805737
1.616513305147973,-0.22080067895520672,0.622835914393526,0.3957323958372516,0.7702477816914445
1.6190002486943547,-0.24943352958251708,0.6850343696843089,0.3716032533728537,0.8182775514738627
1.6214871922407361,-0.26848913482553416,0.7328591216228277,0.35703880501780283,0.8582806160887517
1.6239741357871176,-0.27317909311324606,0.7806754127899462,0.3568275090898023,0.9007812100017194
1.626461079333499,-0.2682918095190828,0.8093296625693811,0.3518158073184683,0.9223715954260722
1.6289480228798805,-0.26340409244057983,0.8283987103110051,0.3467921580474229,0.9358904530139042
1.631434966426262,3.6583979723772106,-2.992840067482353,0.15022048349889872,4.72900978931997
1.6339219099726436,3.2754258821933107,-3.428686027663456,0.24094117074928256,4.747879024764476
1.636408853519025,12.038304561997403,-9.237128810246066,0.17842116938435204,15.1748858149961
1.6388957970654066,10.319368800056743,-9.778336204616606,0.3600980100529849,14.220931823862477
1.641382740611788,8.39453211998649,-10.013094017698954,0.5369747751692469,13.0774065941964
1.6438696841581695,6.335620569812417,-9.936613813212976,0.7090515198098206,11.805894126888896
1.646356627704551,4.24319061747784,-9.572837574761168,0.8380210724943336,10.504578295531706
1.6488435712509326,2.193856714322043,-8.979226109149753,0.9286718916295253,9.289883760549175
1.651330514797314,0.24029129507846486,-8.198875013186209,1.0240996621880925,8.266079572955572
1.6538174583436955,-1.5552563988821624,-7.265303077000348,1.0907856160201064,7.50954489480228
1.656304401890077,-3.149690739473846,-6.216817494005964,1.1047877916176727,7.056197812746845
1.6587913454364585,-4.495127695293744,-5.101302264221879,1.123567083918628,6.891433869668744
1.6612782889828401,-5.581990461505015,-3.947487774350677,1.132758338055547,6.929965273608187
1.6637652325292216,-6.37676021667238,-2.7936812177018235,1.0940543825578999,7.047317262552443
1.666252176075603,-6.893802172567484,-1.659036174269478,1.021820482476043,7.163869521455457
1.6687391196219845,-7.14269313764473,-0.6010134505779114,0.9543639194583857,7.231188900664721
1.671226063168366,-7.1234331137212905,0.3755985834037885,0.872531135305131,7.186493178428043
1.6737130067147474,-6.850387312578563,1.2660115577383295,0.7811105884125311,7.010044603852
1.6761999502611291,-6.3810165758839705,2.0510718925577387,0.6944675438110579,6.73843851493455
1.6786868938075106,-5.748839728706842,2.706837604703415,0.6126020565628743,6.383683053245965
1.681173837353892,-4.9682219828381236,3.228520324327465,0.5355141817217408,5.949230924596607
1.6836607809002735,-4.0918357766346745,3.6352736982117144,0.44405036105087525,5.4914037920195575
1.686147724446655,-3.157988338495514,3.9127325499235317,0.3525758595453894,5.040503555205465
1.6886346679930364,-2.1906216868618538,4.070473719658798,0.26587913554854126,4.630148096130667
1.691121611539418,-1.2280430501389419,4.132439257600566,0.17917184075077053,4.314770735423945
1.6936085550857995,-0.30855965673510277,4.084263987394907,0.11160764343093099,4.097423293555066
1.696095498632181,0.5295212649382941,3.949889959275193,0.05839819525224321,3.985653498438312
1.6985824421785625,1.2670460997481088,3.7341056102176284,0.02912035782381217,3.94332328403156
1.701069385724944,1.9088032491597715,3.4656413938233546,0.014197379457529635,3.9565643783677076
1.7035563292713254,2.435639098034185,3.149285747114603,0.004052508448351588,3.9812504261446158
1.706043272817707,2.8331884345496485,2.7946155104558303,0.013051009674935443,3.9795732039754874
1.7085302163640885,3.087086046881472,2.4303611375140695,0.022039324754967282,3.929025483682259
1.71101715991047,3.230850756405292,2.0469458554143105,0.03580591188796589,3.8248746395782174
1.7135041034568514,3.254905754611062,1.6635233112231549,0.054350825932475644,3.655772871864799
1.715991047003233,3.154462636306189,1.2944587487060915,0.10161613832704042,3.4112437344056836
1.7184779905496144,2.9582518195374794,0.9493290083266501,0.14887148396426397,3.1104086729214524
1.720964934095996,2.6902153190286207,0.623345720605077,0.19132851431488618,2.7681085510728924
1.7234518776423775,2.3551415362194197,0.3117205160787031,0.24814089742686996,2.388605291953058
1.725938821188759,1.957818872546787,0.04797225186346088,0.29536667144013506,1.9805548579241243
1.7284257647351404,1.5365545526872415,-0.1726874414715467,0.3377942943902976,1.5826957481299166
1.7309127082815219,1.1057137847130847,-0.35025853002205776,0.3802122242858914,1.22059221161458
1.7333996518279033,0.6652965667328479,-0.47516417322910076,0.4130437091465673,0.9159724989826734
1.735886595374285,0.24882172009498343,-0.5569811438013843,0.44586561024430615,0.7556033253896202
1.7383735389206665,-0.13892235377675544,-0.6244398277162007,0.48346638550102305,0.8018505251769411
1.740860482467048,-0.4979356567815061,-0.64402136777472,0.5114808795267027,0.9614136105580472
1.7433474260134294,-0.7946993675786488,-0.6253025366495573,0.5299091468606836,1.1416453263150044
1.7458343695598109,-1.043578698033227,-0.5874369136433062,0.5483280486504647,1.3171189298754782
1.7483213131061923,-1.2397852467315111,-0.5256360614470432,0.557160832728945,1.457322517713181
1.750808256652574,-1.3737422089419153,-0.4351115427425756,0.5420423435744617,1.53957773869465
1.7532952001989555,-1.4550263932164902,-0.32544013016413276,0.5125494422318013,1.576616635079678
1.755782143745337,-1.4740609948285042,-0.2109869996582865,0.48304739303003963,1.565473127975285
1.7582690872917184,-1.435634419014459,-0.0869637138832755,0.44874784698014913,1.5066464425208306
1.7607560308380998,-1.3589002809741717,0.032264551227946914,0.4240160683366003,1.4238822286640325
1.7632429743844813,-1.2534353892691406,0.15148623302946795,0.40885211135431376,1.3271052719466607
1.765729917930863,-1.1192397458225254,0.2611245589195441,0.3936792236080926,1.2148526556749457
1.7682168614772444,-0.9419481425988085,0.3611795629414791,0.3832858625933344,1.0791779429250117
1.770703805023626,-0.7502910014475176,0.4708048924235615,0.38246048576422,0.9648159704078718
1.7731907485700074,-0.5729987442203858,0.5708469681346284,0.37683793725160974,0.8923007636770713
1.7756776921163888,-0.37176414628694965,0.6469406141661942,0.35684146446374676,0.8270892149477155
1.7781646356627703,-0.18489443614391454,0.713451074533328,0.3464131380072839,0.8143711994255384
1.780651579209152,-0.01238961572754349,0.7608015766505596,0.33597620520205673,0.8317767441289927
1.7831385227555334,0.15532711966432827,0.8081457678545854,0.3303191232833509,0.8867563472629759
1.7856254663019149,0.2991021548099858,0.850695278880202,0.3294419461198288,0.9600398702055355
1.7881124098482963,0.4141470844465922,0.8645081271799193,0.3141911142517344,1.0087656644585454
1.7905993533946778,0.5196155199108562,0.8783147667279785,0.29414348809319435,1.0620534400736545
1.7930862969410595,0.5819886360140625,0.8729616182931133,0.2788759280095032,1.0856079138830934
1.795573240487441,0.6108432374483352,0.8532371192425727,0.26360008435535853,1.0819556584545782
1.7980601840338224,0.6301213388648161,0.8382949169008085,0.25310441407560624,1.0788202416617318
1.8005471275802039,0.6206693250299165,0.8185582386660113,0.2665425840247142,1.061278921970877
1.8030340711265853,0.5920640006300374,0.7892387152516123,0.27997263112222903,1.0255838360034562
1.8055210146729668,0.5634589769903664,0.7455479773653395,0.2742409955550382,0.9739280922879253
1.8080079582193485,0.5013354289107949,0.7162164789506784,0.2828665539797104,0.9188670983129359
1.81049490176573,0.42963537103322613,0.6868790440612829,0.3058493597560439,0.8659868382813803
1.8129818453121114,0.3579356080367804,0.6335936901024315,0.3192474495869,0.7946557730904721
1.8154687888584928,0.2718709279972939,0.5946676776350883,0.32306087672050765,0.7293228217884329
1.8179557324048743,0.18101813559047286,0.5653126373283914,0.3220780976684008,0.6753371338328199
1.8204426759512558,0.094954035490313,0.5359517965214562,0.3210875688843231,0.6319476433554578
1.8229296194976374,0.018467029048789052,0.5065851891836544,0.32487774676342696,0.6020922980774701
1.825416563044019,-0.05323128902426366,0.46763604263278413,0.3382370876414651,0.5795872375722363
1.8279035065904004,-0.1201409207004539,0.4430464074171008,0.35158883783309136,0.5782202615273666
1.8303904501367818,-0.17747346463258185,0.4280279141507193,0.34577943695135893,0.578159273002956
1.8328773936831633,-0.2252289227953138,0.41300379011448385,0.339962551110073,0.5804091095681865
1.8353643372295447,-0.25861889384457615,0.40755087585686933,0.3341382330792655,0.5870517928346928
1.8378512807759264,-0.28722018639869173,0.4020923986308711,0.33309493888598674,0.5959244673807963
1.8403382243223079,-0.30145599579622895,0.39662839231520897,0.3464095278135151,0.6067860907700718
1.8428251678686893,-0.28696111405689084,0.40073569741370285,0.35492843915840666,0.6073795988390139
1.8453121114150708,-0.2628891564439889,0.41441434777336905,0.3490749187922155,0.6022485028176083
1.8477990549614522,-0.26275894818315715,0.4328759739041117,0.36236784240292685,0.6226831673022041
1.8502859985078337,-0.2530516680170316,0.4369669963374432,0.3660768424473204,0.6236886700514683
1.8527729420542154,-0.21461370465051377,0.4458410621493001,0.341048357954886,0.6009553039835476
1.8552598856005968,-0.17617547999295957,0.4594982051156511,0.3303780710505393,0.5927276525406334
1.8577468291469783,-0.14731380267373761,0.4731500556728139,0.3388544372272797,0.6003287943035884
1.8602337726933598,-0.1136634647219279,0.48679664755743923,0.34253549198608724,0.6059875597369186
1.8627207162397412,-0.07043606480844344,0.500438014485586,0.3366328840382753,0.607224130106752
1.8652076597861227,-0.0319968148866987,0.5044973835114486,0.32114666534384284,0.5988961402399097
1.8676946033325044,0.006442686370039308,0.5181284015892613,0.30565369443102064,0.6016001410076608
1.8701815468788858,0.040094033646656535,0.5317542957288981,0.2997308297549406,0.6117260276183946
1.8726684904252673,0.054592014986343695,0.5262214862765373,0.312954929696863,0.6146788826215893
1.8751554339716487,0.06909024167337063,0.5350488300780722,0.31659562600100344,0.625526580142975
1.8776423775180302,0.09316551835030701,0.5390827474316455,0.3106529702581202,0.6291226353566729
1.8801293210644117,0.10766422973682122,0.5383232718917124,0.3047038206235939,0.6278757438599112
1.8826162646107933,0.10779797051250317,0.5375588403074896,0.30353663185573687,0.6266772663163015
1.8851032081571748,0.10793194863720257,0.5320010828614197,0.2832094387135591,0.6122761173513107
1.8875901517035563,0.1128545654291947,0.5312268396701132,0.27245271240131785,0.607592452733692
1.8900770952499377,0.11298901224488639,0.5400245475025027,0.2808433107631636,0.6190848035558398
1.8925640387963192,0.09397007711947414,0.5392406264979854,0.28922767164177365,0.6190827688630183
1.8950509823427006,0.07495137132946111,0.5432403200095708,0.3023942494011038,0.626234808533608
1.8975379258890823,0.07508650615050211,0.547235258079847,0.31076628836320275,0.6337823735910043
1.9000248694354638,0.06085665633401105,0.5560138773622483,0.3143438394090303,0.6416128223578199
1.9025118129818452,0.04662702983371103,0.5504225978782915,0.29876174337625194,0.6280109039430912
1.9049987565282267,0.01803241468072181,0.5448266628607157,0.27838526094136284,0.6120944486372606
1.9074857000746082,-0.005773577852423162,0.5440145088700827,0.26757965269708706,0.6062870529706774
1.9099726436209896,-0.010425739814187374,0.5431977657941944,0.256768162550177,0.6009179628816831
1.9124595871673713,-0.015077686495910014,0.5232228535271912,0.26510445424415785,0.5867451429226307
1.9149465307137528,-0.014941016588020939,0.5128202251330216,0.2734349648742658,0.5813557407456792
1.9174334742601342,-0.0195925387425101,0.5024131070792541,0.2865481480508638,0.578716371714838
1.9199204178065157,-0.03382065829165515,0.49200153243960276,0.29965565065656996,0.5770639945626574
1.9224073613528971,-0.04326016728705673,0.48637393757304537,0.3175459261268365,0.5824658482896341
1.9248943048992788,-0.047911067741784,0.48074195216231663,0.3114886045664864,0.5748334069587204
1.9273812484456603,-0.03819655502881325,0.47989401249456964,0.30063734919436946,0.5675738328841672
1.9298681919920417,-0.03805864776377654,0.46946494153894225,0.2993574198192519,0.5580866033194216
1.9323551355384232,-0.04270894464090069,0.47818519211003974,0.2980720595579278,0.5650947571821562
1.9348420790848047,-0.03778223771421618,0.4869011837814399,0.2728393014751962,0.5594117845415254
1.9373290226311861,-0.02806693231940338,0.4860361427288753,0.2523896150675746,0.5483788859197116
1.9398159661775678,-0.02313983711283507,0.48516690837029053,0.2606650664189285,0.5512428302394317
1.9423029097239493,-0.018212550790287496,0.49387032008403864,0.26414688167638545,0.5603687760444527
1.9447898532703307,-0.01807347868848508,0.48820439396613313,0.25325830349500045,0.5502816998673572
1.9472767968167122,-0.01314581618350219,0.47295756599375327,0.2615182043183921,0.540604701148429
1.9497637403630936,-0.003429565292304537,0.4624950787434474,0.26498461665154416,0.5330387479742609
1.952250683909475,-0.012866744633648564,0.46639377142963445,0.2732343961461119,0.540690057595991
1.9547376274558568,-0.007938532982750268,0.47507686994312603,0.27669078507637046,0.5498352873425407
1.9572245710022382,-0.0030101423181279063,0.4646023901708891,0.2705654289401487,0.5376523907199197
1.9597115145486197,-0.00765838129813512,0.44933557451894046,0.27880039305979665,0.5288579851932568
1.9621984580950012,-0.007518041979688861,0.44843006866961854,0.29181891941748894,0.5350741342769598
1.9646854016413826,-0.007377529701043217,0.4475206950185493,0.28089063661559166,0.5284209970777917
1.967172345187764,0.0071283634807263185,0.4513958891975349,0.28911122296195835,0.5360917473650436
1.9696592887341458,0.0072692156257031515,0.455267280152154,0.2877503068599605,0.5386291646123094
1.9721462322805272,0.002621831356461435,0.45434649678185135,0.28159633985476695,0.5345410290681193
1.9746331758269087,0.0075514186159046925,0.45821037790034547,0.27064937007025947,0.5322263201478468
1.9771201193732901,0.002904362104803382,0.4572821489929155,0.2549094455287353,0.523540088748304
1.9796070629196716,0.003045869766191256,0.45156184213774697,0.23916501747066654,0.5109963602406697
1.982094006466053,0.012764342902585657,0.44583789268509433,0.2282045370337542,0.50101064432446
1.9845809500124347,0.022482972855701333,0.44489873593646,0.21723964861176626,0.4956141989847081
1.9870678935588162,0.022624950967417012,0.44874440382375047,0.2302124164164301,0.5048575888720532
1.9895548371051976,0.013190275220432812,0.4430097182681463,0.24796927467217067,0.5078585974676962
1.992041780651579,0.008544153558602718,0.4420599210623948,0.24656825417805983,0.506246857114333
1.9945287241979606,-0.0008902226755265197,0.4411066406671793,0.2595282254712892,0.5117917161828358
1.997015667744342,-0.005536048857882392,0.43536150549185937,0.25811881581881124,0.5061576941831474
1.9995026112907237,4.850047639792171,-4.885514735012283,-0.016233706994167818,6.884146996361896
2.001989554837105,-0.029192479053769427,0.4573798306630734,-0.30495551669598164,0.5504964827262746
2.0044764983834864,-0.03383787713780484,0.47077814424685727,-0.21060909083377055,0.5168493515247313
2.006963441929868,-0.03369473323288885,0.4793847294459188,-0.08274782503181477,0.48763947381346
2.0094503854762498,-0.038339855994362626,0.4784112144054675,0.05947471407821858,0.48361604216699483
2.011937329022631,-0.033408037475550656,0.4870112438179586,0.21127016971609613,0.5319127119978906
2.0144242725690127,-0.02847608633085663,0.4860312357585377,0.3486965717103221,0.5988543635544668
2.016911216115394,-0.028332407893858935,0.47547122152830523,0.4621771597397686,0.6636891854051882
2.0193981596617756,-0.013823390896034349,0.4744848456538291,0.5612887866534386,0.73510003190987
2.0218851032081573,0.0006857526895357458,0.47349533268353605,0.6316662885872102,0.7894305545565008
2.0243720467545385,0.0056182142106641075,0.4629259071091152,0.6541560982443819,0.8014063642584999
2.02685899030092,0.015339201617372122,0.45714180996658804,0.6383350681375326,0.7852933112792537
2.0293459338473014,0.025060309579085227,0.4465662656327205,0.6081452606269444,0.7549106614297928
2.031832877393683,0.02999313276591542,0.4359877083870485,0.549221511396734,0.701875443692552
2.0343198209400644,0.025349265848698677,0.43019457245046144,0.4615638659776753,0.6314674637866632
2.036806764486446,0.030282320100578297,0.42439848534411917,0.36432598306709707,0.5601468693216656
2.0392937080328277,0.03521548687360121,0.4233878811702345,0.2718731179267806,0.5043931211751351
2.041780651579209,0.020995150880000923,0.4223743873303607,0.1698401057808283,0.45572643215509734
2.0442675951255906,0.011563326715655742,0.4165696311655598,0.07738060497938193,0.42385342532663184
2.046754538671972,0.011708415696064733,0.4251272565574995,0.008859870435504291,0.425380733661448
2.0492414822183536,0.0022768025360609956,0.43847048740457684,-0.03572205301595588,0.43992910477288283
2.0517284257647352,-0.0071547081267197,0.4470225475433236,-0.056365120657840606,0.4506188796391852
2.0542153693111165,-0.00700931165368468,0.45078346738859176,-0.06743449785212796,0.455853349687494
2.056702312857498,-0.011652220006815872,0.46411848725341676,-0.06414173679825019,0.46867462790403236
2.0591892564038794,-0.006718225225202934,0.4726624274657647,-0.02733317985385142,0.47349974404315026
2.061676199950261,-0.01136094258907605,0.4812037215712146,0.02383760394129375,0.48192771660505407
2.0641631434966428,-0.01600356745571241,0.4897423997309618,0.07500544874763548,0.4957111554195496
2.066650087043024,-0.011069295181285521,0.4982784920416812,0.14053560852686786,0.5178361151862231
2.0691370305894057,-0.006134934402075687,0.49723522189449065,0.20606291719783876,0.5382772790641125
2.071623974135787,-0.0012004871125741445,0.49618942589637793,0.26679901519849203,0.5633711938425409
2.0741109176821686,0.003734044693926686,0.49035273062759366,0.3131671395244968,0.5818362319430351
2.07659786122855,-0.0009081476152621448,0.47972516592247416,0.34516733368975316,0.5909970793480539
2.0790848047749315,-0.0007618560700086707,0.4738835681893332,0.3771648510462242,0.6056562898948927
2.081571748321313,0.013749723980795436,0.46325116048816417,0.3947945249006839,0.608813115409594
2.0840586918676944,0.013896170627077487,0.44303956913178544,0.38847959175646807,0.5894010150872214
2.086545635414076,0.01883109516323911,0.43240243696668124,0.36300849795364876,0.5648908277059701
2.0890325789604574,0.018977688963186856,0.4217629868491497,0.3471117063092386,0.5465626280777076
2.091519522506839,0.014335950042862144,0.4254864581683311,0.30727043635111784,0.5250327290785487
2.0940064660532207,0.014482683060271007,0.42441926700205057,0.25784994068480316,0.4968179286442254
2.096493409599602,0.009841079393644092,0.40898463599923796,0.20363866514929896,0.45698357221113484
2.0989803531459836,0.009987943703958613,0.3983362076607544,0.15900186209784728,0.4290140854372592
2.101467296692365,0.005346467372477348,0.39726241445619914,0.1191511704756838,0.4147806794905705
2.1039542402387466,-0.004083351577349625,0.4009748821438337,0.09845184238214344,0.4129047046702229
2.106441183785128,0.0008520981607705869,0.39989683309048285,0.07775030654676662,0.4073859513473547
2.1089281273315095,0.000999201332255617,0.3988166995524094,0.04746979821170605,0.40163309125050844
2.111415070877891,0.0011463592857408056,0.40731131703428813,0.04112918237354357,0.4093842116722805
2.1139020144242724,0.006081973371546923,0.4014386977263409,0.04915169401723318,0.40448227088103184
2.116388957970654,0.0014408316604613836,0.3955640803086262,0.06196056799852734,0.40038997191860737
2.1188759015170353,0.00158814214689329,0.40405270338816646,0.08434424900452164,0.4127651410316781
2.121362845063417,0.006523902866091835,0.4077509822563967,0.1115143749516978,0.4227752129211579
2.1238497886097987,0.001882901894176281,0.4066589454122078,0.13868258362614938,0.42966021715366665
2.12633673215618,-0.0027580560893292194,0.4007766212803494,0.16584891600350815,0.43374574346940076
2.1288236757025616,-0.002610569723348277,0.3901040382110428,0.1930134129282841,0.4352495298941373
2.131310619248943,0.011902165675412357,0.39379483776087687,0.21538771179312377,0.44900768611055875
2.1337975627953245,0.012049728229676981,0.3831186282080701,0.2329718531790892,0.44855430396345725
2.1362845063417057,0.012197325946945337,0.37244064763804596,0.24097747421464888,0.4437690321013566
2.1387714498880874,0.021921763516397963,0.3761261340602662,0.2537698251768834,0.4542582488068832
2.141258393434469,0.026857829027677416,0.3702330988453779,0.24740692964736688,0.446098732679514
2.1437453369808503,0.027005520533419203,0.36912677984986253,0.23146563431649447,0.43653203503425375
2.146232280527232,0.02715323940865766,0.3728072048922515,0.2155227857409372,0.4314772086721279
2.1487192240736133,0.017724177069606828,0.37169759507309363,0.19479002038234405,0.42001952416104454
2.151206167619995,0.022660348176816836,0.3753747846964872,0.1836325878491909,0.418498085641523
2.1536931111663766,0.027596540830516436,0.3694735913869298,0.17247372101359915,0.4086801784261664
2.156180054712758,0.022955946453460885,0.36835925261242064,0.146948249292274,0.3972521899660461
2.1586669982591395,0.018315369751891963,0.37682019912162446,0.12142142188831251,0.3963231975655586
2.161153941805521,0.01367480879370242,0.37091444166229115,0.11504689118933165,0.38858758420917594
2.1636408853519025,0.013822664969400322,0.37458402410592884,0.10388267956400199,0.3889676956967564
2.166127828898284,0.018758936351516153,0.38304057032247574,0.07835201920546275,0.3914217867206435
2.1686147724446654,0.018906814374321068,0.3819188974612304,0.07197377205285171,0.3891011895783701
2.171101715991047,0.019054700435421124,0.37121903255209343,0.08474797666602285,0.3812464705234405
2.1735886595374283,0.01920259261453794,0.3796714224661861,0.08315584822517863,0.3891452475550306
2.17607560308381,0.014562085673539338,0.37854567414991624,0.0911394416165141,0.3896348028281715
2.178562546630191,0.014709984337721305,0.3774186210309165,0.1086987949865943,0.3930351475016353
2.181049490176573,0.010069480053651048,0.37629028981461055,0.13583394634359713,0.4001832550427238
2.1835364337229546,0.005428974231386108,0.38473751376516097,0.15339132027576774,0.414223762470655
2.186023377269336,0.0055768682835680705,0.38839510946297695,0.15658255119328857,0.4188077815093804
2.1885103208157175,0.005724756984829882,0.3872631033669163,0.1310424667264236,0.4088735894596961
2.1909972643620987,0.010661041753072364,0.39091832849367103,0.12944354085023058,0.4119301246951863
2.1934842079084804,0.015597317368254204,0.3849956011752953,0.12784379427487202,0.4059666549952211
2.195971151454862,0.020533581933352973,0.3886485609026562,0.1262432641718938,0.4091536308374813
2.1984580950012433,0.02546983355408272,0.3923004271610844,0.11027677761144794,0.4083005085135294
2.200945038547625,0.03040607033893772,0.39595122599259724,0.10867479140573266,0.4117184872768974
2.2034319820940063,0.030553887078893283,0.39002417671435197,0.10707213234313251,0.4056067553207702
2.205918925640388,0.025913281888075512,0.37930770851994167,0.09589203039103289,0.39209835170958657
2.208405869186769,0.01648425288347477,0.3781670571587985,0.09907653861743881,0.39127766894838906
2.210892812733151,0.011843604825602982,0.38181384501404825,0.10704888670631973,0.3967134322968397
2.2133797562795325,0.0215681424778994,0.3758828877428644,0.11980911084014956,0.3951042306887753
2.2158666998259138,0.021715847364574326,0.36037421087775945,0.12299203709809348,0.38140292484729077
2.2183536433722955,0.017075120934703425,0.35444145314663666,0.11659770137761072,0.37351750618970553
2.2208405869186767,0.007645961320071448,0.3628730432303402,0.11499134939421829,0.38073391845652466
2.2233275304650584,0.003005173296140029,0.3713037964420778,0.11338461343903639,0.3882416913258537
2.22581447401144,0.007941158321142061,0.37015693132873206,0.11177752898010063,0.38674724535681226
2.2283014175578213,0.003300301254862581,0.36422087631122935,0.10538172802148615,0.37917416490326333
2.230788361104203,0.00823621352273296,0.3630724630436646,0.10856245570463052,0.3790451891561283
2.233275304650584,0.008383683311174561,0.36671171645211764,0.12131974706589688,0.38634990637665956
2.235762248196966,0.003742708770754666,0.36556185473440506,0.11971162039572647,0.38468214094700504
2.238249191743347,0.0038900946959055105,0.3596229026410893,0.09894970712120887,0.3730077874255691
2.240736135289729,0.004037435923392785,0.36804849811586315,0.08776446176679542,0.3783894800379542
2.2432230788361105,0.013761537254222134,0.37168505245156647,0.08136751546969023,0.38073590676114766
2.2457100223824917,0.013908783570857675,0.3705325901336991,0.08454730586245063,0.38031053303873613
2.2481969659288734,0.009267576360690755,0.3645911355589426,0.09251546379151243,0.3762601429068978
2.2506839094752547,0.009414720434820945,0.3586491163552439,0.08611840999666143,0.3689636922023848
2.2531708530216363,0.004773407326524537,0.36707176670189856,0.08450979163425387,0.37670462196424265
2.255657796568018,0.004920441853788038,0.365917094126206,0.08768964243325605,0.3763097180672797
2.2581447401143993,0.014644225517766674,0.35997352598762955,0.095657995976282,0.3727544029883218
2.260631683660781,0.014791143221590142,0.36360629619631846,0.10362648237909511,0.3783738421213488
2.263118627207162,0.019726403114110447,0.36245021865040883,0.10201832829039148,0.3770504359985752
2.265605570753544,0.024661600066521072,0.3517169137983034,0.09083356685254884,0.364093008497555
2.268092514299925,0.020019925633314672,0.34577161527909084,0.09401424766236133,0.3588836665530975
2.2705794578463068,0.02016658797419213,0.3494027500004644,0.09719519360680806,0.3632297876533156
2.2730664013926885,0.020313181971279737,0.3482451314978947,0.08601122742534706,0.3592843278199024
2.2755533449390697,0.01088289919009866,0.34229878317661777,0.08440439827223756,0.352719430860668
2.2780402884854514,0.011029351121783493,0.3459289383114368,0.05885591531011869,0.3510733480548435
2.2805272320318326,0.015964132659675334,0.34477041016372256,0.05246144067855596,0.349104127752891
2.2830141755782143,0.016110435380603305,0.34361162518433597,0.0652210064860963,0.3501175156672865
2.285501119124596,0.01625666082616417,0.352029413052513,0.0684042247709975,0.35898206729840265
2.287988062670977,0.011614403901195391,0.3508701834334884,0.0524343207042115,0.35495652971644576
2.290475006217359,0.01176046947535947,0.34013395918143896,0.05083014919075346,0.3441120789764229
2.29296194976374,0.016694855781621554,0.3389743763393014,0.05401493510394495,0.3436567462432112
2.295448893310122,0.016840754416276082,0.337814650935472,0.04762349984774694,0.34157041314158415
2.2979358368565035,0.02656337358116523,0.3270779989055055,0.046021084598788065,0.33136621796992405
2.3004227804028847,0.021920694919651096,0.32112965269351035,0.03963091378277994,0.32430753927726247
2.3029097239492664,0.01727792664163874,0.3199696346894747,0.03324142163686794,0.3221553755329713
2.3053966674956476,0.02221187364080135,0.3188095638697326,0.041217848889171904,0.32222944684261035
2.3078836110420293,0.02714572753367428,0.30328425247648516,0.04919501619615296,0.30844509712766166
2.3103705545884106,0.02250267994092714,0.292547335900454,0.03801934074402169,0.29586447001555777
2.3128574981347922,0.017859535768654067,0.2913872394775989,0.05078648273298292,0.29631866828911574
2.315344441681174,0.018004696606836457,0.29501558180927256,0.05876605240836241,0.301349981791654
2.317831385227555,0.013361354088749722,0.30822078804332786,0.05238127314640906,0.31292551468612095
2.320318328773937,0.01829471645349423,0.30706086331146043,0.06515099805573499,0.3144292018489242
2.322805272320318,0.013651168702276117,0.3106894425337554,0.06355643361001029,0.31741724017780976
2.3252922158666998,0.01858432240312391,0.3143181439341656,0.03802080273377584,0.31715430642815295
2.3277791594130814,0.0235173692065479,0.3083701823216223,0.026851361403878116,0.31042910882955116
2.3302661029594627,0.01887350076744132,0.2976339823711527,0.030048138883765674,0.29974170070864065
2.3327530465058444,0.02380632866698562,0.3108399852643591,0.023669147684296732,0.3126475112260588
2.3352399900522256,0.03352744788924833,0.3144693889236727,0.017291223407379874,0.31672396931542507
2.3377269335986073,0.02888324346183535,0.30373381109816044,0.020491201503695322,0.3057913653067295
2.3402138771449885,0.024238923659043343,0.3025752893633893,0.028480707311642206,0.3048778146117869
2.34270082069137,0.033959696759711444,0.3014170379572585,0.03168296269788584,0.3049742643244748
2.345187764237752,0.029315141164429348,0.2954706743423623,0.030097996018195516,0.298442936358246
2.347674707784133,0.019882061840885257,0.2943130258465052,0.028514238797034963,0.2963587612677323
2.350161651330515,0.020025667081708165,0.297944113061023,0.022143315766545157,0.2994362173868151
2.352648594876896,0.020169148582621754,0.2919987465203553,0.025350464788331806,0.2937902459051202
2.3551355384232777,0.015524101364349896,0.2860537532644387,0.01898210032995351,0.28710288680676727
2.3576224819696594,0.020455733733585002,0.2896859602370352,0.007826653308587339,0.2905127348379848
2.3601094255160406,0.0253872374002011,0.29331858100437547,0.001460957809708674,0.29441881085106686
2.3625963690624223,0.025530207399168003,0.2873748290363123,0.004673444446401831,0.28854449385924497
2.3650833126088036,0.025673045410884443,0.2910083376280923,0.012675737038961188,0.2924134609405251
2.3675702561551852,0.025815749800277676,0.28506551341588837,0.011102652614852104,0.28644732285692714
2.3700571997015665,0.04032352889806956,0.27912318286107896,0.023896234611740397,0.28303139087725254
2.372544143247948,0.03567755783676907,0.28754657564859487,0.03190289643216104,0.2915025147424809
2.37503108679433,0.03581985159755219,0.28639369480402266,0.035122664607508014,0.2907542119404323
2.377518030340711,0.031173601924367023,0.28524136649820253,0.038343968837034836,0.28949039805298604
2.3800049738870928,0.021738807206772903,0.2984548201252726,0.03199002870657708,0.30095052306222975
2.382491917433474,0.03145748244090818,0.3068804617400902,0.011272466969746375,0.30869444360227
2.3849788609798557,0.036387609424830214,0.2961531006206557,0.009710132790083037,0.2985381111444287
2.3874658045262374,0.02695237992261268,0.2997915791508441,0.0033610353347555133,0.301019464938351
2.3899527480726186,0.027093808945616304,0.3130075130547154,-0.01256320310045922,0.3144290250343037
2.3924396916190003,0.03202349158846418,0.3022820980370744,-0.014120540450615948,0.30430143027897416
2.3949266351653815,0.027376216310315615,0.2915573695490168,-0.020464564686287545,0.2935540075788617
2.397413578711763,0.02272878817708912,0.2904101529831866,-0.02680684732922778,0.2925290786083486
2.3999005222581444,0.02765801225991893,0.2844752570330895,-0.03793576669458254,0.28832318654752337
2.402387465804526,0.02779867703363126,0.2689642969352213,-0.03948608796902775,0.2732649092250518
2.404874409350908,0.023150780939268922,0.27260771107057646,-0.03145778645298414,0.2753915669038514
2.407361352897289,0.028079532384120975,0.2714635011989661,-0.02821604756063323,0.2743666123311215
2.4098482964436707,0.023431316538626512,0.26553168558396933,-0.02497244357772921,0.26773069600260657
2.412335239990052,0.018782938500466195,0.26438908903194625,-0.01693854694287289,0.26559612864345483
2.4148221835364336,0.02371120337271604,0.26324732629043046,-0.01369114020843476,0.26466738235878196
2.4173091270828153,0.02385089966231413,0.2621064153293391,-0.015230199439004721,0.2636296594589646
2.4197960706291965,0.023990429162901505,0.26096637402062095,-0.01676729753170747,0.2626026110445356
2.4222830141755782,0.03370659699391343,0.26461562345853107,-0.01351400753650367,0.26709584657750457
2.4247699577219595,0.029057385038107064,0.25390056803772154,-0.005470305976503553,0.255616420291434
2.427256901268341,0.024408001746278885,0.24797483861727354,-0.007001379488572823,0.24927151953492846
2.429743844814723,0.02454684893416692,0.26120366263785133,-0.018107204901443907,0.26297865319711433
2.432230788361104,0.024685521782479625,0.25049142759824683,-0.010057339274764487,0.25190569735353097
2.4347177319074857,0.015247212157236345,0.2445685707037768,-0.00679377634438616,0.24513755047253286
2.437204675453867,0.02017393517229582,0.23864670581940528,-0.017893300037973958,0.24016537644930985
2.4396916190002487,0.029888882705009334,0.23751425335252518,-0.028990677834361378,0.24113652824957288
2.44217856254663,0.020450036677498673,0.24117123029200638,-0.025720677365065114,0.24339950608986205
2.4446655060930116,0.020587815541058485,0.2448292502081837,-0.03202529297677259,0.24777174838246224
2.4471524496393933,0.025513814510560007,0.2436999265731603,-0.043116099246908846,0.2487963162044653
2.4496393931857745,0.020862822166040962,0.24736008272172993,-0.03983946094456137,0.25141489717434434
2.452126336732156,0.01621164369492034,0.2558097352498163,-0.03656056623355042,0.25891719340976566
2.4546132802785374,0.02592548761077651,0.25468369069415076,-0.04285620010988289,0.25956226054900333
2.457100223824919,0.026062335870562392,0.25834717541508034,-0.03478432447984581,0.2619779716417002
2.459587167371301,0.02619899367932088,0.26201180239345456,-0.03628693460523991,0.2658069101553245
2.462074110917682,0.031123862927708412,0.2656775878321782,-0.047364009298648924,0.2716553421096483
2.4645610544640637,0.03126013555140572,0.2693445478359191,-0.04886191424371411,0.27551981450920743
2.467047998010445,0.026607810132698417,0.26343589177048576,-0.059934241838815794,0.27147478331838204
2.4695349415568266,0.03632049854113373,0.25752844218471127,-0.06142735807201305,0.267232852523914
2.472021885103208,0.03645618276948426,0.2564106182089074,-0.07728325896628085,0.27027423204746204
2.4745088286495895,0.036591668058774784,0.2600824355548821,-0.09313671413414326,0.2786687477547277
2.4769957721959712,0.036726953015496444,0.26375550651595336,-0.08983409001977094,0.28104448050970493
2.4794827157423525,0.027285229611633044,0.26742984660760527,-0.07695217314110891,0.27961552811434853
2.481969659288734,0.022631706426876064,0.26631706792687426,-0.04012573356635585,0.27027217633192996
2.4844566028351154,0.02276638208615067,0.25562878247269394,-0.017661978038875148,0.2572476006691028
2.486943546381497,0.03247765854089235,0.24973021542717655,-0.014349290211486121,0.25224171132304085
2.4894304899278787,0.032611921147197354,0.24862138191345462,-0.015822440607333732,0.2512498329795255
2.49191743347426,0.027957571868978626,0.2618791035972676,-0.026869813182281987,0.2647343528637118
2.4944043770206417,0.0233030126764201,0.26077297548389833,-0.047491388723278405,0.2660845864483487
2.496891320567023,0.02343664554601177,0.2500914157228715,-0.06811034152793205,0.26025758624057643
2.4993782641134046,0.02357006581994614,0.2537764556470732,-0.06957303940441228,0.26419395385874256
2.501865207659786,0.03328007880770767,0.26225130324935053,-0.0710330768744818,0.27373163447377813
2.5043521512061675,0.033413069903285963,0.26115076310443586,-0.07249043532962851,0.2730769443301102
2.506839094752549,0.028757441108638537,0.25047484965024225,-0.0643682896715898,0.26020745078047625
2.5093260382989304,0.02888999775246648,0.24937719050822693,-0.08497384815599318,0.2650361673175037
2.511812981845312,0.03381073852930261,0.2434925899600051,-0.1103650760250634,0.2694666165062865
2.5142999253916933,0.03873125881984896,0.23760946547084583,-0.09265792206999279,0.25796096412721065
2.516786868938075,0.03886315401131446,0.22693942776785203,-0.07973640163864637,0.24365906993499503
2.5192738124844567,0.029418019497440495,0.21627089412126876,-0.09075411030730329,0.23637856936032717
2.521760756030838,0.029549467280087782,0.21039228170393054,-0.06346178735712904,0.2217329061544193
2.5242476995772196,0.02968068944582336,0.21409200759130886,-0.055320255227099935,0.2231068391574941
2.526734643123601,0.02981168472844531,0.2082164721600357,-0.07111789998268314,0.22203736515070172
2.5292215866699825,0.03473085518869501,0.19276568897076585,-0.07733588127661584,0.21058414394095049
2.5317085302163638,0.03486139293303192,0.18689328476826317,-0.09791619875500857,0.2138504117071854
2.5341954737627455,0.0349917000355342,0.19059927291896228,-0.10891681901036065,0.22229569355241577
2.536682417309127,0.03991017857698087,0.19430686005167974,-0.11512612870637717,0.22935126711685477
2.5391693608555084,0.04004002068394619,0.20759286597956628,-0.13090932129661859,0.24866694928020155
2.54165630440189,0.04016962845069072,0.21609209381737093,-0.1562663804227462,0.2696823570622825
2.5441432479482713,0.04029900065793868,0.21980455654402364,-0.13852485335190856,0.2629204965911011
2.546630191494653,0.05000494273383849,0.2235186703621026,-0.11120354726559611,0.2546120955938826
2.5491171350410347,0.0501338401914837,0.21286923809634795,-0.10782126949392357,0.24382809644367523
2.551604078587416,0.03589728851176177,0.20700988571720025,-0.08049397107013334,0.22499108312505284
2.5540910221337976,0.03123730310429018,0.20115222249713272,-0.057952056300701216,0.2116516632352435
2.556577965680179,0.04573068942465153,0.20008466425294147,-0.0689259296402227,0.21650855087325113
2.5590649092265605,0.04585862305252908,0.1990188200645866,-0.07989675252716566,0.21930571153657033
2.561551852772942,0.03640950613704408,0.19795470223622935,-0.07649929982899906,0.21532268609903782
2.5640387963193234,0.03174854747490863,0.19210391965571194,-0.07788716980297572,0.2097100317909764
2.566525739865705,0.03666414922918837,0.19104329107590035,-0.0840603475724997,0.21191493797705915
2.5690126834120863,0.03679110028870958,0.1899844251929239,-0.0854420117675776,0.21153724081407146
2.571499626958468,0.03212939951026428,0.1937157372478393,-0.09160895444650663,0.2166801460797602
2.5739865705048492,0.03225585239832163,0.19266043242517883,-0.10256116117381708,0.22062926827037452
2.576473514051231,0.037170457823795466,0.19160692577493776,-0.11351021434038344,0.2257862389503684
2.5789604575976126,0.037296408024074856,0.20013203557206216,-0.11966769648355857,0.2361444712361408
2.581447401143994,0.03263370188428716,0.1990821600743753,-0.11624519028696767,0.2328338661436627
2.5839343446903755,0.03754754825763662,0.19803411736644794,-0.12239629518187556,0.23581387384018873
2.5864212882367568,0.03767273608261268,0.19219951547690384,-0.12854419082355406,0.23427227276822382
2.5889082317831384,0.037797667586135786,0.18636676898010673,-0.13468886365357768,0.2330285953425642
2.59139517532952,0.03313393836170342,0.18532429235565973,-0.12646509029804243,0.22679587798850143
2.5938821188759014,0.01889314401003539,0.18907209666821911,-0.11344966412985968,0.22130529799414722
2.596369062422283,0.019017300060970355,0.20239859620824774,-0.1147961853076005,0.23346308832416152
2.5988560059686643,0.01914119548911164,0.20615018857027056,-0.12092783421278419,0.2397661917362519
2.601342949515046,0.01447642591697229,0.20511528785613153,-0.13184459801216164,0.24426388649291117
2.603829893061427,0.024176603575933653,0.19450550143294,-0.14275806069656127,0.24248043661703997
2.606316836607809,0.033876517462514744,0.19347445317539425,-0.15366820972127648,0.24938705087844498
2.6088037801541906,0.02442255326026721,0.19723375026279744,-0.15020982272460337,0.24911965838414862
2.611290723700572,0.019756726542920378,0.19620659646044603,-0.14195969409009201,0.2429812986310604
2.6137776672469535,0.024667439610340014,0.1903930020807092,-0.1289178117041434,0.23125263240192462
2.6162646107933347,0.03436628812916431,0.17979297734255661,-0.11587256691670511,0.2166402737843177
2.6187515543397164,0.03927646445315158,0.18356014565293588,-0.12197756118165692,0.2238648993564904
2.621238497886098,0.03939796758412184,0.18254090376318866,-0.1328675728534492,0.22918807410597927
2.6237254414324793,0.04430760317197868,0.17673526161295028,-0.12460057378841327,0.2207347262771432
2.626212384978861,0.03964016027255213,0.175720035689666,-0.11154176254764181,0.21187363696657877
2.6286993285252422,0.025395637910100133,0.17949523574751236,-0.12242154779518089,0.2187476021479635
2.631186272071624,0.04466966499921432,0.17848406480753987,-0.12372109517276897,0.2217179509018462
2.633673215618005,0.04957820737608298,0.17747493575939943,-0.1154403937058408,0.2174438685463179
2.636160159164387,0.03533286076726094,0.1860446647208729,-0.1550402724048272,0.24474172996950005
2.6386471027107685,0.04024085078968709,0.1850396477958518,-0.17069467077270595,0.25494247970648837
2.6411340462571498,0.04036015990382602,0.17924829759793637,-0.1671919815781724,0.24841910836982067
2.6436209898035314,0.035690787179310624,0.18782423660997738,-0.17326261433193046,0.2580149407936193
2.6461079333499127,0.045386344974647,0.1916138606608082,-0.16017613884112336,0.25383496087329677
2.6485948768962944,0.04550481577316867,0.1762519688082249,-0.161451368216861,0.24331458868391337
2.651081820442676,0.05041140862836713,0.1752573932219712,-0.16272308250675493,0.24440799000719476
2.6535687639890573,0.050529315999845115,0.17905333609797447,-0.1639912718587091,0.24800493178375194
2.656055707535439,0.04107013367520862,0.168486192900708,-0.165255926559702,0.23954931505095087
2.65854265108182,0.050764280691958374,0.17228639220711583,-0.15694023039488592,0.23851593039106622
2.661029594628202,0.046092932931254715,0.17130032930054684,-0.1581977872097795,0.23768656075334088
2.663516538174583,0.041421299485122076,0.17031641597561764,-0.15945178106624347,0.2369562746310235
2.666003481720965,0.04153778281271425,0.1741230639368343,-0.15112539616404774,0.2342714540047239
2.6684904252673465,0.03686557542001656,0.17793187815815115,-0.1667374467234044,0.24661751773906126
2.6709773688137277,0.03219307978173802,0.17216606020347225,-0.17276910061746875,0.24602176489080801
2.6734643123601094,0.0370971017006958,0.1807676347893321,-0.1644319457783059,0.24716593117652935
2.6759512559064906,0.04200083370627572,0.18458299666009204,-0.15130278023562838,0.24233754144802375
2.6784381994528723,0.03732746833569278,0.17882375043187748,-0.12859319219464815,0.22339982696878766
2.680925142999254,0.02786540809493865,0.1730667105927668,-0.10587997995758691,0.2047904720428101
2.6834120865456352,0.02797986213849124,0.17210028822174284,-0.11189355524372147,0.20717516645673456
2.685899030092017,0.03288242634744931,0.1807128943091989,-0.14184550666560902,0.23207445334057442
2.688385973638398,0.037784696610796975,0.18453932647588456,-0.15742859972876921,0.24549177242161113
2.69087291718478,0.03789826882541747,0.17879118889498447,-0.17300803659699504,0.2516631652300209
2.6933598607311615,0.03801154553673136,0.1778336989329401,-0.18379540628733615,0.25855454635838365
2.6958468042775428,0.03812452597777116,0.1816668639074659,-0.19457910459165184,0.26891886669903337
2.6983337478239244,0.038237209389507365,0.17113707776744835,-0.1957823174747233,0.26283207453515267
2.7008206913703057,0.03834959502086033,0.16539796093689274,-0.196981844316106,0.2600558092227907
2.7033076349166874,0.033673278808401874,0.15487271383076173,-0.18860087134729397,0.2463528686010616
2.7057945784630686,0.03378506665761216,0.15392655337861116,-0.19458140817480896,0.2503931687793605
2.7082815220094503,0.03868495784133841,0.14819427650138506,-0.200558237975196,0.252352286240229
2.710768465555832,0.03400774167948606,0.14725269663504514,-0.19216614405715937,0.24447435465141987
2.713255409102213,0.03890703074215507,0.14152501384798555,-0.19813553974403852,0.24657813912734636
2.715742352648595,0.04859442100590883,0.13101123476311338,-0.18494759532658023,0.23179942710054227
2.718229296194976,0.043916298494400374,0.1300765758783866,-0.1669675144297713,0.21616361335930437
2.720716239741358,0.03444946916120184,0.12435583368421721,-0.16334890412967162,0.2081682102943433
2.7232031832877395,0.03934754560861309,0.12821422450772157,-0.1693033550308929,0.21598783006515643
2.7256901268341207,0.3219727097827327,1.68830602708967,1.3761886212323677,2.2018035307814334
2.7281770703805024,-0.3961787255025909,1.4623257300484407,7.791490531452583,7.93742268151431
2.7306640139268836,-1.037716013831764,1.1310029049243826,13.258692347134582,13.347244841250026
2.7331509574732653,-1.5739087359299475,0.713491171024899,17.490489874619392,17.575650611409255
2.7356379010196465,-1.9568728592322635,0.2768281807765445,20.300135389840143,20.396114386684346
2.7381248445660282,-2.153089561127123,-0.14546723672071327,21.615802848293153,21.723256849548875
2.74061178811241,-2.162558842236884,-0.5246646557707568,21.418338641869525,21.533628675282603
2.743098731658791,-1.9852807031757902,-0.8080916341599458,19.827452858621776,19.942974663286076
2.745585675205173,-1.664350774432756,-0.9765945529999587,17.049046846241126,17.157907762504976
2.748072618751554,-1.2237110732073044,-1.0397502134075816,13.327329178854612,13.423719765345254
2.7505595622979357,-0.6825152133705937,-0.9831933999809819,8.973546076948141,9.053011955882962
2.7530465058443174,-0.11258924530857728,-0.8308661239634343,4.322885777479332,4.403448228291355
2.7555334493906987,0.4381827972015439,-0.5971335900402712,-0.2894634827117013,0.7952117931352247
2.7580203929370803,0.9362820903526535,-0.3155146162599962,-4.571409096800829,4.676959990859682
2.7605073364834616,1.338613003704698,-0.009951214112635665,-8.297896104568919,8.405180757281169
2.7629942800298433,1.6212335201071042,0.3004030081503539,-11.272599965843312,11.392548006655723
2.7654812235762245,1.7649900257380025,0.548510408993129,-13.318349753858627,13.445984293677967
2.767968167122606,1.7555173101037278,0.7391593966029637,-14.358531011696343,14.484322920092119
2.770455110668988,1.597603776000267,0.8771383790863618,-14.45539297885221,14.569835130646
2.772942054215369,1.3439218594348876,0.9289285379065313,-13.608935651780055,13.706646700309099
2.775428997761751,0.980106349938692,0.8897414743680585,-11.924503900102845,11.997751523180032
2.777915941308132,0.5540412802150596,0.7643655963359124,-9.59363385333102,9.639970280909754
2.7804028848545137,0.12797589293652678,0.600684941477883,-6.8126500444167535,6.8402778346923
2.7828898284008954,-0.29808981238027965,0.403487917499171,-3.7970306197139303,3.8300263135986263
2.7853767719472766,-0.6906370129680384,0.18713973866627365,-0.7526769190585689,1.0385197686866605
2.7878637154936583,-0.9922048694500559,-0.024417574193145608,2.119298120916742,2.3401904294760105
2.7903506590400395,-1.2027933822848746,-0.20724200033023976,4.632146773418448,4.790244763857073
2.792837602586421,-1.2984605353213068,-0.3421799223952262,6.6565821513779895,6.790668067217048
2.7953245461328025,-1.2744179256811754,-0.4244429330777142,8.125566610772015,8.235843951826075
2.797811489679184,-1.1498191670796234,-0.44445422182519323,8.948120490857177,9.032634388215877
2.800298433225566,-0.9390294699032374,-0.41179059144433516,9.129032197178379,9.18643438411598
2.802785376771947,-0.6516256412100453,-0.34560565146010314,8.697032151764526,8.728254550105047
2.8052723203183287,-0.3211265046513897,-0.241110994873305,7.704792793128997,7.715250399623524
2.80775926386471,0.018949116129636012,-0.09830661808220009,6.257658996191916,6.258459824332379
2.8102462074110917,0.34944760745906783,0.06365386915679805,4.494494458999688,4.508508166499912
2.8127331509574733,0.6416385490308437,0.21604005037018092,2.554162879481325,2.642370402855491
2.8152200945038546,0.8667915205466388,0.33012150900784487,0.5707395521334977,1.0890598639058904
2.8177070380502363,1.0201181183184203,0.42984026496728944,-1.33606543862631,1.7350718962049896
2.8201939815966175,1.0824647287052462,0.5008311115076101,-3.0369652018529356,3.262777854591163
2.822680925142999,1.0586197546760472,0.5191520351717518,-4.440980073277043,4.594833906884678
2.825167868689381,0.9437947925673245,0.5087450556305435,-5.490649211986601,5.594354199654756
2.827654812235762,0.7762970686067798,0.46482177255797197,-6.128511777181178,6.1949457642516785
2.8301417557821438,0.5465497758270974,0.3825937855532886,-6.349779364697257,6.384731211455636
2.832628699328525,0.2880717371519776,0.29079151738346987,-6.159240377123783,6.172826504569836
2.8351156428749067,0.0343817755135839,0.18462656749922557,-5.595202040403429,5.598352878199864
2.837602586421288,-0.22409691603065118,0.07367574523826548,-4.715125193871459,4.721022467336099
2.8400895299676696,-0.4394803045712614,-0.018118930174352066,-3.6052010968957013,3.6319342206040406
2.8425764735140513,-0.5926147771124352,-0.0955458595087757,-2.3564094122743224,2.4316633409204305
2.8450634170604325,-0.7074423505328529,-0.144239830326915,-1.0549413995959078,1.2783509551612022
2.847550360606814,-0.7600210084999581,-0.16898924354474243,0.22258848808367482,0.8097746185343758
2.8500373041531954,-0.7359855413135058,-0.16021729018974007,1.3756237809972252,1.5683383193505729
2.852524247699577,-0.6401243525462926,-0.12271237132253399,2.3419152358319355,2.4309225583346254
2.855011191245959,-0.5107446690050456,-0.07083969471627816,3.068790415807827,3.111808637339151
2.85749813479234,-0.3286928776446514,0.004977548385749486,3.5466725139199955,3.561874465053174
2.8599850783387217,-0.11791099529439675,0.08079734342681766,3.7468311097759006,3.7495565842777534
2.862472021885103,0.0785053479432627,0.13746607909939268,3.6740546061184087,3.6774634275949705
2.8649589654314846,0.2701329584975487,0.19413737058767877,3.3570734221860903,3.373514946739315
2.867445908977866,0.4521834328449472,0.2508112197241452,2.8294063804323724,2.8762678231538823
2.8699328525242476,0.5863495442279294,0.2883340149898066,2.134149109846467,2.231935195133342
2.8724197960706292,0.6582660824988185,0.3019173547567333,1.3287624492733787,1.5133003571897528
2.8749067396170105,0.6775098541195276,0.30592645060858104,0.4611304308148796,0.874786756778213
2.877393683163392,0.6488692622399514,0.27163088417689796,-0.37776728364938883,0.7984502347137109
2.8798806267097734,0.5675559033774943,0.22297267354761852,-1.1448350655451556,1.2971059493770727
2.882367570256155,0.45272339065929024,0.17910543341761942,-1.816130899682057,1.8802576072202755
2.8848545138025368,0.32831374054091667,0.1352407618137521,-2.348559157690553,2.375249480171734
2.887341457348918,0.17517333960339826,0.07701345005412463,-2.6990242113023513,2.70579904346079
2.8898284008952997,0.007667397677955212,0.018788709310803675,-2.8771028688739477,2.877174433826948
2.892315344441681,-0.14547366543512918,-0.015491442671089928,-2.8684299222606526,2.8721582113545585
2.8948022879880626,-0.2746730432085439,-0.040192214776160196,-2.6825821800192147,2.6969070891209244
2.897289231534444,-0.3703539291069794,-0.055313605995094495,-2.353078467407566,2.382687537548786
2.8997761750808255,-0.4229395165869907,-0.06085561538525086,-1.9182260131028164,1.9652410228669361
2.902263118627207,-0.44200661237826966,-0.04724143542976034,-1.3971784325996826,1.4661886546857754
2.9047500621735884,-0.4227668132415001,-0.02404787195907554,-0.8282429547715395,0.9302131318428181
2.90723700571997,-0.36043171592927237,-0.000851730869450229,-0.24972680858959606,0.4384919910574632
2.9097239492663514,-0.26936653046737535,0.041500601799242975,0.25696714699518,0.37458342504784325
2.912210892812733,-0.1591480635531607,0.07427870673884485,0.7014157160216872,0.7230694566151528
2.9146978363591147,-0.04414152519631731,0.10227098781845134,1.0644652825105254,1.0702776120550368
2.917184779905496,0.08044148788273053,0.13984265548319685,1.3030202137855085,1.3129693365798805
2.9196717234518776,0.20023576569045315,0.15347488691083244,1.4362341202397904,1.458224040027766
2.922158666998259,0.29608769492093573,0.16232129573852871,1.4545301922500826,1.4932093645235722
2.9246456105446406,0.3536320655965918,0.16159347893821652,1.348331620099307,1.4032698414820615
2.927132554091022,0.40159929763068103,0.14650303341843918,1.1415804172191528,1.2189958915585055
2.9296194976374035,0.4304125843818813,0.12183836266528303,0.8630070002689134,0.9720497219403931
2.932106441183785,0.40655310261531596,0.10196467674268472,0.5269765758545706,0.6733398339982477
2.9345933847301664,0.35396286894780227,0.0916703790114779,0.16700796377160465,0.4019761571847324
2.937080328276548,0.28221869004316036,0.052648242887511465,-0.20732203287731465,0.3541209564614924
2.9395672718229293,0.1865321626121999,0.018417091529454144,-0.5624945944786894,0.5929026950241783
2.942054215369311,0.0956337066158317,-0.001446268567150799,-0.8602024981889134,0.8655034577772054
2.9445411589156927,0.00952332210096063,-0.01173024092895636,-1.100445747816611,1.1005494700847165
2.947028102462074,-0.07179899087750741,-0.017223229143557894,-1.2688591372983762,1.2710056038502502
2.9495150460084556,-0.15312163557726965,-0.017925233538893526,-1.3654426706206984,1.3741183486261535
2.952001989554837,-0.21050259532623572,-0.004259447862607679,-1.390196351858,1.406049566073141
2.9544889331012185,-0.22478825676473013,-0.00016788916456667025,-1.3431201851722214,1.3618008739838436
2.9569758766476,-0.22470903972843714,0.013503055328450753,-1.2290025781327252,1.2494494075774996
2.9594628201939814,-0.21505334744364968,0.04154178836931255,-1.0574203417156287,1.0798663998391824
2.961949763740363,-0.17666756652733484,0.06479469605019883,-0.8475270936237909,0.8681658574980462
2.9644367072867444,-0.11434010019020713,0.08326177768575915,-0.6232648549656119,0.6391128707593086
2.966923650833126,-0.04722456159618804,0.08736622589150755,-0.3846336303329725,0.3972480915342449
2.9694105943795073,0.03425585602040726,0.0866848465060226,-0.16036384432401896,0.1854839315192606
2.971897537925889,0.10615913619085726,0.0955828486303183,0.04475609498102173,0.14969619630112704
2.9743844814722706,0.1684852790556306,0.09490661806564926,0.235514586059006,0.304732137553061
2.976871425018652,0.23081109140352046,0.0894445571575746,0.36402759078067604,0.4402160555563395
2.9793583685650336,0.2644061534685398,0.08398506819469587,0.43508350745808144,0.5160055853706655
2.981845312111415,0.28363567537511847,0.07373974676834694,0.4726243476027445,0.5561119676341082
2.9843322556577965,0.28371125397407637,0.07307380169477762,0.4431312828013265,0.5312223545021612
2.986819199204178,0.26463288944415087,0.0676220218123369,0.3657579210833042,0.4564889493128272
2.9893061427505594,0.2359773886123151,0.06696121250521925,0.24529266043722942,0.34689713342838485
2.991793086296941,0.18816794503183093,0.06151456582096504,0.09131230209231411,0.21801182045715325
2.9942800298433223,0.12599296222446688,0.046493677072328765,-0.0674527395198794,0.1502855968033485
2.996766973389704,0.0733944570007643,0.03626375479852939,-0.20227205004624693,0.21821042243769276
2.9992539169360852,0.011218816295479939,0.03561320084339936,-0.3418760550552431,0.3439089980409347
3.001740860482467,-2.6702137692362906,-1.540419485346022,0.21284212449443274,3.0900219310244523
3.0042278040288486,-3.1058855259270497,-0.8084392125813695,0.17859039295849044,3.2143418282845087
3.00671474757523,-3.3883287045140036,-0.1291288194142015,0.13955394953785216,3.3936589349356345
3.0092016911216115,-3.5127549014305446,0.5023000957847765,0.08615598163906313,3.549531692621141
3.0116886346679927,0.849552485139518,-1.4951018583768187,-0.1970816661799546,1.7308697741519479
3.0141755782143744,0.5000706771369361,-1.2275864903361788,-0.07808976174059801,1.3278317981871026
3.016662521760756,0.21283778518168478,-0.9313381525281195,0.02175219659289418,0.9555960627860245
3.0191494653071373,-0.012146190450497363,-0.6111452501738324,0.09765579924992096,0.6190175295414797
3.021636408853519,-0.19882326607813317,-0.2957382051477637,0.14483263658688905,0.384666439579419
3.0241233523999003,-0.347193441410906,0.005306173905509137,0.15849429888774935,0.38169606235876075
3.026610295946282,-0.46683352279187207,0.2680458683294007,0.15779439296612274,0.5609645229266098
3.029097239492663,-0.5529551065959238,0.47811566605718525,0.13315610564239044,0.7430238815204144
3.031584183039045,-0.600769789190751,0.6450923715732455,0.09415623694737008,0.8865291334312613
3.0340711265854265,-0.64379639349937,0.7737643859915062,0.05515999016192552,1.008081219855956
3.036558070131808,-0.6772465158751475,0.8497664970948082,-0.0029862547449788224,1.0866346490735554
3.0390450136781895,-0.6963317526643309,0.8778871058977131,-0.056340487990739874,1.121934904999874
3.0415319572245707,-0.7106289101669987,0.8629146133655725,-0.11447952310352072,1.123708431549306
3.0440189007709524,-0.7201379880355523,0.8048490170945013,-0.17261496371868112,1.0936985817991536
3.046505844317334,5.035590208420457,-4.716782243961823,-0.4605901762343496,6.91500880654082
3.0489927878637153,4.255147549680434,-5.248894724061611,-0.3559127361001053,6.766376457865131
3.051479731410097,3.3645712919715662,-5.570314939426063,-0.2560201260583188,6.51262579979069
3.0539666749564782,2.4069570655528247,-5.671466086010618,-0.15612395001117285,6.163062920979336
3.05645361850286,1.420612097369105,-5.585866989701369,-0.07058942520731826,5.764115858028704
3.0589405620492416,0.4438436143721679,-5.337459669790685,0.0005834410007441448,5.355882114186648
