Time (s),Acceleration x (m/s^2),Acceleration y (m/s^2),Acceleration z (m/s^2),Absolute acceleration (m/s^2)
0.0,-0.17390940032129265,0.41340032064774085,1.7924226491653155,1.8476805075208687
0.002486943546381497,-0.7230417736564774,0.46916374893122853,-1.200627157678193,1.4779748311517102
0.004973887092762994,-1.329634994078453,0.6542144779085468,-4.4618264161961285,4.701470064655177
0.007460830639144491,-1.941016682673243,0.925456936167502,-7.675140678602503,7.9706838313569595
0.009947774185525988,-2.538033283767626,1.2589491655630232,-10.586784740293748,10.959314626759316
0.012434717731907486,-3.0728008217638347,1.6546912245361727,-12.95733860664191,13.419118141888552
0.014921661278288981,-3.5165889343414083,2.060010734987851,-14.609631526193997,15.167444586764086
0.01740860482467048,-3.845455662494989,2.441388932082184,-15.467049217230697,16.123818426729596
0.019895548371051976,-4.0450358538533635,2.774883857604596,-15.505649834559447,16.263070813168316
0.022382491917433474,-4.124906372639135,3.0365535533198895,-14.744587162870072,15.608919266518472
0.02486943546381497,-4.07070206646433,3.212032867611576,-13.308359859895024,14.282864300167494
0.02735637901019647,-3.8872113962119452,3.310898665441509,-11.34062019663999,12.437127033849146
0.029843322556577963,-3.5935880327143646,3.323574198465787,-9.02811607398166,10.269707894914122
0.032330266102959464,-3.218562453431783,3.240482718314704,-6.595902619343613,8.022830166356572
0.03481720964934096,-2.786076732490007,3.090354703153957,-4.235516136887895,5.9373489619918525
0.03730415319572246,-2.310496137358873,2.8923438244802315,-2.1480697373940068,4.279982335999432
0.03979109674210395,-1.8492815653744272,2.6464501404792875,-0.4963693050520419,3.2664848294572533
0.04227804028848545,-1.4215866872923495,2.3670389192668595,0.6333937291036165,2.8328377240637423
0.04476498383486695,-1.0465651738491841,2.1115710588092376,1.1358743207918227,2.616150124161269
0.04725192738124844,-0.733793889120464,1.8656814072344954,1.0110722988165737,2.2453257622102973
0.04973887092762994,-0.5024265038006914,1.6485236358780673,0.316448331867635,1.7521992228373569
0.05222581447401144,-0.38119349520208456,1.469674609398665,-0.8522296847569244,1.7411339333538896
0.05471275802039294,-0.3413645007689443,1.3530764023785533,-2.36088662914697,2.7424680761576536
0.05719970156677443,-0.402093191123272,1.293940669439462,-4.085024185979659,4.303880108740938
0.059686645113155926,-0.5633796235791372,1.2826906618428706,-5.8522600066719335,6.017610748456138
0.062173588659537427,-0.7964934355008029,1.3289032440902977,-7.499788549220522,7.65814689777944
0.06466053220591893,-1.082281070863968,1.4230016673595274,-8.927053514721589,9.104314939431825
0.06714747575230041,-1.3968005702935784,1.5506207794642726,-10.009556587601388,10.224808052734936
0.06963441929868192,-1.7208983777032107,1.692607024852916,-10.656318275456284,10.926276994236717
0.07212136284506342,-2.049786146934437,1.8441720578884824,-10.838608328970839,11.183828697547947
0.07460830639144492,-2.3403683052321487,2.000527532886445,-10.589945741914075,11.02843529385089
0.0770952499378264,-2.5926449096886186,2.1473082974728306,-9.93906110465139,10.493696974571169
0.0795821934842079,-2.7922508073985153,2.2557839892626586,-8.967357443984532,9.659126539486696
0.0820691370305894,-2.9343976520592143,2.3451082790227336,-7.7801798032260105,8.639526618471496
0.0845560805769709,-2.9903550807273787,2.4152812241860255,-6.463719612312554,7.520337633865354
0.0870430241233524,-2.9649115536614676,2.4327840588894714,-5.13289872100451,6.407479073575795
0.0895299676697339,-2.8867975476798753,2.431135663699295,-3.912215785600898,5.435940861498219
0.0920169112161154,-2.741647909675314,2.395970885922252,-2.9022274456934642,4.6562038071105185
0.09450385476249688,-2.539039503097988,2.3225013794481484,-2.1747599208428134,4.070665175267412
0.09699079830887838,-2.307702804634004,2.239457621350145,-1.7633322039338513,3.6674245914223116
0.09947774185525989,-2.0572146776416753,2.1420512653991537,-1.667944464492587,3.4062522792849506
0.10196468540164137,-1.7971519854315408,2.039859175265721,-1.888596871924566,3.3102233849544858
0.10445162894802287,-1.55624520454638,1.9424582145578584,-2.4109243855502527,3.465198326909698
0.10693857249440437,-1.3392827948771933,1.8402716335385632,-3.1439475114373003,3.8813250372177737
0.10942551604078588,-1.1510532162635385,1.7668183122886503,-4.030205578764061,4.5485302529949285
0.11191245958716736,-1.0107101384532515,1.7173099042602173,-4.993084303292489,5.37601889422166
0.11439940313354886,-0.9182536178590441,1.6821696595176068,-5.922450577403541,6.224813676882253
0.11688634667993036,-0.8832605174791702,1.6661860380174431,-6.756055326538805,7.014314551706046
0.11937329022631185,-0.905730893614961,1.6741474996464738,-7.422072669353147,7.662263439179055
0.12186023377269335,-0.9760879958696232,1.6916888909391128,-7.872618740953257,8.11126900797995
0.12434717731907485,-1.0847550737876566,1.7331754782793505,-8.083751692893996,8.338323107255047
0.12683412086545634,-1.2317321834942752,1.784242108055801,-8.04589488653417,8.332893170872387
0.12932106441183785,-1.4026541710926577,1.835312029902691,-7.787778909634446,8.123134205227453
0.13180800795821934,-1.5735790759830435,1.8863853000189628,-7.31898073651003,7.720238314320626
0.13429495150460083,-1.749295357424056,1.937461974526463,-6.692172971191111,7.183242459125419
0.13678189505098234,-1.9298030712893244,1.9741768995078095,-5.988758637458309,6.594447993747428
0.13926883859736383,-2.076795046824091,2.00131853424739,-5.256621935675096,5.995867553295001
0.14175578214374532,-2.185482936448736,2.0188869346286147,-4.562800679307536,5.447145138456659
0.14424272569012683,-2.270232005796639,2.0125169464921098,-3.950390665038009,4.980940094648881
0.14672966923650832,-2.3071002938692615,1.9965738355173528,-3.4768528993240864,4.625745878253842
0.14921661278288983,-2.296087856199027,1.9854228672996208,-3.1804947751528125,4.396529360774841
0.15170355632927132,-2.261136764848154,1.9455452741457002,-3.0421628454746497,4.260591585858126
0.1541904998756528,-2.192670268563734,1.905671531439901,-3.0570688730046403,4.217233333202909
0.15667744342203432,-2.0906884226593703,1.861013291236648,-3.2491550401798097,4.288514547710809
0.1591643869684158,-1.9647680890140284,1.811570608821822,-3.5801142860696924,4.467585479392108
0.1616513305147973,-1.814909322789609,1.7621319427116018,-4.01642795285723,4.746651275790768
0.1641382740611788,-1.6698425989923038,1.7174857513310045,-4.51978897919461,5.115332249999354
0.1666252176075603,-1.5247795693073745,1.69199729965336,-5.023159883598224,5.515427708999726
0.1691121611539418,-1.3892970953011266,1.6569362226757318,-5.502598814249886,5.912205829942943
0.1715991047003233,-1.2825488450994518,1.6314561885037153,-5.9150103058292824,6.2684868790753345
0.1740860482467048,-1.1949580668241828,1.6299224618268657,-6.212510489471443,6.532982366027682
0.1765729917930863,-1.1361016217950781,1.6331814839956929,-6.37115751268516,6.674552921818535
0.1790599353394678,-1.101191161286505,1.6412333095439684,-6.400528345990169,6.69873360105295
0.18154687888584928,-1.0998035464481688,1.6540779929063592,-6.29583474971059,6.601748029352567
0.1840338224322308,-1.1271504283821172,1.6669271850969891,-6.081018903854332,6.405302899758223
0.18652076597861228,-1.1736550547822382,1.6797809403489574,-5.7656577782268545,6.118981926007247
0.18900770952499377,-1.2441058832143839,1.702216119433536,-5.3928471656309025,5.790348842493107
0.19149465307137528,-1.3385029678340088,1.7198675664168834,-5.000894455300584,5.455133361703387
0.19398159661775677,-1.4376927494241054,1.7375237385417486,-4.604165019616767,5.126820136459383
0.19646854016413826,-1.5225216686753589,1.7503962863045062,-4.236177843986503,4.829820091533094
0.19895548371051977,-1.6121433927475268,1.7536968600946876,-3.920875106917812,4.5877794846672
0.20144242725690126,-1.6969811687839624,1.7570023201548275,-3.686987389977256,4.422745556109704
0.20392937080328274,-1.7674582438323996,1.750735913337199,-3.572822081106896,4.3536240656704335
0.20641631434966426,-1.813997864843846,1.7444744996652313,-3.554437324816286,4.355204269570768
0.20890325789604575,-1.850965295273058,1.7382181324105628,-3.6270448786244813,4.427519548426886
0.21139020144242726,-1.8639953785540153,1.727178461412283,-3.7714912898145414,4.5477214908109955
0.21387714498880875,-1.8387229580207136,1.706567136396183,-3.987776718672416,4.711224539901028
0.21636408853519024,-1.7943017001482695,1.6811726136143192,-4.237594098639908,4.89929216241995
0.21885103208157175,-1.7546736746299691,1.660571752523644,-4.4874247661942235,5.096406506742978
0.22133797562795324,-1.6911085145324534,1.639976202503712,-4.751634090727489,5.303526796846255
0.22382491917433472,-1.613183079380577,1.6289628227775006,-4.982338198176365,5.484484793177783
0.22631186272071624,-1.535262631914165,1.6083780525275644,-5.160383634104729,5.619027545753829
0.22879880626709773,-1.4525588214853888,1.5877987507387479,-5.285770557059815,5.707048482762607
0.2312857498134792,-1.3794369106202111,1.5768017762752775,-5.324980302045585,5.722286715048433
0.23377269335986073,-1.3063201451345208,1.5658103745984895,-5.2875898336445175,5.667172196046755
0.23625963690624222,-1.2523621906565294,1.5548245976876793,-5.187964519451928,5.558854777852426
0.2387465804526237,-1.2223515027429102,1.5486329007187782,-5.026104516791538,5.39945679408205
0.24123352399900522,-1.2067113268777627,1.5520237387430256,-4.816375192634192,5.202153391458101
0.2437204675453867,-1.1910765051122056,1.5602087600453411,-4.597083930235353,4.998609334362974
0.24620741109176822,-1.1993891059461577,1.568399612783948,-4.3682308859678685,4.793730556254365
0.2486943546381497,-1.236437584483563,1.5765963483096894,-4.139393022522004,4.598805120977714
0.2511812981845312,-1.2687031691501227,1.5800106145244117,-3.939300915542935,4.429913427666367
0.2536682417309127,-1.3057627181375893,1.573854059200295,-3.7871083337057776,4.303977510043827
0.2561551852772942,-1.35240468619963,1.5629151366194938,-3.6780270287515577,4.218955437517214
0.2586421288236757,-1.403840721330509,1.5663475108934755,-3.6264223653669543,4.192272947671896
0.26112907237005717,-1.4457056647640865,1.5745744260792396,-3.6466597078999925,4.226993792001
0.2636160159164387,-1.4875763742150006,1.5732307227799143,-3.700431983833548,4.287322619444394
0.2661029594628202,-1.5294529006354987,1.5623164514250467,-3.7877393468682747,4.373445807309129
0.26858990300920166,-1.5426048749331884,1.5561968722696504,-3.9181587569977054,4.489247882492933
0.2710768465555832,-1.5557627677356813,1.5405068255104433,-4.058171543981789,4.611107822345991
0.2735637901019647,-1.5689266296239932,1.5200347644880283,-4.202989457148622,4.736787606732852
0.27605073364834615,-1.5485776878112496,1.5091459490453327,-4.35261264878986,4.860128724747139
0.27853767719472766,-1.5138696059073475,1.5078404289251097,-4.463945640954643,4.948958943877902
0.2810246207411092,-1.48874445071486,1.4825994304877672,-4.536988585212287,4.999872651694593
0.28351156428749064,-1.454048659024951,1.4717302297573138,-4.552588019485269,5.00063046496685
0.28599850783387215,-1.400205474139865,1.465656069412635,-4.53947451453066,4.97147382087955
0.28848545138025367,-1.3415801558329044,1.4500117886693917,-4.507225027452872,4.921122732659936
0.2909723949266352,-1.2925379637459256,1.4295858398806816,-4.431897691739813,4.832813591621397
0.29345933847301664,-1.2530789474274593,1.4283202885361315,-4.327857867064665,4.726590675385733
0.29594628201939815,-1.2040495430114642,1.4222731667766355,-4.20947091272058,4.603503190831911
0.29843322556577967,-1.1741802197007658,1.4162329265184637,-4.076736977656838,4.472605423630191
0.30092016911216113,-1.1443174133598848,1.4197764228508156,-3.9488098237182268,4.349520255993216
0.30340711265854264,-1.1240379796391136,1.4233268974333841,-3.820901195759385,4.229492497260637
0.30589405620492416,-1.1229187740517232,1.4220959950970407,-3.7121648548451294,4.130795504734679
0.3083809997513056,-1.1170178287308683,1.4304489738039097,-3.6417545616460956,4.06894204721933
0.31086794329768713,-1.1207004022333653,1.4244438648027582,-3.5857284465531247,4.017767814092862
0.31335488684406865,-1.138754946335664,1.4136575224328254,-3.553663462799518,3.990452909804991
0.3158418303904501,-1.1616047027126406,1.4028783975604764,-3.574290176497348,4.0116011204394955
0.3183287739368316,-1.1892497195382694,1.4160485541799193,-3.623666716830032,4.068226748582069
0.32081571748321314,-1.216901641523797,1.4100724096467459,-3.6634860026121068,4.109779008283185
0.3233026610295946,-1.2445605165574847,1.3849500110442856,-3.7224785987318363,4.162194653122549
0.3257896045759761,-1.2674379890631142,1.3837770351827743,-3.791067843101665,4.230063040927297
0.3282765481223576,-1.2903225099600468,1.3778231089110413,-3.8501002665773925,4.2879599767089935
0.3307634916687391,-1.3084257233811112,1.362299875521939,-3.8852108029164754,4.320034931288329
0.3332504352151206,-1.3121708699920545,1.3515725914312253,-3.92513001533786,4.353755447802508
0.3357373787615021,-1.3302884168734983,1.350429706254882,-3.9363392234724977,4.368992349026433
0.3382243223078836,-1.3292595877935267,1.344506056167696,-3.9332037797279025,4.364025614003484
0.3407112658542651,-1.3090844296130904,1.3385900904649648,-3.930089036082432,4.353289021611334
0.3431982094006466,-1.3032818122851666,1.3374702582804623,-3.8886879075592375,4.313845594874202
0.34568515294702806,-1.2783329591273629,1.326781395304408,-3.837730955231555,4.257072105339506
0.3481720964934096,-1.253391529828901,1.3256771603061341,-3.772429916493577,4.190422142846697
0.3506590400397911,-1.2236691673247888,1.329369195289563,-3.6927849316203876,4.111112895512449
0.3531459835861726,-1.1891659177168787,1.313915528812761,-3.608372947085778,4.0200553381732504
0.35563292713255407,-1.1546702302730596,1.3176234324324925,-3.5239825055987826,3.9354602717014306
0.3581198706789356,-1.1297589574264366,1.3117625310550363,-3.4348253427808846,3.8464400911979646
0.3606068142253171,-1.1144321448136,1.2963328693416878,-3.3792088236869713,3.7870160004432747
0.36309375777169856,-1.0991130312738266,1.3048533150283324,-3.3667098929982,3.7743114779875175
0.36558070131808007,-1.0838016621295337,1.3038050891981563,-3.349444655097674,3.754106185367714
0.3680676448644616,-1.0780748891854945,1.3171302526090396,-3.3465668603961376,3.754542225109731
0.37055458841084304,-1.0579907408452465,1.3113100260053394,-3.367653452204559,3.7656298498606686
0.37304153195722456,-1.0570680851962473,1.3054980664843616,-3.3935509534504966,3.7865427783137013
0.3755284755036061,-1.0609417569622335,1.3044828210112784,-3.414682693238195,3.8062226337249516
0.37801541904998753,-1.0552465907055804,1.2986875264184248,-3.43583721016655,3.8216635112520856
0.38050236259636905,-1.063924647389039,1.3024774359671036,-3.4570146390455125,3.844389852902578
0.38298930614275056,-1.0773991645702972,1.2919105761828344,-3.4686383075734373,3.8550322444093457
0.385476249689132,-1.0860933796434167,1.281352199979668,-3.4850735595769677,3.8687465677348873
0.38796319323551354,-1.0947957397990289,1.2755907534563844,-3.4919553184852674,3.875494991415042
0.39045013678189505,-1.093929482101719,1.2602610692551965,-3.494072120530884,3.872141482172723
0.3929370803282765,-1.0978598600517948,1.2401515931235871,-3.47705888818499,3.8513907563562224
0.395424023874658,-1.1113753203423733,1.2439927872339558,-3.436127350077001,3.819639292302797
0.39791096742103954,-1.1105338895774084,1.238265870417343,-3.3952196542735855,3.7807544731846834
0.400397910967421,-1.1049124174350364,1.2229708845690341,-3.3447591251124074,3.728793751299262
0.4028848545138025,-1.0897225434637432,1.2220498880072934,-3.2895342964030156,3.6744982021663057
0.40537179806018403,-1.079329520323844,1.2163493089883497,-3.2343337014637434,3.6201342996279977
0.4078587416065655,-1.0737333905445985,1.2058691888698339,-3.188734276439826,3.5742202199050648
0.410345685152947,-1.058568986523516,1.2049747787898426,-3.1575245536606165,3.5415383414158783
0.4128326286993285,-1.043413157088168,1.199300909783508,-3.121551048356233,3.5030150779130462
0.41531957224571003,-1.0330543475736287,1.1840592193448878,-3.0951790984991785,3.4712146536540476
0.4178065157920915,-1.013127389860864,1.1736149580669866,-3.0784088315991163,3.44679562961779
0.420293459338473,-0.9979975355791797,1.1679681663989687,-3.061663568021082,3.425482815967855
0.4227804028848545,-0.9780880195821238,1.1623304812861932,-3.049731837584991,3.4071296721663824
0.425267346431236,-0.9725524964702599,1.1471251361696304,-3.0474021696026377,3.39829581109732
0.4277542899776175,-0.9622373941061386,1.1319289775868386,-3.054674689555341,3.3967928214607053
0.430241233523999,-0.947142753457399,1.1263188518901457,-3.0571843124512927,3.392941124135266
0.43272817707038047,-0.9512106319164355,1.1159295886445155,-3.0597195660657643,3.3929315253993635
0.435215120616762,-0.950499053495077,1.110338033830114,-3.0814341876187967,3.410503724186601
0.4377020641631435,-0.9450080586286389,1.0999674199589393,-3.098386283929491,3.4209598244186665
0.44018900770952496,-0.9538913008549825,1.0943945926367749,-3.0962107679375066,3.4196680040219674
0.4426759512559065,-0.9675720136107737,1.093619590640771,-3.065330955380775,3.3953576065816264
0.445162894802288,-0.9716850268324281,1.0928540492392205,-3.053631001317058,3.3857294718440683
0.44764983834866945,-0.971018783557063,1.0825212001910283,-3.0515342204345046,3.3803240562653873
0.45013678189505096,-0.9703617266406446,1.0674094850264388,-3.015945103651367,3.3431855703044775
0.4526237254414325,-0.9745022987573889,1.0666725550465157,-2.980382594481286,3.312117974870445
0.45511066898781394,-0.969075329117921,1.0659452381195063,-2.9544236193048796,3.286938570536602
0.45759761253419545,-0.9732344699921232,1.0652275718834598,-2.9284914906882396,3.264652741795827
0.46008455608057697,-0.9774029535444932,1.0597311904644808,-2.8882211173420487,3.2280284931055543
0.4625714996269584,-0.9815808183960679,1.059032937757485,-2.838401020721328,3.1845834925041956
0.46505844317333994,-0.9666144897019795,1.0535560441835252,-2.8029733350236796,3.146582817405451
0.46754538671972146,-0.9468692156743289,1.0480889499314967,-2.786726580624997,3.1242433954034556
0.4700323302661029,-0.9462870509800618,1.0474200949967272,-2.780084067398038,3.117918449872593
0.47251927381248443,-0.9361376135763577,1.0419727092195703,-2.7591038947106767,3.094303647045395
0.47500621735886595,-0.9116325378350811,1.0413236355271323,-2.7525165979085884,3.080872671778135
0.4774931609052474,-0.9015022811828644,1.0454729100109401,-2.755533888547909,3.081993994069523
0.4799801044516289,-0.8913816709755733,1.0352669552858678,-2.7442138643544887,3.065460599220527
0.48246704799801043,-0.8716939377009028,1.0298594203334395,-2.7233450424253487,3.039254672905309
0.48495399154439195,-0.8615927315794141,1.0244619373373325,-2.7168695525864113,3.0287364464301816
0.4874409350907734,-0.8515012827202667,1.014286138284509,-2.715210700867434,3.020960104816908
0.4899278786371549,-0.8414196276832051,1.0041204616054167,-2.6992149861019517,3.0003343867746772
0.49241482218353644,-0.8313478028374273,0.9987533455329434,-2.697612939769428,2.9942883941443115
0.4949017657299179,-0.8212858443610831,0.9886080181410677,-2.6960394629077538,2.986718104749197
0.4973887092762994,-0.8112337882407783,0.9832613205866394,-2.670552649353855,2.959181396385859
0.4998756528226809,-0.8107684769117111,0.9827132871871036,-2.6546714322265395,2.944546033100438
0.5023625963690624,-0.8198899459759343,0.9821755487404205,-2.634030710878081,2.928311137482637
0.5048495399154439,-0.8194446175612591,0.9720713325246786,-2.61341899737708,2.906264098910807
0.5073364834618254,-0.8094325268832749,0.966765882219587,-2.597624803225722,2.8874680785999924
0.5098234270082069,-0.8185841288855115,0.9710476346639141,-2.5818598327176936,2.8773275240491256
0.5123103705545884,-0.8181690384733513,0.9657630098941792,-2.566124192897636,2.861309514919841
0.5147973141009698,-0.8081872902791998,0.9509120410271026,-2.5504179902394046,2.8393718197650637
0.5172842576473514,-0.80779253202141,0.9360715676186222,-2.534741330644648,2.820225588099602
0.5197712011937329,-0.8026195879804012,0.9356068323432303,-2.5095175128007696,2.7959321334379563
0.5222581447401143,-0.8070337021622835,0.9399410610717556,-2.4986886580623437,2.788949193629001
0.5247450882864959,-0.8114581017749869,0.929920672831962,-2.4639476440435004,2.75576753397017
0.5272320318328774,-0.8063160138293971,0.9199109096910278,-2.457967010866561,2.7455388218771555
0.5297189753792588,-0.8059726817404973,0.9194886101927202,-2.4376512316685073,2.7271220719361096
0.5322059189256404,-0.800851332123827,0.9190769993961345,-2.412577215529355,2.7030712546795517
0.5346928624720219,-0.7957404013575728,0.9138877054769479,-2.4018986775880418,2.6902622143526855
0.5371798060184033,-0.790639922300914,0.9230743730083573,-2.400827315798928,2.690938420909526
0.5396667495647849,-0.7759731209733112,0.9179066131560929,-2.394998020891478,2.679683256473206
0.5421536931111663,-0.7708936431166149,0.9031728601234337,-2.355680473048686,2.638035010261242
0.5446406366575478,-0.7706131176712395,0.8980267578696657,-2.3403356116323994,2.6224925948516398
0.5471275802039294,-0.7703431733773458,0.9120451435082391,-2.3393867289321104,2.626401571745974
0.5496145237503108,-0.7605070354541519,0.8973440141033631,-2.314526696726258,2.596272532012185
0.5521014672966923,-0.7458931388808135,0.8826538196384854,-2.294486032687267,2.569066074305765
0.5545884108430739,-0.7408667250757481,0.8823397999300877,-2.2792648339741426,2.5539097889816524
0.5570753543894553,-0.726274212013463,0.8724599680258682,-2.2736516004734995,2.5412894811845383
0.5595622979358368,-0.711692437388265,0.8625911600091707,-2.2728580248374843,2.53307189709052
0.5620492414822184,-0.7114866420123517,0.8814638250378035,-2.2577305891623585,2.5259729075846593
0.5645361850285998,-0.7112916465732811,0.89077076557817,-2.228269388229574,2.50291686434341
0.5670231285749813,-0.7015306748758248,0.8713583971706602,-2.2036281295046845,2.4713129460381715
0.5695100721213628,-0.6917805638025739,0.8663223783122347,-2.1885953098941027,2.4533699766056563
0.5719970156677443,-0.7011949566729905,0.8756627374093249,-2.168805812423731,2.4417572051606173
0.5744839592141259,-0.7010434633993383,0.8802258893791772,-2.1682017460816905,2.4428177102722985
0.5769709027605073,-0.6913261136113705,0.8704350555715203,-2.1628411860516454,2.431762936104193
0.5794578463068888,-0.6911965500153953,0.8606554737292933,-2.1527242235165343,2.419235849959289
0.5819447898532704,-0.6862895918705382,0.8652523813868853,-2.1234857390950506,2.3935009445466195
0.5844317333996518,-0.6813936715118825,0.8507069826668225,-2.1038562426844543,2.369432589422388
0.5869186769460333,-0.6765088177486163,0.8505381279670701,-2.089047420334616,2.3548244970749033
0.5894056204924149,-0.6716350591840597,0.8455922309530488,-2.059905747528333,2.325796973614333
0.5918925640387963,-0.6619840208950744,0.8262925117215163,-2.0403733290241792,2.298718225585875
0.5943795075851778,-0.6571325377130369,0.8117926100816462,-2.035238655691515,2.2875809929979205
0.5968664511315593,-0.6475038309813858,0.8068809556720544,-2.0349250078299423,2.2828135874953763
0.5993533946779408,-0.637886331797546,0.7971923646403272,-2.0059136485278035,2.2508007916928343
0.6018403382243223,-0.6378568743720449,0.7923036695256831,-1.9960886967082256,2.240307251707649
0.6043272817707038,-0.6330502761063881,0.7826380893760123,-1.995873430839211,2.235349141174683
0.6068142253170853,-0.6234665641553134,0.768195649669613,-1.9813259188156405,2.2146077551931387
0.6093011688634667,-0.609105765465611,0.7537647789947419,-1.9763882611225352,2.201200066845219
0.6117881124098483,-0.5947563100962038,0.744133905729176,-1.9666953310686495,2.1852599074943546
0.6142750559562298,-0.5995718378585418,0.7345146513994605,-1.9474588079888306,2.1660087651454267
0.6167619995026112,-0.6043987617929419,0.7249070406417302,-1.923467177243273,2.1425484971783013
0.6192489430489928,-0.5948718980511813,0.7200995012015996,-1.9090857302167965,2.1253291961574345
0.6217358865953743,-0.5949332891384737,0.724880460613744,-1.89952614439626,2.11839488149628
0.6242228301417557,-0.5950061541085735,0.7248847329205481,-1.8852116933307954,2.1055909688540018
0.6267097736881373,-0.5950905184463884,0.710535535273578,-1.8709308599123755,2.0879118167690325
0.6291967172345188,-0.585609600786532,0.7009865045350516,-1.8614721264142045,2.0734992552423672
0.6316836607809002,-0.5761402328350091,0.7010260673949458,-1.8328935545682086,2.0452075438537
0.6341706043272818,-0.5762592460877807,0.6962890370506045,-1.8139256420097087,2.026627587041795
0.6366575478736632,-0.5716014552290218,0.6771986298082326,-1.8093568691518005,2.0147204490402357
0.6391444914200447,-0.576532094654385,0.6724852883250143,-1.7904568925441495,1.9975889475162307
0.6416314349664263,-0.5718975753067698,0.6677838251637436,-1.7811678046380273,1.986343581073308
0.6441183785128077,-0.5576979211995965,0.6583058593162059,-1.7719128740201295,1.9708041020960645
0.6466053220591892,-0.562663576057274,0.6440514128828163,-1.7435385620135957,1.9419884756317038
0.6490922656055708,-0.5772177568306726,0.6489625243538271,-1.7151985558805833,1.922560475748725
0.6515792091519522,-0.5630532603376016,0.6490971988046019,-1.6916813322983248,1.897403983741844
0.6540661526983337,-0.5632657396298569,0.6396670543799581,-1.6681985606789418,1.8733202266967586
0.6565530962447153,-0.5587016043837087,0.6398257256144553,-1.6495387164501931,1.8553981834008422
0.6590400397910967,-0.539784070704459,0.6495732335495585,-1.6596438876956423,1.8621842182490462
0.6615269833374782,-0.5352435810481917,0.6497559857336268,-1.6841489353104606,1.882823987620013
0.6640139268838597,-0.5259265444560275,0.6499508094250248,-1.6703814930009973,1.8679424822504422
0.6665008704302412,-0.5166213863586974,0.6597345316702443,-1.651860453612489,1.852239257582615
0.6689878139766227,-0.5121165319748708,0.6791071726632789,-1.6429510960817826,1.850064376826118
0.6714747575230042,-0.5028351963501149,0.674549929144072,-1.6292882787963165,1.833696031794745
0.6739617010693857,-0.4983542075989834,0.6652164341641491,-1.620448876117182,1.8211876291648574
0.6764486446157671,-0.4938851836627363,0.660683513922574,-1.6020677451756615,1.8019562537261784
0.6789355881621487,-0.47985133894987725,0.6561627844456601,-1.5741449524353825,1.7716487345016405
0.6814225317085302,-0.4801947108985709,0.642077458227623,-1.565410983652935,1.75879560224611
0.6839094752549116,-0.4805501101718789,0.6327927641524902,-1.5519238874322525,1.743508773460228
0.6863964188012932,-0.47134075054050023,0.6330971242519499,-1.5384721316696357,1.729124221038004
0.6888833623476747,-0.4621434588436424,0.6238369437444602,-1.5202673769909865,1.7070331005799062
0.6913703058940561,-0.45774665838739775,0.6193774508790464,-1.5116748966734157,1.6965616473193177
0.6938572494404377,-0.46293877226499985,0.6149302604119196,-1.4983295434418693,1.6844711196061561
0.6963441929868192,-0.4585662067552106,0.6057069868877871,-1.4658661693907913,1.6510383237547748
0.6988311365332006,-0.45420578784571186,0.6060728579211667,-1.4478036591870271,1.633940831969328
0.7013180800795822,-0.44985753467056533,0.6016626809933348,-1.444142073624338,1.627856293415352
0.7038050236259636,-0.4407330628304902,0.6020532799758369,-1.4261510529434993,1.6095404966677478
0.7062919671723452,-0.4364091976740833,0.5976678652477583,-1.4225610765978018,1.6035397973282255
0.7087789107187267,-0.4416743610165426,0.598083260258309,-1.4285838001669333,1.6104755513449982
0.7112658542651081,-0.4325865545380894,0.593722674964416,-1.4107004586771748,1.5905073171934885
0.7137527978114897,-0.4330878129089499,0.5893745290730077,-1.3928531263669068,1.5732028543199232
0.7162397413578712,-0.43360134734403455,0.5946156454004876,-1.3798302635615087,1.5638124729051828
0.7187266849042526,-0.42933877216543564,0.5902924266306586,-1.3668435233138876,1.549528362905035
0.7212136284506342,-0.4298769114430515,0.5859816951585797,-1.3443161547247406,1.5281867130382505
0.7237005719970157,-0.4304273790727174,0.5768950632078731,-1.3266134228643747,1.5092974578700373
0.7261875155433971,-0.4309901920574691,0.5726093527527212,-1.332888995491409,1.5133496260982529
0.7286744590897787,-0.4267769638669322,0.5635477722758067,-1.32004729656839,1.4974142825891625
0.7311614026361601,-0.43215292103890546,0.5497103366903218,-1.2880883793086557,1.4656429559536814
0.7336483461825416,-0.4375412732965779,0.5358854640197865,-1.2609543128950822,1.4382702720957563
0.7361352897289232,-0.4285768268298067,0.5364383787185105,-1.2434335525973115,1.4204123451950215
0.7386222332753046,-0.4196248075373439,0.5274270784686101,-1.2451029563733282,1.4158197887345298
0.7411091768216861,-0.41547363446437563,0.5136399806645402,-1.2372321549867191,1.4025647136603672
0.7435961203680677,-0.40175811316194504,0.5094423091319982,-1.2293980051317241,1.390093702901733
0.7460830639144491,-0.38805506556981817,0.5052572708858989,-1.2311773628708291,1.3862428872831167
0.7485700074608306,-0.37915291009466034,0.49629647605241756,-1.2138398570723634,1.36509132294977
0.7510569510072121,-0.3846284682507276,0.5017135511504089,-1.186962342535626,1.3448178867766876
0.7535438945535936,-0.3853281414177433,0.5071432992478355,-1.1649100767488054,1.3276624531300643
0.7560308380999751,-0.37167513740347,0.4886437165635096,-1.1668367198891456,1.3184927077472017
0.7585177816463566,-0.36282308372503563,0.48931044559228143,-1.1640118982996341,1.3137690061927092
0.7610047251927381,-0.3635603977262023,0.4947782887771046,-1.1612240609345132,1.3135535914203411
0.7634916687391196,-0.3547334799368274,0.48110524171235847,-1.1632616561172568,1.307851587904324
0.7659786122855011,-0.33634234395576734,0.4722333329877957,-1.1509711149392263,1.2887455142683786
0.7684655558318826,-0.3275406164509726,0.4585857677434362,-1.1291408844630126,1.261959943408599
0.770952499378264,-0.328328310597089,0.4497393641932135,-1.1169246210820454,1.2480326856391724
0.7734394429246456,-0.32434022939587515,0.44090573038300374,-1.0903803506770764,1.2200507188768026
0.7759263864710271,-0.3251531922388134,0.4368732807924043,-1.0590849217414462,1.190900387670394
0.7784133300174085,-0.32597880834472437,0.4280652197333965,-1.0326151821391694,1.164386589676967
0.7809002735637901,-0.3172402834005123,0.42405836459276136,-1.0253363824255395,1.154028418678941
0.7833872171101716,-0.3133028394831645,0.42485272591043755,-1.027671755925569,1.1553214902653224
0.785874160656553,-0.31895489181769365,0.4256599107000718,-1.0204677286952286,1.1507705974259286
0.7883611042029346,-0.315042838816334,0.43605673573051007,-1.0085127427639797,1.1430203057613315
0.790848047749316,-0.301566691961493,0.44167800096354304,-0.9965952395335549,1.13102785009773
0.7933349912956975,-0.29768007580589506,0.4425237161166593,-0.9751384498173898,1.1114565502842488
0.7958219348420791,-0.29380619476960446,0.4433822940226735,-0.968084427044122,1.1045801902185053
0.7983088783884605,-0.2947334630229912,0.4394653406690483,-0.9562795941329707,1.092917317105922
0.800795821934842,-0.2860966812447011,0.44513807512003334,-0.9445123899785219,1.0826369990739002
0.8032827654812236,-0.27268426318431843,0.44603529631380745,-0.9327828495292749,1.0692932419697014
0.805769709027605,-0.26886142902190746,0.44694541626587814,-0.9115142004677619,1.0501927493518342
0.8082566525739865,-0.2698397854463093,0.4335032335068605,-0.9046484930938217,1.0388105983900704
0.8107435961203681,-0.26604253561625596,0.4248623696061933,-0.8930321472000387,1.0241059905093943
0.8132305396667495,-0.2670464957621131,0.42581123596930226,-0.8766651952362885,1.01053001148665
0.815717483213131,-0.2680632719438781,0.42677303383788967,-0.8411824590680332,0.980602401394264
0.8182044267595125,-0.2690928733326198,0.4181709642511642,-0.8201027931408831,0.9590862949383813
0.820691370305894,-0.265346905570048,0.4095818413273924,-0.8182146313561347,0.9527021822196025
0.8231783138522755,-0.2664021840499624,0.40579407566263814,-0.8067875837509693,0.9415652716642708
0.825665257398657,-0.26268191067626906,0.40680767433106935,-0.7953984863036858,0.9312105143872589
0.8281522009450385,-0.25418609378506307,0.4078342408852693,-0.8032009810123846,0.9359867275829448
0.8306391444914201,-0.2552799514651534,0.39450857203623846,-0.8110414826924153,0.9373330004208933
0.8331260880378015,-0.2468098783551561,0.3811958842162193,-0.8045548088597645,0.9238689618427737
0.835613031584183,-0.24792949544840065,0.37747299033682236,-0.7885293896926004,0.9086987903348976
0.8380999751305646,-0.24906200360878322,0.3689746865081136,-0.7773304613912497,0.8957772307511034
0.840586918676946,-0.24541900681318302,0.37964299520300093,-0.7757464528975788,0.8978540259391002
0.8430738622233275,-0.24657731879232253,0.380747502171638,-0.7694121792550082,0.8931764305772365
0.845560805769709,-0.2381717364685063,0.36749980956675854,-0.7535392615310315,0.871552238682662
0.8480477493160905,-0.22977907315899027,0.3638419392643355,-0.7616465467397724,0.8748056020568554
0.850534692862472,-0.22139933533403972,0.3554086863795529,-0.760215234795762,0.8679056419081337
0.8530216364088535,-0.22260933589843368,0.351776862431219,-0.7396685416005884,0.8487705395480193
0.855508579955235,-0.21904387094953254,0.343369665459309,-0.7191601023639063,0.8264830290999673
0.8579955235016165,-0.210702946340039,0.3397639065878244,-0.7034783417213415,0.8091458589693219
0.860482467047998,-0.2071633743579499,0.3361711867829653,-0.683046473735212,0.7889741540637102
0.8629694105943795,-0.1940599504846402,0.3278031068144389,-0.6530761151765301,0.7560572421671311
0.8654563541407609,-0.19054629323888184,0.32423647721676296,-0.642297705447632,0.744300695584995
0.8679432976871425,-0.19183400433337566,0.31110609172714376,-0.6267692468173216,0.7255528749059356
0.870430241233524,-0.17876947531565818,0.3027771638092909,-0.6160675641872739,0.7093460226664239
0.8729171847799054,-0.16571792077150832,0.31361490673192494,-0.6197694818506445,0.7140944962837357
0.875404128326287,-0.15267934512211828,0.31488890368634603,-0.6282982102116197,0.7191833181093903
0.8778910718726685,-0.16359576918688257,0.3161759642321398,-0.6081349424659273,0.7046693723314558
0.8803780154190499,-0.16494837373839072,0.3126876877741278,-0.5832217110469742,0.6820037538907175
0.8828649589654315,-0.15673716258866105,0.2948472702033915,-0.5822889511032603,0.6712390583537814
0.885351902511813,-0.14375054266757564,0.2961735371007972,-0.5718178540148635,0.659817126760274
0.8878388460581944,-0.14514213066381565,0.2879360706905221,-0.5518084338005611,0.6391134222591148
0.890325789604576,-0.14175831650173865,0.2845000828873383,-0.5509911237983918,0.6361029287504689
0.8928127331509574,-0.13838750650576015,0.2858655754532724,-0.5454239202212303,0.6311556717130944
0.8952996766973389,-0.13981810679911427,0.28724414663864506,-0.5303184319623995,0.6191089904419981
0.8977866202437205,-0.13647331334324347,0.2790589911824872,-0.5296166872372012,0.6139973299736555
0.9002735637901019,-0.12356472521937983,0.27088691691452205,-0.5241650837791756,0.6028241850881783
0.9027605073364834,-0.12503436123044193,0.2723047314743434,-0.5139636320050851,0.5949303096123759
0.905247450882865,-0.12172861009668712,0.26894722571027474,-0.5085891483752576,0.5880589992325553
0.9077343944292464,-0.11364747362011673,0.2656028035626159,-0.5032532387929898,0.5802796049114518
0.9102213379756279,-0.11036776004419763,0.27184827210313767,-0.4979559118867769,0.5779641993113646
0.9127082815220094,-0.11667787409327585,0.27331842161364683,-0.47833196573004777,0.5631324491942132
0.9151952250683909,-0.10384739705105633,0.2748016554692332,-0.463535021045292,0.5487849737906189
0.9176821686147724,-0.10060674984689905,0.2762979735371589,-0.44877668136132165,0.5365284689829406
0.9201691121611539,-0.10695593329055597,0.27301897217729953,-0.4292685496158697,0.5198561517613457
0.9226560557075354,-0.1037413347131646,0.2745414575238452,-0.419375841437871,0.5118704648728118
0.9251429992539169,-0.10053976117073837,0.2665002189232517,-0.4047333519453957,0.49491382728649413
0.9276299428002984,-0.11171642284298267,0.2728372720987631,-0.3853410856295092,0.48518912647879414
0.9301168863466799,-0.098964093189921,0.26961059938524334,-0.3851410629959968,0.48043460059352505
0.9326038298930613,-0.09580159528040044,0.26160860285464027,-0.3801912707617259,0.47134107513481416
0.9350907734394429,-0.1070173320659158,0.2631964910351994,-0.3752801149807752,0.4707018875633835
0.9375777169858244,-0.10866928638099971,0.2647974556697479,-0.37998440444397197,0.4757256078375095
0.9400646605322058,-0.10075745746705034,0.2568346883177255,-0.3655737207971903,0.45799592541417844
0.9425516040785874,-0.10243545765241607,0.2536733969572236,-0.33683646834716363,0.43393780858190595
0.9450385476249689,-0.1089148824699836,0.2505251761026468,-0.3320798740626252,0.4300027421333049
0.9475254911713503,-0.10583052061851933,0.2378132167661362,-0.32257351784890886,0.4144983710226911
0.9500124347177319,-0.09797077388495162,0.22511432305960666,-0.3131058022756683,0.3978818598540164
0.9524993782641133,-0.10448925382446855,0.21721689559367752,-0.3084651293358682,0.39147403478690984
0.9549863218104948,-0.10623234523749697,0.20454412483753526,-0.30865149712666096,0.3852133913284183
0.9574732653568764,-0.09841164269355712,0.2014612176819197,-0.308876499850566,0.38167547184416095
0.9599602089032578,-0.10496916049262206,0.20317976755681189,-0.2947749244963713,0.3730855112582199
0.9624471524496394,-0.09717447622022846,0.19054615775224004,-0.2902887840434669,0.36058049753730703
0.9649340959960209,-0.07981599051353899,0.17792559462190782,-0.2618992510568443,0.3265261509701065
0.9674210395424023,-0.08641252374144626,0.1701064777008754,-0.21918312741488322,0.2905934984794625
0.9699079830887839,-0.08823365291908963,0.16708880302638507,-0.2291780542715376,0.2970293355275272
0.9723949266351654,-0.06612576151297056,0.1640841631383645,-0.2200579759247976,0.28235038816443386
0.9748818701815468,-0.06318447596483351,0.16588095704087502,-0.2013996925523216,0.26845969170793016
0.9773688137279284,0.9165780979797573,-1.5561344183911268,7.5648565684982145,7.777449751669776
0.9798557572743098,0.5651515637475353,-1.4920623340362726,4.006500390012514,4.312504107108361
0.9823427008206913,0.18977003178862178,-1.3226323601668788,0.3379723563144488,1.3782577185557146
0.9848296443670729,-0.18562447710354762,-1.0669981150812802,-3.1438465180236683,3.3251635077055255
0.9873165879134543,-0.522724731988074,-0.7443132172517148,-6.142075217870664,6.209052366729448
0.9898035314598358,-0.8071655183396177,-0.38809649528463663,-8.422081970702346,8.469569043633696
0.9922904750062174,-1.053312041368964,-0.02707837463915208,-9.86415668312441,9.920271496491107
0.9947774185525988,-1.1989150529767973,0.33874113897519287,-10.382108084430218,10.456591755456452
0.9972643620989803,-1.2679165646447692,0.6758432164349464,-10.004666583046921,10.107310715815434
0.9997513056453619,-1.2603165710686448,0.9554974317656342,-8.818023426692127,8.958733747305592
1.0022382491917432,-0.022109866565582892,0.11946664495510051,-0.12799076097319073,0.17647311509369457
1.0047251927381249,-10.386217343901667,5.824407758789373,0.45523660304120206,11.916563129533536
1.0072121362845063,-9.229439363434107,4.088183071392935,0.25791575912429643,10.097638948156911
1.0096990798308878,-7.919445401548677,2.3902785623617295,0.05576805940939522,8.272494010287756
1.0121860233772693,-6.484965871949377,0.7642130480372078,-0.14162967467485643,6.531375269258915
1.0146729669236507,-4.993038414721436,-0.7612830587274886,-0.3007586045543498,5.059687761572142
1.0171599104700322,-3.505912266448999,-2.138325731965422,-0.44077232763593166,4.1301498763159445
1.0196468540164139,-2.04274103365325,-3.3525497691186352,-0.5616708275041855,3.965835977881259
1.0221337975627953,-0.646620339276535,-4.380013161155398,-0.6395120706026045,4.473433674875156
1.0246207411091768,0.6249889839558852,-5.191985495888522,-0.698238056039644,5.275875377838735
1.0271076846555582,1.7672985400221384,-5.774101571257855,-0.7378487657856585,6.083421231999164
1.0295946282019397,2.7420011098358144,-6.159880218570649,-0.7391905679946014,6.783000596291512
1.0320815717483214,3.5490967010508925,-6.3493214460561465,-0.7309938634899371,7.310562375578146
1.0345685152947028,4.207738934779564,-6.3376368587868335,-0.7084702293208274,7.640198816977684
1.0370554588410843,4.655678575865731,-6.143980078599733,-0.6381008220839455,7.735050540697827
1.0395424023874658,4.907280842454214,-5.782716324173976,-0.5629812509718999,7.605140448507983
1.0420293459338472,5.0104297761076895,-5.287364427631789,-0.49268830140756137,7.300915757234598
1.0445162894802287,4.965125385360807,-4.681866414616101,-0.38891472508468716,6.835466178692732
1.0470032330266104,4.771367678922691,-3.9901643109301936,-0.26602570969595796,6.225602816909248
1.0494901765729918,4.453098682278301,-3.240988545858651,-0.15754005569256613,5.509892330857594
1.0519771201193733,4.03904882440602,-2.448704338883645,-0.058669336441711906,4.723717861625708
1.0544640636657547,3.5435833244964616,-1.6516189262484784,0.049740085169981185,3.9098979438425614
1.0569510072121362,2.995432611873504,-0.8784627377140899,0.14853462021158315,3.125120133247497
1.0594379507585177,2.4041735027516173,-0.11965897663673086,0.22334908358901728,2.4174890517151852
1.0619248943048993,1.7889596201571276,0.5769083136264226,0.3029139206059952,1.9039318706773392
1.0644118378512808,1.1928866038888746,1.1968739128035168,0.37286394719674476,1.7304661614739163
1.0668987813976623,0.6111660607124799,1.749814617068485,0.42362238312755274,1.901270909512899
1.0693857249440437,0.06295161416471085,2.2117883991976157,0.4743428685966933,2.2629564700938536
1.0718726684904252,-0.4230263054075488,2.582795248413499,0.4962950111077564,2.663848961248471
1.0743596120368066,-0.856344494051891,2.853258347144217,0.4846904352727428,3.018167309160647
1.0768465555831883,-1.2130609244055908,3.0231776843046014,0.47304799277132936,3.2916400958583036
1.0793334991295698,-1.502752392180693,3.097341651976698,0.45179090590389315,3.47216144266536
1.0818204426759512,-1.7254188862819855,3.0901154487307188,0.4065539941523415,3.5624668377100774
1.0843073862223327,-1.8762719921276274,2.9919222563833774,0.36606770738156946,3.550493056333497
1.0867943297687142,-1.955311698290478,2.81712727320165,0.33512047935340483,3.4455414155935222
1.0892812733150956,-1.952961186537716,2.5800956973018,0.29455872772492064,3.2492639239429275
1.0917682168614773,-1.8883740583939181,2.299981129970304,0.25395929057016886,2.9866980269022005
1.0942551604078588,-1.780703915219768,1.9672067524222605,0.2181106031363047,2.662401373883215
1.0967421039542402,-1.634739148251708,1.6057145689660572,0.17743589120123637,2.2982982520340887
1.0992290475006217,-1.4504797452431504,1.239446583761794,0.13672359099378006,1.912802307007614
1.1017159910470031,-1.2422909037463192,0.863614380900013,0.11512734919192269,1.517356515443921
1.1042029345933846,-1.0101726111909692,0.48779475428512464,0.08391677975705747,1.1249153090936495
1.1066898781397663,-0.763701661486566,0.13114130431573434,0.04309191705722171,0.7760767892229737
1.1091768216861477,-0.5172432517024396,-0.19676917539617733,0.030960022505954754,0.554271786050286
1.1116637652325292,-0.2612205621468413,-0.4911482947038863,0.037944324794976225,0.5575864069926687
1.1141507087789106,-0.02436399953116586,-0.7328424536446305,0.04010284313454804,0.7343431788779079
1.116637652325292,0.19332644951348482,-0.9410052789620162,0.02785880717361522,0.9610630386467938
1.1191245958716736,0.3822739918733282,-1.1204251875821234,0.03951948024020702,1.1845031849470316
1.1216115394180552,0.5376902379122064,-1.2519485799722367,0.07029649625372514,1.3643414661389337
1.1240984829644367,0.6739404114319119,-1.3355754700230362,0.10103627964500994,1.4993884900494512
1.1265854265108182,0.7862361231090742,-1.3617290651261056,0.13173886859676465,1.5779190149022098
1.1290723700571996,0.8697889837757926,-1.3591397993764303,0.16240430176047127,1.6217795866815674
1.131559313603581,0.9198106044190184,-1.3134424771264626,0.18824421493429533,1.6145025776312676
1.1340462571499625,0.931512596179934,-1.2246371128292348,0.2092586477018763,1.5528171033958322
1.1365332006963442,0.9240485869548969,-1.1214541409987215,0.23981285007114828,1.4727645380289984
1.1390201442427257,0.8878417848713692,-0.9943167697247397,0.2703300559099997,1.3601497022929951
1.1415070877891071,0.8420458181310502,-0.8528018205161654,0.29123349954600997,1.2333406083339231
1.1439940313354886,0.7770838951654918,-0.6921209050580712,0.32167683568648187,1.0892046244674343
1.14648097488187,-5.555910301809842,3.4190050874842104,0.744732371838472,6.566000409356049
1.1489679184282517,-5.041500063085214,2.6220299992547083,0.6458151161584862,5.719164394152231
1.1514548619746332,-4.440910861418461,1.839432428121854,0.5516494766694287,4.838338359581765
1.1539418055210147,-3.7685078910976495,1.076000761858177,0.46223549661021224,3.9462755883378344
1.1564287490673961,-3.067386766184076,0.34131179142248813,0.3823616229886113,3.1099124944376997
1.1589156926137776,-2.3710662939510527,-0.34069248239823,0.30245109329823094,2.4144364563414675
1.161402636160159,-1.6795464582818131,-0.946070058950341,0.23208075875863088,1.9415937630089528
1.1638895797065407,-1.0119808561944692,-1.4700325509932581,0.16167385775106702,1.7919931335147323
1.1663765232529222,-0.3970998912019287,-1.9173683780583546,0.10080724237908356,1.9606508921495394
1.1688634667993036,0.16030804993012648,-2.2737123465267874,0.049480958544698694,2.2798936095527025
1.171350410345685,0.6554545805804821,-2.539064472870645,0.0029066492668547994,2.622303863629801
1.1738373538920666,1.0787629109517007,-2.727789983652509,-0.01018521875800893,2.9333720104414116
1.176324297438448,1.4110794447491017,-2.820735282321644,-0.004159808282864219,3.153999054586502
1.1788112409848297,1.695499828984794,-2.8274771923774202,0.0066177183707925025,3.2968759057171684
1.1812981845312112,1.8937168543676446,-2.7719577474077335,0.04608942587351983,3.35738551749828
1.1837851280775926,2.005730538310432,-2.649388561205545,0.09989015276098989,3.3244838371056127
1.186272071623974,2.0650597216088755,-2.459769651010426,0.14886633467426158,3.2151360119663104
1.1887590151703555,2.0621276153159736,-2.2174662441485387,0.20738323092033895,3.035215750198646
1.191245958716737,2.006511043905401,-1.9416319713913595,0.25628727798583206,2.8038731159774017
1.1937329022631187,1.9029984286692732,-1.6418436569940735,0.31473213933972666,2.533004132065867
1.1962198458095001,1.7515897877175273,-1.3372549319762819,0.373141058947013,2.235073105606016
1.1987067893558816,1.5810155592193862,-1.0135006042384123,0.4363024911495632,1.9279920998460367
1.201193732902263,1.4056409715198588,-0.6801574984048024,0.5042164873829478,1.6409372412131944
1.2036806764486445,1.2111008331781985,-0.37553285914349255,0.5577294862134785,1.3852264566536996
1.206167619995026,0.9973951628500766,-0.08047309139996228,0.6016299432190664,1.1675751016075901
1.2086545635414077,0.7980428025679627,0.1906565765178403,0.6263411044247746,1.032242909392977
1.2111415070877891,0.6034669646157316,0.4234909161819651,0.6462282328632956,0.9803712880438629
1.2136284506341706,0.40409086141052714,0.6276067156470169,0.6756565919714248,1.0068224491315128
1.216115394180552,0.2238565287444665,0.7982155528880721,0.7002610256661921,1.0851844628453728
1.2186023377269335,0.07234079258074899,0.9305290057623745,0.7056763782647337,1.1700840019747112
1.221089281273315,-0.055244730947006326,1.0293354586505914,0.7062679144041812,1.2495590556871101
1.2235762248196966,-0.15890002225419364,1.0802696825355969,0.7020356891568458,1.2981085905762544
1.226063168366078,-0.2434134649465265,1.0976968682062482,0.6738261447078973,1.310812802302063
1.2285501119124596,-0.3087850391800985,1.0959822063361688,0.6407929501971008,1.3065759840320255
1.231037055458841,-0.36459153162300606,1.0607604675625275,0.5981477585527379,1.2711886152480858
1.2335239990052225,-0.3964677122138469,1.0063968423304464,0.5698326430130312,1.222591711130086
1.236010942551604,-0.40441356072490864,0.9281029076905298,0.5414824506397373,1.1480978092970262
1.2384978860979856,-0.38842905680191964,0.8163018372604607,0.5130972388395758,1.0394684209670004
1.240984829644367,-0.35809098660536365,0.6805704178272229,0.49425387204188276,0.9141619869245917
1.2434717731907485,-0.3181877328502287,0.544850646027434,0.48495240841532095,0.7957917430086222
1.24595871673713,-0.2639308714864126,0.4043540984652476,0.48040450318615946,0.6811389201556178
1.2484456602835114,-0.20968559162124256,0.26865756159571097,0.4662450053159155,0.5775199890204163
1.250932603829893,-0.14587506563740504,0.13776101512397831,0.45683918406184,0.498958587617243
1.2534195473762746,-0.09165288571705577,0.01645284196685104,0.45218709909202914,0.4616753405308913
1.255906490922656,-0.02786541735814574,-0.09526697838717801,0.4427120038037131,0.4537027627946138
1.2583934344690375,0.03591055414050526,-0.20218686987726064,0.4571443785242941,0.5011487614130216
1.260880378015419,0.09009824360038576,-0.299518449908597,0.47633067074369784,0.5698419984755987
1.2633673215618004,0.1442744792438423,-0.3824733359923984,0.49548253827635413,0.642342528440251
1.2658542651081819,0.19843928277149914,-0.4462631457452222,0.505023235977907,0.7025506480495802
1.2683412086545636,0.24780427268189198,-0.48609949688833565,0.5193180356650071,0.7532535433713247
1.270828152200945,0.29236947091134435,-0.5163476205282467,0.5383669995507567,0.8012077127383673
1.2733150957473265,0.327346496192685,-0.5417959412342284,0.5669585935238821,0.849788572103726
1.275802039293708,0.3479469673748337,-0.5432908670766832,0.5667856539435423,0.8587654137600598
1.2782889828400894,0.37811292334397417,-0.5304092261499278,0.5761554706450713,0.8696312185857491
1.280775926386471,0.39869077321816193,-0.5079394433293376,0.5807028972894415,0.8684311519397291
1.2832628699328525,0.4001037328700545,-0.4758815402707004,0.5852164011658871,0.8538293000480358
1.285749813479234,0.4015054382074532,-0.44860074869077815,0.5992728532288769,0.8494570037695638
1.2882367570256155,0.4028959119694697,-0.4021550738432196,0.6132955114944654,0.8367706996058204
1.290723700571997,0.3946983703664422,-0.3556981509631978,0.6224960376397668,0.8184187773052211
1.2932106441183784,0.37212443304016196,-0.3044415987824003,0.6412397069618034,0.8014671811865446
1.29569758766476,0.35911613966472605,-0.2483854394501992,0.6599497784925941,0.7913238518021478
1.2981845312111415,0.3604619167427004,-0.20189490517365316,0.6786263182392531,0.7944986003536217
1.300671474757523,0.34743136764347043,-0.15060480833398282,0.6876925859006509,0.7850550657238332
1.3031584183039044,0.33438972572752806,-0.09930357468907669,0.6967254547871704,0.7791688186564898
1.305645361850286,0.31654861118169475,-0.05277963009155373,0.7153017985373644,0.783993224195496
1.3081323053966674,0.29390804761997136,-0.025398207128729755,0.7338448778346098,0.7909205485415274
1.310619248943049,0.256891252121884,0.016359494721801315,0.7284127437253076,0.7725580066931755
1.3131061924894305,0.2342286684349033,0.053339839366253194,0.7133706741402133,0.7527323072006861
1.315593136035812,0.2163435138487081,0.08075440057972028,0.7030839473298336,0.7400356925110412
1.3180800795821934,0.19844740907730296,0.09860315536618147,0.6927642285810656,0.7273418954103913
1.3205670231285749,0.18054037825829106,0.10688608063887406,0.6680463768556972,0.7002181260478845
1.3230539666749563,0.18656446223340817,0.11517995986157548,0.6528724779914281,0.6887054480986938
1.325540910221338,0.17821245878218017,0.13306157640864136,0.6472426015356909,0.6843888140700666
1.3280278537677195,0.17463800562901954,0.1270120836828661,0.641580010704466,0.6769456496256457
1.330514797314101,0.18062953063781306,0.12097347484269738,0.6454615823020387,0.6810890273538437
1.3330017408604824,0.17703344517058572,0.10058051639666488,0.658887386797014,0.6896302411204025
1.3354886844068639,0.17821498393052515,0.08498679800872244,0.6722806883201926,0.7006744324016716
1.3379756279532453,0.1841741717581391,0.07419229597546906,0.6904299612639964,0.7184136369362094
1.340462571499627,0.19012263027115872,0.03946656658621306,0.6989700670381769,0.7254401278084093
1.3429495150460085,0.20084878782475557,0.004751602568918933,0.7026894806301804,0.7308456194614287
1.34543645859239,0.21156426622957447,-0.029952620034122912,0.6967998706811489,0.7288255332886141
1.3479234021387714,0.21748068739163073,-0.055069318623430785,0.7052433260462916,0.7400666376582726
1.3504103456851528,0.22817488327252966,-0.08017532396355254,0.7232315159490117,0.762597984255793
1.3528972892315343,0.23885847596686882,-0.11005906358084072,0.7316108999397155,0.7774450964075259
1.355384232777916,0.2399546843421404,-0.13514375512216237,0.7447467610968044,0.7940338930111458
1.3578711763242974,0.2314635339989498,-0.16500622959641653,0.757850769501097,0.8094073215695007
1.360358119870679,0.24211547055153515,-0.1852813014910848,0.7565577888743391,0.815676865964121
1.3628450634170604,0.2527569065020532,-0.20075739865435072,0.7360794898583034,0.8037428707547021
1.3653320069634418,0.2633878677242263,-0.21143454569289455,0.73472317325486,0.8086382858202833
1.3678189505098233,0.2692199768610579,-0.21731276729153537,0.73333530029727,0.810854424314908
1.370305894056205,0.2654648566444222,-0.2566993147750747,0.7319159457730642,0.8197969748639693
1.3727928376025864,0.26648774317559054,-0.25776816317794315,0.754407201342211,0.8405892984376719
1.3752797811489679,0.26750025936200805,-0.26361496729822953,0.7720787224099936,0.8585771912534342
1.3777667246953493,0.268502431518133,-0.269451348806395,0.7753537779295403,0.8636382726896407
1.3802536682417308,0.2790710926850207,-0.27048892944773684,0.7881744603606347,0.8787854776286257
1.3827406117881123,0.28484105938742066,-0.2619393310417313,0.7818104259019734,0.8723383427939888
1.385227555334494,0.281023954875233,-0.2485909821219927,0.7706269608952496,0.8571101752194653
1.3877144988808754,0.26761980580247224,-0.24480911793562088,0.7737777552605429,0.8545664861309589
1.3902014424272569,0.2589938488671728,-0.23622855388003883,0.7768976759316608,0.8523213843893055
1.3926883859736383,0.2503577075684753,-0.21327250874452375,0.7656215900961989,0.8332710027035365
1.3951753295200198,0.26086502208871576,-0.2046714279517392,0.7591031884355974,0.8283589824841887
1.3976622730664012,0.26178539948801405,-0.19127172379144763,0.7764961618808162,0.8414646499544052
1.400149216612783,0.2579072701488624,-0.17307342190423247,0.7747049584461401,0.8346486338611682
1.4026361601591644,0.25880746785352626,-0.1644417579605273,0.772883269555166,0.8314871890391253
1.4051231037055458,0.2549092131817585,-0.15101154777714676,0.7758195769136584,0.8304692712252999
1.4076100472519273,0.2557893400725757,-0.13757122051975879,0.7643603458668,0.8176801119898136
1.4100969907983087,0.2566594725813476,-0.13369760874129,0.7624476718814357,0.8155216660557192
1.4125839343446904,0.24315442819938593,-0.13460233510002206,0.7652932307392266,0.8141962868882614
1.4150708778910719,0.23921625105634903,-0.12113181235894421,0.7633202951360971,0.8090458600731327
1.4175578214374533,0.2496333720757613,-0.11722808322882905,0.7756825579222788,0.8232512827905403
1.4200447649838348,0.245675399013365,-0.11810277056291829,0.7975916955767488,0.8428862194555126
1.4225317085302163,0.2417075695813875,-0.11417909395781045,0.814682578166023,0.8574188695481374
1.4250186520765977,0.24251831492438547,-0.11024548303407,0.8173784793029739,0.8596957473611353
1.4275055956229794,0.23853085629821325,-0.10151356083402074,0.8104678827853125,0.8509172471316281
1.4299925391693609,0.2297452216708592,-0.10234856374295598,0.8083160792731423,0.8465417765192353
1.4324794827157423,0.24489185900297328,-0.10317371160568989,0.8061347463649717,0.8488050816703111
1.4349664262621238,0.26002877980183847,-0.10877743428840247,0.7991355618768079,0.8473872448838029
1.4374533698085052,0.25121399564408375,-0.10958295175611532,0.8160490270822329,0.8608443003963654
1.4399403133548867,0.25675476133902775,-0.1151670973142278,0.8329332069446433,0.8791838232162453
1.4424272569012684,0.2718627018810824,-0.12074149436568415,0.8354229732791847,0.8868028988554189
1.4449142004476498,0.27259582905059776,-0.12630616969157726,0.8426720213521932,0.894627224092656
1.4474011439940313,0.2733193812568915,-0.12228434348956707,0.8594688366759566,0.9101338506233282
1.4498880875404128,0.28361019365471674,-0.1182528492951076,0.8570830817253192,0.9104998008187852
1.4523750310867942,0.2938914881826059,-0.1285769240198622,0.8594568557011986,0.9173714182534721
1.4548619746331757,0.29458648684340305,-0.13410298138856502,0.8665902414034647,0.9250640271590694
1.4573489181795574,0.2952720249847963,-0.13004264514150243,0.878483321830382,0.9358576841743426
1.4598358617259388,0.2959481313767256,-0.125972749033874,0.8807709702155435,0.9376630161944945
1.4623228052723203,0.3109800448122273,-0.12668172355389773,0.8638764633070064,0.9268437792906756
1.4648097488187017,0.3260025842239124,-0.13216959592217048,0.8613187079276763,0.9303850835181638
1.4672966923650832,0.32665056860511155,-0.1280711834504027,0.8635209812075821,0.9320790240028657
1.4697836359114647,0.32728923693104905,-0.12396332010327837,0.8465413505036299,0.9160335187395959
1.4722705794578463,0.33749542491593365,-0.13421124321656652,0.8295335132412305,0.9055615215076565
1.4747575230042278,0.3381155484106828,-0.1444497702542935,0.8268627637090997,0.9049253506296668
1.4772444665506093,0.31957282996470954,-0.14510212205030548,0.8385291864164888,0.9090173903438006
1.4797314100969907,0.3153861220673959,-0.14095672944823967,0.8405908494504679,0.9088070101783512
1.4822183536433722,0.3207670507020694,-0.14159042666027633,0.8426246443175636,0.9126640350913602
1.4847052971897536,0.3261388385874781,-0.1517916446258778,0.8494190593791586,0.9224532420941413
1.4871922407361353,0.33628991845833023,-0.15240679772990706,0.8561857765290704,0.932401643703872
1.4896791842825168,0.3320667065020849,-0.14822431700512073,0.8581364778320939,0.9320069529273095
1.4921661278288982,0.3230460388816749,-0.1392442302096577,0.8696364588031518,0.9380912905274766
1.4946530713752797,0.32359315513324,-0.14462017842797437,0.8763205952020723,0.9452858359421972
1.4971400149216612,0.31934287492322966,-0.15477538286708636,0.8877657795549379,0.9560666139211604
1.4996269584680426,0.31508363125082006,-0.16013306477781875,0.8943952912691842,0.9616980972019382
1.5021139020144243,0.32518066380658256,-0.1606932520948008,0.8962092165533697,0.9668276708998856
1.5046008455608058,0.3161151791280272,-0.16603277943584116,0.893207641774481,0.9619332521784788
1.5070877891071872,0.3022524170051478,-0.16178646485911585,0.8949674600964688,0.9583830854249193
1.5095747326535687,0.2931692139562804,-0.16710794970629061,0.915853968157851,0.9760439261924975
1.5120616761999501,0.2984424065477068,-0.18678566539877473,0.9127716229055647,0.9783193703520892
1.5145486197463316,0.2941300081507747,-0.1825124135152234,0.9000857212803819,0.9643534354347227
1.5170355632927133,0.28980885542555723,-0.17823023883779365,0.9065267703320448,0.9682695781898223
1.5195225068390947,0.28069057511703566,-0.18830437954683577,0.9177296473734291,0.9779946032490208
1.5220094503854762,0.26677519733564536,-0.1935812506187129,0.9193292298612903,0.976631424531246
1.5244963939318577,0.2576395588768903,-0.19406088034861746,0.9017487987145074,0.9576996729471177
1.5269833374782391,0.25807209325970537,-0.1945317003890179,0.9032956681948345,0.9593679439898132
1.5294702810246208,0.272861234046071,-0.20457054574904232,0.9096047161782721,0.9714335288258074
1.5319572245710023,0.2732765915981288,-0.20981223487198175,0.9158876273170673,0.9785455611722703
1.5344441681173837,0.2593181962415474,-0.21504519951749934,0.9365096996782825,0.9952591533510242
1.5369311116637652,0.2597164982648271,-0.21069266151882227,0.9379521982573742,0.9957903309957722
1.5394180552101466,0.2601063181139184,-0.21111985934462973,0.9393688247026954,0.9973167403366888
1.541904998756528,0.26527608955559023,-0.21632682153594507,0.926394457547822,0.9876109499094639
1.5443919423029098,0.2752258430751757,-0.22631357666646368,0.9086059920532552,0.9759774323595237
1.5468788858492912,0.28037880255556646,-0.22192654006069512,0.90036872692313,0.9687762933345254
1.5493658293956727,0.28073499855777584,-0.21753095031679015,0.8921059443812922,0.9602004320772812
1.5518527729420541,0.28108286499993285,-0.21791523942312985,0.8933945400520802,0.961586414610917
1.5543397164884356,0.2862108358362815,-0.22307943607802594,0.8946577963958031,0.9654499728120496
1.556826660034817,0.28175373177524843,-0.22823516568912128,0.9006842059488864,0.9709317664347971
1.5593136035811987,0.28207679348187675,-0.2285940536930977,0.9066854547202858,0.976678592273933
1.5618005471275802,0.2871800516943265,-0.22894453219570288,0.9078732288300806,0.9793476300782175
1.5642874906739617,0.2874867305435108,-0.2244982266898985,0.9042476178277603,0.9750445263538919
1.5667744342203431,0.29736207079459254,-0.22004356933651215,0.905385518010517,0.978042079757703
1.5692613777667246,0.31680610328380543,-0.22036899232301455,0.9017102124993617,0.9808210372850767
1.571748321313106,0.3075116323162098,-0.22068612122230036,0.8980101944792871,0.9745194084771481
1.5742352648594877,0.2982091087118879,-0.2209949849530295,0.8990739572363395,0.9726774575745752
1.5767222084058692,0.3032637733599508,-0.21650720913841148,0.9144783974759072,0.9874791275219557
1.5792091519522506,0.30831044725692847,-0.21679962938685815,0.9298583953988651,1.003341440728827
1.581696095498632,0.30856075806858874,-0.21229546804921062,0.9404256379417486,1.0122645344336827
1.5841830390450136,0.3135915434495764,-0.2029947541400201,0.9413918121341478,1.012800607367842
1.586669982591395,0.3138260278005506,-0.20326272665727751,0.937545411737327,1.0093532141143342
1.5891569261377767,0.30926424218938664,-0.2083110113396387,0.9528285438828732,1.0231911272974739
1.5916438696841582,0.3094830243505057,-0.203774427306465,0.9537224759456961,1.0231765833467859
1.5941308132305396,0.31448240540295413,-0.20401821361973127,0.9402272986280042,1.0122005670231216
1.596617756776921,0.30510880320910916,-0.2042539960803258,0.9314967159963885,1.001247825776682
1.5991047003233025,0.314881072178698,-0.19490499718840537,0.9275308189173312,0.9987249208800558
1.601591643869684,0.3198572269009422,-0.19991326270531395,0.9235412950161912,0.9975983569585648
1.6040785874160657,0.3008836853079593,-0.20491361184831902,0.9195282353158518,0.9889654978553636
1.6065655309624471,0.3010561085178437,-0.19554086385253067,0.9154917309144448,0.9833596083248629
1.6090524745088286,0.3012209145058814,-0.19573706453282647,0.9210086796240198,0.9885868832381237
1.61153941805521,0.2918013279085754,-0.20071383979890145,0.9169255594060957,0.9829478836378908
1.6140263616015915,0.29673939662454785,-0.20568281557657286,0.9128192682134468,0.9816306365198367
1.616513305147973,0.29688153868888134,-0.2010672144868968,0.9182667040662995,0.9857892333316399
1.6190002486943547,0.2922277854365235,-0.18686706580653212,0.9284795550894369,0.9911562253667967
1.6214871922407361,0.2971433781813163,-0.18223601210780416,0.9434579127915139,1.0057917202457378
1.6239741357871176,0.29726313833253293,-0.18717408269562785,0.9536250621021907,1.016267813971132
1.626461079333499,0.29737550059734463,-0.18731609692726847,0.9541926913311265,1.0168594793349401
1.6289480228798805,0.3022688996989211,-0.1826620841336406,0.935584085525436,1.0000247525905086
1.631434966426262,0.302366560414842,-0.17800047697812804,0.9408949663115127,1.0041877535062285
1.6339219099726436,0.29766851417801043,-0.18290811145602204,0.9461834088853074,1.008625284642009
1.636408853519025,0.2977515990760051,-0.18780821029239725,0.9466611017760371,1.009997613968158
1.6388957970654066,0.2978274432488712,-0.18791239954311711,0.9519049435239655,1.0149558006926092
1.641382740611788,0.3074728848103505,-0.17364390195365242,0.9475498161159983,1.0112084026553334
1.6438696841581695,0.31232274528473714,-0.1689447635210275,0.9383842148665931,1.003320868443472
1.646356627704551,0.29801184620779964,-0.18339182029014278,0.9483502484158493,1.010847077405834
1.6488435712509326,0.30284744564957433,-0.17388947179072023,0.9295639756416989,0.9929971342088196
1.651330514797314,0.3124643651668565,-0.17395657068519332,0.9011791019470614,0.9695455851943174
1.6538174583436955,0.3077090230056848,-0.17880474308065697,0.901502946054844,0.9692076870995276
1.656304401890077,0.3077350639835178,-0.17885721177051073,0.9113819868810697,0.9784211249858352
1.6587913454364585,0.31733092296516274,-0.1836908128354744,0.9020858967361285,0.973755716019323
1.6612782889828401,0.3221314215418294,-0.1837287690805458,0.8975567844869605,0.9711503975754653
1.6637652325292216,0.32692499459299706,-0.18375951327664497,0.9025831457505191,0.9773964629576901
1.666252176075603,0.3317116736842257,-0.17899467155851445,0.9219534761731474,0.9960270775096834
1.6687391196219845,0.32691468374621135,-0.17422267670542935,0.9317258515068616,1.002666352229632
1.671226063168366,0.32689926631634814,-0.169443558179728,0.9414771707715559,1.010917164168651
1.6737130067147474,0.33166545297560246,-0.16465734544658606,0.946419123050033,1.0162790810509785
1.6761999502611291,0.3220596620275783,-0.1694408746141094,0.95612860740804,1.0230418123416805
1.6786868938075106,0.32681234498226663,-0.1742173685109254,0.9514521030096184,1.02098927743885
1.681173837353892,0.3363467267898056,-0.1646216466465913,0.9515433155996362,1.022577179790944
1.6836607809002735,0.3362976290820434,-0.15501894845325292,0.9611907409785427,1.0300556345405019
1.686147724446655,0.33145348677348674,-0.15019770672261723,0.9516640517192823,1.0188646781264898
1.6886346679930364,0.34096794474037156,-0.1453695476054242,0.9516937602514144,1.0213287707750895
1.691121611539418,0.3456874212966112,-0.1453229038921764,0.9517031524530601,1.022916140271258
1.6936085550857995,0.3456119480369339,-0.1548462083719957,0.9516923208522119,1.0242769354242716
1.696095498632181,0.34552995987533547,-0.15478587723053616,0.9564497613046239,1.0286621247334566
1.6985824421785625,0.3310762784429072,-0.14993034325259114,0.9563987597107655,1.0231271658751593
1.701069385724944,0.3261929519309781,-0.14985644254032549,0.9754814252171506,1.0394338873656037
1.7035563292713254,0.3356684152467595,-0.15456420455182673,0.9849674304489238,1.0520096089714035
1.706043272817707,0.33556068337211553,-0.1640536587412198,0.9800684646330815,1.0488320983550168
1.7085302163640885,0.32586978788640153,-0.16874802791752597,0.9703614269560656,1.0374335229340694
1.71101715991047,0.3209609703252324,-0.173435744845722,0.9606348132807465,1.027577319012657
1.7135041034568514,0.3064690522970761,-0.18290524228529392,0.9556771194649709,1.0201452662930777
1.715991047003233,0.30154767864671905,-0.17800293638816544,0.9507000347191745,1.0131370114032325
1.7184779905496144,0.2966200742906073,-0.16830566322163554,0.9504920548858689,1.0098244457061838
1.720964934095996,0.3012630774193775,-0.17296706548662355,0.9406880625160259,1.0027816704145536
1.7234518776423775,0.30111150961445277,-0.17762196263435515,0.9356533600704466,0.9988317741459228
1.725938821188759,0.2961654024099528,-0.1918471907096202,0.9401764433555293,1.0042166274307927
1.7284257647351404,0.2864247873311676,-0.18691235918620697,0.9542574048418313,1.0136974812584496
1.7309127082815219,0.2814665025345964,-0.18675951405234503,0.973107933662364,1.0300687155208443
1.7333996518279033,0.28607898284642375,-0.19138868468521197,0.9823629122905366,1.0409167615596957
1.735886595374285,0.27632024316038195,-0.18164628717076292,0.9580804165384436,1.0135414816264865
1.7383735389206665,0.27613233156215744,-0.17668596414698445,0.9433561686801575,0.9986930736955216
1.740860482467048,0.28072687620382164,-0.16693093831903338,0.9429786644031335,0.9979390155268739
1.7433474260134294,0.28052710190481167,-0.1619580456618861,0.9138523661658926,0.9695627935336271
1.7458343695598109,0.2851098467529182,-0.1617673154979693,0.9038613994853826,0.961468521876076
1.7483213131061923,0.2896867388615233,-0.16157037381699668,0.9034290500055882,0.9623967169320498
1.750808256652574,0.29425780965028026,-0.16615565323642612,0.9029786033396086,0.9641398849398122
1.7532952001989555,0.29403468720391734,-0.17552318304004233,0.9025101517085865,0.9652923696998074
1.755782143745337,0.2938058062326072,-0.1848845891774884,0.9068121906197302,0.9709853305523595
1.7582690872917184,0.2983596014307748,-0.18945149758409352,0.9158848122240233,0.9817104007625778
1.7607560308380998,0.2981192975155955,-0.18922393750072164,0.9057860920333081,0.9721775859355335
1.7632429743844813,0.2978733291483082,-0.19377874479361257,0.9100349453639414,0.9769556407203125
1.765729917930863,0.30719853429302924,-0.2079043519929753,0.9142662542882576,0.9866498582474359
1.7682168614772444,0.31172973429431927,-0.20765877169096258,0.9184801107969918,0.9919190020526174
1.770703805023626,0.3162553637594384,-0.2074072430255831,0.9274650101570163,1.0016119830711105
1.7731907485700074,0.3159870506359165,-0.2119381984771147,0.9124906243472122,0.988637828360252
1.7756776921163888,0.32050163281256183,-0.20688645722701837,0.9118642717833865,0.988443095466052
1.7781646356627703,0.3297991415173459,-0.20661725836060407,0.9303744475900935,1.0084913375565516
1.780651579209152,0.32472599467623375,-0.21113063098376106,0.9249256136380808,1.00275146757402
1.7831385227555334,0.32443583675637855,-0.2108497975428194,0.9290366848707912,1.0063922749760001
1.7856254663019149,0.33850550556245923,-0.20577478710534658,0.9474961562558875,1.0269752706000412
1.7881124098482963,0.33341620899394603,-0.20548243535970112,0.9467852961430339,1.0245934787289546
1.7905993533946778,0.32832159145081075,-0.20997277133333236,0.9508462126685462,1.0276147878754525
1.7930862969410595,0.32801008734861226,-0.20966901739233368,0.9453137873475548,1.022335498163929
1.795573240487441,0.32769332443827126,-0.2141480091628738,0.9493417248771294,1.0268846066148385
1.7980601840338224,0.3273713337664721,-0.2090445656479467,0.9389881000096718,1.0161546499223193
1.8005471275802039,0.3270441463548164,-0.1991471191097407,0.91904140735606,0.9956176761938627
1.8030340711265853,0.3219233898789793,-0.20839771506920357,0.9182321580637449,0.9950952581032836
1.8055210146729668,0.3263743052697414,-0.2128543658212334,0.9174068300105294,0.9967258700061087
1.8080079582193485,0.31645490686871325,-0.1981518902779955,0.9213539176076857,0.9941332512259404
1.81049490176573,0.3065304355528137,-0.20259754385129813,0.9348619151968443,1.004476716096639
1.8129818453121114,0.31096613217123126,-0.20224933876467022,0.9292004938062988,1.0005090144911997
1.8154687888584928,0.31539681762304694,-0.1971073038185538,0.9283117609150491,1.000044582625477
1.8179557324048743,0.3150341194192017,-0.19674827442894394,0.9274074040059812,0.9990199562041352
1.8204426759512558,0.31466647168198447,-0.18680706938477787,0.916910707165906,0.9872371115838383
1.8229296194976374,0.3190823085038875,-0.18643733069125812,0.9063985676856099,0.9788415404844528
1.825416563044019,0.3091280473455441,-0.17648547376477275,0.9006594794567953,0.9684496734683897
1.8279035065904004,0.29916892887894186,-0.16652833391681732,0.894905129650235,0.9581695701064549
1.8303904501367818,0.2939933871041247,-0.16614274643173177,0.8987124153158703,0.9600622528230759
1.8328773936831633,0.28402464602836563,-0.1609635299647172,0.9120814267797233,0.9687475350197163
1.8353643372295447,0.28841634954846385,-0.1557791164242328,0.9158586410018259,0.9727528843948435
1.8378512807759264,0.29759172160650904,-0.15058953437003586,0.9196209547778214,0.9782334798487434
1.8403382243223079,0.2828203728299937,-0.15018321565339265,0.9233684581750197,0.9773186128915191
1.8428251678686893,-11.798732016851359,4.8588980875909815,1.276654683554348,12.823759784560451
1.8453121114150708,-10.233339586878657,3.1929502453288863,1.155874349709567,10.782032084994004
1.8477990549614522,-8.466838830242455,1.622775524039481,1.0542330884282176,8.685169404419232
1.8502859985078337,-6.585420976298012,0.20583473515530226,0.9477889728106206,6.656458616279661
1.8527729420542154,-4.651335237833499,-1.0482953430644488,0.855695705744866,4.844177717820892
1.8552598856005968,-2.7411960376357,-2.1348263356488,0.7875301833820512,3.562561296296123
1.8577468291469783,-0.9220409918863688,-3.039393060955284,0.7049852685722602,3.2534710692744495
1.8602337726933598,0.7534574931555679,-3.733265127348077,0.6128494539491527,3.857531744298587
1.8627207162397412,2.223050204553791,-4.226019369721904,0.5350648453268967,4.804943944931726
1.8652076597861227,3.4675835592146598,-4.541597832899065,0.48120833845672806,5.734266132726103
1.8676946033325044,4.4774807806489525,-4.684788948388188,0.441703215705024,6.495397090462215
1.8701815468788858,5.228799882365124,-4.660381147663948,0.4261263726146076,7.017199180353993
1.8726684904252673,5.735906104395708,-4.4971048787689245,0.4296894946610408,7.301315237059229
1.8751554339716487,5.989222670131348,-4.233267396351913,0.4476042672122329,7.347903825000567
1.8776423775180302,6.007903222843633,-3.8784455351053833,0.4894475854879836,7.167761145767471
1.8801293210644117,5.830255019044604,-3.4470045330070054,0.5360659246758015,6.794194618441848
1.8826162646107933,5.480220105243553,-2.9676748379598297,0.5635173565311256,6.257592041423552
1.8851032081571748,4.976952124588017,-2.4548216878709472,0.5957439858993361,5.58131820150204
1.8875901517035563,4.349181526823096,-1.9323871272512025,0.6471111108707586,4.80294209340877
1.8900770952499377,3.6591575848932614,-1.4291016038955147,0.6840999962167533,3.9874501163227585
1.8925640387963192,2.9212455384969997,-0.9449651456404788,0.7162875364742973,3.152729366370094
1.8950509823427006,2.164175837249365,-0.4943429902460563,0.7676158360228289,2.348886144165449
1.8975379258890823,1.421467334041436,-0.08681197211440095,0.8285081758797936,1.6475835328592363
1.9000248694354638,0.7074852684389791,0.2872046876710921,0.894176240261741,1.1758286806873894
1.9025118129818452,0.05574849324283371,0.5750345249017221,0.9311012933409923,1.0957747112381562
1.9049987565282267,-0.5193777520719058,0.7910427218912104,0.9680138423300715,1.3537180785329528
1.9074857000746082,-1.0083166313974783,0.9735364775941631,0.9905487644337096,1.7162932608037467
1.9099726436209896,-1.4014913086719991,1.1033621511604652,0.9987061466911786,2.0442602310702385
1.9124595871673713,-1.6845365445604834,1.1757313117406425,1.021216495936006,2.294099086556411
1.9149465307137528,-1.8766059230174585,1.1858555285251389,1.0532914956306172,2.4570970879486276
1.9174334742601342,-1.972911011443557,1.1576767906665282,1.0805660224666287,2.52986488564756
1.9199204178065157,-1.9782401839283956,1.0959834740767667,1.0982517596448442,2.514114342730145
1.9224073613528971,-1.9117470245710795,1.0007755513884051,1.1159256001942843,2.4293246665240353
1.9248943048992788,-1.778219907558944,0.8720529952753613,1.1144340170881186,2.27255487164795
1.9273812484456603,-1.5680819971679059,0.728969391734358,1.0937770964455709,2.046124595579788
1.9298681919920417,-1.3148520876063814,0.590678326803932,1.0443781176087619,1.7800175703005778
1.9323551355384232,-1.0424721664928398,0.4476029666432062,0.9997559896649939,1.5121536537439262
1.9348420790848047,-0.7557306082150195,0.29495488077405074,0.9790644116016924,1.271492924066212
1.9373290226311861,-0.4642041905321298,0.15188765536279192,0.9631498557036728,1.079913438614967
1.9398159661775678,-0.18225809457552733,0.023189666658155694,0.9568008107159809,0.9742810503467552
1.9423029097239493,0.09489611175304768,-0.1055043223290304,0.936075345319237,0.9467700281327476
1.9447898532703307,0.3528932472179319,-0.2246175319424033,0.9057619479721968,0.9976930319403365
1.9472767968167122,0.5773681305308047,-0.32457318248152056,0.8754375103089984,1.0977670715570023
1.9497637403630936,0.7683207903109881,-0.4053713008420643,0.8451021171770403,1.2119572256592246
1.952250683909475,0.9209628518039926,-0.46222351055468414,0.8099674499561118,1.3106755579092964
1.9547376274558568,1.0257175368809506,-0.5142834517064951,0.7891872064790988,1.3926235604191661
1.9572245710022382,1.1017384872804863,-0.5423975377767483,0.7827614711480262,1.4562754904396336
1.9597115145486197,1.1490257314052104,-0.5417773921599731,0.7715367149328678,1.4862879184654436
1.9621984580950012,1.1436372810009676,-0.5315766548062744,0.7603014252532123,1.4725957448235347
1.9646854016413826,1.1190919876018022,-0.5165837556585737,0.7442672827349455,1.439847020163784
1.967172345187764,1.0706014761233105,-0.4920103179725994,0.7186459678497332,1.38011365502106
1.9696592887341458,0.9933773714247239,-0.462644771597851,0.6978027741951323,1.299141061786573
1.9721462322805272,0.8922081049492703,-0.4284871430164081,0.7104682051731697,1.2183602114438556
1.9746331758269087,0.7910357213642312,-0.3799606520222669,0.7231235208642257,1.1371082780397344
1.9771201193732901,0.6850718453575708,-0.3362189382835954,0.7405572077524916,1.0633868466914298
1.9796070629196716,0.5695281015595084,-0.29726202813935787,0.7723461554826212,1.0046121419375178
1.982094006466053,0.44919292118249554,-0.2583015445598713,0.7897600269759497,0.9445712617751673
1.9845809500124347,0.3480083486618177,-0.22412591710758045,0.7832220982729954,0.8858775833492983
1.9870678935588162,0.26118600845186757,-0.18036996201483557,0.7910396784543767,0.8523468936398231
1.9895548371051976,0.1791491216274167,-0.1413989153867572,0.7988476399131148,0.8308102146983869
1.992041780651579,0.10189771584417417,-0.11200120663846169,0.7922808548770206,0.8066203368297838
1.9945287241979606,0.039008625338466385,-0.0873884584948117,0.8048582286107528,0.8105277192615532
1.997015667744342,0.01442389424713697,-0.05319548699012078,0.827003036328831,0.8288376382974378
1.9995026112907237,0.004201533443192962,-0.02378752803041495,0.8395617464367682,0.8399091769072583
2.001989554837105,-0.17840615915210312,-0.49237014950252034,-1.4606875566184092,1.5517297637811804
2.0044764983834864,-0.21736453704611802,-0.45337867998475057,-2.1041584389507513,2.16339601220804
2.006963441929868,-0.21801844599551368,-0.4095954939028976,-2.5369486221192314,2.579032536183389
2.0094503854762498,-0.1755794554519039,-0.3466554070377854,-2.706385588597513,2.7341399142278044
2.011937329022631,-0.09004753824969769,-0.2693468484000143,-2.602892450915596,2.6183401984694905
2.0144242725690127,0.005058509471687733,-0.19682345690939362,-2.2743531616217627,2.282859471252391
2.016911216115394,0.11452711807217464,-0.12429685483219144,-1.7207676402366818,1.7290481313661605
2.0193981596617756,0.23356991120754378,-0.0661322776637081,-0.9948082429811214,1.0239979598972233
2.0218851032081573,0.34303330250891495,-0.012752944245160602,-0.1874545528151863,0.39111851603859715
2.0243720467545385,0.45249412546491763,0.03105271667392495,0.6486210736836568,0.7914698364559647
2.02685899030092,0.5284335836170845,0.06528467971738028,1.4798998930411464,1.5727707509752946
2.0293459338473014,0.5708517036842268,0.08036611292157181,2.2201907250785435,2.2938128161273528
2.031832877393683,0.5941137222809598,0.07629699101694198,2.8216096159979394,2.8844883724731525
2.0343198209400644,0.57906605271428,0.07223090206885097,3.245849418460363,3.2978892103797626
2.036806764486446,0.5400739314675795,0.0490142076340736,3.468968194904072,3.5110999104635088
2.0392937080328277,0.4867141916378602,0.0066468826047825225,3.4861776208644617,3.5199956377254584
2.041780651579209,0.40941005297443167,-0.040505888111566524,3.311842984973042,3.3372984996196227
2.0442675951255906,0.31294994512086544,-0.09244412951381742,2.9699063823157488,2.9877796948490927
2.046754538671972,0.22606431425529527,-0.13480265658504953,2.479521504471581,2.4934521694909484
2.0492414822183536,0.15354158988687805,-0.18194670417520298,1.8742072527920453,1.8892677018896804
2.0517284257647352,0.07143978153532216,-0.22908789379766548,1.216212948362065,1.2396607766780443
2.0542153693111165,0.008489335175821733,-0.2666494435900235,0.558211105436138,0.6186870233089036
2.056702312857498,-0.030521319886227527,-0.29941978159509075,-0.056702568562437605,0.30626612261173647
2.0591892564038794,-0.05038056105458755,-0.3130337225185036,-0.5710671564409147,0.6531814522255501
2.061676199950261,-0.060665169122160134,-0.31227969429100266,-0.9705173710816943,1.021324061100308
2.0641631434966428,-0.04700990834939367,-0.30673452810728685,-1.221534312279167,1.2603341137537918
2.066650087043024,0.004950456933817238,-0.2963982484648735,-1.3193294999436054,1.35222289513909
2.0691370305894057,0.05212032248418852,-0.2908476864451184,-1.2639028575006321,1.2979827956966907
2.071623974135787,0.11844173047279416,-0.2661408498302169,-1.0791963251731485,1.1178211412086319
2.0741109176821686,0.19433789975826765,-0.227066166267055,-0.7652098267791416,0.8215061424877091
2.07659786122855,0.2606552424880765,-0.18798886998575748,-0.34588530293562236,0.47214151846867614
2.0790848047749315,0.3221821873404317,-0.1489089851979255,0.14047009558118262,0.3817159879605878
2.081571748321313,0.3741303562818256,-0.10982653605737536,0.6459724111553111,0.7545301501515589
2.0840586918676944,0.41649977452769615,-0.07074154665994303,1.132314492611524,1.2085580411314782
2.086545635414076,0.4397136605812201,-0.036442444363602,1.5707659952144777,1.6315581407890616
2.0890325789604574,0.45334884615491916,-0.016506059788272687,1.9325965740273112,1.9851264806711515
2.091519522506839,0.44304014628758337,0.00822119642655661,2.19865269055148,2.242861077499556
2.0940064660532207,0.4087875859065022,0.013797283817329475,2.335415596124415,2.370962602415559
2.096493409599602,0.37932160978816815,0.00979898522161049,2.3572505750827695,2.3875952708722865
2.0989803531459836,0.34506543607359724,0.015379890176700162,2.2545808949570336,2.280886167282306
2.101467296692365,0.29165387951028376,0.011386361716703153,2.032195033033137,2.053048534972102
2.1039542402387466,0.252605787975418,0.007395182857071081,1.7331886929534317,1.7515157487815507
2.106441183785128,0.21834437938964324,-0.025324089889586787,1.4006575781533037,1.4178001371060953
2.1089281273315095,0.18408127491995607,-0.03888744682582823,1.0298133586572984,1.046858969950496
2.111415070877891,0.149816498979485,-0.042871718037949424,0.6445981242037124,0.6631664265483742
2.1139020144242724,0.1251268825474996,-0.07558415347394387,0.2881075776025579,0.323072247747222
2.116388957970654,0.1195892565286043,-0.10829435653707353,-0.03486980510822413,0.16506108336954733
2.1188759015170353,0.12362683847121869,-0.11706033389038861,-0.2860267248591075,0.3328633417703813
2.121362845063417,0.12766284584860144,-0.11624731869875982,-0.4318442861123284,0.46508142164859834
2.1238497886097987,0.14606251266017578,-0.1250089473865077,-0.5010528367058775,0.5366706995004418
2.12633673215618,0.17403745954846916,-0.13376843639506086,-0.4649218848468806,0.5141355763913256
2.1288236757025616,0.19722250043955525,-0.11858379214374093,-0.3426049721588562,0.412719029591308
2.131310619248943,0.21082925582402678,-0.11297386083427341,-0.15804404379970727,0.28668796299056315
2.1337975627953245,0.24358816935835947,-0.1169386653646991,0.07439576149858951,0.28025805436702245
2.1362845063417057,0.27634565141937306,-0.10174780864953314,0.3403493047886865,0.4500635342854627
2.1387714498880874,0.2851597089868243,-0.08176652342429636,0.6254514469071903,0.6922364743500911
2.141258393434469,0.29397238216662713,-0.05699483240161518,0.900971838513076,0.9494305799745667
2.1437453369808503,0.30757209770626237,-0.04179796819294346,1.1477569366886122,1.1889884991661257
2.146232280527232,0.3115936689945664,-0.031387550066225955,1.3610184082590138,1.3965840112490744
2.1487192240736133,0.30603711930370836,-0.02576360054731497,1.5168143065496427,1.5475943015075195
2.151206167619995,0.2861140685077326,-0.015349335458889612,1.6007794913072448,1.6262201087451102
2.1536931111663766,0.2661897496839117,-0.024086793803125506,1.6224908386602621,1.644358135568094
2.156180054712758,0.2414757825500653,-0.03761078795685613,1.5675832079151508,1.5865189058648048
2.1586669982591395,0.22633740002681701,-0.041556130233955546,1.4408450714384795,1.4591059079105526
2.161153941805521,0.2016210117140017,-0.04549964948673901,1.266218514656451,1.2829772318037382
2.1636408853519025,0.1721150437341996,-0.0685949811449067,1.0628572194526722,1.0788856884121512
2.166127828898284,0.16176153541223426,-0.09168853401227972,0.8451264641676008,0.865339425916025
2.1686147724446654,0.1514068961109195,-0.09562671682916868,0.6178147202776447,0.6432445458402374
2.171101715991047,0.15541635835587064,-0.10435156815505575,0.4000756689961662,0.44170582421307236
2.1735886595374283,0.16900154131188128,-0.11786310988408966,0.21585139463227776,0.2984041859660146
2.17607560308381,0.1825856607436771,-0.13137296052620906,0.06993036798873575,0.23555601166955184
2.178562546630191,0.19138033565636026,-0.14009273852733317,-0.032898940357370066,0.23944675512661817
2.181049490176573,0.20975079825616716,-0.1440224655895479,-0.07827125341452579,0.2662034129658611
2.1835364337229546,0.22812026406748098,-0.15752737331160827,-0.06618650437889251,0.2850164584415595
2.186023377269336,0.23691194853421976,-0.15187706334507656,-0.006221433314525626,0.28148289461544956
2.1885103208157175,0.25049108362122885,-0.13664836383950485,0.0920472194867461,0.299818693428199
2.1909972643620987,0.2640692879312866,-0.13578331284076617,0.233407923465629,0.37768896675847846
2.1934842079084804,0.2728581799862123,-0.12055151180656098,0.4034955345529063,0.501789696773829
2.195971151454862,0.27206937822667593,-0.10531819201255521,0.5831565051296774,0.6520622497986699
2.1984580950012433,0.2664913076526772,-0.10444858466945517,0.7484488840267716,0.8013132071136766
2.200945038547625,0.2704891998233717,-0.10836590432133919,0.9041611397668845,0.9499552321583482
2.2034319820940063,0.264909462974117,-0.09791655880648786,1.045504934001002,1.082979798095135
2.205918925640388,0.2545405218600545,-0.07788897249946203,1.1485383148677482,1.1789816919804386
2.208405869186769,0.23938239783408732,-0.06264837635006426,1.2036845402349314,1.2288552493490335
2.210892812733151,0.21943511216704137,-0.06656000124261086,1.230097287660051,1.2512878722843088
2.2133797562795325,0.19948708936782933,-0.05610504479270739,1.2038346045851487,1.2215402695254551
2.2158666998259138,0.18911515718330552,-0.05522554439402283,1.1248965548207366,1.1420186786903466
2.2183536433722955,0.17874252999655882,-0.06392152077288005,1.0315904285062913,1.0489107040321795
2.2208405869186767,0.1635808254283342,-0.05346257466784898,0.9143394823441913,0.9303943369944672
2.2233275304650584,0.15320687097751806,-0.033425533314026534,0.7683553761227326,0.7841935957458177
2.22581447401144,0.14283228409912696,-0.037329240482009585,0.6223685926375673,0.6396383342777413
2.2283014175578213,0.1276686821651113,-0.031654893391861005,0.4811675978475485,0.49882219467442146
2.230788361104203,0.13165810238609743,-0.030767722400526942,0.35911766411652835,0.3837264720424376
2.233275304650584,0.1356469520065705,-0.04424455447830988,0.2801608702129368,0.3144006828684171
2.235762248196966,0.1300584448281854,-0.052931796607219805,0.22035526146565054,0.26129182042075
2.238249191743347,0.138834617811204,-0.05682946898401475,0.17970089956827628,0.23408770355026318
2.240736135289729,0.14282187794937196,-0.05593759173887136,0.19650507253971838,0.24928166102697955
2.2432230788361105,0.1468086487541732,-0.06462139489624041,0.23246061503630777,0.2824298878844456
2.2457100223824917,0.165160160293771,-0.0733040918122656,0.2779907813982909,0.33155729967400444
2.2481969659288734,0.16435760934915866,-0.07719729909658968,0.35703764896983614,0.4005605191736786
2.2506839094752547,0.15876622582026234,-0.09066624657319888,0.46481287493450907,0.49947781876051933
2.2531708530216363,0.1627512395227393,-0.10413414739755256,0.5725860996353553,0.6043068162084823
2.255657796568018,0.176312670226912,-0.10323581133775406,0.6612037698166784,0.6920507319878328
2.2581447401143993,0.1707201176967339,-0.09275966137604863,0.7498195585455125,0.7745831677375731
2.260631683660781,0.16991561813498357,-0.08707092706810515,0.8240683154068495,0.845896714785071
2.263118627207162,0.17868759437849313,-0.08138122462110964,0.869584889745175,0.8914763264264131
2.265605570753544,0.1826708558980349,-0.07569057349523423,0.9007345505862663,0.9221824305040739
2.268092514299925,0.17228861539979146,-0.07957579972389617,0.8983637434727374,0.9181901167429463
2.2705794578463068,0.16669450542682152,-0.07388330935119125,0.8768377369481168,0.8955948964104649
2.2730664013926885,0.18504215843709249,-0.07297833159589695,0.8505217993143681,0.8734722482085673
2.2755533449390697,0.179447560319014,-0.07207248232797392,0.7906855687487973,0.8139898882915999
2.2780402884854514,0.1642759400397894,-0.07116578067006962,0.7164827163897112,0.7385110938229136
2.2805272320318326,0.1634693331218796,-0.07025824567714745,0.6422785098126429,0.6664683999441322
2.2830141755782143,0.16745095176013114,-0.07413829965674612,0.558496199748955,0.5877536166246805
2.285501119124596,0.1714324113841701,-0.073229154887676,0.47471264996825724,0.5100036086523699
2.287988062670977,0.18020213397863927,-0.07231923354184167,0.4005047239970114,0.44509202933152736
2.290475006217359,0.1841833314815724,-0.06662015108262853,0.3406608817978558,0.39295238962654966
2.29296194976374,0.19295282902648947,-0.07049713618672904,0.29996958308977817,0.3635689634978641
2.295448893310122,0.19693383837983192,-0.06958499754096881,0.2784308840275127,0.34806431268105126
2.2979358368565035,0.1913379745424536,-0.06867215704538987,0.2951984538028807,0.35842462636220573
2.3004227804028847,0.19531886903079787,-0.07254703653194783,0.31675352483987673,0.37913761170256394
2.3029097239492664,0.208876539994027,-0.07642125112385534,0.3622497658413355,0.42508176794037417
2.3053966674956476,0.21285739221394911,-0.08029481919646653,0.4173220220230718,0.4753032689508262
2.3078836110420293,0.19768463702683875,-0.06980254909599548,0.47239354167621705,0.5168242155647621
2.3103705545884106,0.18730030892492988,-0.05452126570196825,0.5322527828075643,0.5668747647792367
2.3128574981347922,0.18649282903292996,-0.048816197145941764,0.5873229932175885,0.6181511908478092
2.315344441681174,0.18568540842827164,-0.038322151569282425,0.6328158237814367,0.6606084506212826
2.317831385227555,0.1800896614223111,-0.018250743685617188,0.6783081350894555,0.7020450853932501
2.320318328773937,0.16970560556027658,-0.007755604741753519,0.7046463675641199,0.7248355987979614
2.322805272320318,0.15453325830090703,0.007528457326110072,0.7214073813036581,0.7378115039698199
2.3252922158666998,0.15372625029765574,0.013236214728347573,0.7238028261990532,0.7400658677608698
2.3277791594130814,0.16249619551583272,0.01894445634537778,0.7070443518948402,0.7257242048669289
2.3302661029594627,0.16168949787318654,0.019864761165182543,0.6902856243905191,0.7092477322479374
2.3327530465058444,0.1560945778023649,0.0207855148849041,0.6543730828763348,0.6730539996474336
2.3352399900522256,0.150499855649313,0.021706699949928243,0.6088835862175319,0.6275831490235401
2.3377269335986073,0.1496937516732384,0.027416702194531073,0.5633939930323564,0.583586057265058
2.3402138771449885,0.14888787940595094,0.037915504201280203,0.5083275484106284,0.5310386827397775
2.34270082069137,0.14329385229245672,0.029261072019798995,0.45326111047620543,0.4762719524711519
2.345187764237752,0.14248849365186578,0.025395404971479518,0.4221367470664852,0.446259263927055
2.347674707784133,0.14168341675548868,0.026318485844809114,0.3958008958885664,0.4212187109648201
2.350161651330515,0.14087863810806223,0.022453490856322755,0.37904201100354484,0.4049985136175548
2.352648594876896,0.14007417412741285,0.028165612892806724,0.36228333626390175,0.38943971515705417
2.3551355384232777,0.1392700411444353,0.019512818347251493,0.36946693851655077,0.39532608451380774
2.3576224819696594,0.1384662554030731,0.015648703564174138,0.3910160611183624,0.4151040181220936
2.3601094255160406,0.13766283306030158,0.02136165499587861,0.4173539471782899,0.43999056028016126
2.3625963690624223,0.13685979018611283,0.027074849202473494,0.43890383955730705,0.46054340729975696
2.3650833126088036,0.14563394940412633,0.023211462812809724,0.4460889808683053,0.4698333726727778
2.3675702561551852,0.15440851996971028,0.004983075844796847,0.45806303339796983,0.48341345104357725
2.3700571997015665,0.14881830773089788,-0.0036683116930094073,0.4939796591847667,0.5159227160291195
2.372544143247948,0.14322853837057536,-0.002742716324868777,0.5251084868158777,0.5442985023152929
2.37503108679433,0.13763922752366575,-0.006605364467204389,0.5466611612317553,0.563761131147144
2.377518030340711,0.13205039073806013,-0.010467869186425727,0.5825797470464433,0.5974496159912368
2.3800049738870928,0.12646204347461765,-0.023907053441113657,0.5993454687819142,0.6130083087474629
2.382491917433474,0.1352394110681051,-0.046922933480457285,0.5825931639930477,0.5999218738501618
2.3849788609798557,0.14880570216469746,-0.05557350888331847,0.5562648965488446,0.5784999455651052
2.3874658045262374,0.14321891536262,-0.0546471990816797,0.5395143267496127,0.5608686859267559
2.3899527480726186,0.13284427573557578,-0.06329763339968686,0.5275530980457326,0.5476919419229767
2.3924396916190003,0.1320470082702645,-0.05279440788962919,0.515592853639177,0.5348454474157311
2.3949266351653815,0.13603872458514887,-0.05186795837879554,0.49405683316324733,0.5150621070205371
2.397413578711763,0.14003103621170765,-0.06530670402416883,0.453368276002891,0.47897437340515253
2.3999005222581444,0.14402395791477385,-0.07395704731246111,0.4174692445368464,0.44776457590432434
2.402387465804526,0.13844069773160605,-0.07781900394290764,0.39593659093460687,0.4265998220862245
2.404874409350908,0.13764648021409986,-0.06731578290542117,0.374405150515809,0.4045456524006481
2.407361352897289,0.13685291654599618,-0.061601013043098174,0.3480865649924336,0.3790615547682369
2.4098482964436707,0.1360600211444669,-0.05588630652879978,0.3313460891095037,0.3625270188267723
2.412335239990052,0.14005621166014082,-0.045383275466727824,0.32418376740291244,0.3560484505853448
2.4148221835364336,0.13926469569588007,-0.03488033853306405,0.3313880474807416,0.36115001245541367
2.4173091270828153,0.138473890728684,-0.029165914335367304,0.3625357800233111,0.3891758738278468
2.4197960706291965,0.13289540750816242,-0.02824001809227994,0.3841081855801143,0.40742825894660323
2.4222830141755782,0.12731766333781036,-0.03210266495385916,0.3961053076949028,0.41730059103602213
2.4247699577219595,0.13131747875473931,-0.02638866004066287,0.42725760958543724,0.4477607693332512
2.427256901268341,0.13531806092814713,-0.01588642168595733,0.4344695044170024,0.4553318638923631
2.429743844814723,0.14410782690154644,-0.005384368154494723,0.43689464827124347,0.4600793310753731
2.432230788361104,0.14810998367092554,-0.014036127603464177,0.47284031026341644,0.49569298880567847
2.4347177319074857,0.13295933482542588,-0.013111294918476624,0.4944224994956734,0.512155932094131
2.437204675453867,0.12259791043019075,-0.01697509479951087,0.5207948713070891,0.5352996352185092
2.4396916190002487,0.12660253050297787,-0.01605073527657508,0.547169064187857,0.5618539059550013
2.44217856254663,0.13060799837358295,-0.0007614243112987751,0.563968313060661,0.5788948843638397
2.4446655060930116,0.1346143272463889,0.01931601692178475,0.5424622393198284,0.5592489666486684
2.4471524496393933,0.14340993355979792,0.03460476731647555,0.5065929006361589,0.5276364903412294
2.4496393931857745,0.14741802370502666,0.04510481247545961,0.4707255477929948,0.49532722433413373
2.452126336732156,0.14663861062773376,0.06039294471031331,0.4252834147253939,0.45389004476646816
2.4546132802785374,0.14107170718744855,0.07568074643988965,0.3989969616843432,0.4299155468040407
2.457100223824919,0.14029413279825642,0.08617980015121063,0.3775010187916088,0.41184514181961646
2.459587167371301,0.1395174968272982,0.08710168839944954,0.3512188192429804,0.3878227623972364
2.462074110917682,0.13874181187608337,0.08323480044850395,0.3488808225506439,0.38457138571658533
2.4645610544640637,0.1283902838196197,0.07457912231002162,0.3561218580980121,0.38583531237951296
2.467047998010445,0.137193345009597,0.06592304338398369,0.34421154506176954,0.37636345374881913
2.4695349415568266,0.14120899118853436,0.05726654981805357,0.32751513225577433,0.3612279042060075
2.472021885103208,0.13564883129452632,0.06776324110906806,0.32518627156875546,0.35880157955890457
2.4745088286495895,0.1253012808206907,0.07347108693896143,0.3324365980426016,0.362784375779107
2.4769957721959712,0.1293199651355581,0.07439007365907369,0.32532413319284004,0.3579012825896788
2.4794827157423525,0.12376287963940269,0.07530859100886289,0.33257933481356616,0.3627639014585266
2.481969659288734,0.10863003624868695,0.06186141551429847,0.36377904717289766,0.38465895890625634
2.4844566028351154,0.10786346339614605,0.043625340370621934,0.3949812910522752,0.4117619668444215
2.486943546381497,0.10709796286680584,0.03496556216105162,0.41660929694977966,0.43157371385714377
2.4894304899278787,0.101545143001191,0.0263052609348553,0.4382399084006501,0.45061912979254815
2.49191743347426,0.095993418695414,0.02722123009011579,0.4407195487743749,0.4518732703671912
2.4944043770206417,0.09044280144031602,0.01855984317055226,0.4432018677592957,0.4527165379088952
2.496891320567023,0.09447010928250155,-0.014044122892344468,0.4313216915581304,0.4417694427461343
2.4993782641134046,0.09371014358223695,-0.022706647935615276,0.42423266937259996,0.4350523424068386
2.501865207659786,0.09295131889635566,-0.007427744932075431,0.41235803023958795,0.422769753154623
2.5043521512061675,0.09698204969710145,-0.006514653349744215,0.3909094062735825,0.40281276368169266
2.506839094752549,0.09143713709097434,0.0039746305746612975,0.3742520426278375,0.3852805979266376
2.5093260382989304,0.08589339870164014,0.00967488410910633,0.3432323609712036,0.35394877163356586
2.511812981845312,0.0803508454278421,0.005797691229304736,0.31700400929306305,0.32708013313626333
2.5142999253916933,0.08438629472475145,-0.0028685573813409526,0.3003554253801486,0.31199784761134597
2.516786868938075,0.09321135400250702,-0.0019586643317976993,0.29328664345743505,0.30774867686388835
2.5192738124844567,0.09724922726694507,-0.0010494487656527163,0.2910092941883953,0.30683044642075147
2.521760756030838,0.10128832840095026,0.004647480201322107,0.2887350079956068,0.306020962328896
2.5242476995772196,0.1053286678833214,-0.004021503081385269,0.28167541506101834,0.3007512929563322
2.526734643123601,0.09021664282793795,-0.00790279763504298,0.3177145818496836,0.33036956938181133
2.5292215866699825,0.08947108678855442,-0.002208012375156443,0.32981489489908,0.3417423233769342
2.5317085302163638,0.0935152033526696,-0.006090772752177731,0.33234159695224186,0.3453015027994755
2.5341954737627455,0.09277219602445252,-0.00039747758750197093,0.3300831238721127,0.3428727271288933
2.536682417309127,0.09203047818578758,0.005295054442089775,0.32303950796216085,0.3359347707830858
2.5391693608555084,0.0912900598151507,0.015775214687178796,0.30642237796667615,0.32012092424306304
2.54165630440189,0.09055095080803599,0.026254587924070094,0.2993853789929517,0.3138795680417179
2.5441432479482713,0.09460156429738842,0.02236795235472755,0.3067169459491179,0.321753113726053
2.546630191494653,0.09386510337248022,0.028057312809824708,0.30447509358351077,0.31984832818997566
2.5491171350410347,0.1027067876415253,0.038534254264306345,0.311813466289685,0.330546835923347
2.551604078587416,0.10197301338806364,0.0490103617591755,0.3383089015832912,0.3567259787423681
2.5540910221337976,0.0868753867742087,0.05469722040143932,0.3504426068602555,0.365170014445085
2.556577965680179,0.09572114376265106,0.050806415364015756,0.3482146125220851,0.36468787418733417
2.5590649092265605,0.09977987374960084,0.06127995180754464,0.34599015869497585,0.3652676355944992
2.561551852772942,0.09426318265085765,0.07175260839593456,0.33419246866765384,0.3545681747270475
2.5640387963193234,0.09832469290193924,0.07743597049940876,0.31282157213392914,0.33692938541152656
2.566525739865705,0.09281080029416222,0.08790683351474726,0.3153963217945748,0.3403179334554371
2.5690126834120863,0.08250991713883205,0.0840115729823867,0.32755153691241645,0.34807447501205535
2.571499626958468,0.09136406894707216,0.08969219439103515,0.3157684232345339,0.3407371126561771
2.5739865705048492,0.09543124794558633,0.09537188005258956,0.3039890261176428,0.33258419473746853
2.576473514051231,0.0851346562408688,0.09147381234424978,0.2922133740831523,0.3178113025540505
2.5789604575976126,0.08920472242089272,0.08757478698967702,0.2900183020597158,0.3158123514811863
2.581447401143994,0.0932762451099578,0.09325159977766928,0.2926154347820784,0.3209674616462116
2.5839343446903755,0.08777242617195147,0.09413902996051071,0.2808511867914447,0.3089393870651322
2.5864212882367568,0.08705848399174732,0.08544866349607805,0.2643023923186725,0.291095187719723
2.5889082317831384,0.0959228302331655,0.07675729636806805,0.2621226920034214,0.28948433043741184
2.59139517532952,0.09521185987818526,0.0680649179843531,0.26473530633204945,0.28945278326594814
2.5938821188759014,0.08492558110990811,0.06894832445813925,0.2673518588802022,0.28886543964126266
2.596369062422283,0.08900601863302204,0.060253892045384116,0.2603955696725979,0.281706328584637
2.5988560059686643,0.08829956718958076,0.05634682030877114,0.24865486846466744,0.26981664391945376
2.601342949515046,0.07801783140290908,0.062015502234809894,0.251283394742984,0.2703258200908799
2.603829893061427,0.0821028357386967,0.06289471759312004,0.26828117448346944,0.2875263635211274
2.606316836607809,0.08140097470046881,0.06377285949884426,0.25655260355026854,0.2766086308835409
2.6088037801541906,0.07591225599380813,0.059861514490680445,0.2544049340242971,0.2721542613722856
2.611290723700572,0.07521349388589071,0.05594907581204511,0.2570497878755251,0.27360914128295744
2.6137776672469535,0.07451629260408454,0.05203553345003842,0.25969878684624526,0.275143298109002
2.6162646107933347,0.06903225629705534,0.04333247413536556,0.28150556905304747,0.2930674685665991
2.6187515543397164,0.06833819899586002,0.0442050979437858,0.30331654582323253,0.31404637730175233
2.621238497886098,0.07722253133287083,0.045076588413224705,0.30118972493741225,0.31418222192909884
2.6237254414324793,0.06695484062007351,0.036370129145240515,0.28470193719247305,0.29472178409077227
2.626212384978861,0.056688747294524555,0.0324509204064678,0.27300681980043784,0.2807123081779602
2.6286993285252422,0.06557787171542995,0.038107355886370264,0.26131599314676457,0.2721004889845951
2.631186272071624,0.06968020428147914,0.04376261937680859,0.2448410773923655,0.25829760142533725
2.633673215618005,0.06420734859509081,0.03983989473288574,0.24273570907559616,0.25422514684108527
2.636160159164387,0.058736118142273086,0.04549278579472871,0.2502115079096239,0.26100828305667984
2.6386471027107685,0.053266519691236525,0.046356073223323246,0.24811488342351673,0.257967445661208
2.6411340462571498,0.05258696325350887,0.04721815102385518,0.2508110681658291,0.2605784611298901
2.6436209898035314,0.06148585876380008,0.062444219904987275,0.24872327786133752,0.26371018254430845
2.6461079333499127,0.07038640611924474,0.06809225407563435,0.23706313133339307,0.256495086637303
2.6485948768962944,0.06492340182020773,0.08331585769017202,0.23498426378564297,0.2576318778284974
2.651081820442676,0.05946206221265393,0.08896140840302724,0.22333308363846882,0.2476439687840167
2.6535687639890573,0.07315600688676893,0.08981730053263526,0.20210961237322422,0.23295330912490095
2.656055707535439,0.0724864188333938,0.08588352513946385,0.19046748453273032,0.22115181091254255
2.65854265108182,0.06703011085046107,0.09631368662747386,0.1884067211592626,0.22196047974895097
2.661029594628202,0.06636389566036938,0.09716575957995222,0.19113893975598728,0.22445366063624894
2.663516538174583,0.06091097262892131,0.09322813856409562,0.20824096756871313,0.23614811661472393
2.666003481720965,0.060248154328013115,0.09886602484965668,0.22055921170359305,0.2490997728558085
2.6684904252673465,0.06437544661395056,0.09492579652602773,0.21372848236982378,0.24255920751221646
2.6709773688137277,0.0685044519479523,0.1005610583068175,0.2164792194426468,0.24833171129554535
2.6734643123601094,0.0630583693963469,0.11577180168600343,0.22402303933886536,0.2599342035423046
2.6759512559064906,0.06240241455263573,0.11182759829718858,0.20284113833768735,0.23988330597406146
2.6784381994528723,0.07132499629550082,0.11267045635881878,0.19602916562810613,0.23708504931671495
2.680925142999254,0.06588410350776386,0.11830036754906859,0.19879873698131334,0.2405340513994471
2.6834120865456352,0.06523335488125559,0.12392892028697844,0.1967846613137212,0.24153254604900773
2.685899030092017,0.06937275575296076,0.12955610637298287,0.19956376392968522,0.24783676041513844
2.688385973638398,0.06872550474584105,0.12560511102785066,0.18798244999859293,0.23629904872081647
2.69087291718478,0.05371480040966181,0.1264411361347717,0.16682914107884983,0.21611247766662722
2.6933598607311615,0.04349426114306909,0.14164098031736705,0.16483427511841064,0.22163992490401666
2.6958468042775428,0.042852295310980226,0.1424742156973906,0.1819978699318785,0.23507115095593292
2.6983337478239244,0.037423697924476085,0.14330604433993166,0.1943779265213923,0.24437662291933054
2.7008206913703057,0.04157368384413196,0.13934805508924075,0.19718605895996077,0.2450073335508287
2.7033076349166874,0.036148644616162295,0.13538864349049096,0.20478749439202204,0.24814255409571193
2.7057945784630686,0.03551379495699969,0.12663939850841466,0.21239384647149784,0.249819760839248
2.7082815220094503,0.03488073623007493,0.132253925769382,0.22000513196390692,0.2590560262410843
2.710768465555832,0.029461069727266254,0.1330786043972192,0.21804456078599976,0.25714062313478586
2.713255409102213,0.019254799989435356,0.12432502353654318,0.2113005526078684,0.24591742990765364
2.715742352648595,0.02341554476755947,0.1155699823526275,0.20456152689258467,0.23611464766586135
2.718229296194976,0.02757809849952264,0.11160187675005684,0.19782749957644796,0.2288039553846344
2.720716239741358,0.026954062193135453,0.11242069937260135,0.19588688971019685,0.22745682815969945
2.7232031832877395,0.021543440106037925,0.10844963628279114,0.18437450285801482,0.21498697803730402
2.7256901268341207,0.01613463974592,0.12363069684460104,0.17765556430123652,0.217040031628276
2.7281770703805024,0.015516068550417317,0.11965664731710879,0.1805184924764056,0.2171298868336331
2.7306640139268836,0.019687730567024664,0.1108926905418528,0.17859809233525326,0.21114467584166677
2.7331509574732653,0.0238612264533149,0.12128083605990891,0.1623175719468417,0.2040230219508696
2.7356379010196465,0.02324815679746406,0.12209065694772292,0.15083055909970255,0.19543915387336003
2.7381248445660282,0.027425332079420106,0.11811054958260314,0.14892547141963064,0.19204438757727404
2.74061178811241,0.036392756069549614,0.12370571704104227,0.16617912965149806,0.21034029631695766
2.743098731658791,0.03578522250856575,0.11493413589548007,0.1882263377380209,0.2234269275675959
2.745585675205173,0.03039113834992313,0.11094941265948455,0.19112509278124712,0.22307441482682205
2.748072618751554,0.03936412043973814,0.10696313730326246,0.17966381160568012,0.21276684873455287
2.7505595622979357,0.033973752352951636,0.10776370649572797,0.16341931415731636,0.19867839471438445
2.7530465058443174,0.03816205412011531,0.10377430700281609,0.15196842018392687,0.18793576003991333
2.7555334493906987,0.04714062578230671,0.09978333560924035,0.15009954591535646,0.18630304975617007
2.7580203929370803,0.0561210673132404,0.09579078583711587,0.15781270406412595,0.19295154420657237
2.7605073364834616,0.060314978619485315,0.10137345790678154,0.1607426971854249,0.19938076464968277
2.7629942800298433,0.05972236286101529,0.10216613549448628,0.14452432763865453,0.1867939001867718
2.7654812235762245,0.05434322313112572,0.10295721561507909,0.12352281750992056,0.16973880108295317
2.767968167122606,0.05375436909728992,0.09895828870000845,0.1025265820501513,0.1522956832164599
2.770455110668988,0.05316740039982937,0.10453455851907689,0.09590084295697032,0.15149659425185627
2.772942054215369,0.06215912657402306,0.10053240565687771,0.09406880513311933,0.15106111909679876
2.775428997761751,0.07115274380815428,0.0965286306767359,0.10660728656990948,0.16045436435807323
2.777915941308132,0.06578304490468373,0.09252322755808073,0.10957428182441475,0.15777984621627789
2.7804028848545137,0.06999204916329727,0.09330459365726052,0.0981813985435167,0.15246055609102568
2.7828898284008954,0.06941454925614238,0.09887272306679185,0.09637066410516937,0.15453640320373482
2.7853767719472766,0.05926214443119798,0.09007399665430427,0.09456528245496187,0.1434151989213504
2.7878637154936583,0.05868845047343335,0.0956388285467713,0.0975536673098798,0.14868704634358054
2.7903506590400395,0.04853985654100257,0.11077880968508946,0.10054742555737661,0.1572826981409035
2.792837602586421,0.04318157497016317,0.10676351446457,0.0987581638966315,0.15171114452789616
2.7953245461328025,0.042613608072393894,0.11232335718012632,0.09218589215950423,0.1514288442616055
2.797811489679184,0.042047554775261564,0.11309312229958124,0.09519582995179832,0.15368896256484513
2.800298433225566,0.04148341726328775,0.10428440098698077,0.10778798673202239,0.15560964070646802
2.802785376771947,0.03613279433756711,0.10505080106339992,0.1251739684526747,0.16736120222110665
2.8052723203183287,0.035572494697260426,0.1153923171240061,0.13298857424057786,0.1796294800659833
2.80775926386471,0.0302257136976517,0.1113669272176141,0.14080861963969582,0.18205288685231635
2.8102462074110917,0.024880856592582434,0.11691664265124757,0.14384571004930713,0.18702980151090767
2.8127331509574733,0.02432632857375372,0.1224646515446981,0.13731145068556927,0.18559039745961556
2.8152200945038546,0.014196921489739056,0.11843414207257918,0.1403594631837457,0.18419820165648454
2.8177070380502363,0.013646250369644175,0.11919031906576238,0.1290477391144762,0.17619838614104036
2.8201939815966175,0.017885913579624324,0.13430998408937977,0.13210670639069022,0.18923863137336222
2.822680925142999,0.007762299463757172,0.1398511155208082,0.13038275954170508,0.19135896057172128
2.825167868689381,0.007217426188028897,0.13102530507299193,0.11908750287793701,0.17720483952746016
2.827654812235762,0.016251295256217158,0.14135137107554252,0.09343254053063355,0.17021737376792342
2.8301417557821438,0.010921891510150994,0.15167569538869108,0.07257149305408461,0.16849755455169538
2.832628699328525,0.0008060229736923663,0.15242146656720967,0.06129277086379403,0.16428559554536332
2.8351156428749067,-0.004519502389182306,0.14358867986027102,0.05959638087778174,0.1555309085024287
2.837602586421288,-0.00026627999445272277,0.15390775049258387,0.07227073315784871,0.17003154247931726
2.8400895299676696,-0.0007995185987349496,0.18816707714081415,0.08495062430869993,0.2064560406482327
2.8425764735140513,0.0034575895837837267,0.1984826220115794,0.09763606072079867,0.22122410926342745
2.8450634170604325,0.002928238998786359,0.19921959052882166,0.09117343532884625,0.21911096536633828
2.847550360606814,-0.007175972646355833,0.19516638152898214,0.06556275417494462,0.20600943133153318
2.8500373041531954,0.006663778859858582,0.1958997972218075,0.054322846370205013,0.20340134743407995
2.852524247699577,0.010928671186442473,0.19663142990896887,0.062242120931367495,0.20653676839725682
2.855011191245959,0.0008303018664254092,0.20214967858549038,0.06537856678145282,0.21246067623869444
2.85749813479234,-0.004477715023197382,0.19808932901774634,0.05415538263328834,0.20540749175891274
2.8599850783387217,0.00458142789659588,0.19402718362613003,0.052514590271403705,0.20106048756240769
2.862472021885103,0.004065714705557721,0.18996323824274075,0.060456194708974564,0.1993928619545462
2.8649589654314846,0.0035519526688003733,0.1811090854315598,0.0636149908291248,0.19198954203759916
2.867445908977866,0.654262993916743,-1.3648243413710583,14.604371867096544,14.682591160297587
2.8699328525242476,0.31856490341418175,-1.2252416116065457,7.142421090715747,7.2537493506186586
2.8724197960706292,-0.041073251000750766,-0.9946810348987594,-0.4583877734308892,1.095991206153574
2.8749067396170105,-0.38634424236541565,-0.6779310184765237,-7.690483969207968,7.729967400970476
2.877393683163392,-0.6741524404529984,-0.3132987927588893,-14.04150833733857,14.061173280848989
2.8798806267097734,-0.9044978449744555,0.05133160524560676,-19.123600205032428,19.145047299162698
2.882367570256155,-1.0390732291333094,0.4063833651422355,-22.668608982672726,22.6960492999173
2.8848545138025368,-1.073090189430006,0.7231260633061831,-24.499363743892253,24.533512950933584
2.887341457348918,-1.0400675489819937,0.9776176794837519,-24.567980452135153,24.609411620966878
2.8898284008952997,-0.9256400977577977,1.155493000112958,-22.955861960656655,23.003555638653133
2.892315344441681,-0.7250194324204622,1.2423868116824752,-19.844967592598948,19.897032867202395
2.8948022879880626,-0.4717243762493384,1.2287223040517268,-15.51302473767312,15.568757782793083
2.897289231534444,-0.18969694593649522,1.1432298936931997,-10.328740448835251,10.393547939973955
2.8997761750808255,0.08275563181192785,0.9954863838483705,-4.6943406024424,4.799445314488267
2.902263118627207,0.3504217601195169,0.7807033678480999,1.0358329581885801,1.3435933446561614
2.9047500621735884,0.5749942121747036,0.5371880689558615,6.4164587265028725,6.464528749597901
2.90723700571997,0.742107777714926,0.26972888724299127,11.11234847215131,11.140366519683358
2.9097239492663514,0.8469740530661775,0.007056239432158051,14.840986401151733,14.86513680381896
2.912210892812733,0.870439424541758,-0.21731105438422116,17.38689436585298,17.410025404217087
2.9146978363591147,0.8268691016454578,-0.4033729973061726,18.6207854782101,18.643499513549806
2.917184779905496,0.7210514871892942,-0.5367643824235246,18.533082933034024,18.554869825793265
2.9196717234518776,0.5529865806138098,-0.6031200027769907,17.190824378105916,17.210287350737907
2.922158666998259,0.3466163979104219,-0.6120166679596757,14.742450317499065,14.759219108512793
2.9246456105446406,0.1354597616606964,-0.5586659775548395,11.408227304939398,11.422701399523291
2.927132554091022,-0.09484853880730293,-0.4670099510187793,7.456305927201694,7.471518762586864
2.9296194976374035,-0.30121287437149424,-0.3322601878373104,3.1739903841943615,3.205517272932263
2.932106441183785,-0.46447963256119784,-0.18314711068987455,-1.1466267210067649,1.2506146610946796
2.9345933847301664,-0.5942256208769923,-0.010093915645031704,-5.179933962232863,5.2139161700906875
2.937080328276548,-0.6712972269467314,0.1773225879956568,-8.657780753307957,8.68557717365228
2.9395672718229293,-0.6765408384471514,0.3503719776974932,-11.37905415468884,11.404531620552586
2.942054215369311,-0.648263682947348,0.47074702433312865,-13.190525260183112,13.214832772421893
2.9445411589156927,-0.5673121482209597,0.5623897419871291,-14.01079121355,14.033545372609922
2.947028102462074,-0.42889783205083054,0.6157233215494968,-13.844640418460877,13.86496075997038
2.9495150460084556,-0.2665395588298354,0.6355361639188377,-12.759110521896602,12.77770913982794
2.952001989554837,-0.08981413639689906,0.6122514600801825,-10.840392784263633,10.858040069302659
2.9544889331012185,0.09170162736167059,0.5602344176674046,-8.265658129199643,8.285129817933093
2.9569758766476,0.2444889079111317,0.48906184104121975,-5.259961513688128,5.288303266259842
2.9594628201939814,0.3829129138731407,0.38436851800776495,-2.0244158782534214,2.0958580833088094
2.961949763740363,0.48303162726033716,0.2700964629826239,1.2111354165138994,1.3315857649373508
2.9644367072867444,0.535268240000233,0.16539928710767127,4.2216374132056735,4.2586490183515435
2.966923650833126,0.5491995572556174,0.055911778329263306,6.815553977512968,6.837874106843335
2.9694105943795073,0.5200371741827364,-0.034424048797297324,8.801348974987128,8.81676626985056
2.971897537925889,0.4429926858924585,-0.1008197929517145,10.08804274076823,10.098267846020507
2.9743844814722706,0.3276428974115123,-0.1336986494471124,10.627751239738469,10.633641032630862
2.976871425018652,0.19792982368282408,-0.137849023511583,10.406109259885957,10.40890428897636
2.9793583685650336,0.053853463003084245,-0.1324245302882514,9.490154445506427,9.491231103037418
2.981845312111415,-0.09500937973456569,-0.09348315499167592,7.9852316673218375,7.986344011079428
2.9843322556577965,-0.21992828639975215,-0.035390109353302446,6.015839409199678,6.019962184954213
2.986819199204178,-0.32090325882771165,0.037066201581537506,3.7256297681532544,3.7396082648020235
2.9893061427505594,-0.39793429889707477,0.12388577613309781,1.2774084543445863,1.3436784403263422
2.991793086296941,-0.446233005209417,0.20112659606535566,-1.1516536122395635,1.251352006897939
2.9942800298433223,-0.4562225730888493,0.2879422730700969,-3.3891739150638527,3.431843471862583
2.996766973389704,-0.4279030045427499,0.36517919232153506,-5.296288760967713,5.326080309510385
2.9992539169360852,-0.36127430162083274,0.4136837390386101,-6.738922860241131,6.761267238708813
3.001740860482467,-0.237182853133733,0.13178650258666114,-0.0364772904970998,0.2737772466928028
3.0042278040288486,-0.2471647940275128,0.09409587999240943,-0.03779075154174194,0.2671565289119815
3.00671474757523,-0.24277962354767246,0.07076851051463207,-0.043887001909014955,0.25666358648427523
3.0092016911216115,-0.21923894059032834,0.042650779550024165,-0.03561243209620102,0.22617039458603067
3.0116886346679927,-0.2100615706550869,0.03368470242216892,-0.017755449330017825,0.2134848440153609
3.0141755782143744,-0.19609390275883376,0.03429347125639781,-0.004681267604965456,0.19912502388297065
3.016662521760756,-0.16775913259952302,0.03968868154215244,-0.02033190768259807,0.17358486248262672
3.0191494653071373,-0.13942247251684126,0.054658735453154694,-0.04076535724708741,0.15520314930931642
3.021636408853519,-0.09671871496849727,0.06962682524570596,-0.04682800742791926,0.12804400375895295
3.0241233523999003,-0.05880147569401084,0.08938135318041951,-0.05767347604137285,0.12154369452526545
3.026610295946282,-0.040035967151940244,0.10434551160020744,-0.058936557785129295,0.1263502366458415
3.029097239492663,-0.016480175277421405,0.12409610617232847,-0.06019406408129413,0.13890559778112363
3.031584183039045,-0.0024993126068945104,0.14384473264605546,-0.042292386552251315,0.14995399172348564
3.0340711265854265,0.006695021565918502,0.16359139013379043,-0.029173546824637242,0.16630713175929482
3.036558070131808,0.030256437869974673,0.18333607779060657,-0.020837550044248587,0.18698067532253046
3.0390450136781895,0.05381972365406129,0.18392518153286241,-0.022072804797204526,0.19290475309776953
3.0415319572245707,0.07259647286986326,0.1940891205224271,-0.04245612310922198,0.21152625597731228
3.0440189007709524,0.07222147279102087,0.20903949072124473,-0.05804549388243707,0.22865416937628225
3.046505844317334,0.06705993057586851,0.2144110814927389,-0.05447571277744245,0.23116390167657372
3.0489927878637153,0.07147705334584481,0.21499229552355592,-0.050900398814178516,0.23221004906966272
3.051479731410097,0.07110762826389883,0.2107831322218603,-0.052107961168076145,0.22847552000962554
3.0539666749564782,0.06595165241755796,0.22093720431875452,-0.05331000248964912,0.23665338593445023
3.05645361850286,0.06558592949889996,0.2310893013447024,-0.04492972222409897,0.2443817899994843
3.0589405620492416,0.06043364988294464,0.23166261619188955,-0.02696712657152922,0.2409294911266986
3.061427505595623,0.06007161719042675,0.2274455517547116,-0.0233642384471775,0.236402127408141
3.0639144491420045,0.05492302172556751,0.228014914288996,-0.019755854316631627,0.23536701815136574
3.0664013926883857,0.04019945707790873,0.2285823001306242,-0.02571878735917643,0.23351085693301699
3.0688883362347674,0.025477726763209807,0.22914770897663583,-0.02688783426395247,0.23212225813494825
3.0713752797811487,0.02033463426278026,0.23449954388508676,-0.032839808432367334,0.23765939167386033
3.0738622233275303,0.010404966422189299,0.2398494013139727,-0.043574716735186314,0.24399744788720587
3.076349166873912,-0.004311279985964367,0.24040887776171171,-0.04472735619152246,0.24457218164306083
3.0788361104202933,-0.014237301582093909,0.24096637640763197,-0.0362977338899757,0.24410043179173518
3.081323053966675,-0.024161504980917403,0.2367334938305774,-0.037439470308234135,0.24089051322361382
