Time (s),Acceleration x (m/s^2),Acceleration y (m/s^2),Acceleration z (m/s^2),Absolute acceleration (m/s^2)
0.0,-0.26490057231790143,-0.510807143677471,-7.01533616432514,7.038894639766563
0.002486943546381497,-0.21089333568381274,-0.27640493572291813,-1.3579349834203782,1.4017357478229406
0.004973887092762994,-0.3101133124248221,-0.1425609900147995,3.313051044803803,3.330585703430054
0.007460830639144491,-0.5481953443824089,-0.12842896395972314,6.64806819559962,6.67186801935781
0.009947774185525988,-0.8916206601419144,-0.23400890164814525,8.441214843925486,8.491398919433149
0.012434717731907486,-1.316447294953348,-0.41620521725175896,8.591934237889998,8.702160318649844
0.014921661278288981,-1.770002864167826,-0.6702295514677621,7.148110128640923,7.394430079593825
0.01740860482467048,-2.21398019311932,-1.0008703515959403,4.320431980332334,4.956771353704628
0.019895548371051976,-2.600495300522029,-1.3458784184126351,0.40578051700586926,2.9561160926404098
0.022382491917433474,-2.8912410117505694,-1.6908885858572007,-4.198407067442188,5.370754202321973
0.02486943546381497,-3.067063765479533,-2.0215356878278405,-9.056386352418762,9.773004678345135
0.02735637901019647,-3.137540420323048,-2.29951254157901,-13.765931740432467,14.304991943384174
0.029843322556577963,-3.0787290116696555,-2.4960887709625705,-17.924817633845265,18.357780875869285
0.032330266102959464,-2.9097832048062466,-2.6064760163876897,-21.159548854788188,21.517134178629476
0.03481720964934096,-2.6498566650341835,-2.6354627248588707,-23.264224341444166,23.562502802724286
0.03730415319572246,-2.3228914609885525,-2.578260536693673,-24.109557484955996,24.358037980408092
0.03979109674210395,-1.9863484845589783,-2.4396578988029347,-23.642876129420138,23.85127046168413
0.04227804028848545,-1.654592997763562,-2.24838527465068,-21.959948621685314,22.136672238585746
0.04476498383486695,-1.346778665950943,-2.0140195143702804,-19.27625339142446,19.427918884680572
0.04725192738124844,-1.091635961119556,-1.736560661404062,-15.85994130464426,15.99203083379677
0.04973887092762994,-0.937048968557191,-1.4495275823850813,-12.022258857038345,12.145530001082959
0.05222581447401144,-0.863864127074314,-1.1864391438939244,-8.112759770660949,8.24443874188318
0.05471275802039294,-0.8720814887686313,-0.9568721958561208,-4.476209364037919,4.659676039485597
0.05719970156677443,-0.9617011057427827,-0.7847687981036264,-1.3951237123169378,1.8673781769992106
0.059686645113155926,-1.142299836743907,-0.6797058004519312,0.8814999328167055,1.5949580006222777
0.062173588659537427,-1.3612052973579052,-0.6368948426990388,2.1956439829899423,2.6607080640783938
0.06466053220591893,-1.5848987164536925,-0.6611243712260197,2.494635723108882,3.028563482355378
0.06714747575230041,-1.832533759424333,-0.7523944290350597,1.7736864715211276,2.6589924888066045
0.06963441929868192,-2.0658032518188048,-0.8915514457875182,0.14771762982650571,2.254823175744059
0.07212136284506342,-2.241611615864378,-1.0738070610451027,-2.1917349469997163,3.3138476607454783
0.07460830639144492,-2.355170500348381,-1.2800077043469873,-5.024404983803963,5.694725037275548
0.0770952499378264,-2.401691554054649,-1.4862114018494355,-8.077353768646745,8.556903093741127
0.0795821934842079,-2.3811748290827888,-1.6828413896060543,-11.082430992640512,11.459590979431493
0.0820691370305894,-2.303197184167443,-1.8555325002855358,-13.771486346623231,14.085508664013622
0.0845560805769709,-2.162970268075683,-1.989919566490977,-15.924253554355609,16.193210661418885
0.0870430241233524,-1.9892245528090902,-2.076425824079196,-17.377927179155765,17.61422469393536
0.0895299676697339,-1.8059021070402106,-2.1150513154800517,-18.02237422057298,18.235698424620313
0.0920169112161154,-1.6082145795099472,-2.101007679734514,-17.852806550905154,18.047805660192978
0.09450385476249688,-1.4153156355499865,-2.0390833624546243,-16.90753167202896,17.088756729146038
0.09699079830887838,-1.2655125537613974,-1.9340668091818694,-15.301471538635958,15.47504984463032
0.09947774185525989,-1.1731705961308168,-1.7859580620658964,-13.19743213830495,13.369300299277015
0.10196468540164137,-1.1239246047090945,-1.6139107764650897,-10.79173828153515,10.969481740201397
0.10445162894802287,-1.112986228172756,-1.437078607664343,-8.309445198419935,8.505928095995923
0.10693857249440437,-1.149932325143286,-1.2650384042334637,-5.9612429087583205,6.201538803701574
0.10942551604078588,-1.234762947584532,-1.1025786113465075,-3.9290910120880866,4.263575414156271
0.11191245958716736,-1.3579013408016791,-0.9688528840620556,-2.3853723009612366,2.9107684511996936
0.11439940313354886,-1.504982346760535,-0.8734380707206912,-1.4306435177741044,2.2526887939513958
0.11688634667993036,-1.6376987908052514,-0.8211226162643421,-1.12715417800381,2.1509942401915505
0.11937329022631185,-1.751262321501054,-0.8119065622353201,-1.4653277469602735,2.423488681739964
0.12186023377269335,-1.8552497973519713,-0.8457899500956767,-2.378126849741406,3.1325388686684104
0.12434717731907485,-1.9352960602373126,-0.9131960145856195,-3.7745720944695584,4.3389736457108645
0.12683412086545634,-1.9770359520122165,-1.0093363936834923,-5.5062232490435825,5.93682790549557
0.12932106441183785,-1.9804695244675719,-1.1150575153235822,-7.405486467695756,7.746408369241153
0.13180800795821934,-1.9455968293680685,-1.2303594206373485,-9.309556307587389,9.589941082745936
0.13429495150460083,-1.8819947250918085,-1.3600305539915452,-11.041262115522162,11.282776978950212
0.13678189505098234,-1.7896632633480456,-1.4705521331044769,-12.447375254502912,12.661065077582025
0.13926883859736383,-1.6877561090980615,-1.5667126021700386,-13.427339523647738,13.623382683640246
0.14175578214374532,-1.5762733139916492,-1.6293583886927343,-13.918905948223609,14.102318572302222
0.14424272569012683,-1.4695801396083086,-1.6584895333695475,-13.89813277964065,14.073675713172783
0.14672966923650832,-1.3724650408546801,-1.6732596900890138,-13.374597092126276,13.548553637032908
0.14921661278288983,-1.2992932792447962,-1.6497268827662315,-12.405759992680585,12.582235207196154
0.15170355632927132,-1.2548533096178358,-1.5926795551466295,-11.111331831031702,11.294820939410204
0.1541904998756528,-1.2391451834574447,-1.511694554203482,-9.611022956466243,9.807775664268396
0.15667744342203432,-1.2425921455704332,-1.425925533457303,-8.058062541065873,8.277056891367113
0.1591643869684158,-1.2651942473670355,-1.3401609363733802,-6.557795723256687,6.811859699591259
0.1616513305147973,-1.3308935568208655,-1.249612399681164,-5.220356044326941,5.530364005973299
0.1641382740611788,-1.4061713020226174,-1.1542799633343073,-4.170242255062401,4.549791251287797
0.1666252176075603,-1.4814507276243996,-1.0781056837910103,-3.48885747589709,3.940702299200532
0.1691121611539418,-1.5567318848778176,-1.0258780041303104,-3.1953555836266165,3.699477955951005
0.1715991047003233,-1.6272264216720629,-0.997596964012117,-3.3184672612074664,3.8282228897622512
0.1740860482467048,-1.6642039692516901,-1.0028394096372586,-3.843827561228185,4.307002676253186
0.1765729917930863,-1.6772413853797081,-1.0224517671840925,-4.685245485982188,5.080361359683461
0.1790599353394678,-1.6854923344147372,-1.0516456726904235,-5.73737642398563,6.071600387110919
0.18154687888584928,-1.6745916574272348,-1.1095747786932662,-6.904452569894444,7.190749522724254
0.1840338224322308,-1.6397510020813435,-1.162720301102945,-8.085917714537489,8.33203259317286
0.18652076597861228,-1.5905472259542432,-1.2302358922491128,-9.186004051552366,9.403509518456671
0.18900770952499377,-1.5221919766133232,-1.3169099943954912,-10.11373217737996,10.312075392605287
0.19149465307137528,-1.4538389181777231,-1.3940122264577641,-10.78769949457957,10.97412311179687
0.19398159661775677,-1.3902765047548913,-1.4519658205261408,-11.140868615143946,11.320778551122224
0.19646854016413826,-1.3315047870802532,-1.4907708152238826,-11.173239797017601,11.35062069594429
0.19895548371051977,-1.2823122191568983,-1.5104272490658115,-10.903966910888467,11.082518192895972
0.20144242725690126,-1.2522756582546348,-1.515723563777771,-10.342627020260892,10.527846214980487
0.20392937080328274,-1.2318183483074898,-1.4922945876942224,-9.556258027934819,9.75019933520116
0.20641631434966426,-1.2257287431549597,-1.4592939722808285,-8.611897836156983,8.820245698943806
0.20890325789604575,-1.2435836999004528,-1.4119333522898714,-7.586161153256436,7.816002639018466
0.21139020144242726,-1.2710180589884859,-1.3597895723219113,-6.598758316881648,6.856247217821495
0.21387714498880875,-1.3080318707662564,-1.302862670223393,-5.72630403422988,6.016556856279121
0.21636408853519024,-1.345048378881158,-1.2363642804061268,-5.002317382042136,5.325498189472595
0.21885103208157175,-1.3772792302407995,-1.1650828438074061,-4.532143486285673,4.8779750605418934
0.22133797562795324,-1.404724475012081,-1.1081720112095015,-4.3157825992974725,4.671966984207501
0.22382491917433472,-1.4225957599796644,-1.0704202233169604,-4.319716149583957,4.672207804001712
0.22631186272071624,-1.4548351517872424,-1.037462307435491,-4.572674808222317,4.909402026721399
0.22879880626709773,-1.4679238771710101,-1.0284519139945836,-5.031563195886827,5.341267831027644
0.2312857498134792,-1.4570735827243846,-1.024235466742022,-5.634132319367405,5.90893972798385
0.23377269335986073,-1.431861124936165,-1.0200245992665202,-6.337286798127288,6.576616183565124
0.23625963690624222,-1.401863360228699,-1.0253961549969257,-7.097931251016835,7.307344675023589
0.2387465804526237,-1.3575035316757407,-1.040350170599865,-7.815509456425062,8.00045826059038
0.24123352399900522,-1.308358495564054,-1.0696750859398958,-8.4373492253217,8.604932811616361
0.2437204675453867,-1.2735819147519083,-1.0942173241568462,-8.90120156140862,9.05818478961935
0.24620741109176822,-1.2388086287853728,-1.1187653248681646,-9.159182677716737,9.310043501223118
0.2486943546381497,-1.2040386871005686,-1.1433191242462626,-9.21129281984341,9.35974375679168
0.2511812981845312,-1.1788489457024738,-1.1726671616583753,-9.06232063606496,9.21360344380333
0.2536682417309127,-1.1680278572031138,-1.1972326663845414,-8.712266370691363,8.87137195965429
0.2561551852772942,-1.1715754708206902,-1.2122272708980986,-8.209014300585041,8.380334111916271
0.2586421288236757,-1.165549819097467,-1.2224394141852297,-7.624390718554663,7.809238012209268
0.26112907237005717,-1.1691045643832785,-1.2182923251426567,-7.001491496827102,7.2022166623967605
0.2636160159164387,-1.1918165623112318,-1.1854208292175121,-6.364258893683562,6.582510199488674
0.2661029594628202,-1.2145322485156052,-1.1525553816097176,-5.779730796618942,6.017371566701471
0.26858990300920166,-1.232463268513804,-1.1149076141462477,-5.319733495774946,5.573288899957271
0.2710768465555832,-1.25518647770551,-1.0772659651632122,-4.97947882749021,5.2470186246036015
0.2735637901019647,-1.2779135214499682,-1.053995679505113,-4.773332240702036,5.052590478244365
0.27605073364834615,-1.2862792383854502,-1.0355199852819457,-4.730024393621701,5.009984698906386
0.27853767719472766,-1.289860483670607,-1.017050513790343,-4.849555523847151,5.120187554554285
0.2810246207411092,-1.2886573057414465,-0.9985872995128595,-5.107983851678943,5.361838609600445
0.28351156428749064,-1.2874581562714416,-0.9897071834375715,-5.48136759671749,5.716857488467092
0.28599850783387215,-1.2718978735691375,-0.9904101997761225,-5.921822961257041,6.137314050061426
0.28848545138025367,-1.2467649091398332,-1.0198499958848912,-6.391042953523641,6.590898784426374
0.2909723949266352,-1.2216361177238193,-1.039719379139294,-6.831566967748895,7.017386865943971
0.29345933847301664,-1.1965115473346282,-1.04522998001903,-7.219453220689157,7.392201999387918
0.29594628201939815,-1.171391245898846,-1.0603238487870739,-7.521183121738451,7.68535227988922
0.29843322556577967,-1.1558520678959288,-1.0754242123249425,-7.698449676244564,7.858667740589627
0.30092016911216113,-1.1403172544355242,-1.090531104014815,-7.756041518708001,7.914907552808779
0.30340711265854264,-1.1343636598191695,-1.1152213637388657,-7.684382072934035,7.84730701869679
0.30589405620492416,-1.11883771833637,-1.1447066212770238,-7.48347156863014,7.652744462430667
0.3083809997513056,-1.1081046874278695,-1.1550448929859964,-7.182040654683126,7.3582424986292665
0.31086794329768713,-1.1069530178020472,-1.1653898249626766,-6.799243172592492,6.986643410665326
0.31335488684406865,-1.105805950113821,-1.1565878365981686,-6.382963383028944,6.580480512254577
0.3158418303904501,-1.1094519348857408,-1.162157783663075,-5.97150873926779,6.183883159722698
0.3183287739368316,-1.127467825866586,-1.1533692786193552,-5.579244677224004,5.807703122539895
0.32081571748321314,-1.1407000567884042,-1.1302223537056202,-5.244478648651395,5.4848113444797075
0.3233026610295946,-1.1395718679282407,-1.1118706542958705,-4.991152894576137,5.238939550242352
0.3257896045759761,-1.1432369193886247,-1.083949002375423,-4.847998058574056,5.097550516624792
0.3282765481223576,-1.1421184512530562,-1.0560342363840376,-4.810225960204267,5.055483819905961
0.3307634916687391,-1.136216510147749,-1.0233379846527955,-4.882625224888079,5.116467304251922
0.3332504352151206,-1.1303195459205637,-0.9954370853253547,-5.036465654022367,5.256853008300503
0.3357373787615021,-1.1148507983590084,-0.9771199730760918,-5.2430170482178955,5.448567106339926
0.3382243223078836,-1.104175523751993,-0.9635982757891806,-5.502279627217421,5.694102766937804
0.3407112658542651,-1.0743517517250245,-0.9452952178783067,-5.775946383407531,5.950577397141958
0.3431982094006466,-1.0588983516457209,-0.931787636887631,-6.016133501736769,6.179268260085022
0.34568515294702806,-1.0578153695371366,-0.9278639668896287,-6.241994812836934,6.3986251758142805
0.3481720964934096,-1.0327956247567238,-0.9383126418048202,-6.420011710011545,6.569904700448306
0.3506590400397911,-1.0125695830424783,-0.9391916754793157,-6.535819199036931,6.6801430198980185
0.3531459835861726,-1.006714096746595,-0.9400779048482923,-6.575052284877289,6.717777332469597
0.35563292713255407,-0.9960755981941265,-0.9457597633729278,-6.542499584962366,6.685127444302444
0.3581198706789356,-0.9950193428463274,-0.9514488777195202,-6.409430892660431,6.555617654145333
0.3606068142253171,-1.0035453760968247,-0.9619336810401755,-6.2093652436809315,6.363068163868557
0.36309375777169856,-0.9929233233099731,-0.9676373963706859,-5.9806100762272845,6.139211328884133
0.36558070131808007,-0.991883649585777,-0.9637716499112372,-5.718377197790186,5.883241176740502
0.3680676448644616,-1.0004263999935699,-0.9694900843071026,-5.460974044909822,5.635867415451913
0.37055458841084304,-0.9993980062119476,-0.9704275188043545,-5.1988240200864855,5.382220465189195
0.37304153195722456,-0.9935869164108908,-0.957007175811829,-4.975022961503676,5.162744537792572
0.3755284755036061,-1.0021467886104536,-0.9483826975021508,-4.813513093220099,5.007358208221679
0.37801541904998753,-1.0011356508363363,-0.9445541126080883,-4.714294621845939,4.911112790863787
0.38050236259636905,-0.9809767409629583,-0.9407330463829662,-4.6677909465005065,4.861642351212127
0.38298930614275056,-0.9799773299549701,-0.9321311239204628,-4.674002272090165,4.865749812609658
0.385476249689132,-0.9789838488197142,-0.9187483734744104,-4.747294012625364,4.933488460746651
0.38796319323551354,-0.9684195350909339,-0.9101616297786022,-4.87330116133459,5.051266652764635
0.39045013678189505,-0.9530728361484271,-0.9015825174447283,-5.032870307262689,5.201055892459955
0.3929370803282765,-0.952097409217388,-0.8882226609228221,-5.192482828627082,5.353251992723898
0.395424023874658,-0.9367628782036964,-0.8796588944617034,-5.342562119377103,5.494933526439535
0.39791096742103954,-0.9262229000995187,-0.8758912455069319,-5.492685185870521,5.638675809594476
0.400397910967421,-0.9204775184982901,-0.8817081446612667,-5.609333403706396,5.752330775290932
0.4028848545138025,-0.9099499702347011,-0.8875328124029407,-5.673353357565757,5.8140056554173265
0.40537179806018403,-0.9042171053059378,-0.8933652756867501,-5.6895336478491725,5.829794440573237
0.4078587416065655,-0.9032789669491759,-0.903993964623278,-5.629144050829995,5.7723808541366015
0.410345685152947,-0.8975587916409553,-0.9098420991971916,-5.525703585057601,5.671580426992281
0.4128326286993285,-0.8870566223778077,-0.9204865125089734,-5.4031544615497555,5.552318705404103
0.41531957224571003,-0.890926115316264,-0.9311388275322834,-5.2614968738287295,5.417021156724442
0.4178065157920915,-0.8995905065691147,-0.9417990703947674,-5.095942611199657,5.25974140668019
0.420293459338473,-0.8938962254860527,-0.9381020570963696,-4.925645478669487,5.093237606179768
0.4227804028848545,-0.8834201212155666,-0.9344130233917074,-4.7649708770223125,4.9354337466653675
0.425267346431236,-0.887315849423089,-0.935520398227148,-4.609130592855591,4.7860853162197
0.4277542899776175,-0.8912182424075906,-0.9270589970997567,-4.477278428460126,4.658296949063902
0.430241233523999,-0.8855505356634846,-0.9186056519396959,-4.388568185215803,4.570291764349161
0.43272817707038047,-0.884677981161289,-0.9101603878676281,-4.338211646987267,4.520080459024036
0.435215120616762,-0.8694470075032961,-0.8873580198739934,-4.33099740336338,4.505649882340112
0.4377020641631435,-0.8494344630870498,-0.8693521860217328,-4.376502446334262,4.542145505506239
0.44018900770952496,-0.8485824061438372,-0.8465661042818367,-4.436419733765172,4.5954963086784035
0.4426759512559065,-0.8429488615740529,-0.8285766057360711,-4.525114659120469,4.6769396674523245
0.445162894802288,-0.8181686607903829,-0.8249605212953459,-4.642587404976631,4.7857682384381155
0.44764983834866945,-0.8125490716000539,-0.8213526650977752,-4.745742523097817,4.884355463084169
0.45013678189505096,-0.8069365218370876,-0.8033878511098607,-4.834580194198942,4.966864629092093
0.4526237254414325,-0.8013310524867463,-0.7950081196886192,-4.8947353880994395,5.02320653423322
0.45511066898781394,-0.7957327044037336,-0.8010018977374771,-4.916631477002031,5.044606987435582
0.45759761253419545,-0.7901415183116485,-0.7926387887449664,-4.909845445451197,5.035790123367016
0.46008455608057697,-0.7797691314821322,-0.7986492358703083,-4.8887426803698055,5.014547386877302
0.4625714996269584,-0.7694039876952681,-0.7903028422555707,-4.82938134117394,4.953734471813928
0.46505844317333994,-0.7734113372390481,-0.7819648407518835,-4.741338409575199,4.867229604493206
0.46754538671972146,-0.7678492037057197,-0.7832120607159769,-4.653344479617434,4.7808606314834705
0.4700323302661029,-0.7575060304756376,-0.7892561213692275,-4.541457707869721,4.671357267828597
0.47251927381248443,-0.7615354707558037,-0.7857318351176446,-4.415255073189746,4.5488227214593
0.47500621735886595,-0.7559955477356036,-0.7822160307937334,-4.298678763440311,4.434188798222227
0.4774931609052474,-0.7456747043909819,-0.7739203270936783,-4.182152142283952,4.3180296407815
0.4799801044516289,-0.7449381902026841,-0.779998359139535,-4.099194202305771,4.238717194588483
0.48246704799801043,-0.7537860445541927,-0.7717197286742357,-4.049805111886261,4.191022093099699
0.48495399154439195,-0.753064693410914,-0.7538728605066054,-4.0100430218397936,4.149201821950399
0.4874409350907734,-0.7523509825228099,-0.7503997925501258,-3.970331291975006,4.110068420062886
0.4899278786371549,-0.7468565475410952,-0.7421469326585859,-3.9641889110145936,4.101630224004917
0.49241482218353644,-0.7365814272990009,-0.738691108430483,-3.9868276401479488,4.121044938479044
0.4949017657299179,-0.7311024671316048,-0.7352439373259294,-4.019094029630704,4.150688049448384
0.4973887092762994,-0.7256313022737915,-0.7365938432679457,-4.0609882420249335,4.190553278344586
0.4998756528226809,-0.7201679711410296,-0.7283756367203145,-4.102933632275301,4.228857690403037
0.5023625963690624,-0.7195009153289011,-0.7201661445701335,-4.149718764308663,4.27276101201548
0.5048495399154439,-0.7188417696517019,-0.7263305968463061,-4.191766991110315,4.3145335939673854
0.5073364834618254,-0.7086137654622903,-0.7277154001567894,-4.214713261362704,4.3353789970122145
0.5098234270082069,-0.6983937472531951,-0.729108977532098,-4.218557732724863,4.337693289255592
0.5123103705545884,-0.6929701560546006,-0.7305113485031893,-4.2033005618696215,4.322220503501384
0.5147973141009698,-0.6971314327542106,-0.7271341291012225,-4.173730307802149,4.293569722096516
0.5172842576473514,-0.6917240014952427,-0.7141889351776456,-4.120270318576916,4.238534584915014
0.5197712011937329,-0.6911131095197385,-0.7204062056461558,-4.0429207478975435,4.1643523632209565
0.5222581447401143,-0.6809335840040658,-0.7314207493574796,-3.9608353617556933,4.084955767367577
0.5247450882864959,-0.670762268581925,-0.7185021650210341,-3.893167925148159,4.015336084999051
0.5272320318328774,-0.6653876034220472,-0.7199576976500253,-3.8111881688720697,3.9352553929502085
0.5297189753792588,-0.6552328185871461,-0.7214221555534337,-3.7340498559295057,3.8591331020896624
0.5322059189256404,-0.6402979506350625,-0.7181071534998829,-3.6473879250806043,3.772147667512363
0.5346928624720219,-0.6349482459386621,-0.7243779193580666,-3.5703561373263426,3.698016440257937
0.5371798060184033,-0.6343953374432377,-0.7258692608934361,-3.5268966559851513,3.6562745589026746
0.5396667495647849,-0.6194856479864158,-0.7273695989711451,-3.5170096267695072,3.644473311242378
0.5421536931111663,-0.6189496334618174,-0.724090547633994,-3.526329984425086,3.652726232417486
0.5446406366575478,-0.6088453130920978,-0.7208205273835091,-3.540492662690232,3.6640637470621367
0.5471275802039294,-0.593961125873865,-0.7223479585391495,-3.559497804255475,3.6802990382242817
0.5496145237503108,-0.5790855106554159,-0.7190960512772127,-3.5737687441605672,3.691105822968575
0.5521014672966923,-0.5690069061363514,-0.7110648222322391,-3.592882429714985,3.7065059280138324
0.5545884108430739,-0.5637253475468815,-0.7030426911765488,-3.626415807215327,3.7367026774824903
0.5570753543894553,-0.5632408699677625,-0.6998180776997822,-3.664792208662753,3.7732860416555596
0.5595622979358368,-0.5579767016892975,-0.6966025945681351,-3.688858158402322,3.795295467707158
0.5620492414822184,-0.5527212808125315,-0.6886078543648457,-3.68903698640295,3.7932407619876916
0.5645361850285998,-0.5378978353270112,-0.6901990827713145,-3.6701172315765263,3.772992094958959
0.5670231285749813,-0.523083206352612,-0.6965878920044855,-3.6273106251751184,3.730446769967867
0.5695100721213628,-0.5226426381782442,-0.6934090874573475,-3.574982510711683,3.6789225925132967
0.5719970156677443,-0.512634148378688,-0.6950278942613215,-3.532286633997991,3.636331449222709
0.5744839592141259,-0.5074229809392465,-0.6870791174424005,-3.4800695132606645,3.5833559148285867
0.5769709027605073,-0.5117975730522731,-0.6935047884054208,-3.4135428756635573,3.5206761582566597
0.5794578463068888,-0.5066043451558994,-0.6903629051683442,-3.3518604639472755,3.459511161007601
0.5819447898532704,-0.510996944097757,-0.6776534821668485,-3.2854455999047154,3.3933000027559244
0.5844317333996518,-0.5153985966502713,-0.6793185502542398,-3.2334520242237907,3.3439978168511892
0.5869186769460333,-0.5102325294322119,-0.671416106896682,-3.1910914599629976,3.300636533843111
0.5894056204924149,-0.5050755821896143,-0.6683113759387433,-3.158364032472358,3.267568637465534
0.5918925640387963,-0.49513938455327633,-0.6747927744001991,-3.1161162527909116,3.2265599017260143
0.5943795075851778,-0.4947891792806264,-0.6717067025150314,-3.0835018574895567,3.194368471431929
0.5968664511315593,-0.4896597890522898,-0.6590531736141734,-3.0700977754670564,3.177989639000325
0.5993533946779408,-0.489328052995216,-0.6607742174457689,-3.061538917988255,3.1700291885479306
0.6018403382243223,-0.48900560011987726,-0.6529278303704324,-3.06740221188638,3.1740191489822958
0.6043272817707038,-0.48390405928090463,-0.6450908318065163,-3.0781109696794253,3.181991901550061
0.6068142253170853,-0.48838867245804113,-0.6420516376675751,-3.084088502850644,3.1878449921902523
0.6093011688634667,-0.4833058582324163,-0.6342334537216976,-3.094911735129063,3.1959842419294113
0.6117881124098483,-0.47344405163000425,-0.6168478888727273,-3.0866387659653096,3.183078613479476
0.6142750559562298,-0.4779568974807172,-0.6138369717618035,-3.0784233236559366,3.1752053135789438
0.6167619995026112,-0.472902410574374,-0.6156239076032728,-3.070265522178687,3.166884883007108
0.6192489430489928,-0.45828062214480014,-0.6030550947862374,-3.0669538777934253,3.1590983942405453
0.6217358865953743,-0.45803357986955584,-0.5904957547573586,-3.0541232924399573,3.144224718765958
0.6242228301417557,-0.46258450802591683,-0.5875227054583503,-3.0269854736593533,3.1179814647042754
0.6267097736881373,-0.4623566307327983,-0.5941359580056673,-2.9807521279527425,3.0743543125138815
0.6291967172345188,-0.4525615752708072,-0.5863935067295762,-2.920211767421426,3.012690838890173
0.6316836607809002,-0.4475645820429226,-0.5499301524163522,-2.8597297097663734,2.9463182517434183
0.6341706043272818,-0.43778887469143113,-0.5374183421520411,-2.7993060616861953,2.883850204202381
0.6366575478736632,-0.43281128998049057,-0.5344928763537364,-2.762882945439193,2.847196940467276
0.6391444914200447,-0.43742026119432276,-0.5363653618945974,-2.7504604656398044,2.8362046927877334
0.6416314349664263,-0.4228853982150973,-0.5334590021429442,-2.7285199026175775,2.812157788242175
0.6441183785128077,-0.4083603439680067,-0.5305622102435446,-2.697061358901186,2.778919646758807
0.6466053220591892,-0.41299874121790886,-0.5228865925160928,-2.6752385492571378,2.756969286066151
0.6490922656055708,-0.4128586026862837,-0.5247973683771323,-2.6774167840878977,2.7594247841503514
0.6515792091519522,-0.40315155421507115,-0.526717740457292,-2.670077339548781,2.7512316792575575
0.6540661526983337,-0.3934544314461361,-0.5286477178435325,-2.6580087173133222,2.73848226952803
0.6565530962447153,-0.393344069860113,-0.5353757127588921,-2.6507878213308427,2.732768337203526
0.6590400397910967,-0.3740900782136911,-0.5325365239609856,-2.6484147478653117,2.7272035517505575
0.6615269833374782,-0.35963450162534183,-0.5392837732655185,-2.6365243821748354,2.7150367917708227
0.6640139268838597,-0.35476577177042423,-0.5508290657026098,-2.624693625073993,2.7052334535020695
0.6665008704302412,-0.3594839168419193,-0.5432303928371844,-2.6272877796524625,2.7068374578613352
0.6689878139766227,-0.3498469482689813,-0.5404297792534369,-2.6059997114311564,2.684341954650396
0.6714747575230042,-0.3497969105214285,-0.5424272327502329,-2.570406318088695,2.6502026000873395
0.6739617010693857,-0.3449686213439269,-0.5444343576224528,-2.539661302898825,2.6201701572442695
0.6764486446157671,-0.3257853016386143,-0.5416627579814066,-2.504187948167907,2.5827295417633604
0.6789355881621487,-0.32576580202741573,-0.5389008443955641,-2.468774745117706,2.5478198955169127
0.6814225317085302,-0.33533334308623763,-0.5265718172891005,-2.4334217806041565,2.5122236946711656
0.6839094752549116,-0.33054593526666565,-0.5238292968248275,-2.398129140437728,2.4768288438545576
0.6863964188012932,-0.31619200877860354,-0.5354616930214977,-2.3724737160240963,2.45261659138441
0.6888833623476747,-0.3066368003088533,-0.5375269957929905,-2.351667187762688,2.4317277726977498
0.6913703058940561,-0.30666873973969866,-0.5300252114718784,-2.350074848288962,2.4285436445099626
0.6938572494404377,-0.30192264350811765,-0.5321099594892531,-2.3198127460292515,2.3991309818953948
0.6963441929868192,-0.2971869411681233,-0.5342044391717362,-2.2991881881306213,2.37906720906977
0.6988311365332006,-0.29246165878904556,-0.5410970596244371,-2.2786244474923016,2.3601799131645556
0.7013180800795822,-0.28774682227569204,-0.552787826449852,-2.2533331992893384,2.3379228220410604
0.7038050236259636,-0.287830860688512,-0.550123131787084,-2.2328913276134568,2.3176034486993897
0.7062919671723452,-0.28313699296220163,-0.5522565941557467,-2.2220873121920732,2.307125034664826
0.7087789107187267,-0.2784536478274378,-0.5543998152920655,-2.2017676151073413,2.287504365049333
0.7112658542651081,-0.27856925384980313,-0.5421875901099864,-2.181509117319891,2.2650717959944493
0.7137527978114897,-0.2834838361093385,-0.5395619399044711,-2.1613118921066654,2.245608885645592
0.7162397413578712,-0.2692554029191642,-0.5321576592266726,-2.1363876083816056,2.218071743546915
0.7187266849042526,-0.2741912055909743,-0.5343399623684917,-2.106736337336656,2.1906706753097467
0.7212136284506342,-0.26956084878647796,-0.5365320468393273,-2.0915117624031137,2.1759942878497323
0.7237005719970157,-0.2553643569235302,-0.5435223199287647,-2.095502356009856,2.1798526535274285
0.7261875155433971,-0.2459669642150737,-0.5409455754645935,-2.089977766302553,2.1728158980316095
0.7286744590897787,-0.24136869474715344,-0.5240134137348775,-2.0749380603082095,2.153651981795949
0.7311614026361601,-0.22720436247880732,-0.5118794514490994,-2.0503833040137724,2.125491493401859
0.7336483461825416,-0.22741600776539306,-0.5189089018164936,-2.0211019656869986,2.0990087290614583
0.7361352897289232,-0.2324268475538015,-0.5259481546243863,-1.9870941092363523,2.0686195154688085
0.7386222332753046,-0.2230832919839183,-0.528208809441538,-1.962725007492855,2.044764083353348
0.7411091768216861,-0.21375057427133837,-0.5256908689777409,-1.9575715289294084,2.038167433898138
0.7435961203680677,-0.20442871750415004,-0.5231827390840502,-1.9381149110989213,2.0178703346944427
0.7460830639144491,-0.19990614792409422,-0.5158960187920805,-1.9187204237209006,1.9968974021183663
0.7485700074608306,-0.19539448496554068,-0.49425390363455834,-1.9089649321586748,1.981568327922235
0.7510569510072121,-0.19089375121634233,-0.4917752188486868,-1.884906477498209,1.9573338292283784
0.7535438945535936,-0.18640396909744333,-0.48451794964982886,-1.8561219230331947,1.9273538015612492
0.7560308380999751,-0.1819251608628022,-0.4676936943567571,-1.813034517742354,1.8812039544986285
0.7585177816463566,-0.1726689452790065,-0.4604560677122236,-1.7700095261729984,1.8370541847479434
0.7610047251927381,-0.15863534426582804,-0.45801666768009364,-1.7462006151605642,1.8122254353998701
0.7634916687391196,-0.1589779928570932,-0.44601028540654886,-1.7368194339075416,1.8002058001518089
0.7659786122855011,-0.16412010599749471,-0.4340137284625434,-1.7275008239452294,1.788732071166063
0.7684655558318826,-0.16448489846440634,-0.41723859428157706,-1.7326100456970934,1.789715311671495
0.770952499378264,-0.16007239150845082,-0.41962690004278436,-1.7282051319952778,1.7856099473338423
0.7734394429246456,-0.17003621949407172,-0.4124482262259046,-1.7094977279252177,1.7667507852094513
0.7759263864710271,-0.1608575800947944,-0.410067783017817,-1.6764878808656256,1.7333904241204336
0.7784133300174085,-0.15169010734005456,-0.4076971671487706,-1.6483292504503524,1.704762794835748
0.7809002735637901,-0.1521106284510903,-0.4005479751739287,-1.6298102853271619,1.685187790681479
0.7833872171101716,-0.15733076052058936,-0.4029854167549205,-1.6209310297993333,1.6776673143652323
0.785874160656553,-0.1577737171532756,-0.3958558781367034,-1.6169031238266687,1.6721154666829028
0.7883611042029346,-0.15343951842681208,-0.38394776199162184,-1.6081498030265085,1.660453359395447
0.790848047749316,-0.14432818425114413,-0.3864146807790969,-1.5850943019951202,1.6378860999801668
0.7933349912956975,-0.1400165410090955,-0.38889142354281825,-1.5668902742306159,1.62048952558781
0.7958219348420791,-0.1452930115954052,-0.3865895857938746,-1.5487493556106013,1.6028680961223836
0.7983088783884605,-0.14100400213545444,-0.3795091661907679,-1.530671584315158,1.5833081932684183
0.800795821934842,-0.12714953186805994,-0.38680377650067754,-1.5030801908670437,1.5572521392331946
0.8032827654812236,-0.12767163646577012,-0.3797429951154183,-1.4659752114140865,1.51973290731551
0.805769709027605,1.6435041036448366,0.7861015733779055,0.5534654868790181,1.904044502507981
0.8082566525739865,1.7147852625019113,1.0277744866731218,4.18174641090763,4.635063315326857
0.8107435961203681,1.6663449172411573,1.149727504783705,7.216202000219701,7.494808204780588
0.8132305396667495,1.5221250660645815,1.1567490334018058,9.450930879944234,9.642355912353661
0.815717483213131,1.272548884099874,1.0488390750697687,10.742280919383788,10.868120509948996
0.8182044267595125,0.9415583698847788,0.8403628424610252,11.028002845294408,11.099981469656191
0.820691370305894,0.5626723287655293,0.5600507583797314,10.327250241884412,10.357719563688804
0.8231783138522755,0.15025595297496547,0.22705643915884055,8.754944760773922,8.75917742954044
0.825665257398657,-0.25738354848466405,-0.12510128873870707,6.459526877829537,6.465862982531942
0.8281522009450385,-0.621938966443276,-0.47726880864223187,3.6421095064441715,3.725527513066346
0.8306391444914201,-0.9242567048442307,-0.815080907033082,0.5516895942152331,1.3501735998843836
0.8331260880378015,-1.1643367807442957,-1.0906535469824494,-2.567524313579467,3.022811009534189
0.835613031584183,-1.323025597751276,-1.2991983212768823,-5.447381654062692,5.754327058425909
0.8380999751305646,-1.405111575906742,-1.4359268225357429,-7.862827493242266,8.115434712257327
0.840586918676946,-1.3866527151626757,-1.486473836571025,-9.65105613929409,9.86282387671423
0.8430738622233275,-1.2772258385455473,-1.4652045689502695,-10.716299545884578,10.891152658403385
0.845560805769709,-1.105561382195405,-1.352965401832867,-10.977154875647903,11.115336725098306
0.8480477493160905,-0.8572941522018996,-1.1832751537361388,-10.462352566594262,10.56389675169965
0.850534692862472,-0.5755197943307774,-0.9752874330512951,-9.219776669025183,9.289062947221073
0.8530216364088535,-0.2698151309380784,-0.7337906380439136,-7.412232911941448,7.453351303020141
0.855508579955235,0.0454546124673052,-0.4875151834168716,-5.192950216716921,5.2159820867365765
0.8579955235016165,0.3271937906221474,-0.2412494671075418,-2.748676326982002,2.7785749283603334
0.860482467047998,0.5801907916337099,-0.023723903491440712,-0.28052419534486006,0.6448860383566257
0.8629694105943795,0.7948687938156501,0.16027310982047815,2.019970033208482,2.1766448502623827
0.8654563541407609,0.9424973623677337,0.29637636873927464,3.975635424633726,4.096561638694064
0.8679432976871425,1.023076482578809,0.37500907265844496,5.466761885708465,5.5742984140442955
0.870430241233524,1.036606139904917,0.4009596310941399,6.388004534148001,6.483974309275998
0.8729171847799054,0.9878747232895349,0.36465124376285063,6.686690925166426,6.7690990927297845
0.875404128326287,0.8864590251635007,0.27087232050281784,6.362821051474457,6.4299823600376165
0.8778910718726685,0.7275706281637335,0.15793009455486162,5.488220956559346,5.538489884593981
0.8803780154190499,0.5351515350159021,0.01624776611656298,4.134716684877997,4.169236527176426
0.8828649589654315,0.32356694197192437,-0.14938625449408027,2.436383525019636,2.462311211028358
0.885351902511813,0.092816835489544,-0.3150299435188324,0.5656039931022505,0.6540387658824074
0.8878388460581944,-0.1331567812052421,-0.4711064870018644,-1.3579118303151088,1.4434668646650353
0.890325789604576,-0.3256235013995131,-0.6032506675089762,-3.1665698305076253,3.239923845400505
0.8928127331509574,-0.48937174145600926,-0.7114624774093179,-4.716717908391221,4.79511119635776
0.8952996766973389,-0.6291899175710284,-0.7574346823524261,-5.903011190485384,5.984574200843284
0.8977866202437205,-0.7067708158917041,-0.7842629042765195,-6.6248932056728655,6.708487405950089
0.9002735637901019,-0.7269028522817195,-0.7871587317605426,-6.872787144967208,6.95580403444984
0.9027605073364834,-0.6991628457589006,-0.7421801399465311,-6.6371161984287275,6.714981122569574
0.905247450882865,-0.6331276151749999,-0.6589039270635375,-5.951399185049264,6.021142517994569
0.9077343944292464,-0.5240087692548574,-0.5708489077875001,-4.897038956074456,4.957967749298998
0.9102213379756279,-0.39095993315900646,-0.4540730567964326,-3.5745919750838953,3.6244640705321296
0.9127082815220094,-0.23876952192124923,-0.33251838181777504,-2.0558842847896965,2.096244153549499
0.9151952250683909,-0.057860740448811177,-0.2253384871055042,-0.49893318672652676,0.5505085138972597
0.9176821686147724,0.10867076999319703,-0.12295655683905338,0.9573976317935085,0.9713587784564713
0.9201691121611539,0.2704018048285796,-0.0445261949675535,2.212551710960378,2.229458407722947
0.9226560557075354,0.41296714304491333,0.019529414633376874,3.175549398541852,3.20234870709767
0.9251429992539169,0.5267899671152725,0.045268264997041285,3.7985066731234163,3.835128398245915
0.9276299428002984,0.5927166530372371,0.0518439791901697,4.047904724184768,4.09139749780479
0.9301168863466799,0.6299008035358619,0.03446816382800755,3.918955162058399,3.969404569811066
0.9326038298930613,0.6239771982588804,-0.006859171004341302,3.4643304378492896,3.5200823818176357
0.9350907734394429,0.5845226336203211,-0.07213801507273754,2.6983957770267697,2.761921499954149
0.9375777169858244,0.5211139061988291,-0.1565799546742479,1.692977245828395,1.7782713348452448
0.9400646605322058,0.42896260277658216,-0.24103136599706199,0.5582081379764432,0.744111120249118
0.9425516040785874,0.3272223269016803,-0.32549223836319685,-0.6197202684880363,0.7727048981548635
0.9450385476249689,0.2063162623645569,-0.4003857543071838,-1.7450398879655022,1.8022317728191526
0.9475254911713503,0.08060960972131781,-0.46571190285784336,-2.731559440581072,2.7721476264929463
0.9500124347177319,-0.03074402698772749,-0.5310474795388762,-3.493087645546753,3.5333578817028104
0.9524993782641133,-0.11816785019905773,-0.5772388598068678,-3.9817404477255094,4.0250994192870735
0.9549863218104948,-0.19602707878703685,-0.5851324189737319,-4.183152614313487,4.2284243351382775
0.9574732653568764,-0.24995651154067267,-0.5834585654104152,-4.078170508279966,4.12727232561856
0.9599602089032578,-0.27516775372620816,-0.5626404807818175,-3.705101331533501,3.7576664940141304
0.9624471524496394,-0.2716608137669787,-0.5226781532504803,-3.1070406884008186,3.162387371749404
0.9649340959960209,-0.23943569992325786,-0.46835997415686226,-2.3318725856294193,2.3904644476335535
0.9674210395424023,-0.19764603357364385,-0.3996859313792518,-1.4274810290691828,1.4954982068469047
0.9699079830887839,-0.12234980605114965,-0.33580962593590424,-0.4848456535575796,0.6023395119744697
0.9723949266351654,-0.03748904172933565,-0.26715423878254985,0.414630713600749,0.4946670033571411
0.9748818701815468,0.06651305842290145,-0.21766177397695996,1.21827566591376,1.2393531510224116
0.9773688137279284,0.15613766371612103,-0.1777554121952063,1.8638399911364854,1.8787962819728674
0.9798557572743098,0.25532678346675697,-0.14743514061503893,2.3034396878704158,2.3222323920530035
0.9823427008206913,0.3401383939500756,-0.13148934959616732,2.5274979821625934,2.553669834949722
0.9848296443670729,0.4009956815640609,-0.12512962271990746,2.497707681018765,2.5327847557451837
0.9873165879134543,0.4570522527901934,-0.13314435007102876,2.238010835486934,2.288081440747543
0.9898035314598358,0.48915448770891323,-0.15074511495710352,1.8106567240531568,1.8816147254122213
0.9922904750062174,0.4973023798431636,-0.18750871051066342,1.2252221895533122,1.3355293285019458
0.9947774185525988,0.4910727295176244,-0.22428150980698458,0.5439565122174486,0.7663832647578896
0.9972643620989803,0.4704655305772678,-0.2610634990678351,-0.15652581689544043,0.5603501560289571
0.9997513056453619,0.43069237370747177,-0.28827785774019477,-0.837917532423182,0.9852440485357964
1.0022382491917432,0.20415913686363696,-0.28198255517655024,-0.22650331149995395,0.4153298264141965
1.0047251927381249,0.20266849991922475,-0.2756964004402045,-0.23285603840703928,0.4138900345476017
1.0072121362845063,0.21074230794703364,-0.2694193792199493,-0.22490643348202077,0.4093678371339251
1.0096990798308878,0.21401534563297064,-0.25836307375255885,-0.2265964710898789,0.40484565794343946
1.0121860233772693,0.2220644144243198,-0.2521042761046606,-0.21877249486001027,0.40091217827741804
1.0146729669236507,0.22531270264673875,-0.2506429715717924,-0.20622286417322044,0.3951146452361929
1.0171599104700322,0.2189718021056294,-0.24440233867903105,-0.1985243408830879,0.38352714009862615
1.0196468540164139,0.2269837246875045,-0.23338236246287103,-0.17652326607642443,0.37033687616554184
1.0221337975627953,0.22540644923479258,-0.22237143115153613,-0.15458480323997215,0.35235434173820024
1.0246207411091768,0.21902837467063907,-0.2257347394859317,-0.15665092166151418,0.3513817194719229
1.0271076846555582,0.23179151335807735,-0.2243186588374675,-0.14920274994817717,0.35539784321175355
1.0295946282019397,0.23017703797483402,-0.2181231737321263,-0.11787502915410997,0.3383100799975162
1.0320815717483214,0.21897334791937095,-0.22151347853079573,-0.10097493602537,0.3274347049033727
1.0345685152947028,0.23169926267005114,-0.2201243475471002,-0.08413720995577556,0.33048199164859826
1.0370554588410843,0.2300475520583778,-0.2235325715714831,-0.057784992833356696,0.32592605320557505
1.0395424023874658,0.24274863255784085,-0.22694973130935203,-0.036283442324355875,0.3342896458716506
1.0420293459338472,0.24586048427589569,-0.23516421398328857,-0.029209311954103256,0.34147147636601805
1.0445162894802287,0.2250178941178146,-0.22902239009151693,-0.012620531187904405,0.3213153990146004
1.0470032330266104,0.23768169895052482,-0.21810104993199175,0.0039061480818158856,0.32260799120648287
1.0494901765729918,0.24075626607116407,-0.21197698368118711,0.010793974774907511,0.3209584570540941
1.0519771201193733,0.24381839945684125,-0.21543857807442945,0.017619811901958826,0.3258399156148434
1.0544640636657547,0.25644490324098956,-0.21890900976594807,0.02438371663961192,0.3380528192341388
1.0569510072121362,0.2642705651115811,-0.20802305197015114,0.02629734364805536,0.33734859124993327
1.0594379507585177,0.27208378619371765,-0.20672270434510986,0.01378394506818914,0.34198517561863295
1.0619248943048993,0.26551935448690445,-0.19106593322759835,0.005997193760967079,0.32717378376068285
1.0644118378512808,0.2589424780679538,-0.18978314136032637,0.00772555342173753,0.3211363135309342
1.0668987813976623,0.2667183651688736,-0.19329750480667052,0.01896908521801066,0.32994308278375767
1.0693857249440437,0.2649049976141483,-0.20160900615447241,0.04930465774750559,0.3365290454019455
1.0718726684904252,0.26786758394550014,-0.19556401459484096,0.07957872047275849,0.3410734511587382
1.0743596120368066,0.27081771957791023,-0.19431612576657598,0.10021453028075555,0.34805738901753525
1.0768465555831883,0.27375540340094484,-0.2026537252334153,0.11121215147999308,0.3582997291081917
1.0793334991295698,0.27668063445820834,-0.1918463752034687,0.13172526243820215,0.3615366508769478
1.0818204426759512,0.284381815267418,-0.20020128425644979,0.14738871905596973,0.3777260986186727
1.0843073862223327,0.2824937352186023,-0.21335322433656456,0.14862578132630766,0.3839426150447768
1.0867943297687142,0.2805932004566728,-0.2121485639563132,0.15459012993326304,0.38423647094468744
1.0892812733150956,0.2834686139593072,-0.2157408980799964,0.1652818330458352,0.39270430929563976
1.0917682168614773,0.28633157221639427,-0.23370701492128143,0.1854893629165737,0.4135348133186911
1.0942551604078588,0.29397047851103886,-0.2373164760220181,0.1960591759567034,0.4256488605697657
1.0967421039542402,0.29680852631775234,-0.23614606937793292,0.19699134261596107,0.4273942634654826
1.0992290475006217,0.29005731258345513,-0.25413779283776705,0.2074395473795878,0.4378931697898886
1.1017159910470031,0.297658854328789,-0.2481959976586574,0.22261545888251355,0.4469448392671915
1.1042029345933846,0.30524794216349216,-0.24226268147558683,0.2281539398672745,0.4515769406288902
1.1066898781397663,0.3080361734892715,-0.2507030351770849,0.24799708038409918,0.4682316177960995
1.1091768216861477,0.31560035581986123,-0.2543634263043728,0.2582029380222419,0.48059660260788445
1.1116637652325292,0.3231520868588912,-0.24366702893487568,0.25877158771162456,0.48037862862329844
1.1141507087789106,0.3306913677808836,-0.23297903364386618,0.26406831507916095,0.48308186249451385
1.116637652325292,0.3190645866294288,-0.22708782426299168,0.28367000316442414,0.4835698099187046
1.1191245958716736,0.3170021648013023,-0.22120497788097682,0.28884630917440646,0.48254969179527224
1.1216115394180552,0.3388693138821405,-0.21533047480527445,0.2939625209257368,0.4976078666780016
1.1240984829644367,0.3511472124039906,-0.20467589192214986,0.2990187169978462,0.5045877313493253
1.1265854265108182,0.35383586229036046,-0.20360641929896017,0.2992265733704862,0.5061540611647306
1.1290723700571996,0.35651207225438997,-0.207333633622369,0.31852818666280314,0.5211029639071991
1.131559313603581,0.3591758445173353,-0.2110691114803127,0.3281932176849036,0.530347287388368
1.1340462571499625,0.3618271814489258,-0.21002442936272248,0.34737536116129064,0.5437819523543864
1.1365332006963442,0.369254488887405,-0.21377637362317525,0.3760746992433468,0.5687542482425497
1.1390201442427257,0.36709255953770215,-0.22711332719836852,0.40950291146715045,0.5950042396144144
1.1415070877891071,0.3649182028539689,-0.23088165632758573,0.4332948714299789,0.6117320325193555
1.1439940313354886,0.3675198251174334,-0.22986974375655134,0.4330854534278057,0.6127592764861414
1.14648097488187,0.3701090261158124,-0.2384427787772192,0.42802835569428055,0.6140390242010246
1.1489679184282517,0.3631090024633481,-0.24223553066599957,0.4133352605538292,0.6011424436887384
1.1514548619746332,0.36567337084271834,-0.23645957524698957,0.40337146430128,0.5935812354530943
1.1539418055210147,0.38259053812194455,-0.22111489157238884,0.39813705395646615,0.5947944425334205
1.1564287490673961,0.389918491393181,-0.21056666856384476,0.39763211722197944,0.5953873130046056
1.1589156926137776,0.3876572344958602,-0.19523807845070618,0.3827031291987275,0.5786689241981121
1.161402636160159,0.4045371913367316,-0.17991750333322631,0.3581385822654912,0.5694592973052673
1.1638895797065407,0.42140475276457623,-0.1741817285426932,0.36224579271636514,0.5823600729371836
1.1663765232529222,0.41910630977304764,-0.16366552272028567,0.3854480443121844,0.5924581817166286
1.1688634667993036,0.42637228670350746,-0.15315726770061389,0.4038034115194904,0.6068835725846221
1.171350410345685,0.43362588147911785,-0.14744534523121233,0.42210038939009564,0.6228485158063425
1.1738373538920666,0.4360786954873629,-0.14174133033265024,0.44991587695626656,0.6424013774267269
1.176324297438448,0.4385191369000714,-0.13125679793989375,0.4633079506649729,0.6512922827597412
1.1788112409848297,0.43615880739187607,-0.13035693618430066,0.47664191417930724,0.6591016237496123
1.1812981845312112,0.4385745187414839,-0.13904172315217123,0.5042830718127185,0.6826284683364156
1.1837851280775926,0.43140106626888386,-0.1381575235651762,0.5414431152444852,0.7059426523034609
1.186272071623974,0.419426858717865,-0.13728112198422204,0.559391720196114,0.712519538603083
1.1887590151703555,0.4170171116150956,-0.14120089956800985,0.5772825962327417,0.7260138850819776
1.191245958716737,0.41459502402763904,-0.1451284307534686,0.5903274369551301,0.7358245566597081
1.1937329022631187,0.4169490051251564,-0.1394868865768082,0.5889495332776349,0.7349589220831958
1.1962198458095001,0.42407906089835345,-0.1386414545961454,0.5923025966670732,0.7415435717768188
1.1987067893558816,0.41683158419775224,-0.13780370900943417,0.5860215159753626,0.7322292325410307
1.201193732902263,0.41436019457712725,-0.13218522393646603,0.5796831972799144,0.7247067775906284
1.2036806764486445,0.42145330176977547,-0.12657438006024124,0.5876529505990984,0.7341525383788482
1.206167619995026,0.4237457023678962,-0.12097115466678066,0.5955656666467046,0.7408730686325489
1.2086545635414077,0.4164489997441624,-0.1153755249661863,0.6082098500317255,0.7460968454729925
1.2111415070877891,0.41871681401235183,-0.10978746809339412,0.6112203926925215,0.7489775877355828
1.2136284506341706,0.41618394218329036,-0.10899536442923008,0.6189626070965932,0.7537929239400545
1.216115394180552,0.41842719800829375,-0.1034223843199209,0.6170713863934782,0.7526982167622417
1.2186023377269335,0.42065818541635913,-0.10264531132002874,0.6055468342942039,0.7444302099038577
1.221089281273315,0.4133001051544791,-0.10666412227132938,0.6179078783491576,0.7510022357001169
1.2235762248196966,0.42508338467014306,-0.11069039062387676,0.6206358002181602,0.7603532356816319
1.226063168366078,0.4272776117047753,-0.12430089971800795,0.642461125315533,0.7815197813725153
1.2285501119124596,0.4103059874184207,-0.1379188195429082,0.6738071530801477,0.8008674569724307
1.231037055458841,0.4124757463113057,-0.12760211005767763,0.6811551669329869,0.8064681650417117
1.2335239990052225,0.428998493137586,-0.13165797431708803,0.6740820807581311,0.8097902079642666
1.236010942551604,0.43593221950659244,-0.15487479206608645,0.6813184222977959,0.8235398556134459
1.2384978860979856,0.44285374040595005,-0.16373371642023837,0.6789222833442441,0.8269604779587025
1.240984829644367,0.44976306431844715,-0.16302312699148302,0.6764705795020056,0.8285383508872599
1.2434717731907485,0.4518717965420267,-0.18147341992795196,0.6835402269422879,0.8392544098774698
1.24595871673713,0.4443915425097834,-0.1903541514694096,0.6905545291183195,0.8429615078529313
1.2484456602835114,0.45605273103182076,-0.18966529771364282,0.7118788066447355,0.8664458748175328
1.250932603829893,0.4485481445683731,-0.19377204465627162,0.733147960770733,0.8810499280224058
1.2534195473762746,0.4506082121982281,-0.18830915830869976,0.7208432800172506,0.8707026670163832
1.255906490922656,0.46702134653246596,-0.18285342122230563,0.718060506579814,0.8758739651795563
1.2583934344690375,0.47863394371413337,-0.17740480924701485,0.7200113499969625,0.8825980186606824
1.260880378015419,0.475869206660104,-0.1719632981726784,0.7314843269905786,0.8894336391201999
1.2633673215618004,0.473092355021689,-0.16652886372983566,0.7429027448608672,0.896355246069843
1.2658542651081819,0.4846686085827434,-0.16110148159046656,0.7542667180844926,0.9109202102962298
1.2683412086545636,0.49144436401715375,-0.17004633732968832,0.7847299749517465,0.9414002620305751
1.270828152200945,0.4886312280916232,-0.1646329865827698,0.7911970011177818,0.9443819099894182
1.2733150957473265,0.490594420985661,-0.15922661481150557,0.8071867358882248,0.9579073166859486
1.275802039293708,0.4877571464084327,-0.16340400410185119,0.8374876991688414,0.9828497080877293
1.2782889828400894,0.49448462480155286,-0.15801151656311996,0.8629463947823979,1.0070546975212655
1.280775926386471,0.501200060135623,-0.16699114413342642,0.878774537027704,1.0253449319264218
1.2832628699328525,0.49353825319115074,-0.16640084549450762,0.8897606473558266,1.0309913958551347
1.285749813479234,0.49065282812070654,-0.15145219255685705,0.9054816510463173,1.0409490788480922
1.2882367570256155,0.4925437959251533,-0.14129877378078248,0.9115724572818635,1.0457194075138927
1.290723700571997,0.480057554453308,-0.14072896761467346,0.8984563790666815,1.0283402953299046
1.2932106441183784,0.47713613156566315,-0.1449543458160698,0.8948639564652403,1.024427718776212
1.29569758766476,0.47899113532935844,-0.13960967345241126,0.8720648901925188,1.0046992292980454
1.2981845312111415,0.4808341739397145,-0.13906013546429552,0.8444245113371309,0.9816272100194596
1.300671474757523,0.4826652590402033,-0.14809411010373763,0.8310965547952769,0.9724294838826839
1.3031584183039044,0.4701191924408542,-0.1523463622942991,0.8129275293844991,0.9513530560400447
1.305645361850286,0.4623495993210355,-0.14702846355371557,0.813859574285491,0.9474977191230852
1.3081323053966674,0.45935649170567106,-0.14650559863527812,0.8195276025932845,0.9508405588298807
1.310619248943049,0.4611398817461453,-0.1555661456067119,0.834720141157522,0.9662342005175614
1.3131061924894305,0.4629113783996418,-0.174210079171234,0.8594373139773879,0.9915990079630834
1.315593136035812,0.4598825907491092,-0.1784953573870749,0.8793140355575044,1.0082389414277135
1.3180800795821934,0.4568419346435372,-0.16363355155102655,0.8799852208653647,1.0049151612865224
1.3205670231285749,0.4537894227366691,-0.16314345948045172,0.8806046085700121,1.0039945742849776
1.3230539666749563,0.45072506780696375,-0.16265984574841008,0.8955375344760466,1.015676517314408
1.325540910221338,0.4620140927181796,-0.16218268484847265,0.9104189149185693,1.0337421563312423
1.3280278537677195,0.4589260905752749,-0.16650035455484158,0.9156720700018486,1.0376853398111894
1.330514797314101,0.46061468780998516,-0.16603602264185957,0.9160855302364581,1.0387235195900932
1.3330017408604824,0.4670798976961025,-0.16078966348631107,0.9068710199342007,1.0326819420868847
1.3354886844068639,0.4735333303100505,-0.16033805806817636,0.8880286671655337,1.0190863660590281
1.3379756279532453,0.4895518058117837,-0.1598927773698149,0.9026542303185714,1.0392359358397034
1.340462571499627,0.5007701278819209,-0.14987698901733815,0.931594225048693,1.0682235875320547
1.3429495150460085,0.5071883102838987,-0.1494442805235381,0.9221763441969415,1.063006483924849
1.34543645859239,0.5088063669026687,-0.16817143272614166,0.9127079441145831,1.0583956448491865
1.3479234021387714,0.5295663283459007,-0.1725395965463603,0.9319195749330884,1.0856723735260132
1.3504103456851528,0.5407377888186222,-0.16254874611463555,0.9462925440371652,1.1019478345276712
1.3528972892315343,0.5471091658884819,-0.162140872130756,0.9654037891081249,1.1214377280254295
1.355384232777916,0.5630456838838234,-0.17131594866147326,0.9844650382766105,1.1469703605564316
1.3578711763242974,0.5646053406901965,-0.1661319331412443,1.008264826720655,1.167466046935487
1.360358119870679,0.5805185708359297,-0.16095400953702832,1.0272264800606123,1.1908409825031854
1.3628450634170604,0.5916317757652025,-0.15578215182559552,1.0174081143556215,1.187188067695747
1.3653320069634418,0.5979449703220547,-0.1458279306348853,1.0123286859048086,1.1847418880044938
1.3678189505098233,0.6090349761093947,-0.1310913198853667,1.0215651347984416,1.1965382822582888
1.370305894056205,0.6249018082073805,-0.13551431007202597,1.0163871749534916,1.2007952729525089
1.3727928376025864,0.631180271852738,-0.1351548584604103,1.0111601505554262,1.1996250336721146
1.3752797811489679,0.6374471890008884,-0.12522453557174007,1.0154610028515805,1.2054796354093378
1.3777667246953493,0.6293373651224556,-0.12487692850394616,1.038866673467945,1.221025688367861
1.3802536682417308,0.6212160257263311,-0.1149583977683517,1.0622236844837847,1.235898029658997
1.3827406117881123,0.6226599931171093,-0.10504572377476018,1.0568017517093846,1.231084892900561
1.385227555334494,0.6336692830744084,-0.10471568691031896,1.0465430278465906,1.2279065292323534
1.3877144988808754,0.6303018948915531,-0.10439145425899898,1.045812859321245,1.2255213548314323
1.3902014424272569,0.6125578445783255,-0.09449619288356281,1.040246172998419,1.2108958435232107
1.3926883859736383,0.6043791648605887,-0.08460668310754338,1.0298431060617368,1.1970836599197772
1.3951753295200198,0.6105542752970965,-0.09866491519565246,1.0289690060098415,1.200536756581409
1.3976622730664012,0.6023527723181763,-0.10315203954981467,1.028047204090413,1.1959725161644787
1.400149216612783,0.5989282856706628,-0.09806802979582674,1.0175010318982025,1.1847534679241674
1.4026361601591644,0.5907040252925184,-0.10256647282313525,1.0212726446137275,1.1842503711126628
1.4051231037055458,0.5776800078749513,-0.1070705355824324,1.024996971195078,1.181438564652177
1.4076100472519273,0.5742214601823468,-0.10200338500824335,1.0286741508978494,1.1824996763688767
1.4100969907983087,0.5659631891690695,-0.11609541458213979,1.0370927266310286,1.1871620784090116
1.4125839343446904,0.7204993280727272,1.6846118738307623,0.4612792299144335,1.889395399368617
1.4150708778910719,-0.4465751352652765,3.403910791855164,0.5988911007970152,3.484925907527893
1.4175578214374533,-1.4700087675814584,4.850265233161982,0.7220911751582442,5.11931775474307
1.4200447649838348,-2.3306479382350442,5.994944804323422,0.8308795938840099,6.485494886160694
1.4225317085302163,-3.0045506131559465,6.823584321885839,0.9444101114571524,7.515353474290116
1.4250186520765977,-3.491716774765959,7.340972215687804,1.0626828693913613,8.19824700698754
1.4275055956229794,-3.7873580020570383,7.561473722218572,1.1617559929072918,8.536371739480625
1.4299925391693609,-3.910627890514298,7.489877271337024,1.2559948340932756,8.542177419196364
1.4324794827157423,-3.8519496155925204,7.150124906192191,1.3262459220970957,8.229260614483687
1.4349664262621238,-3.6256883692400566,6.594889089863431,1.3868746096068456,7.652555092334485
1.4374533698085052,-3.2893049731805033,5.867265478797174,1.4235158296834065,6.875371169808526
1.4399403133548867,-2.8236457959052768,4.981619309525,1.4409581289601139,5.904732581174367
1.4424272569012684,-2.2670180456427027,4.004988255108147,1.46793207095957,4.830540995351919
1.4449142004476498,-1.6720941404758667,2.985256375332613,1.4852841862855044,3.730110394493376
1.4474011439940313,-1.0388740618581063,1.9367889067466009,1.4978030224239784,2.6596662346393503
1.4498880875404128,-0.40087661437956523,0.9026815058248139,1.500700320497728,1.7965626659976432
1.4523750310867942,0.2179562041154861,-0.06439336431393361,1.474822611942379,1.4922309301769079
1.4548619746331757,0.7984707992078838,-0.9500704671104312,1.448900461667053,1.9077479019729282
1.4573489181795574,1.3215135765828954,-1.7256193560423736,1.4277224182462138,2.6004906457443426
1.4598358617259388,1.767930942029618,-2.3718863912263104,1.392135013916235,3.2694746926137626
1.4623228052723203,2.13293451140188,-2.8984483527001053,1.3517152010953382,3.844157445796327
1.4648097488187017,2.416524303976989,-3.2765747939389103,1.3112515291379783,4.277255272327567
1.4672966923650832,2.5899699192129377,-3.5014772850196203,1.2707441443314202,4.536857727578509
1.4697836359114647,2.6867901998343653,-3.597097815942459,1.2301931932125516,4.655247530262004
1.4722705794578463,2.7213503753865558,-3.5682247634281055,1.180022015923825,4.6400892002226675
1.4747575230042278,2.664920045633542,-3.419646504199801,1.1393843727723763,4.48263067988244
1.4772444665506093,2.5127108270420386,-3.1609398183041297,1.1178572176639818,4.18985214468939
1.4797314100969907,2.3173951760232803,-2.8160466957525236,1.0819218748575317,3.8040760163027647
1.4822183536433722,2.0789731125653788,-2.4280627398421126,1.0603089120084377,3.36776971603818
1.4847052971897536,1.8118098667172986,-1.9826227140314088,1.0434416704386607,2.881357030799072
1.4871922407361353,1.5254822653071671,-1.5084570116674827,1.0361087016567048,2.3824483078262624
1.4896791842825168,1.2295671352623072,-1.0486612360649497,1.0335217507526266,1.9182525739383747
1.4921661278288982,0.9384297069288692,-0.5936585540218329,1.0404693696759093,1.5217283932567207
1.4946530713752797,0.656858404110743,-0.13866053566437486,1.0473749006304285,1.2440594397665425
1.4971400149216612,0.39921845735026107,0.25408360238845784,1.0542384926726704,1.1555745986843784
1.4996269584680426,0.17508669396686916,0.5941506933133547,1.0706371017082947,1.236905089456473
1.5021139020144243,-0.010748461943291376,0.8911175702773262,1.0726288606059349,1.3945388937193175
1.5046008455608058,-0.15828698950780273,1.1258306465151926,1.0745791289984812,1.5643751852287209
1.5070877891071872,-0.2675288677580796,1.288713141891448,1.100430073357824,1.7156047340567564
1.5095747326535687,-0.3432624789500909,1.4037070995011742,1.121451423827402,1.829173596641245
1.5120616761999501,-0.3663341886429434,1.4564473358647745,1.113701314062574,1.8696978891952003
1.5145486197463316,-0.3511091855429922,1.4421454741303608,1.1106987177506493,1.8538373365374543
1.5170355632927133,-0.31195265826213014,1.3751667507138534,1.1315973988028603,1.8080129220343273
1.5195225068390947,-0.24886458535725686,1.2507227887358034,1.1572438947494188,1.7220495080115752
1.5220094503854762,-0.13790292869007725,1.0927556312239055,1.1636963399783369,1.6022862600021988
1.5244963939318577,-0.012586489872844053,0.910842111229559,1.1844737088961335,1.4942455415301068
1.5269833374782391,0.10793113953590372,0.7097706584678796,1.2004225395572856,1.3987272042755903
1.5294702810246208,0.2428035946324879,0.5039065092779942,1.1971777735046345,1.3214045470758395
1.5319572245710023,0.38245409068321257,0.2836728833803588,1.1938931756878972,1.2853491164659436
1.5344441681173837,0.5316710530069425,0.07301182371958914,1.185780494616596,1.301568367939829
1.5369311116637652,0.6569356804509314,-0.12328824005911354,1.1824166889192025,1.3582612799535485
1.5394180552101466,0.7630363985156874,-0.3052272816500943,1.188590314058576,1.4450381218490955
1.541904998756528,0.873915246073105,-0.47280527476724865,1.1803595057270524,1.5428937902289193
1.5443919423029098,0.9608418255614155,-0.6020801765431751,1.1912432396087738,1.6446209315973275
1.5468788858492912,1.0142393527894062,-0.7074171706937755,1.211664861649771,1.7312574202283781
1.5493658293956727,1.0580498668969671,-0.7840278276751964,1.2128941046562627,1.790329931749926
1.5518527729420541,1.0826965838702332,-0.827123717965577,1.2092963314553753,1.8217472807216981
1.5543397164884356,1.0881795264239802,-0.8414932187063073,1.2056600983684227,1.829169700070164
1.556826660034817,1.0744987173605607,-0.8367131103823098,1.2115623651685627,1.822778013743849
1.5593136035811987,1.0560193895303904,-0.812783366861666,1.21742647847592,1.8049711861981077
1.5618005471275802,1.018376355948731,-0.7601271553962561,1.2280409949965048,1.7671922306637233
1.5642874906739617,0.9615696396779925,-0.6835328532238085,1.2242524549564333,1.7001845214133666
1.5667744342203431,0.8999644738273576,-0.5830004342873174,1.201272608661144,1.6102426652061184
1.5692613777667246,0.8335608816304304,-0.49204869579807653,1.2021972397343248,1.5434422132512504
1.571748321313106,0.762358886405736,-0.39631240179094807,1.2078728887474668,1.4822993985245538
1.5742352648594877,0.6959353181968937,-0.29579152628898564,1.208722903021302,1.425773351703006
1.5767222084058692,0.6438670071315686,-0.19527444666342397,1.204747436622542,1.3798960897259096
1.5792091519522506,0.5822119601787911,-0.09476113699352595,1.2103118536809436,1.3464045539213456
1.581696095498632,0.5349122175938666,-0.013405184668800807,1.2158395018235861,1.3283736197703637
1.5841830390450136,0.5019678031132158,0.058370242813607476,1.2117537287731874,1.3129074071708755
1.586669982591395,0.469013530594552,0.1301419779264803,1.207631495626142,1.3020308965334177
1.5891569261377767,0.4408378272586164,0.17796802986978477,1.2178381668883649,1.3073409694214602
1.5916438696841582,0.4270175237277938,0.2162136343747969,1.213643477268949,1.3046159554357908
1.5941308132305396,0.40839903078345796,0.23051360721920755,1.2189895980832066,1.3060864947212096
1.596617756776921,1.9124830317483423,0.9247632621952939,0.4533669429135383,2.1721694277284587
1.5991047003233025,-0.08376553216252325,2.3755770781016894,0.6022936353796808,2.4521706183704883
1.601591643869684,-1.907641289966454,3.6013323999141686,0.7511847962448339,4.144028106078169
1.6040785874160657,-3.5208369907198866,4.5828756399580834,0.9048289838423127,5.849594664294594
1.6065655309624471,-4.889833786720333,5.329783630445794,1.0584379499315908,7.310086107767476
1.6090524745088286,-5.990689636827968,5.8468448002345035,1.202435043015548,8.45693836299515
1.61153941805521,-6.799462499825299,6.14842438478655,1.3368204182982186,9.264065065226355
1.6140263616015915,-7.311363947698886,6.248887619528266,1.4663826343613025,9.729075870171897
1.616513305147973,-7.550335972280424,6.167388143169764,1.5671798299188726,9.874224142793564
1.6190002486943547,-7.535532162004998,5.927867997704386,1.63442375701732,9.72600663069495
1.6214871922407361,-7.271740895271,5.56384603172862,1.6824797810322352,9.309421922242072
1.6239741357871176,-6.792480970323388,5.094475883839921,1.7065596541027972,8.660475051418564
1.626461079333499,-6.12169437869146,4.5293343859564,1.7210287416911374,7.80717311039256
1.6289480228798805,-5.28811151515057,3.9115171931994013,1.7258871993370324,6.800204171508235
1.631434966426262,-4.353981597644284,3.2601779440490666,1.7163467792954386,5.703662178485582
1.6339219099726436,-3.348035020800521,2.6040470835860656,1.692407637174016,4.56668844179289
1.636408853519025,-2.289425372533583,1.9479130402489098,1.6636467352503441,3.435630103559086
1.6388957970654066,-1.226036660607134,1.3013526457553368,1.6300642291876013,2.419461508899052
1.641382740611788,-0.18659927943154742,0.7026731517033786,1.5916602746720994,1.7498432155991561
1.6438696841581695,0.8001563766542822,0.15666298640686138,1.5244930108086798,1.728835578768247
1.646356627704551,1.7007115100625858,-0.336677825183449,1.433350996641055,2.2495036514754814
1.6488435712509326,2.5102777431975527,-0.777349258159528,1.356541614469112,2.9573588502142636
1.651330514797314,3.200124681932295,-1.1461976743758109,1.274911406759884,3.6304223147924892
1.6538174583436955,3.7510987388501094,-1.4432230490119236,1.2076141425507902,4.1966613438650056
1.656304401890077,4.167988343205032,-1.6588485506513284,1.1642267842434713,4.634579738038923
1.6587913454364585,4.44600511767916,-1.8170161711646067,1.120807470999205,4.932009596477951
1.6612782889828401,4.599514298304047,-1.9225142891864904,1.077356358579637,5.100224475040445
1.6637652325292216,4.6237275078977165,-1.9609776701163084,1.0338736027422293,5.12768798938001
1.666252176075603,4.518644772665748,-1.9467714993216074,0.999936165877843,5.020751157739335
1.6687391196219845,4.308208135482003,-1.8846841555760658,0.9659673970859153,4.800602536884898
1.671226063168366,4.006782832646094,-1.7842924210209463,0.9415442587339662,4.486035410343429
1.6737130067147474,3.6191572938826253,-1.6503846745248305,0.9458205198139691,4.088599460386332
1.6761999502611291,3.1740619655831175,-1.492537698324765,0.964431126056617,3.6376456038471896
1.6786868938075106,2.6858620842431007,-1.3299050813470465,0.9830110231705191,3.154173954087209
1.681173837353892,2.1832880963830927,-1.1481215893247156,1.0063487701205034,2.6641448802204186
1.6836607809002735,1.661551625345418,-0.9519756013215794,1.0248677158824915,2.1719496274678605
1.686147724446655,1.158959924418497,-0.7654091097325724,1.0481448226827421,1.740013442760249
1.6886346679930364,0.6803014237113978,-0.5836336870810794,1.0857570527136957,1.4079441343026153
1.691121611539418,0.22078774675490265,-0.4114377125818618,1.118550948209169,1.2120991890894623
1.6936085550857995,-0.1764854496552355,-0.24403275886023446,1.1561034712851903,1.194685874050001
1.696095498632181,-0.5115181385447265,-0.09578401187436647,1.1888379707339851,1.297752327545557
1.6985824421785625,-0.8034639061596778,0.03330855232648888,1.211966198622635,1.454484711079238
1.701069385724944,-1.0235923054827165,0.1576101676015793,1.2494303268917584,1.6228549887564405
1.7035563292713254,-1.1623265027178618,0.24839043787448523,1.2772884942276264,1.7447540245072057
1.706043272817707,-1.2436084872519673,0.3248030002186586,1.3003292591843092,1.8283640886888428
1.7085302163640885,-1.2674382318114543,0.3772710717319887,1.3089759702979968,1.8606856864717187
1.71101715991047,-1.2338157090644155,0.4105830794192462,1.3128055893263326,1.8477927871939475
1.7135041034568514,-1.142740891621064,0.43431585355104074,1.3166066746440084,1.7966469162709258
1.715991047003233,-1.003790558674905,0.43410420774154224,1.3155909779196229,1.7107955956359309
1.7184779905496144,-0.8217530860422806,0.41952497215122175,1.31454705739411,1.606024066688295
1.720964934095996,-0.6301472694050481,0.3953665735645777,1.308686664596678,1.5053441781612638
1.7234518776423775,-0.3906658545846282,0.36162903538976554,1.2932215509826293,1.3985053983096338
1.725938821188759,-0.12725083051105002,0.31352397765817974,1.2777286778914974,1.321771777856795
1.7284257647351404,0.12179060397945429,0.2510514236647272,1.2622081999426964,1.2926829884176354
1.7309127082815219,0.356458476667463,0.19336500992838035,1.2418718683530692,1.3064066786645856
1.7333996518279033,0.5911180253483974,0.15961837291051806,1.226296644215335,1.3706575080873344
1.735886595374285,0.8114040679489073,0.0971390992099499,1.2106942785734827,1.4606824440137292
1.7383735389206665,1.0125282290891753,0.02986922849214313,1.209430135662176,1.5776016095836765
1.740860482467048,1.1897021334416582,-0.023037602956415437,1.2129275630212124,1.699151308919305
1.7433474260134294,1.3477142123711368,-0.08073498547075797,1.1876678914927954,1.798167610816372
1.7458343695598109,1.476987687332709,-0.13364608952343593,1.1528048883438,1.8783804237605044
1.7483213131061923,1.5535805698712584,-0.1913476989279954,1.146645934020885,1.9403668279408333
1.750808256652574,1.591858098144374,-0.2346861776362119,1.1500375690227749,1.977795797539557
1.7532952001989555,1.6061855103593277,-0.2684499062618544,1.139037930421006,1.9872857501622714
1.755782143745337,1.5965628348116356,-0.2926388621592064,1.1232239784197304,1.9739003254583674
1.7582690872917184,1.562990099845453,-0.3168298293842784,1.1169610764311848,1.9470288234294018
1.7607560308380998,1.5054673338530704,-0.33623438209363865,1.1202493777917528,1.9064218109965518
1.7632429743844813,1.4096293553134522,-0.3364872878650371,1.1139354224390061,1.8278760186677196
1.765729917930863,1.3137834192760875,-0.33674213758055593,1.1075961701121741,1.751054372666436
1.7682168614772444,1.1987759409932808,-0.33221050558318765,1.1060201771073128,1.6645444448535025
1.770703805023626,1.0789721590055663,-0.32289236959903445,1.1187844029153151,1.5874882495505251
1.7731907485700074,0.9543721019380573,-0.32315291737825724,1.1123701770161691,1.5008735215476112
1.7756776921163888,0.8249757984608602,-0.304261706851646,1.1059312652825781,1.4128850688686376
1.7781646356627703,0.7051484872494945,-0.2949491358574985,1.1090446268133007,1.3469258947977758
1.780651579209152,0.5901017937421252,-0.27606156909505364,1.1217104139305771,1.297175535395732
1.7831385227555334,0.4989893600219528,-0.2571757912498107,1.1295635688572183,1.2613657776828813
1.7856254663019149,0.41265760165251386,-0.2382917804313247,1.1326042436359174,1.2287642741896527
1.7881124098482963,0.34068335416157935,-0.20983270817351496,1.1404093968063638,1.208564646821373
1.7905993533946778,0.28306664647811297,-0.1813753593568399,1.1338255668402049,1.1826175050922845
1.7930862969410595,0.23501910425204842,-0.15291971228671608,1.151160131904124,1.1848156257641134
1.795573240487441,0.21090596645533022,-0.13404255197506787,1.178048033490116,1.2042615586476118
1.7980601840338224,0.20115045549854516,-0.11037864689841426,1.1761821963348655,1.1983528321882104
1.8005471275802039,0.18659898719134915,-0.09150478220129621,1.1886584014640835,1.2066901435570336
1.8030340711265853,0.19598201058566378,-0.07742093645435588,1.191534783260332,1.2100240037263374
1.8055210146729668,0.2292995548501422,-0.06333868497495265,1.1800230892261343,1.203762670120493
1.8080079582193485,0.27697484255090365,-0.05883481310865335,1.1637002766612117,1.1976539285373753
1.81049490176573,0.3198542896509332,-0.05433249298734877,1.176085319300622,1.220014534617014
1.8129818453121114,2.0482442975016637,0.4002782086579586,0.4893410627811168,2.143590917665556
1.8154687888584928,0.40080258585094186,2.123814280692391,0.6118147031540087,2.2462295169223396
1.8179557324048743,-1.0982059721980857,3.5456794550765296,0.7534198425474017,3.7875507408703437
1.8204426759512558,-2.4200509273342936,4.637143332843033,0.8902146141631402,5.305867208995321
1.8229296194976374,-0.5624033682991836,5.355110304995495,0.2799966529779603,5.391836612233542
1.825416563044019,-3.8522966396551226,6.824855172622469,0.5173044140999252,7.854071643677379
1.8279035065904004,-6.759124876952134,7.858853933034964,0.7545906590949354,10.393111242828379
1.8303904501367818,-9.225427210820786,8.485837026832089,0.9966439403586467,12.57422905835426
1.8328773936831633,-11.227261595101183,8.748900104504312,1.2147339868565101,14.28531534906576
1.8353643372295447,-12.711955563681267,8.67198520319099,1.4184377539262982,15.453449688633734
1.8378512807759264,-13.698662700220337,8.293399569921858,1.5886017767910037,16.092156219910727
1.8403382243223079,-14.216113394988193,7.675392468257815,1.7348030104005172,16.248663670771396
1.8428251678686893,-14.24036560170073,6.856271145087092,1.8474647962261095,15.912560845393493
1.8453121114150708,-13.84324534045009,5.879131250547891,1.921798878859546,15.162220706342714
1.8477990549614522,-13.058271404736466,4.834952467909462,1.9673822126515805,14.062923245803473
1.8502859985078337,-11.933327797992717,3.738100027245404,1.9937917517485868,12.663052937478328
1.8527729420542154,-10.530663733583651,2.636457981799071,1.9722972235278124,11.033392302349332
1.8552598856005968,-8.917316828167722,1.5683335781020897,1.931629195001367,9.257937187792288
1.8577468291469783,-7.160324698375321,0.5576688526523972,1.8669994097279634,7.420709611034975
1.8602337726933598,-5.312359750850117,-0.3428637382020199,1.7879848210138327,5.615657698400255
1.8627207162397412,-3.4308827955289747,-1.1188989647486962,1.6850087686682063,3.9827309977528187
1.8652076597861227,-1.5685662390055353,-1.7943788239093268,1.5532829956028351,2.8447993732899874
1.8676946033325044,0.20755230219408938,-2.330996069515778,1.4167496644309505,2.735653531774315
1.8701815468788858,1.8543772281660953,-2.719173875393679,1.2897741309030284,3.5349878044642686
1.8726684904252673,3.3383897456731226,-2.982854238684764,1.1771449439041763,4.629031834219147
1.8751554339716487,4.62607106150095,-3.12203714000254,1.0692854421317826,5.682518871624337
1.8776423775180302,5.698267592417752,-3.1415109633542793,0.9757725773356238,6.579625886807983
1.8801293210644117,7.35943112630823,-2.4092064512197435,0.17834599634688963,7.745793020852431
1.8826162646107933,6.090085252836613,-1.4614247563081977,0.22844851959112233,6.267143642144469
1.8851032081571748,4.873405270671865,-0.5615280421466697,0.30726332370448617,4.915262294570181
1.8875901517035563,3.7141796132687883,0.252176483719607,0.4147905528585003,3.7457675289990076
1.8900770952499377,2.6411387307035725,0.9796888402329955,0.5318767377038647,2.8667572067773817
1.8925640387963192,1.6830130730723354,1.5970670296591627,0.6441568119696601,2.4079231922475524
1.8950509823427006,0.8254374606061441,2.0707922475489364,0.7468425157817489,2.3510213264153745
1.8975379258890823,0.07320032683543909,2.4056529159405913,0.849510798980905,2.552291683449887
1.9000248694354638,-0.5736982980115153,2.616014263437631,0.9569502078393537,2.8440137242872483
1.9025118129818452,-1.100893173729578,2.6922995019670988,1.0500072717777265,3.0924032174092004
1.9049987565282267,-1.5323262866588183,2.6536622633023144,1.1574125531673314,3.2755993458739248
1.9074857000746082,-1.882362816483694,2.509679372500464,1.264800984242541,3.3825289141965436
1.9099726436209896,-2.1270607163105284,2.2747160578634604,1.357807496981252,3.397405132396169
1.9124595871673713,-2.2903619724343525,1.9631375476172988,1.422067023103052,3.334957513048017
1.9149465307137528,-2.39620857113613,1.6084626831932485,1.457579704028058,3.2331882582376794
1.9174334742601342,-2.411081658839543,1.2154798860248066,1.4787108908748987,3.078521076379916
1.9199204178065157,-2.378076835080453,0.8177079973909254,1.4950375311775215,2.925582509889735
1.9224073613528971,-2.2971940694995268,0.40557022861144265,1.4778293456409912,2.7614429883880303
1.9248943048992788,-2.1588565250851612,0.022162227453473182,1.4558168945457854,2.6039499785275084
1.9273812484456603,-1.9917945913770545,-0.3085739716739395,1.4290003179802024,2.4707297503007153
1.9298681919920417,-1.7912198346619665,-0.6153687709620619,1.4117449657211996,2.3622385714827687
1.9323551355384232,-1.552343821216909,-0.8790685394753908,1.394474170670005,2.264308072906933
1.9348420790848047,-1.2895317305905054,-1.0805196463556315,1.338880845529836,2.1501201614995686
1.9373290226311861,-1.0315139522834311,-1.2245104774230207,1.2832723558508672,2.051885689400161
1.9398159661775678,-0.7543484392648752,-1.315829418574787,1.2228604370205804,1.9482906033336966
1.9423029097239493,-0.46761196773815406,-1.344899645824592,1.162433630785193,1.838115327092266
1.9447898532703307,-0.185669717220025,-1.3260863518648727,1.0972036719666374,1.7311366653941345
1.9472767968167122,0.09626674606071806,-1.2641779228248817,1.0271706984215658,1.6317146658196091
1.9497637403630936,0.3686206459202136,-1.1591743415910905,0.9762768643207895,1.5597060141609402
1.952250683909475,0.6266036095004763,-1.030229204408754,0.939733903623944,1.5287590086982368
1.9547376274558568,0.8702156672685761,-0.8821308976399052,0.8983883400386397,1.5305331873723158
1.9572245710022382,1.0803032364146055,-0.7100910010837187,0.8522403102608092,1.5484178566722193
1.9597115145486197,1.2808083640152177,-0.5284747078984182,0.8108667573322617,1.60538483871195
1.9621984580950012,1.4573658705876673,-0.35643561464045925,0.7886330273185926,1.69496421198666
1.9646854016413826,1.5908221733313195,-0.19876210798349447,0.7568088361042733,1.7728455028958756
1.967172345187764,1.700330916010165,-0.06503097799938473,0.7297595291564782,1.8514597544732665
1.9696592887341458,1.7763153224676707,0.054334598443080306,0.7218504516405293,1.9181544379833007
1.9721462322805272,1.8379290364699403,0.15933463775618595,0.7235049318165778,1.9816230863237159
1.9746331758269087,1.8660184752208995,0.2356039463131232,0.7347231042800608,2.0192454554478947
1.9771201193732901,1.8605836692053614,0.29271934701026847,0.7507166999990211,2.0275679445792254
1.9796070629196716,1.812047842266637,0.34025766266555646,0.7666974496327086,1.996776812500361
1.982094006466053,1.7491414448090197,0.34470008613574343,0.7826654868501954,1.9470180296127273
1.9845809500124347,1.6718645073129403,0.3156234400818172,0.8129861549693018,1.8856552110376887
1.9870678935588162,1.5610634469749578,0.2961233703284374,0.8337175704314816,1.7943503345729848
1.9895548371051976,1.4311035042306313,0.2670462794575852,0.8783786892063947,1.700270589301972
1.992041780651579,1.2867731128711104,0.20923856997258028,0.9038740138215253,1.5863650450113975
1.9945287241979606,1.1472259166442091,0.13227706421993446,0.9197804830089176,1.4763538405351573
1.997015667744342,1.012461946011537,0.060103794428330026,0.9500402451410963,1.3897007323930954
1.9995026112907237,0.8585392148277555,-0.012069627174163156,0.9754998183856536,1.2995519054534241
2.001989554837105,0.6710925435820725,-0.1943764614851924,0.8189884110161731,1.0765172679570711
2.0044764983834864,0.6847537254133633,-0.18993568725468224,0.8923088393793659,1.1406920244285657
2.006963441929868,0.674467834703341,-0.18549501866299645,0.9512526646122339,1.1807611502459225
2.0094503854762498,0.6641769184822408,-0.1666892305162797,1.0341272434217519,1.240296510598069
2.011937329022631,0.6586694104907547,-0.16224872758242448,1.0882602690989227,1.2823729782000297
2.0144242725690127,0.64836853449978,-0.15780828482546783,1.1280170810875507,1.3106135000503492
2.016911216115394,0.6380627242317316,-0.14857948392904952,1.1438210018967592,1.318152641949614
2.0193981596617756,0.6133868001177938,-0.1345623099761255,1.1308837570213406,1.2935410521972466
2.0218851032081573,0.5934944058207746,-0.12533355476927932,1.0939938782605463,1.250906357551679
2.0243720467545385,0.5927507816720875,-0.125681606869831,1.0523051070369398,1.2142880192830194
2.02685899030092,0.5824255381086484,-0.12602964495719116,1.0010291678323266,1.1649731214497032
2.0293459338473014,0.5673071087973373,-0.11680084778982502,0.9305893814675859,1.096118784911854
2.031832877393683,0.5665491373531842,-0.11714881412712774,0.8601394883434246,1.0366010366070053
2.0343198209400644,0.5657864441356873,-0.12228512620599652,0.808833228516944,0.994625127378182
2.036806764486446,0.5650190594513803,-0.11784455970176877,0.7718823250987334,0.9638133645029274
2.0392937080328277,0.5786122235532754,-0.12298071361103569,0.7397100975326545,0.9471469735776566
2.041780651579209,0.5826239501168821,-0.1281167670875787,0.7171050748756418,0.932793793756783
2.0442675951255906,0.5818426727240048,-0.1332527060048614,0.6992789791948102,0.9193956004919575
2.046754538671972,0.5858452282606489,-0.1383885163154015,0.7053855488081506,0.927326687522324
2.0492414822183536,0.5946316469555266,-0.15310099069138916,0.7450017150410417,0.9654295750213066
2.0517284257647352,0.6034135556998113,-0.148659695321546,0.7798203756623412,0.9971596875694179
2.0542153693111165,0.6121909846872189,-0.13464142303611082,0.8385720745705338,1.0469523574542563
2.056702312857498,0.6065987541322082,-0.15414178998651362,0.8973149187845877,1.0940273321121299
2.0591892564038794,0.5962137008319317,-0.14491153935629564,0.9368954182863636,1.1199299782148433
2.061676199950261,0.6049778715250655,-0.15004628745484094,0.9525252926599101,1.1383393811033804
2.0641631434966428,0.5945840697662607,-0.15996921414704213,0.9777234876917316,1.155449515936856
2.066650087043024,0.5746091322928032,-0.16031509605640037,0.9885481089632222,1.1546012076351833
2.0691370305894057,0.5689951057818504,-0.17023753312750145,0.9658456650134628,1.1338404194216813
2.071623974135787,0.5585884070061716,-0.18494810878223733,0.9479235038613592,1.115699682063509
2.0741109176821686,0.5529658726382786,-0.19965840652133737,0.9252049399575313,1.0961929193892248
2.07659786122855,0.5569159360077028,-0.20479160660402274,0.8833248840658694,1.0641230251830727
2.0790848047749315,0.5608618204598329,-0.20992450264953222,0.8414370698247904,1.0327877908542007
2.081571748321313,0.5600151526366272,-0.22463388835583853,0.7947532139022773,0.997852707561836
2.0840586918676944,0.563952769116704,-0.23455454089804118,0.7576386458774778,0.9731777207567729
2.086545635414076,0.5678862964929331,-0.23010964085020413,0.7205166783566845,0.945827455906636
2.0890325789604574,0.5766041679734649,-0.2352411921071922,0.6929642368549693,0.931670659916032
2.091519522506839,0.5853180100999487,-0.23079556875961948,0.6797698431934283,0.9262563399090221
2.0940064660532207,0.5940278527079433,-0.23113796821881305,0.6713568088574391,0.9257504063970888
2.096493409599602,0.6075221289263766,-0.2410567813339335,0.6916672681985698,0.9516276156457342
2.0989803531459836,0.6258008685364144,-0.231821575790379,0.7119709186678769,0.9758435115794158
2.101467296692365,0.6344988913303029,-0.22258595255503177,0.7226910706194332,0.9871249834379013
2.1039542402387466,0.6336162270326973,-0.22292670603246734,0.7429814539498274,1.0015923723426792
2.106441183785128,0.6279413086595449,-0.21847861410394787,0.7632653782533403,1.0122337820790503
2.1089281273315095,0.6270509725175475,-0.21403006801018298,0.7883313627036568,1.0297903328201572
2.111415070877891,0.6261568449223951,-0.2047926524294028,0.8229679260918186,1.054176755723682
2.1139020144242724,0.6156821488388722,-0.19555475875852224,0.8432331669033584,1.0622374244197113
2.116388957970654,0.6052037204819045,-0.18631637515216015,0.8443387965203133,1.0554114544784658
2.1188759015170353,0.5947215893941703,-0.17707748984287663,0.8358617358998863,1.0410163533019803
2.121362845063417,0.5794473817658918,-0.16783809114110282,0.8273789056124858,1.0239554416700716
2.1238497886097987,0.5833231436765269,-0.15859816743508715,0.8141020158797669,1.0139927814939977
2.12633673215618,0.5871952912895513,-0.16851132047204986,0.7960311798548805,1.0034241448864025
2.1288236757025616,0.5766986440550916,-0.17363552219407374,0.7875317202620984,0.9914317077043531
2.131310619248943,1.6244355751000337,1.722236953621366,10.6431377826771,10.90326890997
2.1337975627953245,1.566047812985334,1.9038616114395968,16.09340758454944,16.281122887273558
2.1362845063417057,1.416676890924264,1.8987391216641365,20.212496169107837,20.350852194726777
2.1387714498880874,1.2002648547897217,1.7308115120430303,22.799290708093608,22.89637528090478
2.141258393434469,0.9263885404574805,1.4192324069267386,23.75323484258005,23.813621770732837
2.1437453369808503,0.6285668003681923,0.9927322372291663,23.103059102893425,23.132919258691626
2.146232280527232,0.3498952935659525,0.4944066437480532,20.992415698651058,21.00115190914092
2.1487192240736133,0.09995085581499175,-0.023071926155243005,17.622417678916754,17.6227162304099
2.151206167619995,-0.0925360638773789,-0.5309730417978451,13.304311368723283,13.315224229812038
2.1536931111663766,-0.2084118231831389,-0.9670474493315842,8.358919899344084,8.417253598469738
2.156180054712758,-0.23809958645402673,-1.321718331508216,3.169315644820461,3.442120337440017
2.1586669982591395,-0.21032974464394671,-1.5614668545549606,-1.9053710378141613,2.472419084843175
2.161153941805521,-0.10594865554378408,-1.6862930080175202,-6.544317018486728,6.758912224977872
2.1636408853519025,0.05589009645246401,-1.672254764916552,-10.450641184129083,10.583735676077822
2.166127828898284,0.26082133023001985,-1.5241405182709409,-13.404076875201277,13.49297257693959
2.1686147724446654,0.48011465467159653,-1.2946226943789505,-15.241818272411118,15.304234128228595
2.171101715991047,0.6898280819381695,-0.9789128797712445,-15.892039219957153,15.937096466341316
2.1735886595374283,0.8803848341091253,-0.6105298876170351,-15.373893225529432,15.411178316721365
2.17607560308381,1.0278429232599098,-0.2421461444427253,-13.802301863630582,13.842638208265944
2.178562546630191,1.1322023780240569,0.116661553032257,-11.364012758975006,11.420870287719143
2.181049490176573,1.1695212103895918,0.43237439141119927,-8.24577353668492,8.339514895615492
2.1835364337229546,1.1350110455813749,0.6762619605420834,-4.682215855494204,4.865051451969369
2.186023377269336,1.0478255253809476,0.8339590601583176,-0.9750090210303624,1.6565230565104092
2.1885103208157175,0.9414835014854173,0.8911004899179136,2.6507921137947434,2.950788046820305
2.1909972643620987,0.8016197923430544,0.8620514693255021,5.955767485695297,6.070987841439617
2.1934842079084804,0.6330228296369598,0.7516004111698855,8.738804257540208,8.79387974289592
2.195971151454862,0.47399986824576756,0.5645357281648002,10.817943205065514,10.843028712103214
2.1984580950012433,0.3341277430791484,0.3247994462305095,12.116569976640925,12.125526958767733
2.200945038547625,0.20382967571763333,0.051545187891725686,12.582012236826715,12.583768726846309
2.2034319820940063,0.11662451757671877,-0.22170821444016342,12.19032806968884,12.192901798058324
2.205918925640388,0.10124271670292007,-0.4853839450301103,11.027708835247028,11.038850022387464
2.208405869186769,0.11937707460940694,-0.6915979616549701,9.252171942910321,9.278752302313311
2.210892812733151,0.17102761932240884,-0.8499270620096628,6.969062365148574,7.022781265754879
2.2133797562795325,0.2657711854588928,-0.9603712372226743,4.374704737101242,4.486757044137879
2.2158666998259138,0.3796657843433111,-0.9989884618949902,1.6797889034518185,1.9909331518060074
2.2183536433722955,0.49834623388997346,-0.9609903239827786,-0.9480909214164877,1.4390023512465886
2.2208405869186767,0.6170241586026084,-0.8607420247972615,-3.3269753135775355,3.491469659427916
2.2233275304650584,0.7356995862536141,-0.7269739756842648,-5.308423672765932,5.408244348410829
2.22581447401144,0.8304305279617504,-0.550109361500652,-6.796667835658806,6.869274258585142
2.2283014175578213,0.88206339811358,-0.34451338377824836,-7.700728042673194,7.758732995606134
2.230788361104203,0.8953866276442908,-0.15328166404402044,-7.996662181130611,8.048094092430885
2.233275304650584,0.8847654540763307,0.023585805984749353,-7.6940469620153635,7.744786946886834
2.235762248196966,0.8358346949564814,0.18130063119747897,-6.859919936576601,6.913030528820679
2.238249191743347,0.7677479910194995,0.30070920644980204,-5.551741849844404,5.612637577099729
2.240736135289729,0.6661401597033187,0.3674463298449533,-3.8940110937552443,3.9676292563664517
2.2432230788361105,0.5549532449533217,0.39108881601516465,-2.0160144639883715,2.127260652836574
2.2457100223824917,0.4581292906594384,0.36205986623899866,-0.08055757988847922,0.5894567985684875
2.2481969659288734,0.3708799207337723,0.2947246983242775,1.7830727620199873,1.844929006239376
2.2506839094752547,0.2884167590322342,0.17950651340516144,3.4743201847086187,3.4908892221208148
2.2531708530216363,0.23468184927583746,0.04992414242661347,4.883051504085634,4.8889426241192
2.255657796568018,0.21925202516756603,-0.09881081030076455,5.903921938954763,5.908817926459043
2.2581447401143993,0.2325505070716254,-0.24754472393636195,6.517777967459908,6.526621466102796
2.260631683660781,0.26021211197401517,-0.37712397771137285,6.710254470641081,6.725878968472554
2.263118627207162,0.31181367340395294,-0.4875485642093613,6.462197925791228,6.488060835217618
2.265605570753544,0.3825668148710135,-0.5740300727649457,5.8358576662231485,5.87648726644537
2.268092514299925,0.46289475650534395,-0.6030496728619172,4.879117814862246,4.937988569736178
2.2705794578463068,0.5384323150572716,-0.612914583859685,3.6925349307306945,3.7815853632665966
2.2730664013926885,0.604391113857852,-0.5892595886649881,2.3527235558221253,2.4995646843929187
2.2755533449390697,0.6559827761778552,-0.5225078735754938,0.9458750383434964,1.2641232015716273
2.2780402884854514,0.697995731867997,-0.44617825484215645,-0.4083004506833916,0.9235704276492366
2.2805272320318326,0.7160647974367172,-0.34111711226273433,-1.6140347572671345,1.7983931372402786
2.2830141755782143,0.7101899992919102,-0.24084326222864316,-2.6282321643664623,2.7331263457560095
2.285501119124596,0.6899481704203014,-0.13099148799807958,-3.369489728807059,3.441896029854844
2.287988062670977,0.6457625304651962,-0.03071539614132579,-3.7995001377255386,3.8541087138130026
2.290475006217359,0.5776331056479111,0.0456198100221048,-3.927840111891001,3.970348739895126
2.29296194976374,0.5238671486893536,0.10759094370470512,-3.7545095658607446,3.7924075045784598
2.295448893310122,0.46531107240336367,0.12646759148716136,-3.298662027902746,3.333718587422338
2.2979358368565035,0.4115417094619739,0.1261917764044349,-2.6033930433159593,2.638739525046935
2.3004227804028847,0.37213589247320233,0.1115519081412586,-1.72137496447034,1.7646701445261794
2.3029097239492664,0.33751684069937293,0.06339437971196071,-0.7435873707273419,0.8190596089662533
2.3053966674956476,0.336414999900573,0.0008728106247355427,0.24377856144094956,0.4154561360417102
2.3078836110420293,0.33531157260770006,-0.0664359863213817,1.2024156883361545,1.2500604299633087
2.3103705545884106,0.3629370044502378,-0.14810881167685208,2.0700748492267937,2.1068624470280386
2.3128574981347922,0.40492611110903665,-0.22499204613846358,2.77971847963129,2.818052767832276
2.315344441681174,0.43733690155811955,-0.29229728043185244,3.3026162411992708,3.3442451019991815
2.317831385227555,0.479323014587833,-0.35960131531146766,3.6004609885094343,3.6499839709326998
2.320318328773937,0.5260960723200667,-0.3933853217165235,3.6732528022716497,3.7315298790240368
2.322805272320318,0.5680792934891894,-0.41280290717713486,3.5257801660851023,3.5950307513878323
2.3252922158666998,0.5909074934417009,-0.4226424693297517,3.1628315631178516,3.24519673045275
2.3277791594130814,0.6137343106984163,-0.4037503892763632,2.6418679126297775,2.7421068995850786
2.3302661029594627,0.6221945604697063,-0.37528027474838765,1.9964081168486985,2.1245250586219697
2.3327530465058444,0.6162882678583481,-0.33723212026270977,1.2695478842107093,1.4509612545966257
2.3352399900522256,0.6055922645388452,-0.2896059204028001,0.5522669559240985,0.8692596681126473
2.3377269335986073,0.566164558874308,-0.24197847645913795,-0.1458577836796522,0.6327482784289228
2.3402138771449885,0.53152399900203,-0.19913818646806103,-0.781730627458904,0.9660623958793707
2.34270082069137,0.5016706097472956,-0.1562966418913554,-1.312255868702838,1.4135478435114173
2.345187764237752,0.4622392059042425,-0.12303064421755394,-1.6799725911717625,1.7467425482823553
2.347674707784133,0.4180182154777664,-0.09455178503991535,-1.8848807189012051,1.9329911000858164
2.350161651330515,0.39773808300351077,-0.07564846265779801,-1.9174033697176407,1.959682105541192
2.352648594876896,0.37745681642255635,-0.08068588207647798,-1.8062708884416105,1.8470512668201595
2.3551355384232777,0.3619628435264227,-0.09529882844446025,-1.5562716037236202,1.6006499527857765
2.3576224819696594,0.3704098019958293,-0.12427570025642654,-1.1913474579268515,1.2537769485030366
2.3601094255160406,0.39322090951755617,-0.1532512827905208,-0.7354403938462717,0.8479275984773189
2.3625963690624223,0.4112425770654363,-0.1822255713504033,-0.236434371309322,0.5081612224302801
2.3650833126088036,0.42447482882188536,-0.22077536794468777,0.2865170693466741,0.5576851032809537
2.3675702561551852,0.44728289885733263,-0.25453545804463484,0.8046835807130304,0.9551784943566072
2.3700571997015665,0.47966681120799226,-0.27871743382605585,1.2606043950271157,1.3772752442611849
2.372544143247948,0.5072613798756562,-0.29332129084892067,1.6207607606976318,1.7234317307615634
2.37503108679433,0.5204898221085843,-0.3175006380180285,1.8803643456237449,1.9767362956028038
2.377518030340711,0.5337173716824992,-0.31773664777815913,2.0250500106331994,2.1181686325083984
2.3800049738870928,0.5517324556581098,-0.303606122520125,2.0500294227636147,2.1445759521301064
2.382491917433474,0.55059308109958,-0.294262671338394,1.9696678619032184,2.0662368564403097
2.3849788609798557,0.5350876749180044,-0.2705526768277773,1.7743885909082326,1.872958206243037
2.3874658045262374,0.5243698739101764,-0.2372645382472678,1.4881336954465585,1.5955563673207207
2.3899527480726186,0.5040744915552355,-0.20397505823867235,1.153998874037585,1.2756999328604486
2.3924396916190003,0.4694131478971484,-0.18026103950600048,0.7815610015280292,0.929344040112159
2.3949266351653815,0.4443278828257362,-0.16612247817472126,0.39476216229592076,0.6171394574906572
2.397413578711763,0.43360712287327463,-0.1376173538306249,0.02233284361015997,0.4554694599921035
2.3999005222581444,0.413308874573591,-0.11868767932426616,-0.30699646769018507,0.5283538797046152
2.402387465804526,0.3882215643055714,-0.09496824100519685,-0.5788604951559719,0.7034304675258978
2.404874409350908,0.38707563497258246,-0.08082424520611209,-0.7788939627671461,0.8735192676968688
2.407361352897289,0.39071749619753093,-0.09062089832078968,-0.868789578330901,0.9569052411099644
2.4098482964436707,0.3895703641663615,-0.11478139020232492,-0.8868545032079975,0.9754233675865029
2.412335239990052,0.3979994715887454,-0.1341521041238738,-0.8283002693047194,0.9286989299854146
2.4148221835364336,0.4160048411353331,-0.16309824666126183,-0.6691847956741821,0.8046548059096573
2.4173091270828153,0.43400968875782664,-0.18246620120841817,-0.47175726156289777,0.6664932395429235
2.4197960706291965,0.452014036969971,-0.2066211744615254,-0.23122920016073856,0.5481568592663284
2.4222830141755782,0.46522950488641135,-0.24513996985636677,0.03324583831386008,0.5269130694936568
2.4247699577219595,0.4736561148630485,-0.2645037610055798,0.29293749657465895,0.6165425627097311
2.427256901268341,0.48687069581713516,-0.26950094814378867,0.5286922235494149,0.7675866744137022
2.429743844814723,0.4905080599848535,-0.2888619481664674,0.7500868876613929,0.9416314146470404
2.432230788361104,0.4845682294835909,-0.30343314482502937,0.937967936985773,1.098481630805275
2.4347177319074857,0.48820483963201905,-0.2988493252500981,1.0731818191721825,1.2162952362170458
2.437204675453867,0.4774758957858165,-0.2942640998731463,1.1461517880853105,1.2760244954003725
2.4396916190002487,0.46195822646244533,-0.2801006592622448,1.1520895004851077,1.272466895224979
2.44217856254663,0.4512286600987463,-0.26593580732497735,1.0814182093864773,1.201580001874512
2.4446655060930116,0.43571041176947667,-0.2517695413863703,0.9580799906221493,1.0821962545327755
2.4471524496393933,0.42498030974958534,-0.2376018588293003,0.8012285162804318,0.9375660202326738
2.4496393931857745,0.4142499722718418,-0.2186443537739975,0.606075441424542,0.7659868364811656
2.452126336732156,0.408307824128165,-0.20447383035906874,0.41092805057715154,0.6143180685094032
2.4546132802785374,0.4023654833881828,-0.21424389942099076,0.22057480459585577,0.5064105795536045
2.457100223824919,0.39642297135996896,-0.20964733200953178,0.03501576059559319,0.4498102705926906
2.459587167371301,0.40484551923046275,-0.2050493357547225,-0.11223020148879392,0.4674834143161137
2.462074110917682,0.41326793818246044,-0.20523831170259665,-0.221163025386085,0.5116895905898812
2.4645610544640637,0.4216902492772454,-0.21021425763528834,-0.30135946188705454,0.5593122792479313
2.467047998010445,0.4301124734934523,-0.22476557471145675,-0.36718466552356865,0.6085563918205791
2.4695349415568266,0.4433230350471846,-0.23452705086450676,-0.37554295140403227,0.6265546738632644
2.472021885103208,0.44695674479027747,-0.24428708736488458,-0.33601107158028576,0.610204845106356
2.4745088286495895,0.45059043009292865,-0.24925727889800653,-0.282107795125107,0.5871505214553747
2.4769957721959712,0.4590125149216294,-0.24943762352497556,-0.18031424504599336,0.5526525525599001
2.4794827157423525,0.4626462131983834,-0.2496165226823801,-0.03541877133135074,0.5268817859306485
2.481969659288734,0.4662799487223885,-0.2593707811820791,0.10948304904980688,0.544680393203939
2.4844566028351154,0.46991374188862317,-0.26433518728912286,0.24002605863280735,0.590173300715767
2.486943546381497,0.4591824030470514,-0.2645097392840441,0.3609987128171763,0.6411972801718953
2.4894304899278787,0.44845116238526705,-0.2503176288610822,0.4724010632655826,0.6978037868468361
2.49191743347426,0.4425084433658355,-0.2361240643701712,0.5550795479433592,0.7481187076726177
2.4944043770206417,0.42698905608549764,-0.23629425421514405,0.6042458143613523,0.7767030531452089
2.496891320567023,0.41625823047814503,-0.23167458361135917,0.6198999129356704,0.781805557149567
2.4993782641134046,0.41031598643184763,-0.21268824446828694,0.6068302969883046,0.7627833948110407
2.501865207659786,0.40437394042932573,-0.203277251990865,0.5746138227476418,0.7314512766876244
2.5043521512061675,0.3984321121884249,-0.19865320151522514,0.523250539388096,0.6870242859354475
2.506839094752549,0.3972789246619691,-0.19881609175067183,0.44795209235095435,0.6308878342155442
2.5093260382989304,0.39612599407667715,-0.18461230817790852,0.3678721432668439,0.5712507516894416
2.511812981845312,0.39497333989395755,-0.17998386621288764,0.287799143393789,0.5207940843194411
2.5142999253916933,0.3938209814894573,-0.18493076472222514,0.19336793029748556,0.4761150172695666
2.516786868938075,0.40224574479354935,-0.1802993893432987,0.09894376105502545,0.4517735902571084
2.5192738124844567,0.4106708423693235,-0.19003175564810215,0.014103489013276516,0.4527267579118528
2.521760756030838,0.41909629333432297,-0.19976265269770987,-0.0755180494916825,0.4703719765232862
2.5242476995772196,0.4179453100791801,-0.19991527292489986,-0.13161358200908602,0.48162904141577845
2.526734643123601,0.4072179115487231,-0.1952780187745411,-0.16375986969934075,0.4803927841116671
2.5292215866699825,0.4108561332027987,-0.20021609938307794,-0.17674527080992242,0.49002871282834354
2.5317085302163638,0.409706380531774,-0.21472951397675066,-0.16578133735453093,0.49137718123270147
2.5341954737627455,0.3941918655798572,-0.22924145519170747,-0.1356564283936148,0.47575365288377114
2.536682417309127,0.40261983350747266,-0.22459830907377043,-0.08158209675257133,0.46819095386703896
2.5391693608555084,0.4014714795833525,-0.2247420916016809,-0.013135105622525955,0.46028348618656684
2.54165630440189,0.3955352255515966,-0.22967280220250297,0.06968458804177935,0.462659326647864
2.5441432479482713,0.3800226864284496,-0.22502523039203748,0.13814660696019487,0.4627505608077637
2.546630191494653,0.36929909042405684,-0.22516458565741848,0.17788578341071748,0.4676796561343644
2.5491171350410347,0.36815285902050976,-0.2396676742147159,0.23199778911284774,0.49678979037588517
2.551604078587416,0.36221880033110043,-0.23022726912591196,0.28611745554087165,0.5158199813187343
2.5540910221337976,0.36107373898303996,-0.22078538666585823,0.330668017088648,0.5370863705901718
2.556577965680179,0.36471769287518274,-0.22091883319708527,0.3560727077499273,0.5555284867238789
2.5590649092265605,0.3539970665373048,-0.2162623985289489,0.3575431644394076,0.5476499452860889
2.561551852772942,0.3384886843331424,-0.21160448580023195,0.3302910236731371,0.5181150530060009
2.5640387963193234,0.35171138713997974,-0.21173349819768328,0.283893131530208,0.4991265212678896
2.566525739865705,0.3601463692626522,-0.21664943563549066,0.223137930372161,0.4758496834348202
2.5690126834120863,0.35900524483968865,-0.21198708811443856,0.1815442820859854,0.4547324682797121
2.571499626958468,0.36265324120261966,-0.20253485896388446,0.1255934016785787,0.4339486663137505
2.5739865705048492,0.3567251656727757,-0.20744636152123253,0.06007373032438146,0.41700802127507536
2.576473514051231,0.3699514553658878,-0.2123563859285884,0.00892732208492042,0.4266602993619139
2.5789604575976126,0.368813304145166,-0.23163014229662338,-0.042210995934269135,0.4375586181445768
2.581447401143994,0.3628875356680801,-0.23653721089965796,-0.07897597709839488,0.4403117312110677
2.5839343446903755,0.3665393768238068,-0.23665439862076632,-0.11094439176612525,0.450183381760474
2.5864212882367568,0.36061523117066197,-0.23198170574843413,-0.12853939740599074,0.44763962451923117
2.5889082317831384,0.35948032542041586,-0.22730753593728492,-0.1317609585174484,0.44525921713950506
2.59139517532952,0.34876946627417094,-0.23220869620786866,-0.11582063666917009,0.43471305372415514
2.5938821188759014,0.3620014935473064,-0.23710838034488146,-0.09508360709978803,0.4430647330801227
2.596369062422283,0.3704460038022359,-0.22764137885789015,-0.05039622219363871,0.4377106559278152
2.5988560059686643,0.3645262067936701,-0.22296130554361415,-0.005700464604972311,0.42734481921020984
2.601342949515046,0.35381892546856786,-0.2278565642825945,0.03900369922726554,0.42264374413897465
2.603829893061427,0.3479009826848405,-0.22317354239835163,0.0789278991583906,0.4207982141659629
2.606316836607809,0.35156079789099537,-0.21848904718061135,0.1140721679794332,0.42935407050495367
2.6088037801541906,0.3600099838057833,-0.2090146760022753,0.13485973145704833,0.4375859577189877
2.611290723700572,0.3588833464181588,-0.20432723624108373,0.13650221829527354,0.4349479640206933
2.6137776672469535,0.3529693049091196,-0.19484992203721552,0.15730688669891357,0.4327808671011703
2.6162646107933347,0.3518446816907357,-0.19494794417588057,0.16375494468686647,0.4342983569872859
2.6187515543397164,0.3602978957654934,-0.19025609356367745,0.16542322978050805,0.4397462902426443
2.621238497886098,0.34959854280439195,-0.18077437111118844,0.15273496584048907,0.42216878635433874
2.6237254414324793,0.34847705823285535,-0.18086798773276547,0.14005539295044045,0.416851295062912
2.626212384978861,0.34256824750414616,-0.18096013778381925,0.11780773421471835,0.4049422649040311
2.6286993285252422,0.34623733590403283,-0.17626241898248107,0.06683840572024558,0.394228494148637
2.631186272071624,0.34511912870702033,-0.17635163905001727,0.025454663021751145,0.388400635252662
2.633673215618005,0.3440020443794599,-0.1812277991090503,-0.0015550619432378454,0.3888230187692152
2.636160159164387,0.3333092913373481,-0.19567930364428188,-0.018979144251950686,0.3869698715443524
2.6386471027107685,0.3369829011494405,-0.21012934722102994,-0.04118276599545467,0.39925911191313607
2.6411340462571498,0.3454460820528681,-0.22457793108658075,-0.07295430299648586,0.4184382547790163
2.6436209898035314,0.33475683223438035,-0.2294482498887267,-0.08556330820697333,0.4147646511166521
2.6461079333499127,0.3288571829944057,-0.22952870827711225,-0.08858656151178046,0.4107043384368568
2.6485948768962944,0.33732395558298645,-0.2439729209030248,-0.08202403652466295,0.4243090615481897
2.651081820442676,0.3314267445982174,-0.2536272758957434,-0.08502932050920542,0.4259113375569201
2.6535687639890573,0.32074237111125126,-0.2632801780263905,-0.08323717785441787,0.42322635615571425
2.656055707535439,0.3148476561038027,-0.26814322546553315,-0.07185917995662194,0.41975418718716356
2.65854265108182,0.32331942046815765,-0.2538512097829697,-0.05089530189817815,0.41420552400402544
2.661029594628202,0.32700406508530844,-0.2587113591115848,-0.02992232576684195,0.41804135141750876
2.663516538174583,0.32590160402809243,-0.2587816584596325,-0.013728630693853106,0.4163751644417924
2.666003481720965,0.3295888579205821,-0.2444853028355296,0.00726261378764903,0.41043224060373573
2.6684904252673465,0.328489034016228,-0.2445527138492043,0.009109414540493077,0.40962672856296367
2.6709773688137277,0.33217895276037857,-0.25898389322750726,-0.04170702857398467,0.423267043178098
2.6734643123601094,0.33108182122780816,-0.25426001949370125,-0.04941862640592731,0.4203635694209339
2.6759512559064906,0.3395628630055444,-0.24474630441253797,-0.05233258313308298,0.42183218311728876
2.6784381994528723,0.3384684783491555,-0.2591731697478732,-0.04566047340832391,0.42873829031826033
2.680925142999254,0.3277986807062132,-0.2688101974577828,-0.04855588884297113,0.4266949398239415
2.6834120865456352,0.3267070967163247,-0.26408058281933133,-0.04186519484176365,0.4221715004665124
2.685899030092017,0.32561693300804306,-0.2641379410689897,-0.04953038704712398,0.4221948581102894
2.688385973638398,0.32452820276140426,-0.25940546755868477,-0.06676304153348234,0.420793363424007
2.69087291718478,0.33780612902827745,-0.25467156763839593,-0.06483271812654756,0.42798816515429916
2.6933598607311615,0.3319319015683445,-0.2595130500153249,-0.05810460688666552,0.42532570548755644
2.6958468042775428,0.33084754989601883,-0.2595647068318079,-0.06094389822498769,0.4249095162922792
2.6983337478239244,0.3393414901554913,-0.25961494354791936,-0.0589853629805539,0.4313140838186095
2.7008206913703057,0.33347171848015345,-0.24529855237876275,-0.04744057898175136,0.41668378341297024
2.7033076349166874,0.3276034574770237,-0.24055755213801522,-0.05025154432651924,0.4095328789593506
2.7057945784630686,0.3313135263439837,-0.2358151384330207,-0.06741824085786696,0.41221675299900135
2.7082815220094503,0.32544832426827996,-0.2262829102270949,-0.07499863416281727,0.403417107168453
2.710768465555832,0.32437307359063505,-0.21674927315961856,-0.0777811100947936,0.3978040213138084
2.713255409102213,0.3280877866021825,-0.2120026329052105,-0.09491926481160817,0.40199052091888543
2.715742352648595,0.32222726554453673,-0.21683139517351302,-0.0881058549697169,0.39825733674741803
2.718229296194976,0.3163683291723479,-0.21687035242774666,-0.0717060740903328,0.3902094700630501
2.720716239741358,0.31529939283149766,-0.20254270048605605,-0.0696619226755466,0.3811693011129689
2.7232031832877395,0.30944366181854244,-0.19779045844317933,-0.08676178828535974,0.3773646157197374
2.7256901268341207,0.3083779546229717,-0.19303682218587292,-0.09427523557567064,0.3758297455762597
2.7281770703805024,0.31689068632571715,-0.19785860091613428,-0.1017790561018721,0.38720370517011093
2.7306640139268836,0.3206166586382897,-0.1931021839478766,-0.11406163843494177,0.3912717119908933
2.7331509574732653,0.3147674798247355,-0.18834438055046432,-0.11675775819941947,0.3849474589342129
2.7356379010196465,0.2993431613813946,-0.18837359670632736,-0.1146558046347863,0.3718022239556079
2.7381248445660282,0.2982857313182423,-0.19318983511075283,-0.12212097395374855,0.3757794861053363
2.74061178811241,0.3020183943152136,-0.20758150181229462,-0.12957644609894814,0.3887097191774617
2.743098731658791,0.30096435496448537,-0.20760658297040635,-0.13702220798402642,0.3904550188339942
2.745585675205173,0.2999120277314936,-0.21241869465989405,-0.14445824685189024,0.3948887328128661
2.748072618751554,0.29886142367377844,-0.2220178397066621,-0.14709614695326856,0.40030906579395426
2.7505595622979357,0.2930241504410763,-0.23161561764844496,-0.14493589618622593,0.40064368344414175
2.7530465058443174,0.28240021891603395,-0.22684682141429802,-0.1523426927356546,0.392960125279327
2.7555334493906987,0.2813548498549393,-0.22207666388687963,-0.16452812182992993,0.3943958659176156
2.7580203929370803,0.27552284400499727,-0.22209355133975262,-0.16712696238044167,0.39136914118236116
2.7605073364834616,0.26969261530755995,-0.23168589007780938,-0.16492760690229602,0.3919356757570004
2.7629942800298433,0.27822938425760246,-0.2317000698355054,-0.16750685155224687,0.3989424243460316
2.7654812235762245,0.2771911447007097,-0.23650130362040533,-0.16528787952599622,0.40010983546126583
2.767968167122606,0.27136631031754177,-0.23651278786922836,-0.16784748761952883,0.3971784892226905
2.770455110668988,0.27512010134270937,-0.23652292901014738,-0.17997406962639495,0.4049997924051917
2.772942054215369,0.27887572132268856,-0.23653173018133344,-0.1681487930943728,0.40248347039961674
2.775428997761751,0.28263318035812246,-0.23175079123075504,-0.1515252624102299,0.3956638080794313
2.777915941308132,0.27202727850237274,-0.23175692199722775,-0.15883388891574945,0.3910732864964535
2.7804028848545137,0.2757884456053874,-0.2317617223883337,-0.14697903446125515,0.38907017267455185
2.7828898284008954,0.2891282881888181,-0.23655359898178352,-0.13032590105289366,0.39564834475513644
2.7853767719472766,0.2833163960867696,-0.22697894178303368,-0.12802809432799656,0.3849400125237691
2.7878637154936583,0.272717988930289,-0.2174029640688202,-0.13050880031171808,0.37238648905524735
2.7903506590400395,0.26690988294437434,-0.22697928246509713,-0.1377680119783502,0.37648440260682353
2.792837602586421,0.2754688942684088,-0.22218907710308322,-0.13544051264858226,0.37893961281435123
2.7953245461328025,0.27924141903441424,-0.20782075470499883,-0.12352629591017283,0.36935617224001577
2.797811489679184,0.2686506599296823,-0.19823952866199113,-0.12596737225740284,0.35684711947585807
2.800298433225566,0.26763864279846894,-0.20781061239330567,-0.12839852592580847,0.3623560061627345
2.802785376771947,0.27620537679837764,-0.21738039610390558,-0.14039655805504836,0.37849021162551777
2.8052723203183287,0.2847740643614326,-0.2077952700264536,-0.1475962534845685,0.38217770215042257
2.80775926386471,0.27897950451453,-0.20778565762424028,-0.14999760731489786,0.37881885599017506
2.8102462074110917,0.2731869161217655,-0.21256315914567114,-0.16675422822676467,0.3842149924165016
2.8127331509574733,0.27218471132207167,-0.2029741649053256,-0.17392409531583297,0.3814873780715749
2.8152200945038546,0.2711844955293703,-0.2077490984478092,-0.17629560789613485,0.38442276192346403
2.8177070380502363,0.27976308403427097,-0.21252275346163518,-0.18823397221763294,0.3985791417323668
2.8201939815966175,0.2787668721214097,-0.20771832698213766,-0.20016237822282434,0.4011519039122582
2.822680925142999,0.27777267491334634,-0.21727783931314848,-0.2025040161470617,0.40666349103502686
2.825167868689381,0.2719920974879029,-0.2268360842221333,-0.20483568979859434,0.40913563767577815
2.827654812235762,0.2710019548001914,-0.23639306546340366,-0.21673420327606863,0.4198779057945563
2.8301417557821438,0.27959065840151565,-0.25073719013731743,-0.23341115100638632,0.44217738544330415
2.832628699328525,0.2786046031582856,-0.2507148487682058,-0.24528972438408303,0.44793471531269996
2.8351156428749067,0.2824090070959082,-0.25547965846821796,-0.2427931150904019,0.45163392245848316
2.837602586421288,0.27185026491458786,-0.2650316230934009,-0.24028653169364134,0.44931274752338535
2.8400895299676696,0.26608199779416664,-0.26979393988411626,-0.2377699730853866,0.4473510474441236
2.8425764735140513,0.2698926168708521,-0.26497820942578754,-0.23524343844021978,0.44541548181565327
2.8450634170604325,0.268916919917069,-0.2697380489299537,-0.23270692721447617,0.4463490101163269
2.847550360606814,0.26794331790412584,-0.2792850590309528,-0.22058363250436486,0.44547828761480046
2.8500373041531954,0.2813370283617572,-0.28404243706697185,-0.2180271676072163,0.4553750930795338
2.852524247699577,0.27557923553454333,-0.2935869936814237,-0.23461433945773713,0.4660269586578549
2.855011191245959,0.2602467534680173,-0.29355352293993286,-0.2320379220642348,0.45578903101871215
2.85749813479234,0.2544932027666549,-0.2935188355332752,-0.23902833619487396,0.45613007198750805
2.8599850783387217,0.2583185906721652,-0.2982713388553031,-0.25079717964984916,0.4675398498413878
2.862472021885103,0.26214611770430085,-0.29344582704181654,-0.2434024372210608,0.46268324681237954
2.8649589654314846,0.2563989843016561,-0.28383070753286743,-0.23599772385490603,0.44943880045477325
2.867445908977866,0.25544240742340896,-0.27421438779132234,-0.2381598481275926,0.44403205654794176
2.8699328525242476,0.2544879906666897,-0.26938527530266576,-0.24510040892355178,0.44430482148852996
2.8724197960706292,0.24874733754801248,-0.2645549709341837,-0.25203100539509826,0.4420228481240259
2.8749067396170105,0.24300885814408824,-0.2645118822160284,-0.2541632369611655,0.44002135401879905
2.877393683163392,0.24206096245137687,-0.2548908034191433,-0.25628550994664856,0.43502309573074044
2.8798806267097734,0.24111525374565823,-0.2500569487582016,-0.25839782762020036,0.4329370399145051
2.882367570256155,0.24496014186346537,-0.2404335158679789,-0.25571179019295265,0.42802133860134983
2.8848545138025368,0.24880722992102589,-0.23080891236565737,-0.2482274014578465,0.420469540541175
2.887341457348918,0.24786812095507793,-0.22597154588970536,-0.2503098754289912,0.41851735767451925
2.8898284008952997,0.23735441792306433,-0.22113301745905378,-0.2523824097778622,0.41101558593735055
2.892315344441681,0.24120814362519327,-0.22108173475415827,-0.2544450090742121,0.4144885579069653
2.8948022879880626,0.2498524975405888,-0.221029298835568,-0.24692087150353714,0.4150302859492052
2.897289231534444,0.23934546910872112,-0.21139890746403678,-0.2298100021470244,0.39343155535197927
2.8997761750808255,0.2384174842139879,-0.20176737170190462,-0.21747761630057738,0.3805909650191434
2.902263118627207,0.23270333877966687,-0.206499905951965,-0.20034691291105133,0.370043160388573
2.9047500621735884,0.2222030386118583,-0.20165449807447589,-0.2023599144186523,0.36192300552125184
2.90723700571997,0.22607020272000955,-0.19201955587133313,-0.20436301363068843,0.3601992333905046
2.9097239492663514,0.2347280301139878,-0.1823834871640151,-0.2207214268452411,0.3702417220950372
2.912210892812733,0.2338113164058575,-0.17753469979338554,-0.256223563967076,0.3896624385826248
2.9146978363591147,0.23289687373194623,-0.1678963916585854,-0.2773506085844417,0.39919107230529016
2.917184779905496,0.23677311083119001,-0.15825697063871091,-0.2936793744131023,0.40908965976188144
2.9196717234518776,0.2358632264047178,-0.15340484463167803,-0.30999827209191544,0.4186447618524394
2.922158666998259,0.2349556290379311,-0.15812842155405393,-0.3263073091815034,0.43207083371255195
2.9246456105446406,0.2340503239194689,-0.1628508993799187,-0.32824128352231874,0.43478996051431085
2.927132554091022,0.23314731616173368,-0.16278387942194206,-0.3253770097958526,0.4321185727746114
2.9296194976374035,0.2226698041604811,-0.18186938293274846,-0.3225028996014512,0.4320491110794575
2.932106441183785,0.22177140615753488,-0.20095380130004914,-0.31004215481437036,0.43091893043583956
2.9345933847301664,0.22087532039725488,-0.2104603325698915,-0.3167252041079074,0.43976620341178435
2.937080328276548,0.2199815516892546,-0.22475419140741115,-0.31861003986614733,0.4476814572241288
2.9395672718229293,0.21909010476799595,-0.23904697921383633,-0.3109082679873456,0.44923032331021784
2.942054215369311,0.21341258097269622,-0.23897349076692365,-0.3031967045622963,0.44111393161426327
2.9445411589156927,0.21252579152880213,-0.24368734410359316,-0.2858985526308171,0.43161176552267777
2.947028102462074,0.21642974094664147,-0.2531885439962869,-0.278167435383585,0.43396243349519437
2.9495150460084556,0.22512443366228674,-0.2531118852731322,-0.2800033629576575,0.43948665550376187
2.952001989554837,0.21945626075652358,-0.25782258270053493,-0.2770411357554998,0.43747608555932144
2.9544889331012185,0.2233672431191306,-0.2529554311392648,-0.2788575710061476,0.4377681125309846
2.9569758766476,0.22249217500380913,-0.25287564538801943,-0.2902410828420141,0.44462202614989493
2.9594628201939814,0.21683106055184287,-0.24800642365979986,-0.292038069016316,0.44023758216597053
2.961949763740363,0.2255375171126328,-0.24792457746453733,-0.2986137507455062,0.4488919022109887
2.9644367072867444,0.2246695320798825,-0.24784170836672414,-0.3099681395048144,0.4560506096467866
2.966923650833126,0.2238039160168126,-0.24296941794616966,-0.3213128436675614,0.46082998425373295
2.9694105943795073,0.21336386613296576,-0.2380961144384468,-0.30870585854287214,0.44442457873140173
2.971897537925889,0.22686820944849262,-0.23322180277376203,-0.30566601949936967,0.44642279200775326
2.9743844814722706,0.23558652974752547,-0.23792329453771854,-0.3169817421982266,0.4610704197508084
2.976871425018652,0.22036521738309722,-0.242623788049249,-0.31871102259182393,0.45716938598422435
2.9793583685650336,0.2051462925195483,-0.23295807832138493,-0.3252190834068003,0.44957971462430096
2.981845312111415,0.1995065652890381,-0.23765659026418495,-0.3269291309786624,0.4507395935258975
2.9843322556577965,0.2130228457527087,-0.23277731227831255,-0.33341798513328413,0.45905507592710076
2.986819199204178,0.21217631401811232,-0.23268545934079166,-0.3446856592636891,0.4668720541229597
2.9893061427505594,0.2065437800050821,-0.23738103648137843,-0.3463669570084189,0.4679531583898469
2.991793086296941,0.20570205356315097,-0.2324988387823912,-0.34803869881269023,0.466368932012509
2.9942800298433223,0.204862734510866,-0.22761567794101856,-0.34970089868488685,0.46483153440449426
2.996766973389704,0.2088142292375893,-0.2370967689878971,-0.3417767641952185,0.4654348684191406
2.9992539169360852,0.21276813742249168,-0.23700010040410957,-0.3386315197165821,0.46487700958356315
3.001740860482467,0.20714765535511503,-0.22253727396477174,-0.34505358318105017,0.4598858170120876
3.0042278040288486,0.19674118921685768,-0.2176503113794488,-0.33710095279727526,0.44689574394355697
3.00671474757523,0.20070235508122958,-0.19839720116699988,-0.32913885353354644,0.43356114871079987
3.0092016911216115,0.20945434903128157,-0.18393156174132708,-0.33074410723362213,0.43254318651723933
3.0116886346679927,0.2038435604411044,-0.18861860820806875,-0.3275515193341647,0.42944053641194
3.0141755782143744,0.20302360517920182,-0.1837279258019211,-0.3243495087462236,0.4244727774585235
3.016662521760756,0.2069944857649908,-0.17404792301145777,-0.32592649457263256,0.4235179766032602
3.0191494653071373,0.20617939800967633,-0.17873221829769825,-0.34185929942700355,0.43740476749341706
3.021636408853519,0.21494355425868872,-0.17383880025018073,-0.3482059228698926,0.4445987232454156
3.0241233523999003,0.2141333435481848,-0.17373288403209353,-0.3545431878918439,0.4491515066141325
3.026610295946282,0.20374876812873777,-0.17841447485665762,-0.3512943043886132,0.4435684542979073
3.029097239492663,0.19815504014527707,-0.17830677130726036,-0.35761290236296617,0.4460333088071567
3.031584183039045,0.20214056503577904,-0.18777498857946462,-0.3591337887592658,0.4528767300243931
3.0340711265854265,0.2013401348908962,-0.20203072859802118,-0.35106857734496977,0.4523310858373019
3.036558070131808,0.19096534837608625,-0.21149718997762434,-0.347782495349918,0.44961259960175387
3.0390450136781895,0.19974662733342918,-0.21617437798366934,-0.35885236686343625,0.4641175476441248
3.0415319572245707,0.19416515037563664,-0.22085070121175798,-0.3699129995517545,0.47255768439788925
3.0440189007709524,0.1742209192925499,-0.2255261649469018,-0.36181079793792215,0.46056707795854696
3.046505844317334,0.17343275905140854,-0.23020077448364917,-0.36806460324423185,0.4674856903118957
3.0489927878637153,0.187012267992399,-0.23487453512590628,-0.3743092236643122,0.4798406303664286
3.051479731410097,0.1862290277898888,-0.22997064554614877,-0.37575627420556934,0.4782891658916503
3.0539666749564782,0.1662946366557596,-0.23464272434772315,-0.36761737004722583,0.46674794593038293
3.05645361850286,0.16551632262095406,-0.2393139702209317,-0.3642577398202391,0.46620867689889445
3.0589405620492416,0.16952887712946907,-0.2439843885053503,-0.3513121924028333,0.46009637962713174
3.061427505595623,0.16875549488236885,-0.2534423878693257,-0.3479343600832454,0.4623524412701164
3.0639144491420045,0.1679845804786695,-0.24853436038794197,-0.3541242620349454,0.46410358815013775
3.0664013926883857,0.1815813450952869,-0.2388371180662645,-0.35551670763564225,0.465195747251519
3.0688883362347674,2.32602005746386,0.05337672630145818,-1.415137253497189,2.72320249501766
3.0713752797811487,-0.05936829987898673,1.466077748389786,-1.2345523255345743,1.9175578228144807
3.0738622233275303,-2.234064438794509,2.7399158695688266,-1.044381596894274,3.68631466493743
3.076349166873912,-4.154972728432205,3.8461606645215984,-0.8494134908826236,5.725229559574183
3.0788361104202933,-5.778997538002991,4.784812127845777,-0.6640132376051007,7.532074961306445
3.081323053966675,-7.077408446739871,5.5175630275694925,-0.48818085736345296,8.987298405788183
3.083809997513056,-8.021475033936744,6.053990164917144,-0.31233956397468177,10.054472370055421
