Time (s),Acceleration x (m/s^2),Acceleration y (m/s^2),Acceleration z (m/s^2),Absolute acceleration (m/s^2)
0.0,-0.15078471847012986,0.5683052662904784,1.8006191600771508,1.8941848554601401
0.002486943546381497,0.2740751428943118,0.47767923472267126,-1.8769035139379682,1.9560320641212574
0.004973887092762994,0.8138553496681069,0.592953872833935,-5.506540991114518,5.597852133838176
0.007460830639144491,1.4302487279223746,0.8997640524841659,-8.858450043347077,9.018166329378834
0.009947774185525988,2.0657944904667698,1.3645910322589603,-11.71236424919582,11.971177547259284
0.012434717731907486,2.648666640168708,1.9203972475069169,-13.876747607165013,14.257190631815746
0.014921661278288981,3.126192793194444,2.5384523601425637,-15.241466972223547,15.764489754835564
0.01740860482467048,3.4744309856485867,3.1565072088399146,-15.76342684584112,16.447517574323424
0.019895548371051976,3.674227656971432,3.7362546488744592,-15.456992569344724,16.321095764845808
0.022382491917433474,3.6968524399769187,4.215445518918285,-14.384413517275114,15.438524901100447
0.02486943546381497,3.5614590006952693,4.550984270921132,-12.660611500704224,13.917130868809453
0.02735637901019647,3.291989408489072,4.74765939003051,-10.457969170552579,11.947660152581228
0.029843322556577963,2.9075973294115487,4.776740538144636,-7.97759959766452,9.742354322206342
0.032330266102959464,2.451378446127321,4.63822779707474,-5.4110390462427915,7.5366940327744825
0.03481720964934096,1.9712168446300604,4.360851668543315,-2.940246973845671,5.616740637665134
0.03730415319572246,1.500631400960123,3.968554250940172,-0.7088756114621475,4.301606917970154
0.03979109674210395,1.101871411086262,3.5092196592425733,1.1059039866862346,3.8408028914736434
0.04227804028848545,0.7893021377795204,3.0067899918103547,2.403535219515499,3.929473943291347
0.04476498383486695,0.5820772471355611,2.5091493635873006,3.150499132441489,4.069433527401332
0.04725192738124844,0.5089272118938812,2.0593934861775285,3.303699964257767,3.926135745456757
0.04973887092762994,0.5363332616320211,1.6910412645234267,2.8918680035838484,3.3926648045461056
0.05222581447401144,0.6738722558113357,1.4280347969039173,1.986829168946187,2.53788836336354
0.05471275802039294,0.9263326505727691,1.2799509716123953,0.6843513954998137,1.721831438257308
0.05719970156677443,1.236253658892001,1.2563666769159343,-0.8814901550078105,1.9707372299127912
0.059686645113155926,1.5653281070236593,1.362070397733231,-2.5957739340776715,3.3231807305436316
0.062173588659537427,1.913556047781475,1.582697005671933,-4.343578393175065,5.003328873602178
0.06466053220591893,2.223476694130928,1.875150952386284,-5.966886353843862,6.638054870462182
0.06714747575230041,2.461571275633464,2.2154903027785107,-7.369929880750525,8.07982653736507
0.06963441929868192,2.6422050550469622,2.589349928356479,-8.476094651798425,9.248251788886442
0.07212136284506342,2.7366476652387006,2.958422683989767,-9.213554748163972,10.056395791645063
0.07460830639144492,2.730533949028011,3.274824617868883,-9.539214670895358,10.44877545275138
0.0770952499378264,2.6525943791070654,3.533767408026984,-9.467439760831537,10.447783719960807
0.0795821934842079,2.493252201594467,3.711309119174089,-9.041325778677479,10.086411341750757
0.0820691370305894,2.2716610825185373,3.793084622617237,-8.289603275118488,9.394969797025416
0.0845560805769709,2.021339897855291,3.7647287896181485,-7.269733220700148,8.432557082059553
0.0870430241233524,1.766230716925784,3.6453953146337024,-6.10621423238796,7.327641516694358
0.0895299676697339,1.5302756090356535,3.4542378920720336,-4.880449297197293,6.171895024799857
0.0920169112161154,1.3086862235521515,3.191256603009572,-3.654687788792046,5.025288168007192
0.09450385476249688,1.1445582430280883,2.8851819483925083,-2.5438515172866616,4.013161968948573
0.09699079830887838,1.0378917201147682,2.5743212357537666,-1.6293434694773588,3.2185570041657035
0.09947774185525989,1.0030519174046932,2.2921933692504264,-0.9494710021988908,2.6761462544228443
0.10196468540164137,1.0304620808679732,2.0340100264198258,-0.5233878589231882,2.3394409029833034
0.10445162894802287,1.1153338597731293,1.8380785146231733,-0.38461299299871676,2.1841312687334495
0.10693857249440437,1.2480905000453897,1.6996105112782516,-0.5331465344445192,2.175005980116209
0.10942551604078588,1.4191552475859326,1.6329713070217822,-0.9115277733458047,2.347654103118234
0.11191245958716736,1.6093745416301883,1.6621029990671217,-1.4862380162964541,2.7498320377506915
0.11439940313354886,1.7852296114264647,1.7534868447182153,-2.2046049565133803,3.3349728476251634
0.11688634667993036,1.9419321061176777,1.902334521133538,-3.023533093755564,4.065922933861646
0.11937329022631185,2.079482078138732,2.099069302082241,-3.8520428944775382,4.854747378508907
0.12186023377269335,2.1691491599732697,2.3149608479815535,-4.627885244951555,5.6108442899745965
0.12434717731907485,2.2061450006760466,2.5356440291372913,-5.317541451264759,6.290692608324336
0.12683412086545634,2.200046459231249,2.7323885058203343,-5.882704416074243,6.849260005023494
0.12932106441183785,2.1460651846295615,2.9099827614680973,-6.265913428643308,7.234311753302669
0.13180800795821934,2.0346244225077426,3.0444848595188,-6.457591811323015,7.423548787619721
0.13429495150460083,1.9088198549913158,3.1215296699723365,-6.448162886346333,7.4139291423765945
0.13678189505098234,1.7734399376075796,3.1459056760292454,-6.251991992426864,7.220056482337532
0.13926883859736383,1.628484722526761,3.093670940885952,-5.91217488807643,6.868520531321631
0.14175578214374532,1.4883194718422008,2.9983443674987487,-5.438288508438205,6.385933424127373
0.14424272569012683,1.3720978509287,2.864714438816545,-4.8877938217293035,5.829216909004356
0.14672966923650832,1.2798199118399114,2.7071464443417397,-4.308574989394264,5.246941901440097
0.14921661278288983,1.2114857065885498,2.5256404635270324,-3.7102089461804173,4.648893179305221
0.15170355632927132,1.191037303746921,2.3393501890159927,-3.1501566599007624,4.100562906197517
0.1541904998756528,1.2184747552427617,2.1722177166805117,-2.6763022915875023,3.655927309696012
0.15667744342203432,1.269856096358211,2.0194547223769956,-2.307799582208032,3.319137055445049
0.1591643869684158,1.3356045722912786,1.9002148984682146,-2.063802272584107,3.1070783791544847
0.1616513305147973,1.4205086381548258,1.8480171471810565,-1.963464103389141,3.0476554025423233
0.1641382740611788,1.5149915390536597,1.838919530800258,-2.0163620085048404,3.1213042391770287
0.1666252176075603,1.599899713403829,1.8729221281121198,-2.179400485135714,3.2889668386183937
0.1691121611539418,1.6848100194941074,1.9356598078404212,-2.4430028535719686,3.5431097408967354
0.1715991047003233,1.750568895641229,2.031921051887024,-2.759285207382142,3.8479669275042023
0.1740860482467048,1.8019647967123138,2.1473407287677975,-3.1186708665354246,4.193358714418823
0.1765729917930863,1.8150557576004225,2.2723421102126133,-3.5020063441958627,4.552143945860239
0.1790599353394678,1.7946302330673023,2.3973484678434374,-3.875772943399282,4.89791723679529
0.18154687888584928,1.7502650811408136,2.507994669852514,-4.201663563691454,5.196868462903583
0.1840338224322308,1.6867487564733168,2.594703987641366,-4.474889927687734,5.440794980135478
0.18652076597861228,1.6184465203016025,2.6574764991396016,-4.666721741226786,5.608907406313141
0.18900770952499377,1.540570020524028,2.677158668881475,-4.78194753321166,5.6927635412770945
0.19149465307137528,1.4531193083010834,2.663327381207469,-4.815779025724343,5.691800777280715
0.19398159661775677,1.3800364513356609,2.6207711170205767,-4.753851134023126,5.601075116375192
0.19646854016413826,1.316533097348625,2.549489953784763,-4.600952386461861,5.422353850806206
0.19895548371051977,1.2626092973200225,2.4542723721640693,-4.37144811784672,5.16983498396926
0.20144242725690126,1.2374187154490417,2.3542720626617184,-4.094068872753912,4.882130882844653
0.20392937080328274,1.2457498059108456,2.235123892415468,-3.7927567922458287,4.575224090522807
0.20641631434966426,1.2540837962540423,2.125558358321107,-3.501030823829405,4.283449699956715
0.20890325789604575,1.2767859471653398,2.030363940546573,-3.2141026882504207,4.010363596554467
0.21139020144242726,1.3138563093045152,1.9591175224523323,-2.9798565425768544,3.8005137656134242
0.21387714498880875,1.3700833365847043,1.9070307773086315,-2.7982925104697625,3.652989968360248
0.21636408853519024,1.4263134662495665,1.8645269749346414,-2.6550455054229243,3.5440227962204545
0.21885103208157175,1.468181538794211,1.8603366115797804,-2.5740576672837197,3.498882995148935
0.22133797562795324,1.5100528145657957,1.8800945534769329,-2.5744827323678017,3.5274603289125297
0.22382491917433472,1.542350537239152,1.9238008766847265,-2.6180135969331104,3.596366247558981
0.22631186272071624,1.5602863537377076,1.9866672538048158,-2.709438786903908,3.7043756320032935
0.22879880626709773,1.5638603142325471,2.054328550660115,-2.8487584246651743,3.844652056895346
0.2312857498134792,1.5530724688211601,2.112419632933966,-3.0024538091382116,3.9861108458024197
0.23377269335986073,1.5327112708468191,2.170517382770261,-3.175313465582853,4.140406399545886
0.23625963690624222,1.4884115602960895,2.233410278850114,-3.367337515712144,4.3060947958932365
0.2387465804526237,1.4489038069619589,2.2771563797888756,-3.540218854447687,4.451731456099854
0.24123352399900522,1.3998228506772927,2.2873905506972028,-3.6843807964015554,4.557007943551307
0.2437204675453867,1.341168741157663,2.297631689742129,-3.780669849311332,4.622911364438807
0.24620741109176822,1.301671947961363,2.2791494517784683,-3.838662940600182,4.6501833571579585
0.2486943546381497,1.2669673106838153,2.2319439114333384,-3.843994980850951,4.622020900313307
0.2511812981845312,1.2322664754800936,2.170380353143817,-3.811031300327187,4.555545095373147
0.2536682417309127,1.2119347017046453,2.1040356578743014,-3.744560422408222,4.462900909483484
0.2561551852772942,1.205972038668202,2.042486706435418,-3.6397940635867627,4.34444718339818
0.2586421288236757,1.214378535597819,1.9713683628810843,-3.5110975533883515,4.205807232779318
0.26112907237005717,1.222789031675045,1.895469104389936,-3.3680478177674154,4.053611012967257
0.2636160159164387,1.2312035759569016,1.8435194245842736,-3.215433379104928,3.9055649949438465
0.2661029594628202,1.253987427375003,1.8059425903646245,-3.0628311628465923,3.7702583253421342
0.26858990300920166,1.2863522314924802,1.7635850618302649,-2.9341833041411967,3.6570980293229076
0.2710768465555832,1.3235096337843517,1.7403889288013024,-2.8342783245960206,3.5796319636924907
0.2735637901019647,1.3319408597147802,1.7507194742938899,-2.7535395355947934,3.524353147108447
0.27605073364834615,1.3403763778221327,1.7802115612376368,-2.696755458217279,3.498321317205212
0.27853767719472766,1.3536046399524893,1.7953464391148994,-2.683079823236932,3.5006330421231793
0.2810246207411092,1.3524720812587836,1.8200661970844516,-2.7029359412357845,3.528127604662011
0.28351156428749064,1.336978750082754,1.8639477141754852,-2.741958719203698,3.574933688499696
0.28599850783387215,1.3214899046337747,1.9078374493253438,-2.790571467176708,3.629527299045701
0.28848545138025367,1.3012171897458167,1.9469470712610426,-2.853562704875376,3.691421025003464
0.2909723949266352,1.2761606534781662,1.9716998452167092,-2.930932548421257,3.755868993523142
0.29345933847301664,1.2558971504348921,1.9820958428932276,-3.0131043070143306,3.8190023759921132
0.29594628201939815,1.2212731152015075,1.9925003457772656,-3.09528969289169,3.878451228616656
0.29843322556577967,1.1914422088285095,1.9933366185774952,-3.1727004180050162,3.9317875520365195
0.30092016911216113,1.1711928823071087,1.9750279258248777,-3.230971387377698,3.9637865963505554
0.30340711265854264,1.1605251832090304,1.9519395484729645,-3.2605259090635617,3.9734010501621855
0.30589405620492416,1.1546507556856906,1.9144947506935066,-3.256575694144674,3.950163764925752
0.3083809997513056,1.148781243787691,1.8722704097580212,-3.228697663369765,3.905071501878454
0.31086794329768713,1.1524935014249422,1.8300549994349735,-3.176891930550477,3.8431738069179753
0.31335488684406865,1.160999172443979,1.7830601866682372,-3.1155238191607673,3.772759119723265
0.3158418303904501,1.1647214972677786,1.736074444857103,-3.0302282324519236,3.6814146445398275
0.3183287739368316,1.1732373294965228,1.6890978438941147,-2.949735703255092,3.5958973951754643
0.32081571748321314,1.186546715984925,1.6564956634451105,-2.8788347474947695,3.5269761121405883
0.3233026610295946,1.1950728968414368,1.6478447796667521,-2.807948670827326,3.4681648439255155
0.3257896045759761,1.198815918708711,1.6535684552443881,-2.727500778599792,3.4074490077462922
0.3282765481223576,1.207352634762815,1.6497247427111688,-2.666221602410287,3.359766322907208
0.3307634916687391,1.2206830914312015,1.665044130931228,-2.648053270223093,3.3577708810450093
0.3332504352151206,1.2148653184309957,1.6899498820125678,-2.6346886665228126,3.3575903137733305
0.3357373787615021,1.2042645719322862,1.7148652578683783,-2.626127902038867,3.359696975877779
0.3382243223078836,1.1936693013542319,1.735001923536183,-2.61758268386062,3.3595858647334382
0.3407112658542651,1.1735027460439862,1.759936753817306,-2.6138415253962624,3.362536779322366
0.3431982094006466,1.1533417585181263,1.7848814133538373,-2.619692939730168,3.373246206571611
0.34568515294702806,1.133186384540026,1.795470759947801,-2.625560229659907,3.376594904856994
0.3481720964934096,1.1178250730800412,1.7964932644818916,-2.655385520897376,3.395289856245948
0.3506590400397911,1.1072578696741373,1.787948994316777,-2.6995921155824316,3.4220723526466403
0.3531459835861726,1.0919080131028385,1.7842032265712238,-2.7294497022418174,3.4388282800764127
0.35563292713255407,1.071775548671743,1.7661024149178552,-2.7497467923106242,3.439320861526569
0.3581198706789356,1.0660141348514114,1.7432234327461038,-2.765271896888132,3.4383052127316156
0.3606068142253171,1.0554702034328938,1.7203547499189162,-2.780813526735873,3.436067765103077
0.36309375777169856,1.0449322026910695,1.687919626131039,-2.767641369033459,3.405993940112718
0.36558070131808007,1.043976984102676,1.6650717407907378,-2.749697547142313,3.3798207712949027
0.3680676448644616,1.047816189064346,1.6374459498546523,-2.73177057079905,3.3528671993153116
0.37055458841084304,1.0564498621731453,1.609830722350169,-2.7042837394338815,3.319757793766681
0.37304153195722456,1.060301241264935,1.5774377204524686,-2.6576603521296587,3.267370048129869
0.3755284755036061,1.0593703706949158,1.5594206227256615,-2.6254193375028034,3.232164129282737
0.37801541904998753,1.0632341013369342,1.546202687598296,-2.597983993935813,3.204798018304528
0.38050236259636905,1.0671040739812265,1.5329955766045038,-2.5562008128175755,3.1659041580637814
0.38298930614275056,1.051826719333735,1.5293761610235845,-2.524011915064971,3.133044371980957
0.385476249689132,1.0413440978591721,1.5353445052774166,-2.487052194675714,3.1027582727426535
0.38796319323551354,1.0404446566162804,1.536535463609125,-2.4405333519296626,3.065888020833591
0.39045013678189505,1.0299748259368473,1.5425259066445605,-2.408397506668253,3.0398376379108014
0.3929370803282765,1.014723052628161,1.5533158981491129,-2.3906447617692574,3.0261585434263996
0.395424023874658,1.0042661866910956,1.568905501667335,-2.3681216064653245,3.012974442291374
0.39791096742103954,1.0033926746788264,1.5701411672406966,-2.3695585628265636,3.014456489539664
0.400397910967421,0.9881605430946128,1.5618113612894187,-2.3901673293134653,3.0213599337548662
0.4028848545138025,0.987300254836458,1.5630697599708678,-2.401217587415795,3.030477647145818
0.40537179806018403,0.9768698361495909,1.5691280226160886,-2.402709438174268,3.0314105747044087
0.4078587416065655,0.9664461363914489,1.5560441950491546,-2.394642982256963,3.0148974582835573
0.410345685152947,0.9608176014685412,1.5333951461096524,-2.386595126598234,2.9950471508319936
0.4128326286993285,0.9504074671951919,1.5155461477298615,-2.4025079877173123,2.995362934711701
0.41531957224571003,0.954369389175725,1.5024972616525631,-2.413651245232259,2.9990050493255813
0.4178065157920915,0.9631266029600889,1.4750949361097998,-2.4056597883426534,2.9817305279174766
0.420293459338473,0.9623139406448056,1.447704442345386,-2.3976873291091856,2.9615537815337136
0.4227804028848545,0.9519314441536029,1.4251142447311829,-2.394522369248879,2.9446326531058773
0.425267346431236,0.9463443652368071,1.4073244040865036,-2.3913766034537502,2.931690927689835
0.4277542899776175,0.9455527455488628,1.3895465776772065,-2.369096516068895,2.9047423274017277
0.430241233523999,0.9447682232883579,1.3717808258554318,-2.3324706076533452,2.8661452798989124
0.43272817707038047,0.943990839838052,1.3588156120587156,-2.305440991658182,2.8377027221487654
0.435215120616762,0.9336438298033531,1.355439399488799,-2.2832193612218106,2.8146043093256576
0.4377020641631435,0.9233040409336029,1.3712290544310741,-2.2562290057699634,2.7970214153985262
0.44018900770952496,0.9225483208402477,1.372665813050591,-2.224470020975051,2.7719259933879448
0.4426759512559065,0.9217999037150124,1.3645381378365227,-2.2070961153952595,2.7537161536171837
0.445162894802288,0.9162704269308908,1.3659997009997495,-2.1945305772698767,2.7425300605411747
0.44764983834866945,0.9011715277212655,1.3722621579095236,-2.18677350108028,2.734445446051701
0.45013678189505096,0.8860800531402856,1.3689603570535747,-2.159882964306231,2.706341578451917
0.4526237254414325,0.8853612534216806,1.3608827599591597,-2.142589480549372,2.688225458843677
0.45511066898781394,0.8750731520954,1.3623946345516227,-2.115739529805177,2.6642495978705636
0.45759761253419545,0.8600041924714368,1.3543424252707723,-2.0889100115864903,2.63389362967889
0.46008455608057697,0.8497312210377204,1.3558798028747685,-2.095619841601744,2.636678916433492
0.4625714996269584,0.8490426808189542,1.3574300179549543,-2.1071386919878883,2.6464170485337064
0.46505844317333994,0.8387849980948334,1.339839514216322,-2.1091014444339784,2.6357236387371636
0.46754538671972146,0.823746615602639,1.3174735583595454,-2.10629659350003,2.6173995498362865
0.4700323302661029,0.8182927825757731,1.2999090135177118,-2.0891474233734453,2.593049069730092
0.47251927381248443,0.8224235381416796,1.2871459359352466,-2.0768076377504165,2.5780331845619378
0.47500621735886595,0.8217737113213257,1.260030768326536,-2.0549121166704882,2.5466945982955185
0.4774931609052474,0.8163433409505689,1.2425055830392346,-2.047402966319879,2.5302362499761646
0.4799801044516289,0.8109208690390237,1.2393588388894727,-2.0494918725457403,2.528639935421315
0.48246704799801043,0.8055063341289357,1.2122833645595585,-2.0228716975345193,2.4920837295315477
0.48495399154439195,0.7905229679743732,1.1947980382847538,-2.0010613528574748,2.4610395066077047
0.4874409350907734,0.7899128254235452,1.2012681247666195,-1.9984261363834523,2.4618518237151097
0.4899278786371549,0.7940991379339426,1.198174855250437,-2.000600925636933,2.4634570197755004
0.49241482218353644,0.7887167334937265,1.180729880649502,-1.9932205977186364,2.4472689856085372
0.4949017657299179,0.7785540532228152,1.1872404815053699,-1.9954388525463944,2.4489717411531005
0.4973887092762994,0.7683995380911604,1.1889762916199873,-1.9976789696898596,2.448432914766967
0.4998756528226809,0.7678300322385916,1.176360557820634,-1.9903642282911171,2.4361725886448364
0.5023625963690624,0.7624803630524768,1.1685469465998815,-1.9591295037431316,2.405216556338608
0.5048495399154439,0.7571389710500764,1.1607471075914924,-1.9327053008916373,2.378222666059555
0.5073364834618254,0.7470174899562136,1.1625379001322647,-1.9063033009089398,2.3544684696552505
0.5098234270082069,0.7560579732653236,1.1451889567379492,-1.8751351845348943,2.3236207448405457
0.5123103705545884,0.7603184411160087,1.1326423461885478,-1.85356624535698,2.301449682745062
0.5147973141009698,0.7645873334155986,1.1296865237229923,-1.8368081632466193,2.2879356767335777
0.5172842576473514,0.7449226699959639,1.1267447343588373,-1.829649424279891,2.2742208548087453
0.5197712011937329,0.7300549070583968,1.1190286261728901,-1.8320901107754555,2.2675447972456135
0.5222581447401143,0.7247724840481853,1.11611505694123,-1.8297650946527835,2.2625313866494783
0.5247450882864959,0.7194986302948165,1.094062060935482,-1.8226744573528944,2.244279895570332
0.5272320318328774,0.7238101882537467,1.0816001086878475,-1.8203950865169638,2.2377663539227215
0.5297189753792588,0.7233419836231765,1.0739408472248948,-1.8133502560633339,2.2281857462462584
0.5322059189256404,0.7133056485858309,1.0615075199888535,-1.7967516427879993,2.2054295792789924
0.5346928624720219,0.7080664284491818,1.058665386758922,-1.7801761330041757,2.1888712919529776
0.5371798060184033,0.7028359550825483,1.0510492871272645,-1.7732006125802897,2.1778253823901133
0.5396667495647849,0.6880374568776397,1.029082463740646,-1.7662483536576818,2.1568587125826393
0.5421536931111663,0.6828245819903553,1.0310721921826949,-1.759319434571447,2.150479980870207
0.5446406366575478,0.6919857684575865,1.0234996979655544,-1.7572023365291116,2.1480586553878798
0.5471275802039294,0.6867906309155862,1.0159418362168458,-1.7311667170471186,2.12149885399469
0.5496145237503108,0.6768160104042815,1.0227638651166444,-1.7099430730357916,2.1042887512770183
0.5521014672966923,0.6668503444840899,1.029600622654776,-1.6935314810327338,2.091127853900516
0.5545884108430739,0.661682070555865,1.0268753498724954,-1.6819320171237262,2.078747569306274
0.5570753543894553,0.6613112225402238,1.0193764975026105,-1.665567950301158,2.061692890269726
0.5595622979358368,0.6561610275568766,1.0214693226486729,-1.6540161623849503,2.0517593271696057
0.5620492414822184,0.6462315192055246,1.023577065542305,-1.6520651314200876,2.048083099869961
0.5645361850285998,0.631522730924887,1.0256997727849102,-1.635772915074151,2.031411827585935
0.5670231285749813,0.6263999059532954,1.018260684065948,-1.6195047971207792,2.0129648409224554
0.5695100721213628,0.6308630774064814,1.0060482487640352,-1.603260850915344,1.9951357491042436
0.5719970156677443,0.6209702616366162,1.0034277226261734,-1.5966179559956437,1.9853614677885494
0.5744839592141259,0.6158751047163558,0.9960339412047994,-1.5899993781591508,1.9747110622032364
0.5769709027605073,0.6155776392744519,0.9790785464198473,-1.5786167860637406,1.956926566654079
0.5794578463068888,0.6009242844954339,0.9717151965192485,-1.567258654547162,1.939494807700132
0.5819447898532704,0.6006454926036666,0.959578726234757,-1.5511366513449723,1.9203101964977205
0.5844317333996518,0.6003760857771019,0.9522459866252788,-1.5446160570116003,1.9112986755070616
0.5869186769460333,0.5857508860297855,0.9449286185139614,-1.547696941677378,1.9056127670250564
0.5894056204924149,0.5855003450943657,0.9328382624487261,-1.5412257617274285,1.8943005903515608
0.5918925640387963,0.5804708813358588,0.9255517686628101,-1.5204141830431084,1.8722317721244686
0.5943795075851778,0.5754509295560435,0.9278575837931236,-1.504415887641871,1.858851965896856
0.5968664511315593,0.5704405210712957,0.9253905409189336,-1.4836541371530778,1.8392878078195842
0.5993533946779408,0.5654396870326173,0.9133622794833618,-1.4772826126610266,1.826558679847208
0.6018403382243223,0.5604484584253564,0.9013496486133337,-1.480512978180803,1.8216619725318224
0.6043272817707038,0.565043672709558,0.8941410938379653,-1.4598264773372467,1.8027356965716672
0.6068142253170853,0.5648601505775035,0.8965250604085242,-1.4583188064111354,1.8026419263911917
0.6093011688634667,0.5503211158753214,0.8941363800168367,-1.466413224690072,1.8035245887411149
0.6117881124098483,0.5453686155245989,0.8773982873965058,-1.4553793777100186,1.784764358280706
0.6142750559562298,0.5356374697174378,0.8750412435647752,-1.4300057337780796,1.7599775781364009
0.6167619995026112,0.5307045150802627,0.8727000793768882,-1.409445970690621,1.7406293847821341
0.6192489430489928,0.5305697814313859,0.8464328187679602,-1.4032769591310714,1.722538543453751
0.6217358865953743,0.5304448951010747,0.8345467285573587,-1.3923451493880616,1.7077660975405982
0.6242228301417557,0.5303298855719374,0.8322534454015265,-1.3814390078782655,1.697724747242951
0.6267097736881373,0.5206479755177491,0.8251877990358722,-1.3657701939036144,1.6784926096482864
0.6291967172345188,0.5109760007250964,0.8181382321963613,-1.345338769611672,1.655410234751087
0.6316836607809002,0.5061023934915879,0.8111047840176726,-1.3297216033153827,1.6377393399677196
0.6341706043272818,0.5012387793053188,0.8040874933532387,-1.314130352890965,1.6201035754654431
0.6366575478736632,0.5011735901259031,0.7875095921343558,-1.3033534823789292,1.6031458527447175
0.6391444914200447,0.49633004778269796,0.7757363286121126,-1.2973910520226273,1.5910166277349067
0.6416314349664263,0.49149658389646866,0.7735561441149508,-1.3010315249083622,1.5914273558303778
0.6441183785128077,0.4914616299182466,0.7666038664077994,-1.290332943722726,1.579295769426817
0.6466053220591892,0.4866484071681906,0.7596679362543342,-1.2844489805567836,1.5696277358742157
0.6490922656055708,0.47226854011664055,0.7527483908151864,-1.2785912904212307,1.557068849408973
0.6515792091519522,0.4674756696651752,0.7362684603274077,-1.2775483344881202,1.5468530939798921
0.6540661526983337,0.4674814199432995,0.7293817946667547,-1.2765317668091551,1.5427475594070479
0.6565530962447153,0.45792060826919856,0.7177232201834178,-1.2515996276746417,1.5137105179866426
0.6590400397910967,0.44358166507143343,0.7012927729049443,-1.217117183456832,1.473075179745468
0.6615269833374782,0.4292530206075157,0.6896672952157319,-1.1970265066876156,1.4466414868596904
0.6640139268838597,0.419723104963737,0.6780584192552801,-1.191327652815957,1.433594182859064
0.6665008704302412,0.41978034805500186,0.6664661801992589,-1.1856554668481163,1.4234365444337145
0.6689878139766227,0.419847969663728,0.6501022096187097,-1.1704331966285544,1.4031461322157504
0.6714747575230042,0.41034918940062537,0.6433317520814432,-1.1648145094411237,1.3924995662054964
0.6739617010693857,0.400860839985793,0.6317896319487528,-1.154434248844673,1.3757056323856571
0.6764486446157671,0.4057481572876302,0.6250526898986994,-1.14886927451645,1.36938783484441
0.6789355881621487,0.4106459570805041,0.6231209596837786,-1.1529080423299245,1.3733560305080454
0.6814225317085302,0.40597745828679577,0.6164176681307827,-1.1473969910732258,1.364297728996384
0.6839094752549116,0.4013194929377,0.6097312517422295,-1.156278188933232,1.3674095161895115
0.6863964188012932,0.39188368293090564,0.6126385500556115,-1.150821267089027,1.3613553550583792
0.6888833623476747,0.3920352632726536,0.6155627890417168,-1.135814679477269,1.350068213468537
0.6913703058940561,0.3874090488744868,0.6041387910654556,-1.125623686190357,1.3349524833988031
0.6938572494404377,0.3875818710765666,0.6070970080888802,-1.1058831269136924,1.3197590592263755
0.6963441929868192,0.3925537544053679,0.6100722619054595,-1.0765930508082562,1.2982061515386614
0.6988311365332006,0.392747916573567,0.5891225673821778,-1.0569071198307167,1.2721513217069371
0.7013180800795822,0.3833759784408697,0.5825551822641359,-1.051613785491023,1.2618396233527676
0.7038050236259636,0.378803173974845,0.5855817341275993,-1.0319826755709638,1.2455464883479492
0.7062919671723452,0.3694527203680119,0.5790486403018043,-1.0075906439286637,1.2194390292898092
0.7087789107187267,0.3649014479205557,0.5773211410720174,-0.9928029472562461,1.2050354595213797
0.7112658542651081,0.3651493801183595,0.5803992664763507,-0.9876196317984114,1.2023268754547316
0.7137527978114897,0.36061973363291633,0.5787062396260247,-0.9776755333523006,1.1919718757518045
0.7162397413578712,0.351312531602495,0.5674536866662623,-0.9773359071501773,1.183473555588441
0.7187266849042526,0.34680460363205734,0.575372056698122,-0.9866007979764877,1.1936111474417694
0.7212136284506342,0.3518843758322465,0.5737309586925337,-0.9815282335271345,1.1901207922425354
0.7237005719970157,0.3473982575380625,0.5673188245762077,-0.9573298542921869,1.1657686940290135
0.7261875155433971,0.3333462711916063,0.5705008926300563,-0.9379477201964281,1.1473172755740741
0.7286744590897787,0.32888205234201573,0.564123577606368,-0.9281702773961484,1.1348563252701849
0.7311614026361601,0.3244288164422786,0.562552117213178,-0.9088439549587743,1.1170122094159374
0.7336483461825416,0.3247749887319885,0.5562097322705193,-0.9039108113472114,1.1099111741255154
0.7361352897289232,0.32992059095604165,0.5450964499526187,-0.9085824846151027,1.1097296370905325
0.7386222332753046,0.3255004347239625,0.5483659104285348,-0.9037054023677591,1.1060466350901657
0.7411091768216861,0.3115145414317324,0.556441333659055,-0.8940680083246377,1.0981920919571744
0.7435961203680677,0.2927513356211239,0.5501691326779707,-0.8748819390771541,1.0741544704477952
0.7460830639144491,0.28836445162028745,0.5343377368342992,-0.8317820240887102,1.0298214454751764
0.7485700074608306,0.29356550698121786,0.5328891884720073,-0.8174407388197071,1.0189999781950942
0.7510569510072121,0.28441250580003596,0.5314583030863131,-0.8174929117588299,1.0156933898331568
0.7535438945535936,0.27527067856071286,0.5156798958862336,-0.8079965642668601,0.9972753628580033
0.7560308380999751,0.2709284489319218,0.5047076050368307,-0.8033169437798477,0.9866357500042584
0.7585177816463566,0.2665974337670193,0.4937530518155273,-0.8082424906060623,0.983932005521417
0.7610047251927381,0.2622776530649672,0.4828162605340536,-0.8084080312854542,0.977458261912077
0.7634916687391196,0.248392320009384,0.4766856585385253,-0.8038136018319424,0.9669768705537853
0.7659786122855011,0.23930666421072389,0.4609960596079614,-0.8088244477335227,0.9612398419547378
0.7684655558318826,0.24459751178439842,0.4405358905168728,-0.8090753940695699,0.9531541359577909
0.770952499378264,0.23074605878827525,0.43924719103536125,-0.7902012654328416,0.933059418456532
0.7734394429246456,0.22169434094924456,0.4283995641245304,-0.7713557091718108,0.909760516522318
0.7759263864710271,0.2222307805382251,0.4127814357022195,-0.7764807754689453,0.9070266964934764
0.7784133300174085,0.21320178304986304,0.40675803804155786,-0.7720576741768195,0.8983207411956924
0.7809002735637901,0.21376098036660873,0.4055409898492055,-0.7724516478651644,0.8982420606188373
0.7833872171101716,0.2191199875946706,0.3947651029061041,-0.7680859220163825,0.8909596169500119
0.785874160656553,0.21970201634528708,0.3840072053097985,-0.7589605282679308,0.8784939346317442
0.7883611042029346,0.20593027805506464,0.38284412487301056,-0.7450754977719001,0.862620658661536
0.790848047749316,0.20174680722819288,0.3816990758425356,-0.7312192645155573,0.8491628651351212
0.7933349912956975,0.21194002491303954,0.38057207882126276,-0.7173918586809602,0.8392882462183061
0.7958219348420791,0.2221447387021861,0.3650979441667723,-0.7083817132858279,0.8273145988592435
0.7983088783884605,0.21320735269340307,0.35921870851493054,-0.7041888575431692,0.8187657802312073
0.800795821934842,0.2090699006928174,0.35335758497537384,-0.6952365135412464,0.8074191080203148
0.8032827654812236,0.20494399641027117,0.34272618969417934,-0.6863131128454327,0.7940333567492562
0.805769709027605,0.21519486666249676,0.3369013484946666,-0.6774186832172475,0.7865795710716139
0.8082566525739865,0.20630370488879457,0.3310946769557117,-0.6541880419740309,0.7616737477562597
0.8107435961203681,0.18784733423702682,0.3253061936931836,-0.6405632325127062,0.7425846722645383
0.8132305396667495,0.18855619096211473,0.32432432036014136,-0.6365442811460245,0.7388696257032888
0.815717483213131,0.18927667794172653,0.3185722683657861,-0.6229776004232335,0.7248551866500428
0.8182044267595125,0.18043200452009422,0.30805005547722963,-0.595074812372598,0.6939485407830657
0.820691370305894,0.1715989931487082,0.3023345058197098,-0.571989555142391,0.6693462624463432
0.8231783138522755,-1.000804347371422,-0.7759651104747529,4.483678439850285,4.65908827415514
0.825665257398657,-0.6265417222803162,-0.7481252657436941,-2.0821375993464946,2.299465791355558
0.8281522009450385,-0.20438335554644382,-0.6532294638564757,-8.140412085805824,8.169136442440424
0.8306391444914201,0.21299833142243968,-0.49127768845622843,-13.193151097160028,13.204012947920736
0.8331260880378015,0.5968729336464801,-0.2862119400690313,-16.83812877696746,16.851135133375955
0.835613031584183,0.9137216426521113,-0.05239741286138555,-18.864655401120793,18.886843466608212
0.8380999751305646,1.149179263073544,0.20058910203964508,-19.20090494132235,19.23630940519081
0.840586918676946,1.264938582770109,0.43922879662480474,-17.894761451804413,17.944789744406318
0.8430738622233275,1.2657880193107671,0.6635216858467623,-15.14254948925078,15.209841727376016
0.845560805769709,1.1660927967319634,0.8447373644562091,-11.289034112797648,11.380494050145959
0.8480477493160905,0.9706413322565518,0.9637222335646594,-6.707710801026995,6.845749727353888
0.850534692862472,0.7177408661766265,1.030053113926027,-1.834324275207278,2.222815087924181
0.8530216364088535,0.4169682186896433,1.0389416160540388,2.876227130587006,3.0864129152935704
0.855508579955235,0.11620743638293429,0.9999645601444329,7.016929115959291,7.088774753666023
0.8579955235016165,-0.17496466089129759,0.8987567495127364,10.276535447395185,10.31724561735957
0.860482467047998,-0.4326060434922955,0.7544718104383206,12.42041434497887,12.450826004830725
0.8629694105943795,-0.6231978753109604,0.5910517722428614,13.314490498994852,13.342165305417547
0.8654563541407609,-0.7371633370119817,0.4180734540093325,12.973129103130757,13.000779742956965
0.8679432976871425,-0.7649256094320581,0.21638325462143992,11.472944594710597,11.500451755220084
0.870430241233524,-0.7064846802204424,0.029076815849892856,9.024626704499667,9.052284419977903
0.8729171847799054,-0.5857825537997073,-0.13426904405359874,5.8963260035778,5.926873519571251
0.875404128326287,-0.4171844281234367,-0.25928910379341463,2.399288693378775,2.449052861942735
0.8778910718726685,-0.21505550131674034,-0.3411949489906463,-1.1408738142319184,1.2100644288067517
0.8803780154190499,-0.0033377783166430586,-0.3991401821437246,-4.417703720201372,4.435699514760536
0.8828649589654315,0.1988151390889098,-0.4043943728233468,-7.163050451569543,7.177210742345021
0.885351902511813,0.37703805226125015,-0.376111124078395,-9.166224274751933,9.181682020499299
0.8878388460581944,0.5217541657111324,-0.3047136193105775,-10.293149908821336,10.310868675562643
0.890325789604576,0.6042330704973283,-0.19977865547719098,-10.486366525508478,10.505659999351382
0.8928127331509574,0.6244747774299142,-0.0852482397704426,-9.788969765804262,9.809238761792887
0.8952996766973389,0.6064213137501194,0.03887763694541713,-8.306304513397947,8.328502443400014
0.8977866202437205,0.5309190766461191,0.16781058021260176,-6.220330104638755,6.24520152336602
0.9002735637901019,0.4075448830578905,0.2823969853395427,-3.746524698653773,3.7791914752574094
0.9027605073364834,0.2650291630367593,0.38742526396377164,-1.1243084707080246,1.218362971254125
0.905247450882865,0.11773713650338741,0.46853021416950513,1.4164752110369996,1.496590999032151
0.9077343944292464,-0.029542783431736663,0.5113466337692847,3.660348188842926,3.6960109604120173
0.9102213379756279,-0.16244537718686258,0.5302397402262495,5.42535112867494,5.453620591139343
0.9127082815220094,-0.26660542534944764,0.5156327341311084,6.591773940123307,6.617283373637707
0.9151952250683909,-0.3372345153165417,0.4675256224447293,7.097367373081521,7.1207394949152025
0.9176821686147724,-0.3695442346540223,0.4050720251391957,6.922977807785404,6.944657515961864
0.9201691121611539,-0.35874617109639,0.3234835453153857,6.145219691335365,6.164175976896024
0.9226560557075354,-0.3144171225075008,0.22276018912528084,4.855072681250263,4.870339923353159
0.9251429992539169,-0.2365570802788204,0.11726717241304163,3.1914004687091158,3.202303513665211
0.9276299428002984,-0.1491080525714047,0.007004500793528212,1.3265855685890404,1.3349575068749233
0.9301168863466799,-0.047281627792268355,-0.08887420710505411,-0.5669895037774992,0.5758569912826391
0.9326038298930613,0.05934539552303575,-0.16079213956260796,-2.321730635924361,2.328048352999706
0.9350907734394429,0.15161941203087143,-0.20396088844634397,-3.813139344813881,3.821599161749966
0.9375777169858244,0.22475202618136284,-0.24232246581194428,-4.911928743635891,4.923035408492028
0.9400646605322058,0.26916643893732584,-0.2519348507780812,-5.522330768370453,5.534623641782499
0.9425516040785874,0.2944394643760368,-0.2280096360103343,-5.639557017632384,5.651839200421602
0.9450385476249689,0.28141749648633607,-0.18491202772072857,-5.282761106187905,5.293482140366216
0.9475254911713503,0.24925415565322726,-0.1274304257454073,-4.490250261635339,4.498968054969082
0.9500124347177319,0.19316104549402024,-0.06993003682537324,-3.372157760928962,3.378409294940471
0.9524993782641133,0.12271497942106613,0.0019543519564502176,-2.052982090536527,2.056647332366347
0.9549863218104948,0.04749277068106783,0.06906913001163417,-0.6428565265185675,0.6482982505568299
0.9574732653568764,-0.0372939776056751,0.12183749312958181,0.7337204455497197,0.7447018918435973
0.9599602089032578,-0.10770324256218011,0.18420146007954097,1.9666155504985952,1.9781574481867552
0.9624471524496394,-0.18288863135925743,0.22264220952517766,2.921753497000781,2.9359259701462173
0.9649340959960209,-0.23890812144962198,0.24194814643130869,3.5608270605779975,3.5770246506559995
0.9674210395424023,-0.25660809377082205,0.25169607882223755,3.8551058238349007,3.871826383355658
0.9699079830887839,-0.26950736594808566,0.24230920118067845,3.780647773137421,3.797979140780796
0.9723949266351654,-0.26802912588783734,0.22815272433108458,3.3566065251744277,3.3750112063202753
0.9748818701815468,-0.23301975501964228,0.1852846322760957,2.6643849402379605,2.6809654438194355
0.9773688137279284,-0.19320966813970675,0.13285853864237174,1.7805974757379985,1.7959701383256277
0.9798557572743098,-0.1485988602856257,0.08523965347798601,0.7722817828810804,0.7910540891577607
0.9823427008206913,-0.08482211669706485,0.02327436333107702,-0.2695824700885421,0.28356867889186416
0.9848296443670729,-0.030609852659267245,-0.043460525585556464,-1.2204967912490527,1.2216538780739938
0.9873165879134543,-0.00032727365902812666,-0.10538820731580456,-2.013423528088283,2.0161798245218
0.9898035314598358,0.029967641217124308,-0.14335506951909815,-2.5909018343016657,2.5950377743810744
0.9922904750062174,0.050698089478485975,-0.1765147266729521,-2.9194128797537147,2.925183636539948
0.9947774185525988,0.05707567179295964,-0.21444398686933175,-2.9845914471592137,2.9928297583175296
0.9972643620989803,0.049100391987316916,-0.2236240285719111,-2.791225932084079,2.8006000711609422
0.9997513056453619,0.02677225372714004,-0.20884325706080853,-2.3872003595477285,2.3964677790895084
1.0022382491917432,-0.09609999924847423,-0.055179994861795034,-0.04390112230651155,0.11919458976092732
1.0047251927381249,-0.09446140754081422,-0.05951525030027982,-0.03737237636042323,0.11773579340082553
1.0072121362845063,-0.09281045429429507,-0.059043313204014236,-0.030873291932849156,0.1142499602415322
1.0096990798308878,-0.09114713648529787,-0.048975783222767966,-0.01961545581435331,0.10531473751834511
1.0121860233772693,-0.09425985457031705,-0.053254680179335434,-0.008387261012398284,0.10858787819969004
1.0146729669236507,-0.10214860584505403,-0.062303200904897604,-0.011553906752439502,0.12020615325484926
1.0171599104700322,-0.0908713711628838,-0.06175613916031786,-0.019538575236841993,0.11159382932446071
1.0196468540164139,-0.08915856805956979,-0.07076711219806464,-0.008399238286592947,0.11413930800158803
1.0221337975627953,-0.0970101943076635,-0.08454772091787666,0.002710502813830118,0.12871146700089142
1.0246207411091768,-0.1096378445177768,-0.08873275982710727,0.023367467120012364,0.14296852148862757
1.0271076846555582,-0.11746471013829535,-0.09768744360263915,0.043994860823378446,0.15898535323846968
1.0295946282019397,-0.12527919273632881,-0.10183497056684798,0.04543908389065621,0.16771984887853647
1.0320815717483214,-0.13308129071616887,-0.10596374924950425,0.056430569906506634,0.1792298951449406
1.0345685152947028,-0.13129419599868103,-0.11965059174654202,0.06739252630673853,0.18998995397189342
1.0370554588410843,-0.13907152058350158,-0.12853029379758985,0.07353656425998345,0.20314662326572092
1.0395424023874658,-0.1420480533846783,-0.12781445802753888,0.07965110198683512,0.2070229050104532
1.0420293459338472,-0.1498006000741155,-0.13186830058656174,0.0905245581180516,0.2191441628349279
1.0445162894802287,-0.15275235319845748,-0.135903424586997,0.09658014173244922,0.22612108702905145
1.0470032330266104,-0.15090331210065883,-0.1351314333839828,0.09781786895727329,0.2249458809996327
1.0494901765729918,-0.1634070895602926,-0.13912914053577063,0.1038145629670133,0.2384035615271292
1.0519771201193733,-0.17589847526982,-0.13831974656091583,0.09541662741971635,0.24326314698095236
1.0544640636657547,-0.18358906571707317,-0.14228006550014882,0.08698928961985253,0.24802358476193556
1.0569510072121362,-0.1816904575443259,-0.14622170167355586,0.08332097063427746,0.2476582172075358
1.0594379507585177,-0.18456786082922588,-0.15014466296119622,0.07004647865041314,0.2480226284800048
1.0619248943048993,-0.18264446920166605,-0.1540489574821513,0.061531042178147644,0.2467309315485697
1.0644118378512808,-0.1950738963668993,-0.1531461902735729,0.06735148680641068,0.256989889711847
1.0668987813976623,-0.20749093294116233,-0.15701317657128477,0.08271942856131886,0.2730350320587278
1.0693857249440437,-0.2103187730138496,-0.1608615218872642,0.09326967722525126,0.2807305615632906
1.0718726684904252,-0.2083458207878116,-0.17426804193086332,0.09900225293716858,0.2890999439031408
1.0743596120368066,-0.20157207729778298,-0.18286753604566464,0.1047055795507319,0.2916077784878354
1.0768465555831883,-0.20915115701161774,-0.18666001377131858,0.1151680813127296,0.30306740862993287
1.0793334991295698,-0.21671785130651966,-0.2047990981631953,0.12081297290088244,0.3217220416827579
1.0818204426759512,-0.21469535503121684,-0.2133427826276777,0.1360054859850699,0.33182334244193223
1.0843073862223327,-0.21744887978687494,-0.21707948072617,0.13201522274166955,0.33441820421209584
1.0867943297687142,-0.22019002404395333,-0.21600920293224934,0.14236102889917746,0.3397208927769013
1.0892812733150956,-0.21334198310280683,-0.2101319599513083,0.16225452401032747,0.3405829897529154
1.0917682168614773,-0.211269969015224,-0.21381297268082156,0.15338850477113297,0.3374596575743941
1.0942551604078588,-0.2043971773809637,-0.21268704232685476,0.14928181806645036,0.33060406122773994
1.0967421039542402,-0.20230041723022774,-0.1971773736455762,0.1642996978827398,0.3268008050994535
1.0992290475006217,-0.20976809442175703,-0.19601439818475974,0.16013494206456613,0.32873621249124757
1.1017159910470031,-0.20764659836123883,-0.19483291783779855,0.16072959200078962,0.3269724413905923
1.1042029345933846,-0.2103011418447122,-0.19363294468676395,0.18044888281854554,0.3380563367838537
1.1066898781397663,-0.21773172785509698,-0.18283768440015669,0.18577401681942085,0.3396302540657999
1.1091768216861477,-0.21078474624153676,-0.1816007627947127,0.19107022988437272,0.33751574636422166
1.1116637652325292,-0.21819062020341862,-0.18513378931128344,0.21070275826925844,0.35535520121672726
1.1141507087789106,-0.21600733656346938,-0.19343677693600236,0.22551801536132032,0.36733544802147994
1.116637652325292,-0.21381170553302264,-0.20172133555896643,0.24509283484187705,0.38272371279221873
1.1191245958716736,-0.23075734411010607,-0.21477588193447117,0.2694272441224861,0.41469105512045656
1.1216115394180552,-0.22853702959471184,-0.21823521975843008,0.2602140444217085,0.40934964755485903
1.1240984829644367,-0.23588118591656618,-0.22167616955048208,0.2605488937715599,0.415530966429174
1.1265854265108182,-0.24800141390820998,-0.22988714873140692,0.27043182068802096,0.4329967345061221
1.1290723700571996,-0.25053250790620357,-0.23329136498179182,0.27549764409151756,0.43942047106708176
1.131559313603581,-0.24347447235232922,-0.2366772361631937,0.2805347965477516,0.44044943509917417
1.1340462571499625,-0.24119252179323128,-0.24483318035648916,0.285543307664744,0.4468244614214559
1.1365332006963442,-0.2532634675988005,-0.2481824059002138,0.2953116107320657,0.4614605487490282
1.1390201442427257,-0.2557452980399438,-0.25151333131171905,0.28589771947726206,0.4586961077874517
1.1415070877891071,-0.25342642145227373,-0.2548259720052024,0.2716668745488384,0.4505153913304583
1.1439940313354886,-0.26546045627480974,-0.2629087469316027,0.2813495269132762,0.4677048421313382
1.14648097488187,-0.2726937945261725,-0.2661848652966241,0.3005804980098894,0.4853503104665098
1.1489679184282517,-0.27512644164796585,-0.2646543431615713,0.2910525930306722,0.4800500933840472
1.1514548619746332,-0.2775468065434701,-0.26789400344262004,0.2910730706454103,0.48324213326027454
1.1539418055210147,-0.27516649161633433,-0.28548066926945337,0.2958535599924801,0.4947172319570051
1.1564287490673961,-0.2775623093717663,-0.30304914738297395,0.29581728723990786,0.506347201772967
1.1589156926137776,-0.2895226691349091,-0.30144584141580344,0.3053294955058128,0.517608995358193
1.161402636160159,-0.3014707704098468,-0.31897799505561464,0.31960181497417217,0.542933611849544
1.1638895797065407,-0.2942530061995352,-0.3317036090365719,0.31948066621368554,0.5465162504351458
1.1663765232529222,-0.2918113995288689,-0.33004589426359443,0.319331293379463,0.5441108895681592
1.1688634667993036,-0.30372276360054906,-0.3379468850928524,0.3239421343287674,0.5580269891919152
1.171350410345685,-0.306045088513459,-0.3458297928466525,0.32373641729924074,0.563974387458613
1.1738373538920666,-0.30835518774665843,-0.35369463569549486,0.3282909841496444,0.572675988150357
1.176324297438448,-0.3154414715965028,-0.35675302869638603,0.3232406604755802,0.5755524042793159
1.1788112409848297,-0.30815033389501234,-0.35500499043271105,0.3229506921314691,0.5703352707486464
1.1812981845312112,-0.3056353951735519,-0.35802734633378863,0.3322095186665841,0.5761594742763425
1.1837851280775926,-0.30310825949838505,-0.35624330875223853,0.33665196668294683,0.5762971964866557
1.186272071623974,-0.29578053107185187,-0.3640181068460353,0.3362780730760555,0.577129315755718
1.1887590151703555,-0.2932290241929212,-0.36698655005431213,0.3454530850334159,0.5830953802843951
1.191245958716737,-0.3002421499755545,-0.36993706129972415,0.35460023347054026,0.5939192735737584
1.1937329022631187,-0.30724310970769286,-0.36329285374549647,0.36850795959195715,0.601812381334937
1.1962198458095001,-0.304655104811808,-0.3614191573571568,0.3775994949678605,0.6049958006404956
1.1987067893558816,-0.30205495012576067,-0.37389279897988814,0.3866632814544744,0.6168804675539928
1.201193732902263,-0.3042310573008481,-0.3671949757752735,0.4052761645519496,0.6258094406566064
1.2036806764486445,-0.2920298215201642,-0.35569091830645183,0.4190729734809757,0.6224304002255774
1.206167619995026,-0.2846048646622731,-0.35853426065453675,0.4232653444234664,0.6234583360918688
1.2086545635414077,-0.29632140541799645,-0.36135981385533844,0.42743012384137025,0.6333117724671716
1.2111415070877891,-0.29844903272752665,-0.3641675991017155,0.42199054523296375,0.6322704212894338
1.2136284506341706,-0.2909877555847169,-0.36216923446154636,0.42131185901415336,0.6271715162829505
1.216115394180552,-0.2930911963960617,-0.3601531448378874,0.4301825092747773,0.6329847774057753
1.2186023377269335,-0.30475936441779994,-0.35333094868694737,0.42944892381613897,0.6341509344526739
1.221089281273315,-0.311627059075831,-0.3464910712985496,0.41911114403230876,0.6267548464032318
1.2235762248196966,-0.3184826932075046,-0.35878714811566415,0.4278996315492112,0.6428511011156687
1.226063168366078,-0.3157494698190345,-0.3662771848898658,0.43187241177779434,0.6483598413817864
1.2285501119124596,-0.313004205327287,-0.35459599420399357,0.4262411237171744,0.6367035787599788
1.231037055458841,-0.31982371627813094,-0.3524740187135489,0.41579421331247524,0.6319889011574283
1.2335239990052225,-0.3266312060647867,-0.36469968466153135,0.40532012681265783,0.63559280201005
1.236010942551604,-0.32863828152898733,-0.37211940187764814,0.39960731076899414,0.6373083807389731
1.2384978860979856,-0.3210565496402641,-0.3795215969806427,0.40823261535383537,0.6432478673732865
1.240984829644367,-0.32782803741741784,-0.38690629345562977,0.42640768107780325,0.6625641195497077
1.2434717731907485,-0.32979914212342987,-0.39427351497361274,0.4397673421085777,0.6764720200719618
1.24595871673713,-0.34612348771036344,-0.3968348820703742,0.46267685283180526,0.7009630964030402
1.2484456602835114,-0.35285906837365905,-0.39937882210662146,0.4855594513261501,0.7209583527867272
1.250932603829893,-0.35000589503609114,-0.39711695598593266,0.4844731660023278,0.7175794394127158
1.2534195473762746,-0.35192918870674306,-0.38526090479458386,0.4689948488047033,0.7015955293702165
1.255906490922656,-0.35862896055872406,-0.3877527097226179,0.46785496524876,0.7055885229768
1.2583934344690375,-0.35574001192876137,-0.39501558889898725,0.48105356121642906,0.7169384913082137
1.260880378015419,-0.3576275641996047,-0.3926843573126244,0.4702834563138847,0.7094117340697887
1.2633673215618004,-0.3547148222761803,-0.3759706367725739,0.4594867135965508,0.6915956657103597
1.2658542651081819,-0.3517902011476816,-0.37360487250875263,0.45824018644253073,0.6879832954779447
1.2683412086545636,-0.35843051924653246,-0.38079868668676387,0.4569671152307109,0.6944775167793272
1.270828152200945,-0.374635788487043,-0.38797529832896993,0.45566754726106495,0.7060522075283644
1.2733150957473265,-0.3812524076243698,-0.40471153991524034,0.4830719500343239,0.7365482589551808
1.275802039293708,-0.38785719545723096,-0.40706542085870856,0.5152383548050814,0.7626309875615291
1.2782889828400894,-0.3896617609446811,-0.4237673872705865,0.5473784063849134,0.7943791325514137
1.280775926386471,-0.39145451980726087,-0.4356638522327887,0.5699153465392097,0.8172167004171866
1.2832628699328525,-0.3884470812453358,-0.43796643896118415,0.57327241730591,0.819357675882836
1.285749813479234,-0.3902162645402406,-0.4450403841250905,0.5622380709548604,0.8163585762671878
1.2882367570256155,-0.39197367913199466,-0.4377321013230291,0.555965969986211,0.8089195988747305
1.290723700571997,-0.3937193379001348,-0.42561842424596597,0.5544561638866323,0.802239115081046
1.2932106441183784,-0.4002416571633006,-0.4182761867546305,0.5385550891277404,0.7906895323451602
1.29569758766476,-0.3971754400772556,-0.4109170129177526,0.5226280056879311,0.7744295668652859
1.2981845312111415,-0.3893091031969753,-0.4035409302925004,0.5114633671679734,0.7589477163864261
1.300671474757523,-0.39100786983559704,-0.39614796660334317,0.5098496274300288,0.7548291252382051
1.3031584183039044,-0.3926949468218242,-0.3983149563818631,0.5177868372757519,0.7622121322787422
1.305645361850286,-0.3800051377807544,-0.4100419276846803,0.5161214344837344,0.7608676772821188
1.3081323053966674,-0.37688047301627503,-0.40738689213169366,0.5096418736907307,0.7534837823342252
1.310619248943049,-0.39289777298720757,-0.4095034913896334,0.5175018197494037,0.7680298841337824
1.3131061924894305,-0.3945382283850142,-0.4259685606478012,0.5301245178439213,0.7862198374098655
1.315593136035812,-0.3865902565786906,-0.43762851533600866,0.537933213410227,0.7939413618187616
1.3180800795821934,-0.3929958883330975,-0.4540601909674886,0.5648699753766078,0.8244358764331657
1.3205670231285749,-0.408966734605415,-0.46568680993495093,0.5965696463574179,0.8602402791756625
1.3230539666749563,-0.4153491965056606,-0.47250840143163453,0.5947250526123877,0.865723415801019
1.325540910221338,-0.41214328853845517,-0.4745249948098551,0.5880666671309633,0.8607313552886897
1.3280278537677195,-0.4089258319619804,-0.47652502290049004,0.581382946544732,0.8557467873320619
1.330514797314101,-0.42485045478755057,-0.47850851537152783,0.5746739444070883,0.8600688638688494
1.3330017408604824,-0.42639834861513787,-0.48047550204755085,0.5631513111915893,0.8542901492270463
1.3354886844068639,-0.427934738359506,-0.4824260129089102,0.5468151009309796,0.8454997059917669
1.3379756279532453,-0.4294596390857273,-0.4843600780908943,0.5496073844968237,0.8491811019713638
1.340462571499627,-0.4166078560087664,-0.4862777278829,0.5523746031135097,0.8456629567906969
1.3429495150460085,-0.41810982433679417,-0.4833905894072914,0.5359631982394468,0.8341096073068156
1.34543645859239,-0.4243887528254657,-0.48048709657950406,0.5291036447685435,0.8312185816086602
1.3479234021387714,-0.4210794470196779,-0.4775672801462827,0.5365844012239442,0.8326471205772434
1.3504103456851528,-0.4273355358156472,-0.47463117100515584,0.5536171197172912,0.8452114078173824
1.3528972892315343,-0.4240034216557985,-0.47167880020360853,0.5754134525877745,0.856364661552731
1.355384232777916,-0.4206599270127158,-0.46871019893824695,0.5923966490801789,0.8646258234777048
1.3578711763242974,-0.42209347114653073,-0.465725398553968,0.6093551686245107,0.875429475613076
1.360358119870679,-0.42351566678418573,-0.4723012371837463,0.6358658741937582,0.8981978560546351
1.3628450634170604,-0.4201381267596338,-0.48843774646655724,0.638409999099121,0.9070031999282928
1.3653320069634418,-0.41674927065403916,-0.49019294158560234,0.6265644067540173,0.8980824184795252
1.3678189505098233,-0.42292592147503927,-0.49193206443153903,0.6290595740709026,0.9036478511022158
1.370305894056205,-0.43387969237506957,-0.4936551470782091,0.6411071549361953,0.9181314588895623
1.3727928376025864,-0.4256685833306255,-0.4905738184224311,0.6579188034508476,0.9245072017515392
1.3752797811489679,-0.42702303094652416,-0.4970533207847261,0.6507641573271439,0.9235283759168353
1.3777667246953493,-0.4379430520101656,-0.5035168800256726,0.6387968876917611,0.9237883031298062
1.3802536682417308,-0.4344866468114213,-0.5003877221466349,0.6411706658810274,0.9220988783849868
1.3827406117881123,-0.4310190423062665,-0.4924542832498613,0.6339435335564794,0.9111383208162308
1.385227555334494,-0.42754025559291836,-0.48450499957670834,0.6171155491876164,0.8935140546272439
1.3877144988808754,-0.4384155138332869,-0.4813283075068129,0.6050519814096358,0.8888042543692082
1.3902014424272569,-0.4301260110884814,-0.46377062695568627,0.5881760824593201,0.8637376244085652
1.3926883859736383,-0.42182537804494863,-0.470139217819193,0.5712763147358899,0.8516596511944347
1.3951753295200198,-0.42787884217029487,-0.4812805002852154,0.568717947479076,0.8591573356007574
1.3976622730664012,-0.42913280779098445,-0.46846408803594297,0.5757126368455978,0.85735559059566
1.400149216612783,-0.43516409925597443,-0.47957404801265247,0.5922604425091187,0.8775713603859248
1.4026361601591644,-0.4363959277331625,-0.48587999416488215,0.6135730210179773,0.8960985585262822
1.4051231037055458,-0.43282831113083453,-0.4873819604964651,0.6300736257935728,0.906572830088354
1.4076100472519273,-0.4292496707769242,-0.48886838446312764,0.6561275270505931,0.9239864224885628
1.4100969907983087,-0.43523683141858555,-0.4903393003310281,0.6773695752719728,0.9427052934913145
1.4125839343446904,-0.4412130046202025,-0.48700633917592295,0.6842230244494392,0.9486860582037974
1.4150708778910719,-0.44238980536452377,-0.49802314880419507,0.6862647420428285,0.9563969326625931
1.4175578214374533,-0.44834405869285954,-0.49944774726766017,0.6834947890565815,0.9579277498242901
1.4200447649838348,-0.4494989764624661,-0.49606857266739857,0.6711248233584364,0.9479144935894626
1.4225317085302163,-0.44106617394768116,-0.5070392731919924,0.6587317129590513,0.9410396718618594
1.4250186520765977,-0.44698768644105413,-0.513206270593249,0.6654691326900579,0.9518549440799344
1.4275055956229794,-0.4528983227685488,-0.5193580033494212,0.667395127679022,0.9593048956715274
1.4299925391693609,-0.4492212951719259,-0.5302829100628097,0.6597213565118487,0.9582442303392482
1.4324794827157423,-0.45032183258955966,-0.5555578327792423,0.6663898978718041,0.9775017925583469
1.4349664262621238,-0.4514115507732032,-0.5712407904247292,0.6586703940925673,0.9818019743668249
1.4374533698085052,-0.45727887220943203,-0.5773318186483771,0.650928117562863,0.9829157695483907
1.4399403133548867,-0.4583470095176537,-0.5786193565403059,0.6479515342014075,0.9822034064137894
1.4424272569012684,-0.4641927886918671,-0.5798918433104978,0.6353754968146674,0.9774720031612489
1.4449142004476498,-0.4700278258580441,-0.5859377182879588,0.6275652782983538,0.9788193629669519
1.4474011439940313,-0.4662753339143306,-0.59196861427926,0.6388861517139315,0.9879347357798816
1.4498880875404128,-0.4673005424524885,-0.5979845675286399,0.6453961637244987,0.9962387003771257
1.4523750310867942,-0.4731034711949688,-0.5944088077562317,0.6423069744369325,0.9948401754077083
1.4548619746331757,-0.46931892999448316,-0.5860297747587913,0.6487722607205733,0.9922684118903965
1.4573489181795574,-0.4655237453960743,-0.5920011184088594,0.6552152796821762,0.9982408248784067
1.4598358617259388,-0.46171793739450223,-0.5788040521695552,0.6616360952267879,0.9929551384763975
1.4623228052723203,-0.4626899293947486,-0.5703806294609177,0.6728231747358322,0.9960457106424154
1.4648097488187017,-0.46365133825065513,-0.5763076938543921,0.6935649857451658,1.013970172593397
1.4672966923650832,-0.46460218422542987,-0.5678548624704365,0.7094963826622269,1.0206367872211661
1.4697836359114647,-0.4655424876709067,-0.5545989791026722,0.7254058333269278,1.0249504663510705
1.4722705794578463,-0.4712606723474292,-0.560482097615493,0.7412934024084805,1.0419897847403088
1.4747575230042278,-0.4721799521421717,-0.5567738354588667,0.7380055414428455,1.0380766784091184
1.4772444665506093,-0.4683003476702735,-0.5482626334331133,0.7346959286748795,1.029405283869553
1.4797314100969907,-0.4787754929150351,-0.5445253357662079,0.726576225892666,1.0264730030252947
1.4822183536433722,-0.4844517953837394,-0.5455619801520073,0.723223304988414,1.0273185314771034
1.4847052971897536,-0.48054087263066086,-0.5417957977494141,0.7198488280349746,1.021099677774353
1.4871922407361353,-0.4861963588972619,-0.5428036331034214,0.7212412638858154,1.0252861279890786
1.4896791842825168,-0.4870530652680143,-0.5437971209020906,0.7274006782124722,1.0305570065514746
1.4921661278288982,-0.4831110128730956,-0.5399878959366613,0.7191735235420094,1.02087890343625
1.4946530713752797,-0.48394702956764835,-0.5457412063819684,0.7061366724585643,1.0152178051834246
1.4971400149216612,-0.47519592668916394,-0.5419034772721769,0.6978669976798546,1.003239200725502
1.4996269584680426,-0.48558814554142926,-0.5284747470233855,0.6895761620946743,0.9952872392736762
1.5021139020144243,-0.49118169098784853,-0.5341854740734204,0.6908410386831552,1.001935584257565
1.5046008455608058,-0.4919765845760146,-0.5494588903966298,0.7112385005542468,1.0246005254135044
1.5070877891071872,-0.492761251256031,-0.5503530181046163,0.7172497910613185,1.0296355462268065
1.5095747326535687,-0.4839589060988341,-0.5416562993282237,0.7136633802458849,1.01829425496676
1.5120616761999501,-0.48951158749888657,-0.5568875962167019,0.7244213515547635,1.0365962008921925
1.5145486197463316,-0.49505410736906774,-0.5625281245306382,0.7255817553541206,1.0430653593201666
1.5170355632927133,-0.4957980843433664,-0.549001116727061,0.7219330620528748,1.0336369346589507
1.5195225068390947,-0.48695513713582755,-0.5594022418804911,0.7230521454995671,1.0357898333713356
1.5220094503854762,-0.48767890114168827,-0.569789522674303,0.7241506696995312,1.0425377706320544
1.5244963939318577,-0.49318099523382425,-0.57537459516552,0.7156518954539379,1.0423248314649927
1.5269833374782391,-0.48909623172325933,-0.5857343054636819,0.7119211002800956,1.043614609665338
1.5294702810246208,-0.4945782462415506,-0.5769266765268926,0.7081699485270612,1.0387284090370081
1.5319572245710023,-0.5000502545762954,-0.5776821679266182,0.6948217013350124,1.0327362397477375
1.5344441681173837,-0.4911470692722725,-0.5927892227218647,0.7006068465164788,1.0409007923984397
1.5369311116637652,-0.4918107295138182,-0.5935174608177314,0.7015834354688657,1.0422859909279878
1.5394180552101466,-0.5020412579603426,-0.5894437287692731,0.6929631329775585,1.0390799958356918
1.541904998756528,-0.4978966607458994,-0.5949332765384909,0.6938996205346761,1.0408378219938539
1.5443919423029098,-0.5128957839240711,-0.5956209342513206,0.699604563134379,1.0522703679396985
1.5468788858492912,-0.5135198271394168,-0.601083548720247,0.7005012225525657,1.0562698557684307
1.5493658293956727,-0.5093456199942317,-0.6161095635216167,0.7013780706265607,1.0634637524739345
1.5518527729420541,-0.5099499921653063,-0.6119685990729371,0.7166003859332584,1.0714805989285967
1.5543397164884356,-0.5009677568019414,-0.6078143090773747,0.7222262205844334,1.0686522546525834
1.556826660034817,-0.5063409536895739,-0.6036467340385543,0.72783245002989,1.0726185790928633
1.5593136035811987,-0.5164927994446716,-0.5994659145409931,0.7382075464934061,1.0821619916973972
1.5618005471275802,-0.5218465107564856,-0.5856950846086701,0.7389863690102487,1.0777120981535038
1.5642874906739617,-0.512825304386631,-0.5814878982666842,0.7349573899881481,1.0683072281642754
1.5667744342203431,-0.5085828170905276,-0.5964212029779579,0.7261206786041807,1.0684689855573757
1.5692613777667246,-0.5139074757341632,-0.5873994097596,0.7316299174047991,1.0697762832682072
1.571748321313106,-0.5096456906530422,-0.5687877695492785,0.722754755819917,1.0514907007911993
1.5742352648594877,-0.5149510988158202,-0.5693167433215955,0.7042836666066901,1.0417829291396992
1.5767222084058692,-0.5250353206598114,-0.5794095655638327,0.7049471392073592,1.0527715809632499
1.5792091519522506,-0.5255331700515067,-0.5655474542360812,0.7103800332633519,1.049127650706309
1.581696095498632,-0.521233074208014,-0.5660376771766731,0.7301592250981255,1.0607615489014464
1.5841830390450136,-0.516923460415385,-0.5760918724138726,0.7403427678718959,1.0710738178712789
1.586669982591395,-0.5173927560281875,-0.5861332747275654,0.7361423281035542,1.0738496202723284
1.5891569261377767,-0.517852581828454,-0.5817967156484456,0.7271347823488465,1.065543854821198
1.5916438696841582,-0.5230913653065024,-0.5774474466993946,0.737262217198845,1.0726722272282563
1.5941308132305396,-0.518743920738639,-0.5826623161524855,0.7425826861144049,1.0770420955953204
1.596617756776921,-0.5095986757492266,-0.5830761557469204,0.7526730658699332,1.0799006240446467
1.5991047003233025,-0.5100208646696354,-0.5691122006100993,0.7675334266690967,1.0831055074811677
1.601591643869684,-0.510433705295628,-0.5599241058583808,0.7775870321432947,1.0856791258841392
1.6040785874160657,-0.5156256254494327,-0.5698771233540776,0.7828339526314334,1.097022660994289
1.6065655309624471,-0.5112314397371289,-0.5750292784624684,0.7832742585377783,1.0979684968853483
1.6090524745088286,-0.5068279794310329,-0.5466501932931824,0.7741196170101627,1.074691684159498
1.61153941805521,-0.5072036725473963,-0.5374123464650178,0.760158501899431,1.060145529438572
1.6140263616015915,-0.5075701405256664,-0.5425273768160785,0.7461793871173246,1.052970597835935
1.616513305147973,-0.5031390048686846,-0.542841713285779,0.7321823433146655,1.0411133308939258
1.6190002486943547,-0.5034870971031961,-0.5431438014765457,0.7229558445205075,1.034973235962243
1.6214871922407361,-0.49903763553723773,-0.5577988936920715,0.7184999615000347,1.0375068010197557
1.6239741357871176,-0.4897906451815851,-0.5676534190537117,0.714026361753076,1.0353544926975962
1.626461079333499,-0.4853229577493219,-0.5727074200231166,0.7095351161532619,1.0329434850574872
1.6289480228798805,-0.49042300169448216,-0.596902955721744,0.7098146989465484,1.0491161832613962
1.631434966426262,-0.5003023988913059,-0.6115096488050638,0.7292303910700646,1.0751853348043243
1.6339219099726436,-0.5101727712744393,-0.6117391385867554,0.7246866336662787,1.076880563128182
1.636408853519025,-0.5056689341978814,-0.6167450810379171,0.7344907243705983,1.0842288458548475
1.6388957970654066,-0.5059445263173703,-0.6217391155831429,0.7490659276614657,1.0971048972363349
1.641382740611788,-0.5109995730665184,-0.6267212850215995,0.7540471047417316,1.105661416954882
1.6438696841581695,-0.5016804866563856,-0.631691632205921,0.7494343268184487,1.1010764910325666
1.646356627704551,-0.487564099278173,-0.6270733934007944,0.7352276651404726,1.082358309989827
1.6488435712509326,-0.49259245314186695,-0.6176550148837232,0.7449460142392113,1.0858589256594162
1.651330514797314,-0.49282355731173955,-0.6034365396629919,0.7594358321615591,1.088004365438284
1.6538174583436955,-0.48825743751061407,-0.6083600273987413,0.7643319803122033,1.092108339107894
1.656304401890077,-0.4980477327991236,-0.6132719079178077,0.7739997400537497,1.1059970952903844
1.6587913454364585,-0.4982524524112203,-0.6038070144160543,0.7692855695412195,1.0975603420751787
1.6612782889828401,-0.48887162223812464,-0.5991190033794616,0.7454011369237623,1.0740399890913617
1.6637652325292216,-0.5034240914685163,-0.6039963213802095,0.7406537402651008,1.0801922676451678
1.666252176075603,-0.5083910628615553,-0.6136506083962048,0.750255047776486,1.094491287629386
1.6687391196219845,-0.503772562473005,-0.6089282944899801,0.7406863077762118,1.0831420354959227
1.671226063168366,-0.5039338263735591,-0.6089830363313444,0.7358896084538298,1.0799736828891577
1.6737130067147474,-0.5088748807265382,-0.6138148773528465,0.7502302313843519,1.0947911892124254
1.6761999502611291,-0.509018945107773,-0.6186354577099316,0.7358242150033991,1.0877717551949835
1.6786868938075106,-0.5139428524270496,-0.6234448209207817,0.7357672608558019,1.0927827608637717
1.681173837353892,-0.5236466290058093,-0.6234546072249074,0.7500594406254528,1.1070187910828246
1.6836607809002735,-0.5333418978970281,-0.6282416668636146,0.7451820027745324,1.111052379186076
1.686147724446655,-0.5286634755644776,-0.6282292368370381,0.74507703562805,1.1087365933498554
1.6886346679930364,-0.5239765984447946,-0.6234173608252327,0.754533014247448,1.110189511338229
1.691121611539418,-0.5288580997048649,-0.6233828891873956,0.7687616070698517,1.1221815916596058
1.6936085550857995,-0.5337311992804558,-0.6233374623595251,0.7781860792269981,1.130925355171089
1.696095498632181,-0.5290191171570365,-0.6184927208145794,0.7684412925438533,1.1193285898719372
1.6985824421785625,-0.5290870899709105,-0.604060305061699,0.7586809320997308,1.1047256481393177
1.701069385724944,-0.5243583378056602,-0.5848286622860521,0.7536934730238034,1.0885908698571245
1.7035563292713254,-0.5244096940745294,-0.5751630463480613,0.7343253738531086,1.070070937745826
1.706043272817707,-0.5292411855981175,-0.5750635011810648,0.714941916374924,1.0592149011007042
1.7085302163640885,-0.5292760326039486,-0.565376457470232,0.7099083823832295,1.050596767903147
1.71101715991047,-0.5293026653276027,-0.5604671691752219,0.7144364403960886,1.0510490885834138
1.7135041034568514,-0.5293211107310349,-0.5555472770059753,0.723737758935556,1.0548032797462052
1.715991047003233,-0.5293313958224559,-0.5601936316641334,0.7138703932450738,1.0505329932526044
1.7184779905496144,-0.5245451443355879,-0.5696178739203877,0.7279300450537409,1.062776684552106
1.720964934095996,-0.5436928032917316,-0.5886084512152734,0.737186366285929,1.0888092173705715
1.7234518776423775,-0.5436787699524608,-0.5980117944162076,0.7320626221458841,1.090467970139894
1.725938821188759,-0.5340798781473123,-0.6074047543401684,0.7365009010773171,1.0938991859968579
1.7284257647351404,-0.5388381717108549,-0.6167873751904125,0.7217708549964517,1.0916622227636552
1.7309127082815219,-0.5435884679588169,-0.6070060879150949,0.7213913789781987,1.0882786108933082
1.7333996518279033,-0.5435423908907797,-0.5924261467299328,0.7305741415282689,1.0863450861923702
1.735886595374285,-0.5386999678694289,-0.5969896125158805,0.7349540045037308,1.0893813113737791
1.7383735389206665,-0.533849629620122,-0.5871777063339936,0.7393194430335832,1.0846042249174022
1.740860482467048,-0.5289914035898264,-0.572567279151214,0.7340937222752419,1.070774853697302
1.7433474260134294,-0.5337021239076254,-0.5675235852771165,0.733642123975736,1.0701176304411268
1.7458343695598109,-0.5288282048217798,-0.5624698624412674,0.7379647199079038,1.0679997866097517
1.7483213131061923,-1.4576851280039815,4.250150778559098,-0.38300160176370746,4.509469791432697
1.750808256652574,0.8121191443653273,6.218469787453731,-0.3595535954685225,6.281574865440502
1.7532952001989555,2.84251100065099,7.760630796569611,-0.29781235647343784,8.270184480962612
1.755782143745337,4.595183186602229,8.881422164779087,-0.22171982967308423,10.002226145730326
1.7582690872917184,6.041405254568209,9.590420654255682,-0.107333926778713,11.335178267117643
1.7607560308380998,7.162023563501192,9.897203027156628,0.03098021391497241,12.216798641974862
1.7632429743844813,7.947461278955886,9.830499658904023,0.1788574540910215,12.642501900854086
1.765729917930863,8.402506776410384,9.433406134865432,0.3362978653699038,12.637419344438625
1.7682168614772444,8.551102044586907,8.74901804039369,0.4889363093863732,12.243599207859958
1.770703805023626,8.407612265530375,7.844372977429241,0.6271960510694612,11.515880613439686
1.7731907485700074,8.005556234530722,6.743412918016498,0.7606539686021438,10.494815046824582
1.7756776921163888,7.3880295534827045,5.513175464070228,0.879733326857604,9.26023839364537
1.7781646356627703,6.588551017605172,4.2111214108529955,0.9748573906792242,7.879904503272396
1.780651579209152,5.63585101876146,2.8851347469753184,1.0364494248793843,6.415687541036559
1.7831385227555334,4.577813562062105,1.5830994610382145,1.0645095008787422,4.95941139551866
1.7856254663019149,3.4623226525833313,0.3385343316718501,1.0829797066660447,3.6435050005952583
1.7881124098482963,2.3276854887272185,-0.8150418625021865,1.082283306953098,2.693278694931447
1.7905993533946778,1.2074208655423884,-1.8488987461905693,1.0672087763766687,2.452595827401567
1.7930862969410595,0.13025917472435825,-2.734305944107235,1.0377561862160185,2.9275133391002073
1.795573240487441,-0.8750691920632533,-3.456898290933255,1.0130792209932515,3.7070502279796247
1.7980601840338224,-1.7798338431891805,-4.02146423463704,0.9883895485892804,4.5074268712411705
1.8005471275802039,-2.564881193693722,-4.428003819871355,0.9684756434848207,5.208049389030636
1.8030340711265853,-3.215846061968828,-4.662151881332458,0.9341839635169755,5.740211297207141
1.8055210146729668,-3.7231516697566374,-4.738273673641706,0.8998797897218136,6.092854782307509
1.8080079582193485,-4.091586448790853,-4.680311258063968,0.8511979831690528,6.274625976649152
1.81049490176573,-4.316362024193726,-4.488264679264609,0.7881386148437741,6.276676145161853
1.8129818453121114,-4.416632037718483,-4.186075998511635,0.758585788887304,6.132317932154062
1.8154687888584928,-4.382819711225051,-3.802475680393903,0.7194439463070808,5.846839275451979
1.8179557324048743,-4.229290283203144,-3.342252172898602,0.6755015612644844,5.432664930410554
1.8204426759512558,-3.9751973954906505,-2.8437127472540813,0.6507007211517895,4.930751256200059
1.8229296194976374,-3.649271496593223,-2.3260110614054463,0.6498299000284966,4.376047167547361
1.825416563044019,-3.256301018442416,-1.803512369975876,0.6393703453389445,3.7768965606518745
1.8279035065904004,-2.801074392995511,-1.2857935242640413,0.6241105310361128,3.1446457188504864
1.8303904501367818,-2.321898875478384,-0.782431375565273,0.618415737658621,2.527024192602953
1.8328773936831633,-1.8331397045410136,-0.3365215984125114,0.603132422446766,1.9589325362475685
1.8353643372295447,-1.3443737155377382,0.06151256919050807,0.5830490591850914,1.4666528862051105
1.8378512807759264,-0.8747545504886126,0.3973058726441887,0.5821077348809904,1.123341842471103
1.8403382243223079,-0.43864744811740497,0.6660698639965639,0.5859433099197684,0.9896414552271172
1.8428251678686893,-0.03605243721055949,0.8725929019439147,0.5993442579072674,1.0592127691064421
1.8453121114150708,0.3138768401405669,1.0072981352296684,0.6270990523875142,1.2273636077051953
1.8477990549614522,0.6111403551033762,1.0701855192470546,0.6596309568806564,1.3978206532017114
1.8502859985078337,0.8413728688616847,1.0756202193598972,0.6777864282021184,1.524552919057702
1.8527729420542154,1.0141511591790842,1.0331789976221608,0.7007191496646676,1.6084056520351413
1.8552598856005968,1.1294751971569195,0.9380734061380842,0.6853335613506992,1.6203018319466906
1.8577468291469783,1.1825565505552569,0.7998802069846813,0.6507833464392707,1.5690020091732517
1.8602337726933598,1.1781835937541536,0.6377529688922565,0.6497410112831385,1.4889623271478616
1.8627207162397412,1.1163562977932013,0.451691647323087,0.6534762057201693,1.3701488529814618
1.8652076597861227,1.0162282469736381,0.23690779443344656,0.681142612720631,1.2461141247391112
1.8676946033325044,0.8682226056554179,0.02213178563615603,0.7183750919409082,1.1271038468693275
1.8701815468788858,0.710646571383061,-0.18305961692132655,0.7412316963238474,1.0430502386754972
1.8726684904252673,0.5435001151201129,-0.3834548610365416,0.7401356886993433,0.995103433455327
1.8751554339716487,0.3428411912106548,-0.5790539911698303,0.72945234842385,0.9924436183993126
1.8776423775180302,0.12303498054399162,-0.7554918418028262,0.7331237614183834,1.059894324460852
1.8801293210644117,-0.09676493268733753,-0.9031916507192861,0.7463615936049575,1.1756590656034365
1.8826162646107933,-0.28782815766673575,-1.017365059004264,0.7356470909055393,1.2880424503821135
1.8851032081571748,-0.48367354675742397,-1.1219541276447857,0.7201339356862935,1.4182080417551963
1.8875901517035563,-0.6795127257760495,-1.2025936910451336,0.7237642135534177,1.5594241780393658
1.8900770952499377,-0.8370384973121153,-1.2305533736274379,0.7273843801489797,1.6564972344719169
1.8925640387963192,-0.9658276971728161,-1.2393520429560172,0.7214176976733011,1.7289476919564817
1.8950509823427006,-1.0706687578593919,-1.2385665499711167,0.6962874282433056,1.7790994549190342
1.8975379258890823,-1.1515617085665169,-1.2042549223475307,0.6759356571336799,1.7981138170926867
1.9000248694354638,-1.2037181751817994,-1.1603592209392521,0.6507856462914852,1.794127343390311
1.9025118129818452,-1.246291800207346,-1.0973026833333963,0.6399910774991735,1.7795800092699658
1.9049987565282267,-1.240975386313858,-1.0198737570527716,0.6435520191704924,1.7304108157140554
1.9074857000746082,-1.2212877859886777,-0.9376492929143585,0.6471033296697541,1.6701714798120595
1.9099726436209896,-1.1872290284884495,-0.8554177383881871,0.6697986905139572,1.60931120640136
1.9124595871673713,-1.134010739760512,-0.7683907342761978,0.687696153246808,1.5327526472344306
1.9149465307137528,-1.0664213524033832,-0.6861451313131592,0.6768537693205268,1.4374215342515286
1.9174334742601342,-0.9796724923850901,-0.6134693768847796,0.6660020266182887,1.3340395676932082
1.9199204178065157,-0.892917802284823,-0.5455751117066092,0.6647177996485603,1.2396790541589628
1.9224073613528971,-0.8061573114097065,-0.48246237978435014,0.6730011561847427,1.1556773402955105
1.9248943048992788,-0.7146026457553389,-0.4241312250929008,0.6764869539438774,1.07153107107335
1.9273812484456603,-0.6278306412864649,-0.37537009489589224,0.660810050546619,0.9857707366237599
1.9298681919920417,-0.4883804874909959,5.314136884864501,-0.5615535099603015,5.365995590399611
1.9323551355384232,1.8297988605099005,7.1106786595673785,-0.5149991435893959,7.3603762802894845
1.9348420790848047,3.9085636966127204,8.447540366032527,-0.425358033054005,9.31765731622018
1.9373290226311861,5.72397197486384,9.339087170410739,-0.32614893440983295,10.9585025196408
1.9398159661775678,7.247293245981783,9.799684238886977,-0.20779497393103874,12.19017019267303
1.9423029097239493,8.449797060681691,9.843696737682698,-0.05593087467342883,12.973070727199158
1.9447898532703307,9.341060196234633,9.50464344633636,0.08155939703997106,13.326676426135258
1.9472767968167122,9.940236236548442,8.83998516102505,0.2142527146259745,13.304117344313315
1.9497637403630936,10.213806329003189,7.892817468002838,0.35651435471675263,12.912997707531565
1.952250683909475,10.19528926745983,6.734966373483452,0.5227095938387212,12.230164374145815
1.9547376274558568,9.922992249096362,5.433469480399596,0.684108078528709,11.333859432389682
1.9572245710022382,9.416068857806906,4.040999181762697,0.8263446651768245,10.279828433764544
1.9597115145486197,8.693672677483214,2.605439467303788,0.9350542100646706,9.12373749166218
1.9621984580950012,7.813264518577612,1.20340474671672,1.0150251826456262,7.9702924377395945
1.9646854016413826,6.793997964979437,-0.1267977968244316,1.066257648942356,6.878327660365733
1.967172345187764,5.669391810537224,-1.3420725767843913,1.0935400781866846,5.9278151291469765
1.9696592887341458,4.482541655739729,-2.413689216545626,1.111237746138892,5.210942780145868
1.9721462322805272,3.2621778911159454,-3.308128936125872,1.1145623151650117,4.777841647198551
1.9746331758269087,2.0370309071941346,-4.020603375421509,1.0891486408765694,4.636916128337698
1.9771201193732901,0.8501963044648447,-4.541535770963358,1.0685156119734476,4.742373512081942
1.9796070629196716,-0.26959552653978175,-4.870926165876931,1.0430864871571242,4.988650406777828
1.982094006466053,-1.3127678085687342,-5.008774603242218,0.9841309117313095,5.2706447420333395
1.9845809500124347,-2.2505901510856927,-4.969446336052764,0.9251677740464626,5.533216815307913
1.9870678935588162,-3.0734857768333605,-4.772095020575253,0.8518319291317358,5.739758125677804
1.9895548371051976,-3.7718779085510783,-4.445451119668824,0.7784886518191136,5.881763612675334
1.992041780651579,-4.326612962333815,-4.003879886182809,0.719503216820689,5.938713560008563
1.9945287241979606,-4.747267774193908,-3.4761117828782226,0.6509336721653742,5.919765121398272
1.997015667744342,-5.038630776818832,-2.895665675786131,0.606298905604266,5.842968267410737
1.9995026112907237,-5.191125192929674,-2.286483624246583,0.5760221748833008,5.701542745483385
2.001989554837105,-0.49296218469510245,-0.5137140840325052,0.6319295940705256,0.9519710539374941
2.0044764983834864,-0.49221800216820977,-0.5078599298102442,0.6255807243756042,0.944220055217869
2.006963441929868,-0.4962574207860858,-0.516365588927953,0.6240132762974522,0.9498933719684807
2.0094503854762498,-0.4907152599240375,-0.5152890873133975,0.6128621037640496,0.9391082302145406
2.011937329022631,-0.48516835555137244,-0.5046304674420825,0.6160692871394549,0.9325135969280843
2.0144242725690127,-0.47961673698874535,-0.5035433850163153,0.614481276777699,0.9279953634063974
2.016911216115394,-0.4884256435092536,-0.5072394790817736,0.6224633461469917,0.9398468575640859
2.0193981596617756,-0.48765308781453415,-0.5061419853081324,0.6352271553054898,0.9473641233360129
2.0218851032081573,-0.482087502518671,-0.5002509459493867,0.6431959608614779,0.9467631240582122
2.0243720467545385,-0.4717289169055507,-0.4991432098432371,0.6463698259334851,0.9431150867496383
2.02685899030092,-0.4661541668893171,-0.4980304158089095,0.6303836035479939,0.9288258663502127
2.0293459338473014,-0.46536328173267394,-0.4873357992871732,0.6000257598808414,0.9022694042094374
2.031832877393683,-0.46456788736672383,-0.47663620894129766,0.5696615676158601,0.8760820162889275
2.0343198209400644,-0.4685564163514431,-0.4659316867345593,0.5584447026237704,0.8651577531849147
2.036806764486446,-0.47254049459396763,-0.46001067789058503,0.5567984207192644,0.8630925930164933
2.0392937080328277,-0.4621549413481313,-0.4588732242521236,0.5551459775821357,0.8557680072155417
2.041780651579209,-0.4709186090577433,-0.45773096428044413,0.5534874353971606,0.858854069770011
2.0442675951255906,-0.479677913629581,-0.46616074633599025,0.5566112595330477,0.8701797725111294
2.046754538671972,-0.4788560775969715,-0.47937420875589964,0.5645175119010926,0.8819199489267162
2.0492414822183536,-0.47324153343965164,-0.4877945864940574,0.572417850954448,0.8885737468981008
2.0517284257647352,-0.46762271362236657,-0.4866335177611054,0.5755239350077179,0.8869672951529057
2.0542153693111165,-0.4763648572350339,-0.4950446573051148,0.5929894388377992,0.9075401723935205
2.056702312857498,-0.47073757346884504,-0.4986628365672474,0.6008724071987945,0.9117599121377862
2.0591892564038794,-0.4698945047017431,-0.4879112902436704,0.5848076913447482,0.8949068714408857
2.061676199950261,-0.4642588733729625,-0.49152047952715927,0.5974677888726898,0.9022729310139821
2.0641631434966428,-0.4634075151856946,-0.49512523566121436,0.6149107441125601,0.915429269438232
2.066650087043024,-0.4577636525441328,-0.503514003103533,0.5988293912905895,0.9064604529627027
2.0691370305894057,-0.4473273144748813,-0.5118984196035767,0.5923194209348654,0.9016562619338719
2.071623974135787,-0.4368869333061933,-0.5011249128816684,0.5953808935465172,0.8924543569307055
2.0741109176821686,-0.4216541347065727,-0.4903471371518675,0.5792834495599823,0.868217622006311
2.07659786122855,-0.411205754285881,-0.4891419399182748,0.5679691657876518,0.8549496961987615
2.0790848047749315,-0.4151186276339439,-0.492720958654159,0.571014908934826,0.8609038531285651
2.081571748321313,-0.4286043803591593,-0.48671902412170365,0.5692671256381328,0.8629381111281065
2.0840586918676944,-0.43250942808804216,-0.4807129836136337,0.5675142789882877,0.8603614559331229
2.086545635414076,-0.4364106063475841,-0.48906808767140575,0.5657564286075782,0.8658649711254253
2.0890325789604574,-0.4307311373616751,-0.4974191668424637,0.5496284240085973,0.8573485549724262
2.091519522506839,-0.4298362599334636,-0.4961894549218746,0.5478607444373473,0.8550523848424139
2.0940064660532207,-0.42893759956209243,-0.4901673955924002,0.5460882391069823,0.8499787673294499
2.096493409599602,-0.4280351850438106,-0.4889298357833236,0.5347341604003102,0.8415504300121422
2.0989803531459836,-0.43191744847152247,-0.4829000090683411,0.5425289871113357,0.845034202212198
2.101467296692365,-0.43579601527340484,-0.4768663589072024,0.5455307613587284,0.8455314912965833
2.1039542402387466,-0.43009410753276267,-0.4899825386451804,0.5485279450304787,0.8520250794377705
2.106441183785128,-0.4243885605891523,-0.5078833783093977,0.5563089998614537,0.8645986812670664
2.1089281273315095,-0.42346780643637105,-0.5114153045301708,0.5545087741515324,0.8650725850509623
2.111415070877891,-0.4416970836829325,-0.5101551637826609,0.5527041326478077,0.8722594012758398
2.1139020144242724,-0.43119238774696794,-0.5041029958238434,0.5461067299814939,0.8592317883904119
2.116388957970654,-0.42547257046512266,-0.4980472436529193,0.5442934305892067,0.851665018484989
2.1188759015170353,-0.42453766040462954,-0.5111415601514055,0.5376874854702027,0.8547547903621944
2.121362845063417,-0.4188108794644255,-0.5098671615982542,0.5215005487873423,0.8410290706149967
2.1238497886097987,-0.42744586943720986,-0.5038008940755487,0.5244630977884128,0.8435560758551104
2.12633673215618,-0.42650064220431566,-0.4977312002648975,0.5369983830008422,0.8473525882791345
2.1288236757025616,-0.4207636295399578,-0.49165811944689164,0.5351644448327093,0.8397444381326945
2.131310619248943,-0.4246000698295434,-0.4903700941412321,0.5237497434549869,0.8337036897462423
2.1337975627953245,-0.4284331848270469,-0.4890787601452744,0.5219079488400542,0.833751122667141
2.1362845063417057,-0.4274745995764476,-0.48778415649446005,0.5200623108783358,0.8313439263061774
2.1387714498880874,-0.4408779556925438,-0.4769095155008727,0.5086360792996238,0.8249404335806355
2.141258393434469,-0.4399128615558301,-0.4756084893152348,0.5115713269147335,0.8254889359599314
2.1437453369808503,-0.4245793454370634,-0.469515906762346,0.5145028998102799,0.8157365023019505
2.146232280527232,-0.43318466213745466,-0.46342020986402543,0.5126424505512652,0.8156037791285451
2.1487192240736133,-0.4417868232616749,-0.4621098405573658,0.5107784381805534,0.8183005040067871
2.151206167619995,-0.44559745366273623,-0.4464312240926773,0.4993341116167844,0.8044827428725392
2.1536931111663766,-0.4446165814806231,-0.4403264155173745,0.5022515428569871,0.8023888515128553
2.156180054712758,-0.4340558315012467,-0.43900704987080186,0.5195307871323056,0.8068729103612392
2.1586669982591395,-0.42828044175756314,-0.4328963587853152,0.5272298829075144,0.8054779597681796
2.161153941805521,-0.42729044028697594,-0.42678278376704704,0.5205604817632974,0.7973104038291636
2.1636408853519025,-0.4119322418105896,-0.4158779595938662,0.5234646550363866,0.7852756803769099
2.166127828898284,-0.40614789089684966,-0.4049703275961525,0.526365650655011,0.7784714983239703
2.1686147724446654,-0.40514901215643156,-0.3940599256953865,0.529263523021223,0.7743053815460813
2.171101715991047,-0.40893563348400624,-0.3879351950442982,0.522581519729167,0.7686439440010367
2.1735886595374283,-0.4079309760968819,-0.3913845767060957,0.5302617114474035,0.7750916402399743
2.17607560308381,-0.4021350678158338,-0.39483130169305847,0.5427273454340718,0.7824048447228547
2.178562546630191,-0.40591314638499854,-0.3934870042473273,0.5360364588176711,0.7790587847534319
2.181049490176573,-0.414476836229269,-0.3873517218404441,0.5197659117997198,0.7694082188619868
2.1835364337229546,-0.40867255177419093,-0.3812138951728947,0.5130693710527314,0.7586682199479328
2.186023377269336,-0.4076539339689852,-0.37986196485334256,0.48721646987600664,0.7401734463901481
2.1885103208157175,-0.40663260712207355,-0.37371916143723816,0.4709376812420665,0.7258087822656194
2.1909972643620987,-0.4151854054631575,-0.37715073198886895,0.46423305803058845,0.7281029650521813
2.1934842079084804,-0.41894714658032445,-0.3757915035574859,0.46231424962950207,0.7283340107287873
2.195971151454862,-0.41791785798211945,-0.36964151305966597,0.4651813085751897,0.7264184978682247
2.1984580950012433,-0.41209756713621293,-0.3730660072788692,0.45846907727080755,0.7205529442311152
2.200945038547625,-0.4062747047892915,-0.381276619622823,0.4517544145483665,0.7172956485902938
2.2034319820940063,-0.40523770164635603,-0.38469658008401364,0.4498257757464348,0.7173229970451518
2.205918925640388,-0.40898658504999197,-0.3737491185595787,0.4670484226706453,0.724632775614003
2.208405869186769,-0.4079445756596586,-0.3627994814524347,0.47469198706985694,0.7234464203661689
2.210892812733151,-0.40211170073253577,-0.3614245117489858,0.477544923760739,0.721367210073105
2.2133797562795325,-0.40585319744343595,-0.36962424569838115,0.4756072840648766,0.7263203078110415
2.2158666998259138,-0.40480388300159226,-0.3730335094917807,0.48324432908962045,0.7324925013228454
2.2183536433722955,-0.4037521878533854,-0.3764407425041303,0.4860908998448785,0.7355323410465784
2.2208405869186767,-0.40269813908038454,-0.3798459806921808,0.48414704712554624,0.7354230914971295
2.2233275304650584,-0.39685336039895236,-0.378460856594077,0.49656643483143625,0.7397995903182607
2.22581447401144,-0.3957946854411007,-0.3818622126102009,0.4946186934825114,0.739675492621815
2.2283014175578213,-0.39952214115253637,-0.39005008440120026,0.47830387334351876,0.7352085451543007
2.230788361104203,-0.39845894779226987,-0.39823610420790256,0.4715640411033153,0.7346660279556279
2.233275304650584,-0.39260513221347554,-0.40642030749153735,0.4648224400307317,0.7316940323236206
2.235762248196966,-0.4011143345037285,-0.41460272961303035,0.46286752317735314,0.7396177909970001
2.238249191743347,-0.40483296814086855,-0.42278340583260876,0.4656993400959113,0.7480049570069259
2.240736135289729,-0.3941842531957388,-0.426173967989095,0.454164326878999,0.7370690010226362
2.2432230788361105,-0.39311023293336567,-0.41998604781983184,0.43305093604151956,0.7200396161369756
2.2457100223824917,-0.40161093396882397,-0.4329501002024818,0.4119360232391127,0.7200197350008574
2.2481969659288734,-0.3957443662668649,-0.436335740068722,0.4099732505881004,0.7176911227617736
2.2506839094752547,-0.39945257294620773,-0.4301430021694661,0.4175858601026956,0.7203910819176031
2.2531708530216363,-0.3983703705135533,-0.4287371311135697,0.4251970936165037,0.7233996461973988
2.255657796568018,-0.38770938206632466,-0.4273297581252593,0.43280699942286205,0.7212844001301187
2.2581447401143993,-0.38662324725323144,-0.4259209176453247,0.435627222313558,0.7215658252890688
2.260631683660781,-0.38553518575045903,-0.4292990473307525,0.42886940689883524,0.7189325557133237
2.263118627207162,-0.38923362714410964,-0.42788737477311045,0.431687214208635,0.7217646935817766
2.265605570753544,-0.37856498436733205,-0.42647433742005836,0.4345038851688603,0.7169277746703292
2.268092514299925,-0.3726828968640153,-0.4298483726140563,0.4325310638432551,0.7146644571008726
2.2705794578463068,-0.3715873907446722,-0.428432707631067,0.42098039411279764,0.7062975762070032
2.2730664013926885,-1.7112430184345109,-2.4237799641723967,5.135582806784777,5.931043141657951
2.2755533449390697,-1.4036861340636972,-2.4175734034815295,1.8008782901003375,3.3253809616250996
2.2780402884854514,-1.0147246493264348,-2.219829514234439,-1.4572126747183987,2.842670921084062
2.2805272320318326,-0.5635122034021343,-1.8544903465234432,-4.389693068549583,4.798550373269413
2.2830141755782143,-0.12187487194012264,-1.3838051768962785,-6.809815115616144,6.9500613062684184
2.285501119124596,0.2670916893867774,-0.8556580718318783,-8.578715073531091,8.625418309813158
2.287988062670977,0.5842338415616612,-0.2939910811000854,-9.59104802333306,9.61332211689972
2.290475006217359,0.8103979456229677,0.22936971243503068,-9.832448709332692,9.868454940714406
2.29296194976374,0.921641959343955,0.6521750326582465,-9.322070699267343,9.390194795454718
2.295448893310122,0.9179658571552082,0.9552712334462057,-8.136528400903806,8.243682360636344
2.2979358368565035,0.7945812102230203,1.1242930721051412,-6.414685465358319,6.560760918605583
2.3004227804028847,0.5850068163327394,1.135298499410247,-4.2954055439346295,4.481254784631563
2.3029097239492664,0.2988194567246765,0.9978642894888305,-1.9462827080423324,2.2074969054517095
2.3053966674956476,-0.03046207070199039,0.7455092331800217,0.4459353574393141,0.8692354672484585
2.3078836110420293,-0.3788957746315439,0.4021753147926881,2.704077774087052,2.7599535503652635
2.3103705545884106,-0.7081744537291973,0.006169728707746014,4.665338873249048,4.718785428975943
2.3128574981347922,-0.984779309922631,-0.40420033058298976,6.224373825931957,6.31474447000367
2.315344441681174,-1.189556755041802,-0.7954160717962395,7.275837802953866,7.415224051613673
2.317831385227555,-1.3177184108190354,-1.1195934935764555,7.762270008149514,7.952528345154617
2.320318328773937,-1.350110688966446,-1.3480022077370117,7.698035694969764,7.930930738920491
2.322805272320318,-1.2915220177382916,-1.4758538425805745,7.111865326638579,7.377316728405166
2.3252922158666998,-1.1611060352900027,-1.4887832196565531,6.066008189434076,6.353038489935274
2.3277791594130814,-0.9636511697558215,-1.40115558032329,4.661020796007419,4.961549697227318
2.3302661029594627,-0.7183110591707966,-1.2177593591854154,3.026190078745312,3.340169909945796
2.3327530465058444,-0.4586045514697921,-0.9673250073354551,1.2955913731634787,1.6806524955091031
2.3352399900522256,-0.189320074604903,-0.6594293624710494,-0.40627679205062606,0.7973393295807805
2.3377269335986073,0.06081192693162568,-0.3323796820977041,-1.9597042917190386,1.9886214457534463
2.3402138771449885,0.25348420206883504,-0.03406003024700599,-3.2497694041745726,3.2598183241812815
2.34270082069137,0.3839083230397391,0.21637594908555924,-4.214222844461329,4.237201710400579
2.345187764237752,0.452084265460209,0.41413982198052013,-4.7956037311345305,4.83463619327227
2.347674707784133,0.4580120050087543,0.5209243313912655,-4.96997000618116,5.018140992250809
2.350161651330515,0.3777495008253169,0.5367294469490513,-4.742110031700082,4.787314564277823
2.352648594876896,0.23523874531626945,0.48070875168200855,-4.169484606503769,4.203691241648646
2.3551355384232777,0.05921013427191221,0.34328540881227054,-3.2999777229543907,3.3183133793991115
2.3576224819696594,-0.1455479530551326,0.15318980824055695,-2.219780600166861,2.229815516329651
2.3601094255160406,-0.35509352406661454,-0.056059256695571325,-1.0150844574475677,1.0768614148751594
2.3625963690624223,-0.5502729894202906,-0.28925021910465665,0.22313108238733292,0.6604949144883538
2.3650833126088036,-0.7215095663495279,-0.5224410920563112,1.4038863963297388,1.6626538313198498
2.3675702561551852,-0.8496496653821131,-0.7125362752220195,2.436201861181745,2.6766942309155533
2.3700571997015665,-0.9394817135817146,-0.8451705880774605,3.257828273474342,3.494336027424158
2.372544143247948,-0.9526985080636827,-0.9251324632623037,3.8544004627520927,4.076752071086993
2.37503108679433,-0.9036652824006864,-0.9476335266576514,4.158880821843965,4.360150219174044
2.377518030340711,-0.8115356734194115,-0.9030970007062913,4.166480986551635,4.339785496221361
2.3800049738870928,-0.6858865112393127,-0.8010997210140078,3.881989399125798,4.022690985426774
2.382491917433474,-0.5315062225926401,-0.6464301197478015,3.3532901315082704,3.4561431495877897
2.3849788609798557,-0.3627600407851188,-0.47260704887788796,2.6378440620898065,2.704287996079918
2.3874658045262374,-0.1892247957345519,-0.3035725536147962,1.7931120690685844,1.82844557230135
2.3899527480726186,-0.04920773721314853,-0.1297498558080572,0.9004970470537454,0.9111264227517306
2.3924396916190003,0.06207951495799209,0.015342192929617138,0.017459873859319686,0.06628797972854893
2.3949266351653815,0.14463693770564323,0.12212675770646886,-0.7698081529703291,0.7927416862234195
2.397413578711763,0.17931089474391404,0.181027003750466,-1.4373649792468246,1.4597743855219405
2.3999005222581444,0.16131295981674834,0.20640811301113038,-1.970845357615472,1.988179469704914
2.402387465804526,0.10979672333876249,0.1839048476362044,-2.2984232010697605,2.3083815812503334
2.404874409350908,0.03433896915335943,0.10394037321407534,-2.420098472600447,2.4225728849860046
2.407361352897289,-0.0746371321076319,0.00482188865677502,-2.3454479420314573,2.346640151552655
2.4098482964436707,-0.20276639314087772,-0.10866223024514765,-2.064894766098063,2.0776698692353373
2.412335239990052,-0.3356836265728351,-0.2460888175411946,-1.6454765548531904,1.6973026529878044
2.4148221835364336,-0.4686004516001141,-0.3835158839176058,-1.106346885339347,1.2612193493429316
2.4173091270828153,-0.5727864707470405,-0.4970014399393907,-0.4810245447526178,0.8980419728649331
2.4197960706291965,-0.6434533030684573,-0.5913339159719393,0.1538760496348388,0.8873476162472292
2.4222830141755782,-0.6997545841495946,-0.6521481289778994,0.7744129168821434,1.2307189061689336
2.4247699577219595,-0.7033831096603737,-0.6698672991183932,1.3374904625738306,1.6529823758466475
2.427256901268341,-0.6687041117224038,-0.6540682597138754,1.7856478821406974,2.0158146830483066
2.429743844814723,-0.6148712257055793,-0.6095394406423735,2.0949431940628376,2.266802139634049
2.432230788361104,-0.5370960703060227,-0.5458576749800161,2.251011223267879,2.3777056835005284
2.4347177319074857,-0.4401670707878875,-0.4486577790788808,2.2682172144125374,2.353688633760072
2.437204675453867,-0.3384494589832491,-0.3418817957310174,2.146561201999475,2.1998082172016153
2.4396916190002487,-0.24152006333085393,-0.24947176760574008,1.895620026979005,1.927159409729137
2.44217856254663,-0.15416730887589192,-0.171427720647928,1.5537009500302972,1.5707137437030425
2.4446655060930116,-0.07160281394945783,-0.10774968067944801,1.1399576183583413,1.1472751754941906
2.4471524496393933,-0.01776861673074126,-0.06322607671926939,0.6831204856154383,0.6862702517123317
2.4496393931857745,0.012123664596815187,-0.0522221443037485,0.2167084085816331,0.2232412819102274
2.452126336732156,0.013285605283394453,-0.0603726989238802,-0.20660614287509027,0.21565590267094908
2.4546132802785374,-0.023859622666732777,-0.07810095926742067,-0.5868231356031579,0.5924782138706979
2.457100223824919,-0.0801584272527252,-0.12934896714056787,-0.8904237134015851,0.903333226527083
2.459587167371301,-0.14603402303955892,-0.20453994098356887,-1.0838890202626867,1.1126445666018807
2.462074110917682,-0.22627483447793958,-0.26536667919075363,-1.1672190236136384,1.2182036054077015
2.4645610544640637,-0.30651567266207247,-0.32619441655586945,-1.1404136910746647,1.225111440551531
2.467047998010445,-0.3819681552512326,-0.3965999844281498,-1.0130497970994288,1.153022597643963
2.4695349415568266,-0.43826709318823054,-0.452641390790272,-0.7994925196547396,1.0179148110780671
2.472021885103208,-0.48498931394147043,-0.48474185346143805,-0.5188954402207031,0.8599080049729074
2.4745088286495895,-0.5173464349422467,-0.5072666067378968,-0.2047773504307706,0.7529279562536372
2.4769957721959712,-0.5209732669047686,-0.5106388681896545,0.12849657116969304,0.7407270531969294
2.4794827157423525,-0.5006582337478735,-0.48049345194165927,0.45698433920244064,0.8308834519080539
2.481969659288734,-0.4659781626338635,-0.435983995236187,0.7471671614557405,0.9825866166967507
2.4844566028351154,-0.41214467068705063,-0.38668732854993326,0.9846798588066186,1.1353346396442963
2.486943546381497,-0.3391577782748014,-0.32302666895329235,1.1647340585802262,1.2553802828769158
2.4894304899278787,-0.27574792560888484,-0.2689440566336909,1.258599371307712,1.316221942353324
2.49191743347426,-0.21712672958125923,-0.2100743050908611,1.280641037210664,1.3157950815176604
2.4944043770206417,-0.16329421032627045,-0.1559942443007114,1.2308590863574729,1.2514045284598354
2.496891320567023,-0.09988517793930723,-0.11628070411378522,1.0996767419836662,1.1103095008964732
2.4993782641134046,-0.06520687896092858,-0.08614530429418688,0.9062476470545171,0.9126651896000043
2.501865207659786,-0.06404773661105612,-0.06558806780076987,0.6697254443432641,0.6759704712512375
2.5043521512061675,-0.06767735078878256,-0.05939742078705246,0.42841738971242016,0.4377781826609748
2.506839094752549,-0.09046095119718206,-0.09151540256208923,0.18711191559043883,0.22708835627024937
2.5093260382989304,-0.12282175085874808,-0.1332116157857124,-0.03503733582505575,0.18454845424973457
2.511812981845312,-0.15997136603708284,-0.17012087295283873,-0.22845352916875505,0.3266848088841375
2.5142999253916933,-0.2162750261976521,-0.21660840635434297,-0.36919461930595787,0.4795818549368131
2.516786868938075,-0.27257913748416596,-0.26309743155355925,-0.462048981215327,0.5975022223588907
2.5192738124844567,-0.31930691260122157,-0.2952227606674742,-0.5118049900668673,0.6716083164377843
2.521760756030838,-0.36603517745470804,-0.3129844156479087,-0.48015539133905527,0.6800663169167576
2.5242476995772196,-0.4031871445892098,-0.325959224961184,-0.40061898050616307,0.65521359680725
2.526734643123601,-0.4163976231487211,-0.3245704036661734,-0.2827725366318816,0.5989100391320519
2.5292215866699825,-0.4152434387983235,-0.3231831832970631,-0.16013485557241935,0.5500160501297028
2.5317085302163638,-0.40451301380220384,-0.30743237533988976,-0.003975490210656574,0.5080957077804179
2.5341954737627455,-0.3794179637031272,-0.26774119447465594,0.16176356985660867,0.49174260638274675
2.536682417309127,-0.3447467106035752,-0.2328400818175349,0.3179287381621059,0.5235871281096686
2.5391693608555084,-0.31007607984519475,-0.1979406551160685,0.47409684797037244,0.6000795776356536
2.54165630440189,-0.2754060900477686,-0.15825453199138773,0.6063259091133997,0.6844882171326279
2.5441432479482713,-0.2311599531090327,-0.1185701365787839,0.7050391411940691,0.7513813890597452
2.546630191494653,-0.18691449412636252,-0.10761790948859451,0.7415061503441631,0.7722370190268206
2.5491171350410347,-0.14266973147481754,-0.10624425800155546,0.7444573823493386,0.765414455554523
2.551604078587416,-0.12236770004911687,-0.10487239591246444,0.7091044595635463,0.72718718911477
2.5540910221337976,-0.13079682138068038,-0.10829074685050699,0.6450242141121709,0.6670014476204336
2.556577965680179,-0.1392266936765707,-0.12607613763861014,0.5617934779313387,0.5923606811395984
2.5590649092265605,-0.1476573349833926,-0.1630169916528037,0.44504706616650047,0.49643138422680083
2.561551852772942,-0.1704539732262211,-0.20474811886127853,0.31872702033664346,0.41540734545565355
2.5640387963193234,-0.20282822296624198,-0.23211592578528917,0.20198697845175317,0.368531993860607
2.566525739865705,-0.22562648872098565,-0.2546972387413886,0.08046175509092102,0.34964566330409463
2.5690126834120863,-0.24363719152662838,-0.2868572872398123,-0.04106022207385607,0.3785922954502925
2.571499626958468,-0.2712255589769507,-0.30944247742200126,-0.11948329899633414,0.4284789486246349
2.5739865705048492,-0.298814801981012,-0.30329921530279336,-0.1643842583417463,0.4564021080985578
2.576473514051231,-0.31203972804425745,-0.30194634329386494,-0.1757630763225464,0.4684368101514183
2.5789604575976126,-0.315688757869976,-0.29580707379748583,-0.1679849392998065,0.46409067711566804
2.581447401143994,-0.3049735054372737,-0.2944582323705949,-0.16499184046267956,0.45490306335391534
2.5839343446903755,-0.28947079460252323,-0.27874622452169007,-0.12368812670320573,0.42046587412090997
2.5864212882367568,-0.26918064249767665,-0.25345947223428533,-0.06801579158485183,0.37593359821337924
2.5889082317831384,-0.25367987281139387,-0.23775160732630463,0.011601994384255576,0.3478705375991744
2.59139517532952,-0.24775690582798682,-0.21246903492666291,0.10558844722809368,0.3430386208230283
2.5938821188759014,-0.21789293518511554,-0.1824001766393586,0.19478997614358207,0.34451457218479375
2.596369062422283,-0.18802999427992323,-0.16669866390287336,0.2887834100633153,0.38280488662464596
2.5988560059686643,-0.1677449064642368,-0.16057611142770467,0.3588383511714017,0.42742017205245286
2.601342949515046,-0.14746088172414334,-0.14966732715733766,0.40495482138806693,0.45621642651566646
2.603829893061427,-0.14154314656269507,-0.14354913551046478,0.4510748590495641,0.49407423036549325
2.606316836607809,-0.13562650747636512,-0.156586764099778,0.4636796624630932,0.5078511529999357
2.6088037801541906,-0.14407619079869366,-0.15526140720857207,0.442769252992969,0.49082447445028593
2.611290723700572,-0.1429501962158108,-0.15393829219703914,0.41228566842023184,0.4627215456269539
2.6137776672469535,-0.15619055653196506,-0.15740583965856558,0.3770173330600759,0.43739473903570814
2.6162646107933347,-0.1742204812240959,-0.16566406674008638,0.3178106544418213,0.39849839543410726
2.6187515543397164,-0.18746317968396004,-0.17871299046246358,0.2586076697934363,0.3660036933874415
2.621238497886098,-0.2102838778195687,-0.17739901443927808,0.20898520619813965,0.34549173073250455
2.6237254414324793,-0.22831738153165576,-0.17608736540033476,0.14500126731339513,0.3227397627897643
2.626212384978861,-0.24156370659644827,-0.17477805998859397,0.07623267985541382,0.3077528490135055
2.6286993285252422,-0.2643880786655103,-0.16868271140086,0.026621480318357982,0.3147437314392879
2.631186272071624,-0.27284849674227174,-0.1578013360284709,-0.018197521548978912,0.3157193589525568
2.633673215618005,-0.27652178298661206,-0.14213395013705155,-0.05343590289911582,0.3154706832120864
2.636160159164387,-0.2658311461913447,-0.1264689731868991,-0.059940031105913505,0.30042204778166753
2.6386471027107685,-0.2599302149852637,-0.12517163115336816,-0.032921483686189745,0.2903712761207284
2.6411340462571498,-0.2540306013096284,-0.10951152000350817,-0.0058990649009960094,0.27669318455993147
2.6436209898035314,-0.23376711037902653,-0.09385386546176688,0.025915647369661343,0.2532335497829307
2.6461079333499127,-0.20871656392348825,-0.10214069976788043,0.06252267174427217,0.2406333540620291
2.6485948768962944,-0.1980325902274781,-0.11521842515352265,0.07998001005886124,0.24267054682445025
2.651081820442676,-0.18256159092670077,-0.12829865368613946,0.12138331045321848,0.25401414739330247
2.6535687639890573,-0.17666879081272258,-0.12701619066747627,0.18194418768368514,0.28363473301198894
2.656055707535439,-0.1707773979891566,-0.13052466451647904,0.2281438364046906,0.313450502951481
2.65854265108182,-0.16967583043409978,-0.1531893002068907,0.25998227433312593,0.3461901675362878
2.661029594628202,-0.16857569939851003,-0.17106809602515938,0.25830590572519263,0.35270951339293655
2.663516538174583,-0.1674770193670852,-0.17937266341429003,0.2566335711814016,0.3550829399643677
2.666003481720965,-0.18074501469883164,-0.19246822697394483,0.25017688456093623,0.36373239105363
2.6684904252673465,-0.1988028930645097,-0.2007779945777326,0.22935905622414587,0.36392302767138246
2.6709773688137277,-0.19770865208720667,-0.2043019806155053,0.19418010299380484,0.3442875582884794
2.6734643123601094,-0.2014043225063486,-0.20304019935283968,0.15421684815538228,0.3249182357647265
2.6759512559064906,-0.2242551283339052,-0.2065694715717683,0.1286229214574206,0.3309156464927847
2.6784381994528723,-0.2375306636121433,-0.21488981128964113,0.09345632258839309,0.3336652984412202
2.680925142999254,-0.23165413557767006,-0.21842442575925336,0.07744748758324782,0.32767511597839477
2.6834120865456352,-0.22577917130199454,-0.21717332875019935,0.061442819097214496,0.31924239839481
2.685899030092017,-0.22948259112899178,-0.2207133405490045,0.04544233289047739,0.3216234505537583
2.688385973638398,-0.22839919871393366,-0.21467926471705923,0.03423444786757024,0.31531790005234644
2.69087291718478,-0.2129522009453237,-0.19907111465324157,0.013453969476154626,0.2918200779100144
2.6933598607311615,-0.1975068212261139,-0.20261932355498535,0.016619736191724854,0.2834426755797484
2.6958468042775428,-0.19642828287211062,-0.19180508133247987,0.019789746471079894,0.2752542344859289
2.6983337478239244,-0.19056298586975695,-0.18099361097597333,0.027752418518293354,0.2642785188609428
2.7008206913703057,-0.1703341367589179,-0.17018492539186392,0.0452961703631658,0.2450068775067528
2.7033076349166874,-0.14531855527348314,-0.15459063404345708,0.0628442099006552,0.22128068455870262
2.7057945784630686,-0.1298814643803854,-0.15815276619328333,0.09476176145372861,0.2255244635909684
2.7082815220094503,-0.1335996836389956,-0.16171772109857763,0.12668362925024113,0.24505150214958815
2.710768465555832,-0.12295440263856022,-0.17007391449577902,0.14424461734520833,0.25465551467264225
2.713255409102213,-0.11709924740445904,-0.16885614871787347,0.17617515950392892,0.2706701304702056
2.715742352648595,-0.125611037234114,-0.16285283925704563,0.19374484947585557,0.2825530863882627
2.718229296194976,-0.13891297805635955,-0.15685240148357948,0.19695370076051866,0.2875591270798348
2.720716239741358,-0.14742827571267675,-0.15085484732570054,0.17622492004541357,0.27485906185950254
2.7232031832877395,-0.1511569425978101,-0.14964859191035718,0.15550053708917666,0.26348347081229345
2.7256901268341207,-0.15488739433944398,-0.153233646922752,0.13478056487822876,0.2561961282755918
2.7281770703805024,-0.16819644979820497,-0.15203321728620045,0.11406501622866472,0.25380104966362665
2.7306640139268836,-0.17193050782546182,-0.14125891112322586,0.1125075170679306,0.24934337947824342
2.7331509574732653,-0.1804547904273947,-0.13527594971665913,0.11574286991173821,0.25349541592570185
2.7356379010196465,-0.18419250292123618,-0.12450753762701261,0.09504066714569781,0.2417886131930759
2.7381248445660282,-0.18793206049778077,-0.12331889589575429,0.07913134083039708,0.23830186434332795
2.74061178811241,-0.17730826497920593,-0.11255642220174833,0.06322649961584581,0.2193279719107143
2.743098731658791,-0.17147474134249996,-0.10658533734578857,0.042537751984056626,0.2063334228850235
2.745585675205173,-0.17043150119605,-0.10540565204766983,0.031430319530691975,0.20284258199237906
2.748072618751554,-0.17417855606089394,-0.11380578022760757,0.03948102036387979,0.21177505984805098
2.7505595622979357,-0.16356230408948585,-0.11263211908454718,0.0379594458624517,0.20218689645652474
2.7530465058443174,-0.1529479665891415,-0.10188467897916498,0.04601922044193962,0.18945009090661447
2.7555334493906987,-0.1614891681001877,-0.10071708343405383,0.05887195175028381,0.19921995134032283
2.7580203929370803,-0.15087869323191883,-0.09955253593078517,0.06694084394951183,0.19275934236839115
2.7605073364834616,-0.1402701663501078,-0.10317944979291438,0.07501431099736777,0.18960185991140824
2.7629942800298433,-0.1392404050926606,-0.10202102826429904,0.09266917000710784,0.19591772683521871
2.7654812235762245,-0.14300101704932594,-0.10086568443117194,0.10075181800574029,0.2019259914037125
2.767968167122606,-0.1467636097226589,-0.0997134279410874,0.09926226513752034,0.20331090017709025
2.770455110668988,-0.1457397905280493,-0.10335267164374473,0.07862371474253038,0.19520130583316853
2.772942054215369,-0.1399295701140642,-0.10699502163025176,0.07714340320083402,0.1923000881522713
2.775428997761751,-0.13412136236247946,-0.10585208387395983,0.08045613020633269,0.18885548016990586
2.777915941308132,-0.13789198438831402,-0.09992386755097904,0.07419669529064166,0.18575286877177688
2.7804028848545137,-0.1512414465789284,-0.10357559168101282,0.0823071243860003,0.2009386500403824
2.7828898284008954,-0.15501614595343577,-0.09765365192444397,0.0664802000991358,0.19489961068626716
2.7853767719472766,-0.14442768940493755,-0.08215805710599611,0.05544635136014264,0.17516735338936198
2.7878637154936583,-0.13384129702086073,-0.08581923585555096,0.05399399033696284,0.16791005039474255
2.7903506590400395,-0.14241059212208157,-0.07990677684276504,0.05254631907646079,0.17154295491930455
2.792837602586421,-0.1414051647395243,-0.06442068854290017,0.04152653946578866,0.1608412235944413
2.7953245461328025,-0.13082502473921032,-0.05372618927611539,0.03529986983437894,0.14576615286983485
2.797811489679184,-0.1202469885410577,-0.047823287285809535,0.019501108430954872,0.130869011954894
2.800298433225566,-0.11445946915799476,-0.03234678073885133,0.03243748986928274,0.12328615110026389
2.802785376771947,-0.10388566955538825,-0.026450290928930364,0.04059019880049597,0.11462728500605848
2.8052723203183287,-0.10289080921359922,-0.025345422433038056,0.0439592429604172,0.11472281421143492
2.80775926386471,-0.11147489756553919,-0.019455376392950363,0.04254462992781782,0.12089338275329133
2.8102462074110917,-0.10569592735610484,-0.02793377375764594,0.04592317376549637,0.11857850844358903
2.8127331509574733,-0.09991911780629859,-0.04120381543980178,0.0301528651379126,0.1122086439897184
2.8152200945038546,-0.10372128473048353,-0.03532349227695564,0.019175727756968186,0.11123651625159581
2.8177070380502363,-0.11231403389582167,-0.029446424875506416,0.02256857521839528,0.11828302809485809
2.8201939815966175,-0.10654376102233798,-0.042726233728144436,0.04033141432253373,0.12167056769257294
2.822680925142999,-0.1103524916267371,-0.05122090933127099,0.04373383179353674,0.12928225711325098
2.825167868689381,-0.11895183121779596,-0.05014205534933014,0.05192944740484329,0.13914176717468657
2.827654812235762,-0.1275533852182934,-0.05385488861503118,0.07449507413588208,0.1572250971661151
2.8301417557821438,-0.13615716228541652,-0.0623594158874301,0.06354668496943283,0.16268266890496683
2.832628699328525,-0.1351863643498899,-0.06129043385217603,0.05260310918113298,0.157476847452098
2.8351156428749067,-0.13421780653791915,-0.06501315900456994,0.04645275597278342,0.15620175726627006
2.837602586421288,-0.1428283038900362,-0.07352759776702333,0.02115361447281039,0.16202995843595713
2.8400895299676696,-0.14186425143929693,-0.06768014316899373,0.005436110182053255,0.15727561447891078
2.8425764735140513,-0.14569086737542958,-0.07141281801131338,0.00408865184925844,0.16230322389548033
2.8450634170604325,-0.14951975652147792,-0.07036041842113372,0.012322841432466092,0.16570636225446733
2.847550360606814,-0.1437741202948345,-0.0740997570162536,0.0014082641385826378,0.1617521402155328
2.8500373041531954,-0.13324236998857025,-0.09220764630382394,-0.00950146177144795,0.16231468501912089
2.852524247699577,-0.1322897234512173,-0.09116526879780062,0.003535685135011235,0.16069902997575541
2.855011191245959,-0.1409161884852972,-0.09491464674577976,-0.002575920341897131,0.16991997442828127
2.85749813479234,-0.13517975620679373,-0.10824418900425847,-0.0038942570652835684,0.17322106159300701
2.8599850783387217,-0.1294456442093032,-0.10721188439830565,-0.009996127287587697,0.16837602418915473
2.862472021885103,-0.13329066668132866,-0.1109713515265014,-0.03524673672820633,0.1769841098346371
2.8649589654314846,-0.1275612178048124,-0.11473419227685255,-0.04612725804958728,0.17766125942490044
2.867445908977866,-0.13141091823961376,-0.11371200842862761,-0.03306088066137036,0.1768962185111827
2.8699328525242476,-0.13526296863923581,-0.12227001493388823,-0.015201214040253319,0.18296749477797888
2.8724197960706292,-0.12954056957281052,-0.1356198133552824,0.0026633421533741597,0.18756488565612628
2.8749067396170105,-0.13339734144706794,-0.1393961985069314,0.025321194755548504,0.19459525628128213
2.877393683163392,-0.12289127470177469,-0.13838757837661575,0.03840713717743682,0.1890198281475715
2.8798806267097734,-0.11238758625514345,-0.14217076416511,0.051497979288594564,0.188402594457606
2.882367570256155,-0.11146308962113832,-0.131592147044294,0.04065170757375114,0.17718090992056335
2.8848545138025368,-0.1153293882689615,-0.12580534464180992,0.03459874489892911,0.1741405343035292
2.887341457348918,-0.10962127894348594,-0.11523355455699491,0.02855069074633576,0.1615881766563952
2.8898284008952997,-0.09912717158724105,-0.10466518424397186,0.012930741136749191,0.14473493360642592
2.892315344441681,-0.09342387937959407,-0.07973502776976638,0.01168091519254233,0.12337803561215312
2.8948022879880626,-0.0877230054556346,-0.06438510565836575,-0.003929204627427296,0.10888620741770931
2.897289231534444,-0.08202455618753013,-0.058615421726939676,-0.009957599480438617,0.1013062153542472
2.8997761750808255,-0.07632853786434768,-0.06242597968771291,-0.001615863944074647,0.09861875911187315
2.902263118627207,-0.08021176333279917,-0.047086363226403805,-0.021999625937555223,0.09557738289071412
2.9047500621735884,-0.0697322221145652,-0.036538592447816765,-0.03759006039312851,0.08723912069399689
2.90723700571997,-0.06404353353141595,-0.03557107407149207,-0.03881035898208296,0.08290427891313766
2.9097239492663514,-0.06793410686159623,-0.03939540807262043,-0.04002573011422683,0.08814249896314483
2.912210892812733,-0.06703873801964894,-0.028857984362051337,-0.04123617237486421,0.08382957454763228
2.9146978363591147,-0.07093423943935578,-0.027900822630347655,-0.032864877844579254,0.08300736367352654
2.917184779905496,-0.07483221351137725,-0.04131232918403249,-0.0292770553408932,0.09035327714618845
2.9196717234518776,-0.06915585922401996,-0.040362086984990775,-0.02568430053492854,0.08409110669247348
2.922158666998259,-0.07305879540555671,-0.03462690545544733,-0.01729820923211456,0.08267912802013272
2.9246456105446406,-0.08175262420093299,-0.028895190595487286,-0.008907184012290514,0.08716513942120047
2.927132554091022,-0.08566054435316794,-0.023166944983370463,-0.0005112242682319135,0.08873949261177909
2.9296194976374035,-0.08478256116441935,-0.02223057441648768,-0.0016871361660530937,0.08766485923634572
2.932106441183785,-0.08390708317583528,-0.02129767795073967,-0.007646516043106288,0.0869048842169843
2.9345933847301664,-0.08303411552706857,-0.03473346782273978,-0.008812557048065273,0.09043638255747118
2.937080328276548,-0.08695206659705373,-0.03380752628607686,-0.009973662421632667,0.0938247550552781
2.9395672718229293,-0.09566094136353337,-0.023308258736645993,-0.03028344549599815,0.1030115415815184
2.942054215369311,-0.09958393808289923,-0.022389280431728942,-0.05058829317085234,0.11391846210465366
2.9445411589156927,-0.10829786821222137,-0.026262189927824142,-0.04694618915502424,0.12092177452922237
2.947028102462074,-0.10743752652659305,-0.03492698900283964,-0.03372234384878148,0.11789789286332608
2.9495150460084556,-0.09221451436147843,-0.029230066054904302,-0.025281967780729886,0.09998545551910659
2.952001989554837,-0.08657085289410993,-0.02353663262609773,-0.04077867492761378,0.09854636459576531
2.9544889331012185,-0.09529494994055004,-0.02742349684031664,-0.032328432909077165,0.10429910468206091
2.9569758766476,-0.09923319663551666,-0.03610225676297629,-0.00950804931521887,0.10602359765478446
2.9594628201939814,-0.088808790674747,-0.03520770372167226,-0.015413155104502252,0.09676853338115407
2.961949763740363,-0.08317534959641604,-0.039105048869013004,-0.030890138196923544,0.09696156076177279
2.9644367072867444,-0.08712128089848281,-0.04779429330016027,-0.03199698331724221,0.10439453529212134
2.966923650833126,-0.07670457207793169,-0.056487034693792904,-0.023522095236574003,0.09812066770296071
2.9694105943795073,-0.07586724375593856,-0.06518327395307688,-0.024619088810915457,0.10300872493262216
2.971897537925889,-0.07503249323273237,-0.054729398604462354,-0.04965317569932992,0.1053120124646504
2.9743844814722706,-0.06941192105027016,-0.05864423260270302,-0.050740324519638946,0.10407565197397106
2.976871425018652,-0.07337074095334639,-0.0577741632843467,-0.042245747175989834,0.10249791571396498
2.9793583685650336,-0.06775534336634093,-0.056907594493082136,-0.06247667229578191,0.10831710597516143
2.981845312111415,-0.05735413523713989,-0.056044526658219684,-0.07312587550255856,0.10852593913511978
2.9843322556577965,-0.056532330076382864,-0.04560815347473213,-0.06940495578262684,0.10046420205440448
2.986819199204178,-0.050924721395142425,-0.04475208846611212,-0.07525593216417725,0.10128934789577258
2.9893061427505594,-0.04053131258792886,-0.03432271850036006,-0.09067880719327626,0.10508797447544
2.991793086296941,-0.03971731693285835,-0.014320043634076463,-0.09651997025362213,0.1053500525476237
2.9942800298433223,-0.043694334349669295,-0.018262887073777545,-0.08320261748784219,0.09573611364244124
2.996766973389704,-0.03809715804052721,-0.012632425449687013,-0.08424557503909824,0.09331821117646405
2.9992539169360852,-0.03250259773067615,-0.002217061862640257,-0.08528363596457922,0.09129421003483078
3.001740860482467,9.640875647275859,1.8613068856373203,0.03339327960872218,9.818964389378374
3.0042278040288486,7.8077180916289715,1.1773967660851583,0.1712286987035423,7.897850606994148
3.00671474757523,5.964981104540023,0.5557323895424631,0.2851269880708376,5.99759413978909
3.0092016911216115,4.150971909790259,0.005890563231552459,0.3655113375889023,4.167037440737604
3.0116886346679927,2.418362941197653,-0.4625519055355358,0.43153535694359313,2.4997312545482067
3.0141755782143744,0.8150382293354493,-0.8352298060371066,0.4688338324648562,1.2576570703632737
3.016662521760756,-0.6350602117492827,-1.112143137423431,0.4965603736116737,1.3735851030447446
3.0191494653071373,-1.907990367934294,-1.3172339153577428,0.5051381698085837,2.372908974759946
3.021636408853519,-2.9798102250223546,-1.4457137354931766,0.4849904103681322,3.3473232410824116
3.0241233523999003,-3.8457313820227106,-1.5263130166372056,0.4504823010930181,4.161996587099578
3.026610295946282,-4.510542244510665,-1.530301337666082,0.4159790476751155,4.781197767472352
3.029097239492663,-4.979031217987162,-1.4911975205330255,0.35753862913355405,5.209823009110507
3.031584183039045,-5.270351917839929,-1.3994247572217304,0.2847378476199829,5.460409749356854
3.0340711265854265,-5.389292749421822,-1.2693482562311196,0.2263071184582337,5.541383964898342
3.036558070131808,-5.3454305213322755,-1.110544822653853,0.16788122698083185,5.462153546714566
3.0390450136781895,-5.167495655378414,-0.9517448747782453,0.10946016837330497,5.255550511933241
3.0415319572245707,-4.865064960013028,-0.783371604245048,0.05104393771389937,4.927994888294971
3.0440189007709524,-4.466868856896748,-0.6102134125709768,-0.016944276666572833,4.5083882820923185
3.046505844317334,-3.996849364297159,-0.43705870118843126,-0.08971607658247116,4.021675536833432
3.0489927878637153,-3.469371693768993,-0.2926378880474525,-0.13854104735213113,3.4844469438991075
3.051479731410097,-2.913166266754556,-0.15300895449075114,-0.18736121092239522,2.923192375001915
3.0539666749564782,-2.3378098913436487,-0.027748705020240294,-0.23617657274283665,2.3498732842872734
3.05645361850286,-1.7720329888348763,0.06877765262483448,-0.2562567184450142,1.791786478564858
3.0589405620492416,-1.2206239638535321,0.14135852406891924,-0.2667552669667881,1.2574034618669436
3.061427505595623,-0.6787944143131504,0.19957071833879736,-0.27724903070800266,0.7599061478561174
3.0639144491420045,-0.18006316461789373,0.23862583458204867,-0.2829496122096149,0.4116133078895305
3.0664013926883857,0.2659929775003125,0.2537354720274858,-0.25512659751241173,0.4474634449904851
3.0688883362347674,0.6545856077007831,0.2544764399457473,-0.24166402588303626,0.7427261121722205
3.0713752797811487,1.004868338314993,0.2600023543285799,-0.23298509684462942,1.063787411542382
3.0738622233275303,1.2785339419010304,0.2511596046853142,-0.20514780005902544,1.3190207759879025
3.076349166873912,1.4851592242902363,0.22794819388621423,-0.18209415849026378,1.5135443776601467
