Time (s),Acceleration x (m/s^2),Acceleration y (m/s^2),Acceleration z (m/s^2),Absolute acceleration (m/s^2)
0.0,0.4752556000304242,-0.21746485641397872,5.831967354597944,5.8553396207420425
0.002486943546381497,0.2410603159395297,0.3546343029031187,1.4450309099317094,1.5073121426481348
0.004973887092762994,0.10742167680114134,0.9219451110760915,-2.0177404962547083,2.220990525578637
0.007460830639144491,0.07912812532645819,1.4509487683207296,-4.3648104197548125,4.6003351604974725
0.009947774185525988,0.15139129758068237,1.922491684814153,-5.476468466244997,5.806083057013441
0.012434717731907486,0.30984602298214825,2.293478254131813,-5.300041887971229,5.783294136941592
0.014921661278288981,0.5640691475436446,2.544754886450095,-3.9408752468418182,4.724875569419031
0.01740860482467048,0.8805418873871826,2.690686815186421,-1.561773944707653,3.2333090491366785
0.019895548371051976,1.197015038704074,2.7025436438737245,1.616995776630966,3.36916347059153
0.022382491917433474,1.5087002375196947,2.5707485893239914,5.3081300287769135,6.087788524464895
0.02486943546381497,1.8060207165285622,2.324032094908989,9.22432492321381,9.682510330266675
0.02735637901019647,2.065034498452852,2.0007014106378636,13.059122958017959,13.371905849465156
0.029843322556577963,2.2522227993618538,1.6151217699144345,16.539585454375022,16.770182255187052
0.032330266102959464,2.3580088519132962,1.186446809458544,19.407138943291987,19.58583426207871
0.03481720964934096,2.3776042920712417,0.7481953759461668,21.484612812074737,21.628716701992023
0.03730415319572246,2.3253743690661675,0.33867471936824867,22.671450901000988,22.792910136232003
0.03979109674210395,2.196530718831612,-0.02774992689167477,22.886250663469788,22.99143289767701
0.04227804028848545,2.005438590565819,-0.312771312854887,22.17210803904165,22.26481494936823
0.04476498383486695,1.7616748301293212,-0.502024205151135,20.61042619366611,20.691669685992643
0.04725192738124844,1.5083351066065867,-0.6002969836988319,18.335280729636047,18.40700819516911
0.04973887092762994,1.2454194591801677,-0.6028012217837102,15.586092122104278,15.647386573514746
0.05222581447401144,1.00165834693454,-0.5095368960202766,12.583127232748796,12.633211715471802
0.05471275802039294,0.7962054222927475,-0.33008078967264276,9.556229729687884,9.595020742487733
0.05719970156677443,0.6434259343358693,-0.07879808933473575,6.696936054270333,6.728235919380703
0.059686645113155926,0.543319922161547,0.19642719514731044,4.239878277514043,4.279059241112059
0.062173588659537427,0.5102526348050114,0.5051718937605711,2.3574392270524567,2.4643611956888103
0.06466053220591893,0.5442241113163613,0.8330708198794965,1.1310220672060507,1.506452053926652
0.06714747575230041,0.6356575840800314,1.1274515603044597,0.6180879454600252,1.4343082978754664
0.06963441929868192,0.7749762854545763,1.3835257350268668,0.8330023791764168,1.7912634273640982
0.07212136284506342,0.9478150444515148,1.5821397540645654,1.7135164323452787,2.5174705805227204
0.07460830639144492,1.1302318834141758,1.70892843074259,3.1590739421405516,3.765316542284026
0.0770952499378264,1.3222268412590474,1.783045401614514,5.049965132194693,5.51631059317246
0.0795821934842079,1.49985794027182,1.7709718666963128,7.213807789349934,7.577924387014694
0.0820691370305894,1.6487600093487287,1.687073059192409,9.48300810349538,9.772004286042831
0.0845560805769709,1.7641446839957242,1.545714212292034,11.670818650958905,11.904177706827221
0.0870430241233524,1.8364351963666976,1.3612605591687164,13.619222427703727,13.80973367142433
0.0895299676697339,1.860843181903278,1.1432889296594553,15.184567639360896,15.340825965985141
0.0920169112161154,1.8373686793339987,0.9061645569048222,16.275874927785292,16.40430317120779
0.09450385476249688,1.7660117273531635,0.6690410773484863,16.826106951127127,16.931753852306535
0.09699079830887838,1.6563491712606306,0.4510721274163312,16.81611040042719,16.903506371182964
0.09947774185525989,1.5083810496797483,0.2570461335550531,16.288981209571133,16.36069054018106
0.10196468540164137,1.3508378211190264,0.09653992551288959,15.278238505478367,15.338143779690732
0.10445162894802287,1.1980847340885021,-0.001716053699959641,13.889227464540879,13.940805196854766
0.10693857249440437,1.059698633739547,-0.05208699097589009,12.251235279413692,12.297090717748205
0.10942551604078588,0.9308911552234226,-0.049784459946345505,10.483972335766229,10.525336705893876
0.11191245958716736,0.8212391436123396,0.0004031590958042397,8.731091035518094,8.76962853056176
0.11439940313354886,0.7498962505783294,0.0984758891567008,7.102724956988874,7.142880630530602
0.11688634667993036,0.7264393211111826,0.24443375322066951,5.72337288809496,5.774466136635529
0.11937329022631185,0.7460799901973223,0.4047579510075381,4.679226389819674,4.755588707811213
0.12186023377269335,0.7944530861393121,0.5794485054565075,4.042111812808484,4.159998099013742
0.12434717731907485,0.8715586471566086,0.7541402295225204,3.826394667479891,3.9962029618797246
0.12683412086545634,0.9630315014628792,0.9240447427773271,4.008133237300319,4.22450238577466
0.12932106441183785,1.0736600905073934,1.0747968581277396,4.5777510153013,4.823249800112128
0.13180800795821934,1.1986560490523352,1.1776661784948133,5.468210654268427,5.720577043564318
0.13429495150460083,1.2997121885704548,1.247017936657103,6.578955983336702,6.8210679030592365
0.13678189505098234,1.3959821603302034,1.2972173653673578,7.842949654468704,8.071146038048227
0.13926883859736383,1.4587355823480606,1.2803804541879549,9.140481882682572,9.344286631644131
0.14175578214374532,1.5071261057939978,1.2443912590607262,10.347054479249131,10.53002730770163
0.14424272569012683,1.5363653651859956,1.1748845927361493,11.419572111451151,11.582201843787077
0.14672966923650832,1.5129345750689474,1.067072074577545,12.276632219569427,12.415446528230566
0.14921661278288983,1.4703525964201214,0.9448957438418375,12.822467033478189,12.941036494391195
0.15170355632927132,1.4181962735624405,0.8179324297962471,13.042711639045192,13.145060708469313
0.1541904998756528,1.3325236275230785,0.6861821550381231,12.956519944922485,13.042924298291936
0.15667744342203432,1.2372767124779864,0.5592217487756932,12.578257455977793,12.651329703094651
0.1591643869684158,1.1324555659464421,0.45620484682759943,11.936654886569734,11.998929466922505
0.1616513305147973,1.0372138386730718,0.36755466505989065,11.098750177143236,11.153168360317135
0.1641382740611788,0.9563399713849035,0.30284803258867954,10.141158074301714,10.190652096882033
0.1666252176075603,0.8898340014312187,0.26687337517809095,9.111762904238487,9.15899826244872
0.1691121611539418,0.8472727727437243,0.2548423119194707,8.096756219215198,8.144954083896195
0.1715991047003233,0.8238679192342261,0.2715432685121568,7.167964361032353,7.220263650037133
0.1740860482467048,0.8291962847157416,0.33134147726300145,6.392425267664024,6.454491029958185
0.1765729917930863,0.8488926963392418,0.41508334720308904,5.827600069931568,5.903713710037932
0.1790599353394678,0.8733803845147627,0.5036152873294244,5.478277461614977,5.570273386479849
0.18154687888584928,0.9313898061528558,0.5921489165654445,5.387553362532778,5.499441657526091
0.1840338224322308,0.9989789815778743,0.6902610637604871,5.541062852130042,5.672547652777687
0.18652076597861228,1.0617827376913094,0.7835865411268648,5.895710589394353,6.041588682076191
0.18900770952499377,1.1245895146116562,0.86254856416125,6.4275548460531,6.581956616457739
0.19149465307137528,1.192187752392425,0.9223587516442113,7.069558263403655,7.228465351881274
0.19398159661775677,1.2358470677792102,0.97259393228037,7.78341390211218,7.940704559649617
0.19646854016413826,1.265144304013644,0.9845237081745051,8.49729599904393,8.647191239778603
0.19895548371051977,1.280079497629535,0.9773017145967022,9.148955597140223,9.289623818005149
0.20144242725690126,1.2806526850927606,0.950927973497528,9.70487415869399,9.83508605690371
0.20392937080328274,1.2524986928396007,0.9054025067888103,10.141109952062903,10.258197587037094
0.20641631434966426,1.2147711704791329,0.8407253363431897,10.41935603506205,10.523567278883172
0.20890325789604575,1.167470154269075,0.7616848873139632,10.530035884841153,10.62190219144923
0.21139020144242726,1.0962304704353762,0.6826463914549501,10.453996171316431,10.533459227147368
0.21387714498880875,1.034570978335558,0.5940330638778428,10.191237177086876,10.260824898117693
0.21636408853519024,0.9824917140126882,0.5149985395752015,9.789643217350553,9.852290484292771
0.21885103208157175,0.9352043101165427,0.4551196468574925,9.268368186774032,9.32654222315115
0.22133797562795324,0.8927088025435246,0.4048196007120257,8.680084802650965,8.735255010385877
0.22382491917433472,0.8597936304359534,0.3640984227243702,8.087042588294963,8.140765969690143
0.22631186272071624,0.8460356361813659,0.34253294107791454,7.498818629870093,7.554163484933264
0.22879880626709773,0.8418580488102511,0.3401231772721742,6.963297239471361,7.022244455677529
0.2312857498134792,0.8520493072375384,0.35686915276297104,6.53315113187707,6.598136655610005
0.23377269335986073,0.8766094469806547,0.3879824856416807,6.217957391340303,6.291420241266985
0.23625963690624222,0.9059616968385189,0.4334631972754177,6.0177162948257426,6.1009479873657355
0.2387465804526237,0.9353176888517957,0.4933113089862837,5.961158538566788,6.05422054013401
0.24123352399900522,0.979042668263147,0.5483732287696883,6.0482843982165,6.151502410470164
0.2437204675453867,1.013194653672797,0.5986489778564066,6.255152132162585,6.364893730567525
0.24620741109176822,1.0473504868425465,0.658503787391842,6.56260840144402,6.678203299616024
0.2486943546381497,1.0767217994919656,0.7039956619121481,6.922769446503572,7.041283727768375
0.2511812981845312,1.0965202232586637,0.7351246225078762,7.321270330346683,7.439338953203248
0.2536682417309127,1.097168986377304,0.7423138835813496,7.729380905333096,7.842074908221274
0.2561551852772942,1.0930333336008136,0.7495054827290568,8.09921740985139,8.206936272997572
0.2586421288236757,1.093690106277847,0.7375458276162268,8.402049694876327,8.504973308104825
0.26112907237005717,1.0704089191099362,0.7208001491014084,8.633089627284036,8.729007081093126
0.2636160159164387,1.0184014033149036,0.6944800647126153,8.768395459964099,8.854614781054906
0.2661029594628202,0.980763223227759,0.6490087886078424,8.80317905837701,8.881388992808155
0.26858990300920166,0.9431292032531854,0.6035399548168408,8.723075480627209,8.79464604244019
0.2710768465555832,0.9054993776695776,0.5676503906782038,8.54723860734092,8.613793815724653
0.2735637901019647,0.8726621839877687,0.5317633101983255,8.29961072173925,8.36228734485036
0.27605073364834615,0.8446176563097726,0.5006671372931846,7.984980493031687,8.045120262731448
0.27853767719472766,0.8309426352890817,0.45999668254574444,7.622501799653349,7.681444935480094
0.2810246207411092,0.8268487515284698,0.4241171764086744,7.245693729260069,7.30504153687491
0.28351156428749064,0.8131824255793647,0.41218225260237795,6.892863772082865,6.952893703137129
0.28599850783387215,0.8138857077849693,0.4098267215520983,6.578377401001267,6.641190941167027
0.28848545138025367,0.8337470351155751,0.41705060359063695,6.321388491460314,6.389758820525719
0.2909723949266352,0.8344592145663848,0.4242771123563951,6.150627724786082,6.221459206468483
0.29345933847301664,0.8591179094850155,0.4267178647539158,6.032576538376237,6.108367327679751
0.29594628201939815,0.8933579432818276,0.45789170419567493,6.0055424186640245,6.0888663123744875
0.29843322556577967,0.9132373326324397,0.48906823087512885,6.06952562474638,6.157299040132602
0.30092016911216113,0.928332917359936,0.5154590615319494,6.171853978418287,6.262529966434257
0.30340711265854264,0.9530099405123857,0.5466410228110066,6.322104543855645,6.416856724127124
0.30589405620492416,0.9585380151591221,0.5826141346604241,6.515489174485598,6.611341281408056
0.3083809997513056,0.9544939808354562,0.6185900136515046,6.737642916302283,6.832974786433711
0.31086794329768713,0.9552430802999005,0.6354150663377278,6.950258797901302,7.044312529040309
0.31335488684406865,0.9512085396117027,0.6283009091762373,7.134183460357953,7.224689153475524
0.3158418303904501,0.9328135847318284,0.6259779818087217,7.298993963863403,7.384937542192483
0.3183287739368316,0.914423458123937,0.6284463038969714,7.411171737915462,7.493769515172319
0.32081571748321314,0.8912497888709948,0.6117638784428165,7.480293841079757,7.558000871793131
0.3233026610295946,0.8728694159168882,0.5902959349518233,7.482418507860312,7.556251520088137
0.3257896045759761,0.8544939681439738,0.5688308962297892,7.422334391859197,7.492981806642523
0.3282765481223576,0.8265466710131412,0.5473687817026955,7.304830145850282,7.3717932311119965
0.3307634916687391,0.8081811698054361,0.5259096107366519,7.125117615134267,7.190065281441461
0.3332504352151206,0.7946090930980626,0.509241805957847,6.916715870737486,6.980808639712246
0.3357373787615021,0.7858304726857025,0.4830001766506258,6.689201966243561,6.7524989187442825
0.3382243223078836,0.777056936939336,0.4615499519602513,6.480883374312576,6.543599556271855
0.3407112658542651,0.7730769207666316,0.45925636097067724,6.258241516950299,6.32251146420427
0.3431982094006466,0.7738904556504652,0.45217740614169255,6.045218655152405,6.111304233351058
0.34568515294702806,0.7842859762890039,0.4403131064726322,5.894487468978448,5.962714369000005
0.3481720964934096,0.799475110634227,0.4476054975020256,5.782106184500835,5.854251708182733
0.3506590400397911,0.8146694865320219,0.464477791463497,5.717651850167902,5.794045967264808
0.3531459835861726,0.8250807317216466,0.4717763938869819,5.705913110237345,5.7845289869846575
0.35563292713255407,0.8259204738352081,0.4886549368015056,5.737313398131521,5.817017560979175
0.3581198706789356,0.8459191636393237,0.5055366322504753,5.787910936433455,5.871205968627349
0.3606068142253171,0.8515580086283545,0.5032678855725852,5.862494366765644,5.945356995762887
0.36309375777169856,0.8332602327895127,0.5153675385655396,5.970640733184517,6.050493953398986
0.36558070131808007,0.8436983031648438,0.5274703997591588,6.093196658934353,6.173904548487455
0.3680676448644616,0.8445650236007283,0.5347880842588002,6.211008766365234,6.290939378981543
0.37055458841084304,0.8214952144348746,0.5421090137450206,6.328865693530718,6.404941649763334
0.37304153195722456,0.8080077290973746,0.5446448031920026,6.413248851019979,6.4868540354346065
0.3755284755036061,0.7945257910242767,0.5423954708281631,6.430639648516445,6.502198887180349
0.37801541904998753,0.7810494301805241,0.5449378414561403,6.443287561200309,6.513290263741884
0.38050236259636905,0.7723670797391567,0.5426951265306021,6.422462400252554,6.491463023763029
0.38298930614275056,0.7541135594792621,0.5308789407594863,6.363375992538758,6.429857986981597
0.385476249689132,0.740654108988618,0.5190661087443096,6.309124197206959,6.373621126972566
0.38796319323551354,0.7224119511397782,0.5024682450579827,6.2118232093949235,6.273842598377702
0.39045013678189505,0.7233291319333474,0.49066217416637015,6.071473256515591,6.134064061195086
0.3929370803282765,0.7290404706928224,0.4788595105061,5.926381791612846,5.9902260039726745
0.395424023874658,0.7156039799860013,0.48142548172645006,5.7621838302720025,5.826372975057079
0.39791096742103954,0.7165385121088949,0.4744180888452889,5.583668000420962,5.649411323428652
0.400397910967421,0.722267289358705,0.45304894609252777,5.4530837688892095,5.519333834382195
0.4028848545138025,0.7184251305958709,0.43168328090981367,5.360854551755877,5.425978865455566
0.40537179806018403,0.7241656778061158,0.4151095140283596,5.283038554190073,5.3485725387815375
0.4078587416065655,0.7299121529359367,0.41290446942958514,5.253154820252146,5.319670799722183
0.410345685152947,0.7356645844546628,0.4011261477823207,5.261626763163737,5.327928374339922
0.4128326286993285,0.7414230007133884,0.3989281795675179,5.279724181905973,5.346432380143098
0.41531957224571003,0.7423990266242262,0.3967337752732729,5.302658891098986,5.369054415679385
0.4178065157920915,0.729015883659875,0.3945429519570385,5.335219511037648,5.399231012887314
0.420293459338473,0.7300040197360018,0.3923557266047166,5.391771467688335,5.455093807150181
0.4227804028848545,0.7309982527655066,0.4045373260913139,5.457949766123177,5.52152375194306
0.425267346431236,0.7224218038612262,0.41672255729784524,5.505024200477789,5.56784001209635
0.4277542899776175,0.7138515072964529,0.42891143699387646,5.552148597112197,5.614258903868658
0.430241233523999,0.7196526005435857,0.43152717523567885,5.580169554842041,5.642907745942871
0.43272817707038047,0.7158830943909078,0.42935819196752156,5.579510478138606,5.641610961197414
0.435215120616762,0.6929662094656206,0.43198131038077836,5.569325190406995,5.628871387452493
0.4377020641631435,0.6796323928350008,0.43939654695272035,5.535248690819016,5.594099354147926
0.44018900770952496,0.6758816715216325,0.437238708125939,5.477281187513301,5.5361180378374915
0.4426759512559065,0.6529836525030135,0.43508461687058153,5.4097880975922985,5.466396759760939
0.445162894802288,0.6492455891174109,0.42335748280127783,5.356711643799033,5.412495822450525
0.44764983834866945,0.645513894735354,0.4020573220987571,5.289321611350103,5.343712322612894
0.45013678189505096,0.6322117892436269,0.409491377431467,5.193252994417174,5.247594839416653
0.4526237254414325,0.6284929123261384,0.40735243826782064,5.082871206085053,5.137754280564169
0.45511066898781394,0.6247804836197999,0.3860637139228178,4.977330061747281,5.03122354775588
0.45759761253419545,0.6162861259563422,0.38393244683904504,4.881418165822111,4.935124722071388
0.46008455608057697,0.6221634786431971,0.38180503953955647,4.814289331671591,4.869316610308073
0.4625714996269584,0.6328357609396993,0.3796815077526272,4.775943758356657,4.832626400896241
0.46505844317333994,0.6243609820176649,0.382350270450575,4.747228030634412,4.803352198207079
0.46754538671972146,0.615892780804785,0.3658693266073354,4.747295958799216,4.8010418871356375
0.4700323302661029,0.617007989460838,0.36375751496384545,4.756994125555029,4.8106144617206885
0.47251927381248443,0.6229182300570312,0.37122644762156654,4.776322725856562,4.831055265496864
0.47500621735886595,0.6240467212162807,0.3786993332844335,4.800493550305112,4.855675629797757
0.4774931609052474,0.6251818913941243,0.37659938057893694,4.824718388466354,4.879609310055975
0.4799801044516289,0.6311121689174473,0.3745034113351462,4.84899743218811,4.904215683697469
0.48246704799801043,0.6178955620622765,0.3771998439849229,4.85896566231662,4.912598289651871
0.48495399154439195,0.6094741121784527,0.37990029024138705,4.849834865295646,4.90272180982956
0.4874409350907734,0.601059440564307,0.37781636173932,4.850335649765601,4.902017295938123
0.4899278786371549,0.5830747650679033,0.3757364766755722,4.836526186795539,4.886014698823834
0.49241482218353644,0.5650969166882847,0.36887224652759754,4.81319506632609,4.860272420967237
0.4949017657299179,0.556702726293912,0.36201208933449047,4.785130877245261,4.830988324417002
0.4973887092762994,0.5531038146614177,0.3647328263764642,4.737968594104879,4.784067334721966
0.4998756528226809,0.5543002057565506,0.3626692622527683,4.671708400360511,4.7184358732405896
0.5023625963690624,0.5459267134526272,0.3653982180846058,4.591138881728594,4.637899100407498
0.5048495399154439,0.5423485714130457,0.36334290163211946,4.510625429504523,4.557620190666734
0.5073364834618254,0.5387773998878699,0.34692652057543905,4.444533433919873,4.490491792948752
0.5098234270082069,0.5447900289557267,0.3257258957957334,4.388074670858981,4.433744788762167
0.5123103705545884,0.5460212719610219,0.32368305805470277,4.3316725118177875,4.377932925610373
0.5147973141009698,0.5376827487558457,0.32643281147094694,4.289692343823599,4.335564729464118
0.5172842576473514,0.5389280956606334,0.31960996008227616,4.252557536229921,4.298469450609378
0.5197712011937329,0.5449689322607667,0.3127913244470868,4.220268263956624,4.2667896326791475
0.5222581447401143,0.5414400713672409,0.3059769184019854,4.211978314128557,4.257644952807382
0.5247450882864959,0.537918342258588,0.31353196566316655,4.198957439589226,4.244867726550799
0.5272320318328774,0.5439805740790518,0.3115144633027964,4.171629005383228,4.218464730725725
0.5297189753792588,0.5500499825570802,0.3190780381941436,4.158723602035602,4.207059278866515
0.5322059189256404,0.5513381866066343,0.336222703847342,4.150664592424941,4.20059948833535
0.5346928624720219,0.552633611647251,0.32942965044827854,4.157028951625335,4.206520831752529
0.5371798060184033,0.5443594730022345,0.32742931126467045,4.168240040342023,4.2163683690627645
0.5396667495647849,0.5313041958202875,0.33979850620058505,4.179509621511195,4.226824795235431
0.5421536931111663,0.5230446084346483,0.35696044179627284,4.1812610536576145,4.22894081517511
0.5446406366575478,0.5243691357222313,0.3693383245092505,4.159129290892903,4.208293032431639
0.5471275802039294,0.5209125891424582,0.3721437640344578,4.127479706156038,4.176832487826962
0.5496145237503108,0.522251796619843,0.3701651766244036,4.091100864649184,4.140878588149057
0.5521014672966923,0.5140215693406447,0.3729793817686988,4.054781330476702,4.104215324633247
0.5545884108430739,0.5105871382760847,0.371009585592339,4.028098069963858,4.077244338964849
0.5570753543894553,0.5119485242993185,0.36425580077742836,3.9918976284130743,4.041041976478613
0.5595622979358368,0.5037405381852247,0.36229484656303024,3.960545373266453,4.008856662361424
0.5620492414822184,0.500328410493009,0.36033833214345456,3.929253057580838,3.9773360208142776
0.5645361850285998,0.506500565003501,0.3488094633087395,3.8884440299872676,3.9367763256738653
0.5670231285749813,0.49831500543770324,0.34686186568669575,3.8476952512911,3.8953035498302455
0.5695100721213628,0.4949253652612817,0.3497071482193288,3.8022184712283877,3.8502092812787523
0.5719970156677443,0.5011200678406229,0.35255691976426506,3.747225438425457,3.7969877785488215
0.5744839592141259,0.49774551980201953,0.34583438577430226,3.6827163037178483,3.7322582170230563
0.5769709027605073,0.49437854755492316,0.3391163648988411,3.6422100400708697,3.6912198570686314
0.5794578463068888,0.4910191707292624,0.3228260624212549,3.625706796093934,3.673018685474361
0.5819447898532704,0.497244215456516,0.31611710346188415,3.5805342827580127,3.6286922689739805
0.5844317333996518,0.4891116844867269,0.31898949977478797,3.564153486285063,3.611671997104109
0.5869186769460333,0.4905636136336424,0.3075012464273068,3.57177614861555,3.6183966796627725
0.5894056204924149,0.48244640868861155,0.2912291616436944,3.56509518732915,3.609359036804969
0.5918925640387963,0.4695484919047981,0.2845384668831219,3.553687552088915,3.5958494327846893
0.5943795075851778,0.46144668871576766,0.26827556027706123,3.5567069980776598,3.596535762778304
0.5968664511315593,0.45335261445408714,0.27117087307448795,3.5406348428328087,3.5798264379321583
0.5993533946779408,0.44526628763242204,0.26928239991520275,3.515048032651589,3.5533558433759285
0.6018403382243223,0.4467645332636999,0.26261015195472526,3.4943119160275007,3.532531444528668
0.6043272817707038,0.44827056293909295,0.26073094690324883,3.492791840329005,3.531079433280944
0.6068142253170853,0.44020758810912797,0.25885639242397396,3.4865459252360553,3.52374684693832
0.6093011688634667,0.4321524333647977,0.2426212894533184,3.4659974992625964,3.501251130760785
0.6117881124098483,0.4336819231561807,0.2407560687242576,3.445511906396269,3.481033724659739
0.6142750559562298,0.4304308651907486,0.24368393432091073,3.415512472894407,3.4511415563625087
0.6167619995026112,0.412822470355115,0.2370396869206366,3.380787733845689,3.414137651959423
0.6192489430489928,0.41916398259772647,0.2399769503564424,3.3078189966458753,3.342896034216573
0.6217358865953743,0.4303018058818697,0.24770733177314286,3.258855633965756,3.2964615285772285
0.6242228301417557,0.42229394070899406,0.24107722826789812,3.233897774180088,3.270251552433817
0.6267097736881373,0.41908242064203793,0.23924026341356663,3.204215124609025,3.240348830558619
0.6291967172345188,0.4206672625006346,0.2517732540554971,3.1650194080408554,3.202764207754414
0.6316836607809002,0.42704848296257003,0.24515738706926138,3.145041169371958,3.183356170503042
0.6341706043272818,0.4238608886027464,0.2433346890871375,3.139492129121768,3.1773071385400837
0.6366575478736632,0.42068130245558566,0.2367283634120998,3.1244303933931015,3.1614993846967723
0.6391444914200447,0.4175097407727494,0.2301268232208673,3.1046444870746797,3.14103329010201
0.6416314349664263,0.4095578163433622,0.22831848160289692,3.084922933918696,3.120355178851749
0.6441183785128077,0.4064023517751767,0.212149734958754,3.0556890465793325,3.0898876890522047
0.6466053220591892,0.4032549595726169,0.20077420616410713,3.045673363135702,3.078806762236805
0.6490922656055708,0.38575044545701154,0.20376871136653918,3.0309339840054186,3.0621701306918307
0.6515792091519522,0.3921960515305821,0.22113325998548428,2.9923174117879014,3.026000851684783
0.6540661526983337,0.3938613732685602,0.21934903811060824,2.95855418114677,2.9927050681037852
0.6565530962447153,0.38116961928474413,0.21278126494706306,2.944009615645381,2.9761987101654714
0.6590400397910967,0.3780628212923729,0.22058356293262182,2.9151650045042805,2.9478425345608334
0.6615269833374782,0.3701757842993776,0.2236023278548136,2.8720204590461753,2.90439832486585
0.6640139268838597,0.36708532977238706,0.22662597201493595,2.824152896094068,2.8569127657389766
0.6665008704302412,0.3735798757147998,0.2488081175873842,2.7955044412912766,2.8313093232982713
0.6689878139766227,0.37050582338548355,0.26141835345554076,2.771709992577742,2.8085566406325633
0.6714747575230042,0.3626515905018546,0.2596682850164216,2.7527696567132436,2.788670754545621
0.6739617010693857,0.35480559463827177,0.2674999375009488,2.7434719426365692,2.7792231876162266
0.6764486446157671,0.34696784990568463,0.27054810948953767,2.724663341543468,2.7599589296160465
0.6789355881621487,0.34392677359222346,0.2640244061151842,2.7011323600896375,2.735710244039278
0.6814225317085302,0.3361055728819161,0.25750564238374496,2.677667503789044,2.710936991674575
0.6839094752549116,0.33308106809684634,0.2557802298926548,2.6446920670528904,2.6778279730895647
0.6863964188012932,0.3300648694549405,0.258848176830897,2.616571359752056,2.6499794107448666
0.6888833623476747,0.3270569903511962,0.2571326846586657,2.5980938839748697,2.6311927566039284
0.6913703058940561,0.31448063739672627,0.2554221647089028,2.5844713340271035,2.616033377067248
0.6938572494404377,0.3067010336609305,0.25850502822634036,2.5709154030726244,2.6020177523266557
0.6963441929868192,0.2989297887886718,0.24722766976591748,2.5574261864537347,2.5866791912570872
0.6988311365332006,0.295955318922143,0.2311669037161974,2.544003778370957,2.571572070259309
0.7013180800795822,0.30256604006023613,0.22468794769779432,2.5354366752034228,2.5632928073875925
0.7038050236259636,0.29960835145697884,0.2182140026414805,2.5269365655480813,2.553975513100217
0.7062919671723452,0.28708226550434834,0.21653347935068012,2.484984716938592,2.5108667862443825
0.7087789107187267,0.2889298110525881,0.2100695785795832,2.447888445572067,2.4738163847635737
0.7112658542651081,0.29078579024615603,0.21318751759564014,2.4204362432623983,2.447144642469232
0.7137527978114897,0.2878618117268589,0.21152209365611796,2.3930513907217534,2.4195662787761476
0.7162397413578712,0.2801578873135576,0.2146501205315383,2.3753107808030016,2.4013880197642288
0.7187266849042526,0.27725083532249617,0.2129947986228622,2.3672144985781323,2.392893497881996
0.7212136284506342,0.28871747392669955,0.20655613488336977,2.344820611377626,2.371541042476372
0.7237005719970157,0.28582739459349815,0.20969934613897756,2.3081292019939195,2.3351941093554323
0.7261875155433971,0.29252262517049477,0.20805922920543152,2.285870772002082,2.313884896745642
0.7286744590897787,0.2800727568387201,0.2064241940914444,2.2588917886352036,2.285529218757243
0.7311614026361601,0.2724198171595449,0.20479424739714425,2.2224039279488705,2.248384410973971
0.7336483461825416,0.27435222027002826,0.2031693956343994,2.2051376881028624,2.2314074409621334
0.7361352897289232,-1.2655726989373601,-0.042658924109089114,-4.5684975520447715,4.7407450810121405
0.7386222332753046,-1.4551593244630912,0.2669726489942241,-7.286287019264725,7.434967490311474
0.7411091768216861,-1.4962968793177995,0.5574557227540748,-9.237863719785247,9.374848656869718
0.7435961203680677,-1.3889853532565137,0.790483076766967,-10.341824723470108,10.464582285843695
0.7460830639144491,-1.1571667527786973,0.946901103822483,-10.57422794116232,10.679417266209546
0.7485700074608306,-0.8295714878468242,1.0362866165439901,-9.930284898121037,10.018614523122812
0.7510569510072121,-0.42535316192549066,1.029909200904226,-8.500975187145821,8.573693335251507
0.7535438945535936,0.007604201456204995,0.9373456693503619,-6.425162435372938,6.493180041293878
0.7560308380999751,0.4453585952281556,0.7921148508430922,-3.875229094313741,3.980350581127932
0.7585177816463566,0.8304491889355665,0.5894283476926079,-1.0522880365336649,1.464370767360252
0.7610047251927381,1.15329918518434,0.3484397787226978,1.8377594609500534,2.1974687998364426
0.7634916687391196,1.3899665764770885,0.10745637595047475,4.612954136590989,4.819014403666767
0.7659786122855011,1.5165093551741538,-0.11915664529639347,7.07218311443148,7.233932052106846
0.7684655558318826,1.542504336735876,-0.30266885981714253,9.07179435722842,9.206974580577128
0.770952499378264,1.4583747231992434,-0.4287150524597374,10.501654649852508,10.611098143653221
0.7734394429246456,1.2689089264201683,-0.5020836214411397,11.265995986007844,11.348342759328919
0.7759263864710271,1.0076257780345164,-0.5179861584253818,11.374395231318719,11.430681792750857
0.7784133300174085,0.7128325128566398,-0.4716342551641377,10.836429250283622,10.870085922311388
0.7809002735637901,0.3797407356763502,-0.34866269685604667,9.704770536158986,9.718453573589294
0.7833872171101716,0.051446084344958565,-0.17780189867009355,8.099129227561662,8.101244006910832
0.785874160656553,-0.2289558034277458,-0.00214748582367541,6.134427058665207,6.138698616946631
0.7883611042029346,-0.46146491995620187,0.18787735290183338,3.963892989083675,3.995083904123954
0.790848047749316,-0.6221392410945895,0.3587537987548939,1.7455443806304247,1.887508068375145
0.7933349912956975,-0.7109787594398418,0.49132824285762,-0.3626014060011391,0.9372161000741376
0.7958219348420791,-0.7279834677299668,0.6047543028074065,-2.245622641119339,2.4369055669762862
0.7983088783884605,-0.6587881488829901,0.670301562911372,-3.7646555795487666,3.8801981448088143
0.800795821934842,-0.5273348125202694,0.6831816239911186,-4.843085720394803,4.919379882764389
0.8032827654812236,-0.34798866176324494,0.6433944901015547,-5.45218259708156,5.501031507865396
0.805769709027605,-0.1207496899129995,0.5700937784919056,-5.572792550788238,5.603178046252871
0.8082566525739865,0.11128647970612549,0.45849108972298014,-5.204915537088578,5.226255304531804
0.8107435961203681,0.3289662402310363,0.3181632342297469,-4.377281932590288,4.401141187034181
0.8132305396667495,0.5275011946194006,0.18262903896204197,-3.190448164816651,3.2389149986652983
0.815717483213131,0.6877377357279121,0.051888507540904794,-1.7593358723615262,1.8896926528240168
0.8182044267595125,0.7953106595936834,-0.07884675981946865,-0.165347871684963,0.816134655230444
0.820691370305894,0.8454315687547046,-0.16648112978819452,1.4718057930833917,1.7054860880629974
0.8231783138522755,0.8524656788906169,-0.21101459900355435,3.018049866747174,3.143222851286829
0.825665257398657,0.7924709789791141,-0.24117758411196233,4.40155833616962,4.478827152983967
0.8281522009450385,0.6798126844210965,-0.23781646864287742,5.5361399771499205,5.5827903243140975
0.8306391444914201,0.528856010478321,-0.17698923289151525,6.330815161065255,6.3553311850722825
0.8331260880378015,0.3635429789142226,-0.09700310040314397,6.7472766947158185,6.757759680105595
0.835613031584183,0.20302720803306717,-0.0074348748870112225,6.7711594004045725,6.774206591937796
0.8380999751305646,0.037731896078620486,0.08692704318215894,6.445558939180641,6.446255505738936
0.840586918676946,-0.10840093560162478,0.1812942532439541,5.794417357716011,5.79826619641589
0.8430738622233275,-0.22579447575945955,0.266089951332106,4.860830314869233,4.873341600733027
0.845560805769709,-0.30008350996447397,0.34610254335580315,3.735777501609025,3.763757514107162
0.8480477493160905,-0.34084484052577646,0.3926016118966884,2.5006618011721677,2.5541379514071965
0.850534692862472,-0.3337132532887025,0.4103755626933592,1.22730928906455,1.3364358304462478
0.8530216364088535,-0.2786887441971092,0.40900120471957724,0.011488056305427818,0.49505694323168925
0.855508579955235,-0.19492492261353178,0.3645365236219109,-1.065399017133526,1.1427850490006082
0.8579955235016165,-0.09199859139708078,0.30092353816513784,-1.945891068967665,1.9711698985447688
0.860482467047998,0.034878656417028364,0.24210426702925547,-2.582104044636317,2.593663874543974
0.8629694105943795,0.1569764044145343,0.1689250989267932,-2.9309422939809915,2.940000001911037
0.8654563541407609,0.2599294460055021,0.08617443908727918,-2.98282899116568,2.995372788383977
0.8679432976871425,0.3581029943854086,0.008217499296450992,-2.756917731354661,2.7800900451856254
0.870430241233524,0.44192024601191393,-0.05536891206455419,-2.2819389174297378,2.3249955791654413
0.8729171847799054,0.4874391872457228,-0.09500798669878696,-1.6009881633085676,1.6762418017259528
0.875404128326287,0.5186018375148144,-0.11548812635426575,-0.761949487302461,0.9288984844443681
0.8778910718726685,0.5018893762677985,-0.11202092622229953,0.15377426796342597,0.536738445995691
0.8803780154190499,0.4516670160209916,-0.08460638489829142,1.0743570654351071,1.1685052151262312
0.8828649589654315,0.39666517911645,-0.042821307701913724,1.9567032869124112,1.9969638659050948
0.885351902511813,0.31773025455812043,0.013334306604273927,2.738563699847914,2.7569659875520554
0.8878388460581944,0.22922745445737264,0.07907205585402899,3.3576890706300055,3.3664333516233738
0.890325789604576,0.13594518415040813,0.14481513447756234,3.775772181186337,3.7809930019094287
0.8928127331509574,0.037883445518797076,0.20098673682199397,3.9976014422669497,4.002830013257811
0.8952996766973389,-0.036227339768107436,0.25237526711243063,4.027965263563397,4.036026493975243
0.8977866202437205,-0.08638717009669017,0.2702503062489905,3.838133230468495,3.8486055482488086
0.9002735637901019,-0.12217285062759253,0.2785538715725675,3.452047363843894,3.465421975318463
0.9027605073364834,-0.1435843800142278,0.28207436706029965,2.9223801034205117,2.9394706822155277
0.905247450882865,-0.1410449504025446,0.27123498664602597,2.2539198546755177,2.2745585961490273
0.9077343944292464,-0.10976615739172524,0.2412473275016902,1.5328578784827798,1.5556034706704602
0.9102213379756279,-0.07369001663550834,0.1921113900374949,0.8022898047868274,0.8282547528380176
0.9127082815220094,-0.023239720677873832,0.1477691911832908,0.09573445584692131,0.17759759152774474
0.9151952250683909,0.04637313448468938,0.10822073118563624,-0.5245589271980684,0.5376097677344388
0.9176821686147724,0.10641812948156049,0.06388920356887562,-1.0346483308121543,1.0420670885635899
0.9201691121611539,0.15689526473231674,0.014774608416546986,-1.4010149358570416,1.40985008552108
0.9226560557075354,0.20738134716572337,-0.01518103766751766,-1.599716730871136,1.6131742330219534
0.9251429992539169,0.23872276365747985,-0.021189331441826997,-1.630753722028282,1.6482703806003165
0.9276299428002984,0.2604963208742481,-0.027192289667710146,-1.5084911264951186,1.5310595130565319
0.9301168863466799,0.2727020187114024,-0.018824702624768985,-1.252082565788207,1.2815738418011524
0.9326038298930613,0.26576305029329567,-0.0056633772747671784,-0.8758932591311188,0.9153420530788948
0.9350907734394429,0.2444678185750831,0.007503282660405564,-0.39907683009305295,0.4680631686927109
0.9375777169858244,0.19923951642112264,0.039828889980162874,0.1256942734917441,0.23891792684809585
0.9400646605322058,0.15402015980835593,0.07694823416164454,0.6553244094090207,0.6775642566836511
0.9425516040785874,0.1040213446625331,0.09970770128175932,1.1658715477072885,1.1747418999906671
0.9450385476249689,0.05403147342097703,0.10810729061892754,1.6142400441377287,1.6187580135717579
0.9475254911713503,0.008838948392247414,0.12130061465325914,1.971699463398588,1.9754469722293786
0.9500124347177319,-0.02676782824360624,0.13928767250423268,2.2047309658564664,2.209288619476168
0.9524993782641133,-0.05278885775504738,0.13812644661056206,2.313334534110888,2.3180557037022176
0.9549863218104948,-0.07401254485877806,0.12739374257412894,2.2927217464343332,2.2974507674847824
0.9574732653568764,-0.08086208443821563,0.11187796259766936,2.15246939005584,2.156891242121878
0.9599602089032578,-0.07333747814475311,0.08679070216464568,1.9404614777649538,1.94378541983744
0.9624471524496394,-0.061015534397473425,0.061708766640990564,1.6375443748672271,1.639842201852806
0.9649340959960209,-0.03910785178130305,0.03663215467374581,1.2341412523117992,1.2353039988135412
0.9674210395424023,-0.01719123896857866,0.006772461511548311,0.8116549431389473,0.811865229982223
0.9699079830887839,0.019099511843746475,-0.027870314354550896,0.3748738262716351,0.37639332007678744
0.9723949266351654,0.060187591731254986,-0.03856575458931211,-0.03789489711452454,0.08090665518220168
0.9748818701815468,0.08691938500333646,-0.044467474138137675,-0.39792083347201057,0.4097234743783223
0.9773688137279284,0.10887169576596445,-0.05036387806279796,-0.6764735902379684,0.6870269897478031
0.9798557572743098,0.13562132800013693,-0.04667816154123949,-0.8687647924333426,0.8805249910963002
0.9823427008206913,0.13843785899967986,-0.023833519828321936,-0.9795828726993818,0.989603800496843
0.9848296443670729,0.13647489913718192,-0.01056037481812222,-0.989774248052889,0.999194666578773
0.9873165879134543,0.1345208487002425,-0.002070325239041715,-0.9089157564071133,0.9188188054381254
0.9898035314598358,0.11821049457147148,0.030367046705775724,-0.7657378499284597,0.7754033359262281
0.9922904750062174,0.09712064011161575,0.048444512252705074,-0.5650289651511411,0.5753581675468438
0.9947774185525988,0.06646287859738248,0.07610408572628335,-0.31157753957612044,0.3275510788625078
0.9972643620989803,0.04060241646393292,0.094192151492547,-0.019748818309002658,0.10445445634393764
0.9997513056453619,0.01953925006302537,0.09313190048267073,0.29130354926288504,0.30645242859813265
1.0022382491917432,0.032003795546147296,0.044192910271319,0.24808406709026798,0.2540137015825269
1.0047251927381249,0.03011201581796874,0.052720051326820005,0.23845336609754142,0.24606126292403738
1.0072121362845063,0.033017520146036095,0.04688727119110814,0.22410418074789895,0.2313250022479831
1.0096990798308878,0.04072030439548102,0.055424987058042774,0.2050364711163759,0.21626379000725315
1.0121860233772693,0.034066751029348974,0.0543911795236256,0.1908270029707051,0.2013302982624533
1.0146729669236507,0.02263366231205688,0.05815105567215806,0.16711052453187847,0.17838092766538188
1.0171599104700322,0.015997840387852347,0.07149301587333268,0.15782900964096314,0.17400338646126123
1.0196468540164139,0.009370877320212578,0.06568663718088796,0.1534056079571986,0.16714014538285468
1.0221337975627953,0.00754117169374291,0.05988552977814221,0.12989825824201695,0.14323652970395853
1.0246207411091768,0.020085525294201934,0.04930128717353632,0.11124893152592641,0.12333032882860478
1.0271076846555582,0.008696706585414327,0.043510712763341175,0.09266917798630736,0.10274430095759414
1.0295946282019397,0.0021051303971025837,0.042513803230332936,0.0693705468721344,0.0813887449985271
1.0320815717483214,0.00988759815961282,0.0510989585049515,0.060506603108375856,0.07981176089631936
1.0345685152947028,0.003313684623012958,0.05490096516396514,0.056500490775420076,0.07885050373700243
1.0370554588410843,-0.0032514056972509087,0.03955460971195235,0.033410143072874376,0.0518784777014797
1.0395424023874658,-0.0050192750434372435,0.04336711510496638,0.015177525486533838,0.04621966112363287
1.0420293459338472,-0.001989929094847187,0.047184864383579495,-0.0077742206540563075,0.04786240436373066
1.0445162894802287,-0.008528583608095053,0.04621945047780329,-0.006714728368001133,0.04747696196984826
1.0470032330266104,-0.019846841174567365,0.05004767620732142,-0.015162874746669885,0.0559337087000727
1.0494901765729918,-0.02157949786068658,0.053881134359845095,-0.04269552118516806,0.07205386108388774
1.0519771201193733,-0.013726559809119188,0.05293141765229503,-0.06058230341843007,0.08161108323235111
1.0544640636657547,-0.005864839918100495,0.03762171541071835,-0.0736116813229426,0.08287622967353477
1.0569510072121362,0.0020056554401766125,0.03668244345334193,-0.07699530903095031,0.08531062023115221
1.0594379507585177,0.0003081131386750702,0.0357483876454987,-0.09467526148996441,0.10120003602347287
1.0619248943048993,-0.0013806667822457985,0.03481954374361784,-0.11228638797539503,0.11756929782829466
1.0644118378512808,-0.007849094356648934,0.03868431075484002,-0.10588673200940946,0.11300479722750316
1.0668987813976623,-0.01430877309109213,0.0377658776560148,-0.11378358116257203,0.12073817062006968
1.0693857249440437,-0.020759709925193714,0.032064239995501786,-0.12161178736334222,0.12746963508370956
1.0718726684904252,-0.027201911910944232,0.02636779657310928,-0.11979460673875408,0.12564216056493294
1.0743596120368066,-0.024058579571716754,0.0158881394793986,-0.13706252285353315,0.140062069805143
1.0768465555831883,-0.020906526823760596,0.010202070697500343,-0.16383879358203401,0.16548206970172258
1.0793334991295698,-0.022534164374264698,0.014097988822106,-0.1713930643863879,0.17344199137645738
1.0818204426759512,-0.019364693080354045,0.0179990824190992,-0.1836674181180964,0.18556044509591338
1.0843073862223327,-0.025763330511210825,0.02190534662736443,-0.2006619218899175,0.2034915239179515
1.0867943297687142,-0.027364874424256114,0.011451566557477033,-0.21758824035399726,0.21960104068338226
1.0892812733150956,-0.028957735967892473,0.005791350495080394,-0.21050442573778128,0.21256576269036395
1.0917682168614773,-0.030541923079557998,0.009713096698014567,-0.21771777428621064,0.2200640419355329
1.0942551604078588,-0.03211744380565329,0.008851590076262017,-0.22486314657103712,0.22731765336047968
1.0967421039542402,-0.05283791958240508,0.003206825434391547,-0.22715221065172742,0.23323862518701768
1.0992290475006217,-0.04481932546985323,0.007144007471811431,-0.2437386520332243,0.24792809294894988
1.1017159910470031,-0.0367920897608362,0.020663130861156453,-0.2602573338189984,0.2636560309428333
1.1042029345933846,-0.047909834214975244,0.010245366967291059,-0.28628513655161214,0.29044706775792395
1.1066898781397663,-0.04944214749578185,0.014197936894448038,-0.3074569250063597,0.31173044139996925
1.1091768216861477,-0.05575424825620301,0.02773243179898799,-0.33334958139119664,0.3391158613008036
1.1116637652325292,-0.0668461452944718,0.022118426170912198,-0.3735399887419142,0.3801180804780498
1.1141507087789106,-0.05877583091309496,0.016509527638813193,-0.38493259439548666,0.38974384540415996
1.116637652325292,-0.05548533072313394,0.010905730485761822,-0.3866810896742958,0.3907938356660509
1.1191245958716736,-0.06655146047974791,0.010095432251136849,-0.383573956757882,0.3894354823937108
1.1216115394180552,-0.0632438094802305,0.01407862709026686,-0.39476488860152514,0.40004662784592127
1.1240984829644367,-0.059927597008920974,0.01806690577469494,-0.4250423690111038,0.4296262857671847
1.1265854265108182,-0.07096804245398897,0.007695052372136413,-0.42652244607730516,0.43245470732613
1.1290723700571996,-0.07721154206484288,-0.007460132511068807,-0.42314721850041614,0.4301986103298715
1.131559313603581,-0.0834465087954746,-0.008245041690621235,-0.42928197914173083,0.4373949224196306
1.1340462571499625,-0.08488454906186499,-0.013813294607115889,-0.43056160173895464,0.43906660846545065
1.1365332006963442,-0.08152567270251593,-0.01937649416170606,-0.436562977426334,0.4445324702369245
1.1390201442427257,-0.08294669629834955,-0.015357839997089062,-0.4424977881687866,0.4504667692632334
1.1415070877891071,-0.0843592265707398,-0.016122548419100546,-0.4579429266804418,0.465927182907145
1.1439940313354886,-0.08097487034203688,-0.016882222513631362,-0.4828984798197258,0.489931506310945
1.14648097488187,-0.08237044449609254,-0.012848465427601319,-0.4982109219453541,0.5051376999749354
1.1489679184282517,-0.08375755605597124,-0.013598090329621115,-0.4990919381551393,0.5062538878749823
1.1514548619746332,-0.08034781214447495,-0.01913110380814942,-0.5094836342435425,0.5161350052179466
1.1539418055210147,-0.0817180299446606,-0.015082302550908366,-0.524597696854535,0.5311384525840284
1.1564287490673961,-0.08786822009786543,-0.006240096586789257,-0.5396458134000639,0.5467882285024028
1.1589156926137776,-0.0892215867032865,-0.0021812993246403956,-0.5498396720566419,0.5570358288009409
1.161402636160159,-0.08098973727849934,0.0018824857282671026,-0.5647561717228626,0.5705369530503883
1.1638895797065407,-0.0775378927199758,-0.003625554955356769,-0.5700301954534712,0.5752909639346958
1.1663765232529222,-0.07886606406047514,-0.004340218360037618,-0.5608734336981165,0.5664077172709772
1.1688634667993036,-0.07539745578893464,0.004526891830554547,-0.5660164008994535,0.571034005271368
1.171350410345685,-0.07670888577192086,0.003822155272953154,-0.5710939823647063,0.576235367467565
1.1738373538920666,-0.08758876865164306,-0.006454435153008475,-0.571317870785645,0.5780290318021218
1.176324297438448,-0.08409509924396502,-0.002360870023599748,-0.5762649695554192,0.5823734837377376
1.1788112409848297,-0.08059309902235395,0.0017376334650278658,-0.5955121828041516,0.6009434472962086
1.1812981845312112,-0.07229437627370311,0.005841068020567608,-0.6003291888329549,0.6046947410729304
1.1837851280775926,-0.0831409593010286,-0.004415783667034212,-0.6098696998760467,0.6155265786997248
1.186272071623974,-0.09397924661835272,-0.005090912401850112,-0.6241338156128879,0.6311901741753739
1.1887590151703555,-0.09044404015339919,0.0038156743542518967,-0.643121636445926,0.6494614099659296
1.191245958716737,-0.0869005618487243,-0.006426450838413977,-0.6620448601767581,0.6677547482470385
1.1937329022631187,-0.0929256304190978,-0.011875278951748669,-0.6713267820026338,0.6778317219435664
1.1962198458095001,-0.09894245139013008,-0.007742414294266808,-0.6853327144347805,0.692481395519574
1.1987067893558816,-0.09537423037909526,-0.003604671190493569,-0.7088511640526853,0.7152476565873133
1.201193732902263,-0.09179778637573743,-0.009038864019732529,-0.7227286215396376,0.7285912400234013
1.2036806764486445,-0.09300153514027926,-0.014468193934530138,-0.7365419982025987,0.7425312985258282
1.206167619995026,-0.08940868256235951,-0.02468107210255921,-0.7455029960858344,0.7512508136505571
1.2086545635414077,-0.09538445122309297,-0.025312296464153228,-0.7544001245689245,0.7608274796805308
1.2111415070877891,-0.10135204719150931,-0.03072708493512266,-0.76323349040225,0.7705463984018883
1.2136284506341706,-0.10252307994599175,-0.04092544552365718,-0.7576379910628006,0.7656377730458434
1.216115394180552,-0.10847436901445867,-0.051118982970649984,-0.7567673479537174,0.7662092782536252
1.2186023377269335,-0.10484071741142531,-0.051730898749402066,-0.7606216698772634,0.769553758095976
1.221089281273315,-0.10119894484068676,-0.06191481430751544,-0.7787778729531176,0.7877624299679343
1.2235762248196966,-0.11670267773393911,-0.08167073786346712,-0.7920824540522649,0.8047883190199104
1.226063168366078,-0.1178331060862739,-0.07747985444537919,-0.8149007339574723,0.8270132858299456
1.2285501119124596,-0.1141670498619845,-0.06849578565634085,-0.8376560175159131,0.8481706146804946
1.231037055458841,-0.12006973243162267,-0.0786605564709899,-0.8316179969558615,0.8439151122307306
1.2335239990052225,-0.11638755400905332,-0.07445535207114684,-0.8350940116487156,0.8464464959297745
1.236010942551604,-0.11748573813538449,-0.06545698757207985,-0.8337189650975567,0.8444967901955392
1.2384978860979856,-0.11857589515508288,-0.07081908478001342,-0.8370697780585115,0.8483875287979153
1.240984829644367,-0.11486963549677714,-0.06181123234808217,-0.8499349686152531,0.8598866858363154
1.2434717731907485,-0.10636697299312337,-0.052798648861966946,-0.8579494422144123,0.8661286715386983
1.24595871673713,-0.10743313152098177,-0.0629349562770889,-0.8515365082634947,0.8605911406559961
1.2484456602835114,-0.11327972175878043,-0.04912453343394052,-0.8498498967287862,0.8587725904549921
1.250932603829893,-0.12390675778762777,-0.044886212346836984,-0.8624665315692095,0.872477033944911
1.2534195473762746,-0.12016064048930025,-0.05500840515673966,-0.8798097240920448,0.88967952363062
1.255906490922656,-0.11640659406922904,-0.05076070081064055,-0.8635723663086221,0.8728598832237959
1.2583934344690375,-0.11264463285292431,-0.051296721506571163,-0.8712154172587869,0.8799639027922083
1.260880378015419,-0.1136631745667735,-0.04703966956829708,-0.8931621901166,0.9015934480793286
1.2633673215618004,-0.1098854270563388,-0.03798955400751014,-0.8958939820694685,0.9034069074350343
1.2658542651081819,-0.10609980820777992,-0.028934787203216406,-0.9081413340800975,0.9147759692279865
1.2683412086545636,-0.1214599459473984,-0.024663781581110822,-0.9203275611562329,0.9286353646158461
1.270828152200945,-0.1272354350771257,-0.02038814297265601,-0.9180875755891602,0.9270864731859272
1.2733150957473265,-0.12342629039906405,-0.016107880575704225,-0.9205751135125073,0.9289521261060125
1.275802039293708,-0.11960933343378366,-0.01661140695419583,-0.9517323149766881,0.959362669096707
1.2782889828400894,-0.1205729824589295,-0.02189873139722387,-0.9588868674998725,0.9666857934197477
1.280775926386471,-0.13110565582907774,-0.012816249957788184,-0.9420388957127308,0.9512046206200927
1.2832628699328525,-0.13205375537371683,-0.013305988616552966,-0.9394957513937889,0.9488242780032272
1.285749813479234,-0.12820569959991746,-0.0185795534768447,-0.9464691570203936,0.955293549862134
1.2882367570256155,-0.13392671373093307,-0.014271744045598833,-0.9533824323275066,0.9628489547169811
1.290723700571997,-0.14442840978387378,-0.00995937647523304,-0.9841777208664819,0.9947685866483806
1.2932106441183784,-0.15013399653017917,-0.000854057000843067,-1.0053363269154154,1.0164851580536056
1.29569758766476,-0.1414666828154767,-0.0013210051820737867,-0.9977047652800888,1.0076851522495023
1.2981845312111415,-0.1375800974809981,0.003004979300307742,-1.0139556011340112,1.0232513250392155
1.300671474757523,-0.14326265948030364,-0.002241323199020151,-1.0349353504052932,1.044806390030985
1.3031584183039044,-0.13936077123820184,-0.0026947124458760463,-1.031913722936995,1.0412850798993336
1.305645361850286,-0.1402396584940372,0.006433205111237239,-1.0240444623271205,1.0336225659133844
1.3081323053966674,-0.14589933709810526,-0.008376403580432346,-1.030481312721788,1.0407922542810493
1.310619248943049,-0.1467630163315049,-0.02796993509163581,-1.0416475988895986,1.0523076643758793
1.3131061924894305,-0.15240751882755016,-0.037982189354559104,-1.0383898394991373,1.0502019602335446
1.315593136035812,-0.15804445732912564,-0.03841317630314389,-1.0542269902792967,1.0666996623415133
1.3180800795821934,-0.15409704132884583,-0.048416519193077434,-1.065217167648342,1.0773939259759326
1.3205670231285749,-0.15493049699047062,-0.053627018078046707,-1.0761489084757816,1.0885659323988022
1.3230539666749563,-0.15575643726563,-0.058833086332865214,-1.0822339435161314,1.0949665329568798
1.325540910221338,-0.15178647517461208,-0.06403473405159277,-1.083472407366088,1.0959251976000266
1.3280278537677195,-0.15738583708714804,-0.07402037468784695,-1.084652838460773,1.0985085787400857
1.330514797314101,-0.16776613615945546,-0.06963640513262481,-1.100140582390301,1.1150354283087773
1.3330017408604824,-0.1637737756540792,-0.06045964223741063,-1.1203589686538233,1.133878933826062
1.3354886844068639,-0.1645623854628721,-0.06085530621231383,-1.1261545206167156,1.1397403876799705
1.3379756279532453,-0.1605551756221532,-0.061246600703874776,-1.136680988709923,1.1495967904493334
1.340462571499627,-0.15175216287474902,-0.06163353603693755,-1.147150107262151,1.1587841819308484
1.3429495150460085,-0.15730697731014343,-0.06201612257371103,-1.1384084011367381,1.1508975507612464
1.34543645859239,-0.1628544258405895,-0.06718277403376627,-1.1343980255716026,1.1479956313346713
1.3479234021387714,-0.154029315442824,-0.06755669421247568,-1.1351191196911348,1.1475122451795796
1.3504103456851528,-0.15477367972010558,-0.06792629690257002,-1.1262066131430384,1.1388196561493444
1.3528972892315343,-0.1602991324173752,-0.06829159261257223,-1.1316026626180093,1.144938487220817
1.355384232777916,-0.1610288840223531,-0.059075785246171186,-1.1321537954006402,1.1450731270674424
1.3578711763242974,-0.15696295172601438,-0.05943249866440725,-1.1230717492094229,1.1355438098040738
1.360358119870679,-0.15288975610180677,-0.05978493684160702,-1.1282986821538952,1.140178684393039
1.3628450634170604,-0.14880931446456552,-0.06013311042756708,-1.14304633288714,1.1542595558052993
1.3653320069634418,-0.14951004751067098,-0.06047703010661554,-1.1529496338832637,1.1641750657649008
1.3678189505098233,-0.14541516603633398,-0.051239899956669444,-1.1580087280351705,1.1682274230930285
1.370305894056205,-0.14610149417931778,-0.041998537370794065,-1.1486469520492442,1.158662739624751
1.3727928376025864,-0.16114585613722338,-0.03754135645532797,-1.1679600796056366,1.1796220106233648
1.3752797811489679,-0.15702944628421184,-0.03786836802956328,-1.2063714483076122,1.2171377619601467
1.3777667246953493,-0.1481174922564748,-0.03340277630511945,-1.2207855729590467,1.2301918354964745
1.3802536682417308,-0.1535636250689592,-0.03372139880750158,-1.2207794053262369,1.2308620053241286
1.3827406117881123,-0.15900265255240126,-0.0436126497742233,-1.220718300931054,1.2318023692813016
1.385227555334494,-0.16443459255598597,-0.04392292687324417,-1.2110255991252785,1.2229272098006918
1.3877144988808754,-0.16507105966562913,-0.03944064440577044,-1.1964898496493177,1.2084667887385747
1.3902014424272569,-0.17048887848476652,-0.04931942666532141,-1.20105321594877,1.2140954209099348
1.3926883859736383,-0.17111126039169905,-0.04961726809366329,-1.2103506353268827,1.2233926586186885
1.3951753295200198,-0.1765150301016275,-0.04991098640549252,-1.2148054488236042,1.2285767948757889
1.3976622730664012,-0.1819118024240003,-0.05498899602562224,-1.2335714178133799,1.2481242471770055
1.400149216612783,-0.17772478890267335,-0.05048609812772664,-1.247495077517005,1.2611022619612657
1.4026361601591644,-0.17353081441700735,-0.055555917157468215,-1.2661533834822443,1.2791965423604663
1.4051231037055458,-0.17411830057984046,-0.04625644770717674,-1.2751812750566138,1.2878447599793656
1.4076100472519273,-0.17469886241671084,-0.05131812092178878,-1.2697904986258255,1.2827786841326365
1.4100969907983087,-0.180060921646642,-0.06595254473290302,-1.2787116242115513,1.293010089502293
1.4125839343446904,-0.19020449672074058,-0.06621771381940667,-1.2780027857020713,1.2937749636078577
1.4150708778910719,-0.19076439618110702,-0.07605565609152753,-1.2676641339734935,1.28419152552749
1.4175578214374533,-0.18174063858224593,-0.07152436628428083,-1.2716378368859793,1.2865489430584065
1.4200447649838348,-0.18228685581091514,-0.0717774690430737,-1.2659820294753281,1.2810507413128214
1.4225317085302163,-0.1828262598825368,-0.08160337907965509,-1.2554852670741994,1.2713488146925802
1.4250186520765977,-0.18335886950323332,-0.08663689785148776,-1.2736665253083608,1.289710372442552
1.4275055956229794,-0.1838847034287383,-0.08687803680361306,-1.28221873036639,1.29824737624858
1.4299925391693609,-0.18440378046393324,-0.0871152107277191,-1.2859304386833923,1.3020026525787063
1.4324794827157423,-0.18012771614207163,-0.08256002780088689,-1.2848018037341493,1.299991471968784
1.4349664262621238,-0.17584493268525342,-0.08278930618683766,-1.283621382669983,1.2982524267713031
1.4374533698085052,-0.18113225568365,-0.0878030574340598,-1.2680241197134485,1.2839016469803604
1.4399403133548867,-0.18162449417316645,-0.08802448647549488,-1.2571637826780204,1.273262166083734
1.4424272569012684,-0.17732166719747894,-0.09303041155009772,-1.2749825430424782,1.2906115279951356
1.4449142004476498,-0.17780060048726043,-0.1076092476009527,-1.2831733294627998,1.299894840803486
1.4474011439940313,-0.18784971649878135,-0.10781898967341386,-1.296101507455914,1.3140744149980095
1.4498880875404128,-0.18831542113219774,-0.10323645607883991,-1.3185556362318938,1.3359301739008702
1.4523750310867942,-0.183986136934215,-0.10343846515210009,-1.3218054520886717,1.3385514812021
1.4548619746331757,-0.1844386898163768,-0.10363662529032514,-1.325004724853633,1.3417882475589062
1.4573489181795574,-0.19446150241397925,-0.08946573827290427,-1.323365208075181,1.340565130155818
1.4598358617259388,-0.19490098080436036,-0.08486783246430107,-1.3264638655815268,1.3433894922914862
1.4623228052723203,-0.19533395102987738,-0.08505451632936234,-1.3199356449144677,1.337018971401953
1.4648097488187017,-0.1861836258943207,-0.06129538175332483,-1.3133575105287871,1.3279041444463586
1.4672966923650832,-0.17223842820464874,-0.042320860486820155,-1.3210948305072652,1.3329473667687604
1.4697836359114647,-0.17744039409082768,-0.047284577661173,-1.3383593599554402,1.3508984792056133
1.4722705794578463,-0.1778475265210132,-0.04266772190529622,-1.3507860476385147,1.36311159619347
1.4747575230042278,-0.1782482484260806,-0.04283551507192973,-1.3631634558995067,1.3754351772869304
1.4772444665506093,-0.1834309827772974,-0.04778796907327232,-1.3754917440540027,1.3884913227642135
1.4797314100969907,-0.1886073459452388,-0.03837148256035894,-1.3686174584255095,1.3820849645103184
1.4822183536433722,-0.18420055101964344,-0.02416287412588014,-1.347329162224547,1.3600770415173777
1.4847052971897536,-0.18457582773083153,-0.014738962381990905,-1.3355690322246652,1.3483434699779386
1.4871922407361353,-0.19452159920706025,-0.014888162639695501,-1.3429140355165519,1.3570108388410937
1.4896791842825168,-0.19009586869281986,-0.019822083588219908,-1.3502107195434263,1.3636709065833417
1.4921661278288982,-0.1904522693530613,-0.019963930615020775,-1.328728825378601,1.3424570446831172
1.4946530713752797,-0.19080241778836993,-0.020102119086724546,-1.326352547487419,1.3401569826151079
1.4971400149216612,-0.1959347372766963,-0.020236661067569717,-1.347870450715769,1.3621874671408418
1.4996269584680426,-0.19627244117134007,-0.015579165319101751,-1.3597638736067328,1.3739444579463116
1.5021139020144243,-0.2013923561426832,-0.020494853901429355,-1.3668213815219037,1.3817306572319323
1.5046008455608058,-0.20171769561523656,-0.030195335610417207,-1.3594663301142855,1.3746819594842112
1.5070877891071872,-0.2020368830093744,-0.025527009297692693,-1.371217705168398,1.386257019916262
1.5095747326535687,-0.202349938459632,-0.03522030703440038,-1.3733452495497342,1.3886191494009565
1.5120616761999501,-0.1978684788142538,-0.040121627704652774,-1.380214336247974,1.3949026109024145
1.5145486197463316,-0.19816933091599193,-0.040230983489588645,-1.3966135318498925,1.4111764500212092
1.5170355632927133,-0.2032525150000929,-0.04033678990613998,-1.3842357732935788,1.399659714909116
1.5195225068390947,-0.19396443805322222,-0.04522746248641374,-1.3813884508725653,1.3956725184642593
1.5220094503854762,-0.1894587336567643,-0.05011461013676044,-1.3976485351853487,1.411321194418101
1.5244963939318577,-0.19452382546293545,-0.05499824509840856,-1.3994973671707882,1.4140216428169008
1.5269833374782391,-0.19479452387402302,-0.05987837962685383,-1.3917235145498097,1.406564846649069
1.5294702810246208,-0.1950592526044359,-0.0647550259915537,-1.3839039485795865,1.3990823650921838
1.5319572245710023,-0.19052962875838475,-0.0696281964756249,-1.3664620274483923,1.3814369683911123
1.5344441681173837,-0.18120567279036598,-0.07449790337554996,-1.353763126154755,1.3678669654593816
1.5369311116637652,-0.18145261514534922,-0.0889409656414859,-1.3553842165820384,1.3703656159843007
1.5394180552101466,-0.18648207301613678,-0.09859218563479555,-1.3665370608541707,1.3827217801541267
1.541904998756528,-0.19629406694448343,-0.10345157569023256,-1.382433421292994,1.40012704907028
1.5443919423029098,-0.20131181085971278,-0.10351914815470753,-1.4030734637349855,1.4212170150485754
1.5468788858492912,-0.19195851871890268,-0.10837172202761414,-1.4093037409261129,1.4264394614677212
1.5493658293956727,-0.18738782442830731,-0.1132209063589733,-1.410701225721386,1.4275892681834443
1.5518527729420541,-0.19717655528042255,-0.10848990688975535,-1.4072660845187812,1.425147882321699
1.5543397164884356,-0.19259431203166688,-0.10854394597345696,-1.4037868872166008,1.4210883089926936
1.556826660034817,-0.19279472866756087,-0.10859463269299496,-1.409840607209924,1.4270995548278238
1.5593136035811987,-0.1977778259179131,-0.09906517282134608,-1.4158506047854704,1.433025789008112
1.5618005471275802,-0.1836016079360775,-0.09432078874312966,-1.4409706603211578,1.45567936219905
1.5642874906739617,-0.17420811210317627,-0.09914989621211845,-1.4708357311185303,1.4844315127941767
1.5667744342203431,-0.1887509725042481,-0.10397570103063858,-1.4815039680007143,1.4970944803945987
1.5692613777667246,-0.1937113867246727,-0.10400981233052109,-1.4873407485120804,1.50350412190732
1.571748321313106,-0.18908937561536066,-0.0944638392524988,-1.4596158204693257,1.4748411956076057
1.5742352648594877,-0.18925017001106625,-0.09927981086778992,-1.4126945617236206,1.4287680121064632
1.5767222084058692,-0.19419379080807458,-0.10409252969342386,-1.3992495768367696,1.4164906852515005
1.5792091519522506,-0.19434345228408267,-0.09932520157476876,-1.4001274207105094,1.417036226544342
1.581696095498632,-0.18969917537901,-0.08976624232586161,-1.3865978417470792,1.4023898638176333
1.5841830390450136,-0.18983778769456627,-0.08020406776818234,-1.3778146216894616,1.3931418484363336
1.586669982591395,-0.19475931021256754,-0.08021549705067699,-1.3689895258132054,1.385098565686871
1.5891569261377767,-0.18052174733356585,-0.08022373604790278,-1.3649111261651257,1.3791324560807054
1.5916438696841582,-0.18064394332172984,-0.06586358732068431,-1.3799448015598017,1.3932759603701967
1.5941308132305396,-0.19033751589816322,-0.07065388663924788,-1.3949371076933161,1.4096346604972898
1.596617756776921,-0.1808720662014125,-0.07544103325638929,-1.3955230037022641,1.409216274279058
1.5991047003233025,-0.18576643855266223,-0.07064823307124124,-1.386491062121232,1.4006633456582958
1.601591643869684,-0.1906554440881164,-0.06585230526961405,-1.3917834688793516,1.4063240198174816
1.6040785874160657,-0.19075070060232452,-0.06584166572214345,-1.3970351834531076,1.4115340089885198
1.6065655309624471,-0.18605222922743708,-0.07061632698401299,-1.41182318202695,1.4257793640482788
1.6090524745088286,-0.18613685775309408,-0.061022688333729924,-1.4169940209664222,1.4304694172754133
1.61153941805521,-0.19579301066506094,-0.061002778936903646,-1.426913079978796,1.4415745488450769
1.6140263616015915,-0.20065549918386633,-0.0705566113615883,-1.441580528906508,1.45718745742678
1.616513305147973,-0.20072434450656496,-0.07531898821862715,-1.4418429244034545,1.4576948347017538
1.6190002486943547,-0.19599956784537687,-0.07528992208324592,-1.4468540497753146,1.462009249052175
1.6214871922407361,-0.19605799706788946,-0.07525782885414589,-1.447037268491787,1.4621967499014228
1.6239741357871176,-0.1913228467747627,-0.0847995277532223,-1.4423927507456753,1.4574951934770985
1.626461079333499,-0.17700573490086585,-0.08476141808310489,-1.4472858767698256,1.4605313886666924
1.6289480228798805,-0.16747189267579954,-0.09429712571124549,-1.447351606950937,1.460056662221462
1.631434966426262,-0.17708655134222423,-0.10382985658527355,-1.442590111709002,1.4571226839855975
1.6339219099726436,-0.18190771559294244,-0.09420601001396367,-1.428213158212694,1.4428298633611905
1.636408853519025,-0.18193540673454334,-0.08936761519040415,-1.4090093203369438,1.4235147795737353
1.6388957970654066,-0.18195804940573618,-0.08931468470733872,-1.3993439786596031,1.4139481656902417
1.641382740611788,-0.17718726161599685,-0.07968202119752421,-1.3992173038565188,1.4126406526759039
1.6438696841581695,-0.16762306470609145,-0.08441165385688976,-1.4134178699794493,1.4258235845663239
1.646356627704551,-0.17720749662890778,-0.08434998199895638,-1.4180038312105587,1.4315209679402294
1.6488435712509326,-0.17721015882405083,-0.06992021157799622,-1.4129753583825195,1.425760021803728
1.651330514797314,-0.1724194759830463,-0.06506437179033009,-1.4079094290142748,1.4199192964679508
1.6538174583436955,-0.17720067944737145,-0.07457087855061761,-1.4075946173468008,1.4206630506591307
1.656304401890077,-0.1676117740049191,-0.06492092121033988,-1.4120310943397953,1.4234255316588624
1.6587913454364585,-0.1819600076161505,-0.05526812564346306,-1.411642224348082,1.4243938288430669
1.6612782889828401,-0.20109178840587316,-0.05518931108211467,-1.4160049850401961,1.4312770120003593
1.6637652325292216,-0.19148831454564996,-0.05510768347568629,-1.4299079507935435,1.4437248280500619
1.666252176075603,-0.1818800273783835,-0.05023485209213119,-1.4341976794099,1.446556901179011
1.6687391196219845,-0.1914205616132325,-0.050147636158325515,-1.4192975353543318,1.43302550943222
1.671226063168366,-0.20095632540332337,-0.050057644937926415,-1.4187265129941178,1.4337622296631987
1.6737130067147474,-0.19133372690785538,-0.045176487692045075,-1.422907976829901,1.4364249443040178
1.6761999502611291,-0.1912832074948157,-0.04029258031961058,-1.412688484734634,1.42614919009203
1.6786868938075106,-0.2103815952561986,-0.030617532075861487,-1.4167986277941242,1.4326605322309514
1.681173837353892,-0.20553328176543262,-0.025728162173636715,-1.4208733672178546,1.435892403319659
1.6836607809002735,-0.21025711172540085,-0.020836079861252355,-1.415336067538913,1.4310200485428592
1.686147724446655,-0.21018789663992554,-0.020729701023800118,-1.414552109892039,1.430232968435028
1.6886346679930364,-0.20532565797743085,-0.015832231581326628,-1.413733262127609,1.4286535695635527
1.691121611539418,-0.21003562717054514,-0.015720490730763537,-1.4033028887693924,1.419021175366408
1.6936085550857995,-0.20516421241258032,-0.006029281062857272,-1.4024147742535646,1.41735525022123
1.696095498632181,-0.2098650484618238,-0.005912228405665854,-1.406280686402102,1.421866260222167
1.6985824421785625,-0.21456135015676914,-0.02015774862117814,-1.3957471830602497,1.41228648185529
1.701069385724944,-0.22404154229853562,-0.024823837644122104,-1.3995448552574157,1.4175812630916045
1.7035563292713254,-0.22394043640828803,-0.024698911325462092,-1.4033086641181125,1.4212791991963996
1.706043272817707,-0.2094696506487213,-0.024571385510272492,-1.4166155873431876,1.4322293845025231
1.7085302163640885,-0.2141480297455441,-0.024441272717175444,-1.420312182683265,1.4365735103831039
1.71101715991047,-0.22361038522146393,-0.02430858545840131,-1.4096102178184537,1.4274429858611055
1.7135041034568514,-0.2187031252786164,-0.03853854620047947,-1.4084518803161679,1.4258516667998917
1.715991047003233,-0.22815669132160954,-0.04318915084055597,-1.4024721311436554,1.4215656359028166
1.7184779905496144,-0.23760589487120398,-0.03826041187020257,-1.4108247544696049,1.4312047052110484
1.720964934095996,-0.22310874080611415,-0.04290595505486561,-1.4143563078563748,1.4324881140087609
1.7234518776423775,-0.21818407384700145,-0.05712579287110975,-1.4082785587803741,1.4262244372510782
1.725938821188759,-0.21804351214983697,-0.07134313114701474,-1.4069568879492955,1.425538670152607
1.7284257647351404,-0.21311027054771153,-0.07598117570254193,-1.4247566760178216,1.4426089949571959
1.7309127082815219,-0.20817277383170374,-0.0758283423102335,-1.4233708670611467,1.4405104881467208
1.7333996518279033,-0.21280785010987252,-0.08524985337466306,-1.398011228337566,1.4166827849334154
1.735886595374285,-0.2126503108850073,-0.0898805113696941,-1.4061387702073187,1.4249648775053083
1.7383735389206665,-0.19812337097612726,-0.09929713536167828,-1.4142348398795956,1.4314932670282614
1.740860482467048,-0.20274587508059388,-0.1039229311264056,-1.403145994456386,1.4215219123302671
1.7433474260134294,-0.2073642313674987,-0.09896950775042823,-1.3968144208513564,1.4155865972144925
1.7458343695598109,-0.20240165464134469,-0.10359049091207329,-1.4096054992634244,1.4278252985441342
1.7483213131061923,-0.20222337630261178,-0.10820908635777471,-1.4080005766112809,1.4265584895234094
1.750808256652574,-0.1924642078239454,-0.10324849982371331,-1.4015766296163488,1.4184920770648914
1.7532952001989555,-0.17312417063260838,-0.09828555031683583,-1.4094874415576495,1.4234770373163874
1.755782143745337,-0.17772210939133593,-0.09332025019274193,-1.4030027624250963,1.4172898675412144
1.7582690872917184,-0.18231602891206278,-0.09314101511640338,-1.3821227620415613,1.3972035329359043
1.7607560308380998,-0.17254074063990532,-0.09774785742129932,-1.3660012234193193,1.3803203589000994
1.7632429743844813,-0.1723382825746802,-0.10235238610919106,-1.3402731062336954,1.3551783992804616
1.765729917930863,-0.17213186946584985,-0.09258940352958511,-1.319303789984204,1.3337033659695312
1.7682168614772444,-0.16713311937465763,-0.08282413194200311,-1.3174586540697781,1.3305978436805017
1.770703805023626,-0.17170726363470246,-0.0778449869532567,-1.3299494645046206,1.3432456233000714
1.7731907485700074,-0.1762775169687641,-0.07286357751722639,-1.3280459705950047,1.3416739409897287
1.7756776921163888,-0.18084390073062978,-0.0630915125752618,-1.3309019547410923,1.3446133527985527
1.7781646356627703,-0.17582962962348553,-0.06289401433721142,-1.3337291826293942,1.346738745373524
1.780651579209152,-0.17559993494174236,-0.06748269171869792,-1.3173742098705308,1.3307381634510789
1.7831385227555334,-0.18494324132849543,-0.057703943661215895,-1.3249328351213876,1.3390223169200524
1.7856254663019149,-0.18470595681422614,-0.05749979897565716,-1.3276748071135316,1.3416940451566641
1.7881124098482963,-0.1940417159805114,-0.057293463217100715,-1.325600294376967,1.3409514789582702
1.7905993533946778,-0.1985853301549816,-0.06187335188771792,-1.337863078596687,1.3539357673459955
1.7930862969410595,-0.19833682061409302,-0.056874267194373385,-1.3453097147661222,1.3610401923985598
1.795573240487441,-0.202873015262462,-0.061449834571844164,-1.3527287743484244,1.3692365315900612
1.7980601840338224,-0.21219393535126874,-0.06123485619823965,-1.3553320220314653,1.3732082375799302
1.8005471275802039,-0.20714598883727853,-0.05622934419791026,-1.353119625686034,1.3700379269410807
1.8030340711265853,-0.20688281022624438,-0.05122171400061282,-1.3604569630036956,1.3770502203396604
1.8055210146729668,-0.21140442072881105,-0.04621197770068086,-1.3629789916112216,1.3800504003695788
1.8080079582193485,-0.20634563158048186,-0.05556535733805834,-1.3654742822709593,1.3820948028814253
1.81049490176573,-0.20607167392408532,-0.05533984837466388,-1.3631545989562355,1.3797530555383963
1.8129818453121114,-0.21537097224693147,-0.04553546285824517,-1.3560201088095702,1.373771694846062
1.8154687888584928,-0.2150899344195364,-0.050094229422172454,-1.3440709788196479,1.3620939423605143
1.8179557324048743,-0.21001698489839754,-0.0594393534414932,-1.336884182459249,1.354584618247635
1.8204426759512558,-0.2097289514444125,-0.05441723363428652,-1.3296714830809897,1.3472096055585336
1.8229296194976374,-0.21422585516160103,-0.054181495264590485,-1.3176446438755853,1.3360448192268268
1.825416563044019,-0.22350771713738088,-0.06352055361875797,-1.3103806378301375,1.330822293302947
1.8279035065904004,-0.2184209451610068,-0.06806921068496896,-1.3078796311238854,1.327738775601983
1.8303904501367818,-0.21811917356696003,-0.06782747839519354,-1.319718596406842,1.33934077605553
1.8328773936831633,-0.21781402007056444,-0.06758377198438703,-1.3267440862346298,1.346202207669227
1.8353643372295447,-0.20792869904890154,-0.06733810334966828,-1.3337446695893167,1.3515337982118
1.8378512807759264,-0.20282844146235396,-0.07187888769075057,-1.3407205119548937,1.3578797598971344
1.8403382243223079,-0.20251326829177563,-0.07162933022849938,-1.3572485852756326,1.3741419530077328
1.8428251678686893,-0.20219479717878747,-0.07616624944692951,-1.354598634750344,1.3717220909602932
1.8453121114150708,-0.20666145238638567,-0.07591285053051644,-1.347136035275108,1.3650081370874152
1.8477990549614522,-0.20154804487674238,-0.075657548606197,-1.3396493549172792,1.356836789442643
1.8502859985078337,-0.18685459555307077,-0.07540035546193335,-1.317773548272287,1.3330892610809004
1.8527729420542154,-0.18652314189991398,-0.07514128286683919,-1.2958739896642069,1.3113834267457092
1.8552598856005968,-0.19097689813908403,-0.07009193925068669,-1.2835276499010302,1.2995492617177733
1.8577468291469783,-0.18106227183089996,-0.06025233634434368,-1.2615810796705897,1.2759313111991295
1.8602337726933598,-0.16635609043636584,-0.05519929249990918,-1.2443996527020769,1.256682858307064
1.8627207162397412,-0.16601198803559591,-0.0549328194092773,-1.217618322599483,1.2301105537104222
1.8652076597861227,-0.16087637212438988,-0.0450877187836638,-1.2147560759641127,1.2261918420804916
1.8676946033325044,-0.16052607009826686,-0.030452405595584153,-1.2310246726264609,1.2418203222700281
1.8701815468788858,-0.1601726993693564,-0.02060369811778129,-1.2424822589249853,1.2529333460893797
1.8726684904252673,-0.1502394740067044,-0.02033001128238965,-1.2443405942661556,1.2535424697421316
1.8751554339716487,-0.14988002797813682,-0.005689340079222394,-1.250965051121982,1.259924581276946
1.8776423775180302,-0.14472917198590352,0.008953093960036185,-1.2527789851447597,1.261143083371398
1.8801293210644117,-0.14915213663041377,0.009232069324498937,-1.2545709617271452,1.263439705318146
1.8826162646107933,-0.15357213588650226,-6.402219450984958e-05,-1.2563411427184867,1.2656924871021304
1.8851032081571748,-0.14841238370467463,0.0050068244967187425,-1.2628780930630263,1.2715786966865048
1.8875901517035563,-0.143249707292053,0.010079387950698404,-1.2646051675162688,1.2727326122990523
1.8900770952499377,-0.15244933715113707,0.0007884467414038809,-1.2615225272441393,1.270700794361334
1.8925640387963192,-0.1760112937982395,-0.008500800613683968,-1.248841929859676,1.2612130688076633
1.8950509823427006,-0.17083996784132638,-0.003423155575295489,-1.245717149342541,1.2573818945619604
1.8975379258890823,-0.1560889930265693,-0.007920646144706556,-1.2329947328726067,1.2428606203718053
1.9000248694354638,-0.1557004063943095,-0.012416477058895481,-1.2250400506323054,1.2349574531566294
1.9025118129818452,-0.16009742171625307,-0.016910659673203376,-1.2170648592808426,1.227666089190001
1.9049987565282267,-0.16449165605767097,-0.021403205320538632,-1.2186461251940717,1.2298837264396636
1.9074857000746082,-0.16888312977711006,-0.016317318670612035,-1.2202072012199938,1.2319469876261078
1.9099726436209896,-0.16369505656515382,-0.01122981765164699,-1.2121714399577108,1.2232259726630679
1.9124595871673713,-0.15371586004569132,-0.015717520168978094,-1.2184810169973197,1.2282392254168857
1.9149465307137528,-0.15809917377562355,-0.010626824183034511,-1.2247708811129563,1.2349785380171427
1.9174334742601342,-0.1624798080414534,-0.019899757513865968,-1.2166759808230427,1.2276384364632817
1.9199204178065157,-0.1764345897027379,-0.02917112139569422,-1.208561684309899,1.221720697847522
1.9224073613528971,-0.1712331190277423,-0.028864120359568535,-1.2100049561753252,1.222401698487429
1.9248943048992788,-0.16602902945877468,-0.03813237883478271,-1.2066407441571059,1.218606418167341
1.9273812484456603,-0.17997595440876257,-0.05697590794560803,-1.203257609009622,1.2179763839628106
1.9298681919920417,-0.17476668741725293,-0.06624110551117601,-1.2094325145406941,1.2237884973794977
1.9323551355384232,-0.17913166847820894,-0.07550478924841464,-1.2012236010468946,1.2168513744756604
1.9348420790848047,-0.17870570767257143,-0.08476697020945023,-1.1977846384363442,1.2140054403779779
1.9373290226311861,-0.17348882501171325,-0.08445085278145381,-1.184750573101553,1.2003600457379102
1.9398159661775678,-0.17305784711685052,-0.08413325460837529,-1.1812751744016428,1.1968452116449095
1.9423029097239493,-0.16783598729688826,-0.09339099330956868,-1.1729933881758132,1.1886144391548688
1.9447898532703307,-0.17218847543095528,-0.09785886987809267,-1.164693773264652,1.1814130585728713
1.9472767968167122,-0.1765385247650032,-0.0831716852821418,-1.1659532915470532,1.1821719240568536
1.9497637403630936,-0.17609775183340615,-0.07805987034772865,-1.171983694656868,1.1877076837762088
1.952250683909475,-0.16607777313837474,-0.08252343595386558,-1.1779967339417112,1.192505031179983
1.9547376274558568,-0.16084381843093337,-0.0821971829933803,-1.164838950499954,1.1787607439261474
1.9572245710022382,-0.1651843107887736,-0.08665792893528579,-1.161240918342699,1.176127511629377
1.9597115145486197,-0.1695224632956739,-0.0815404746215358,-1.162414387946411,1.177537228230245
1.9621984580950012,-0.16428148900216621,-0.06684483082939119,-1.1539943028524142,1.1675442133183687
1.9646854016413826,-0.16382661752541594,-0.06651302491260624,-1.140769219586602,1.1543905558558025
1.967172345187764,15.691033928381463,-7.564819457243264,0.2515324618732375,17.42120282132323
1.9696592887341458,12.957315046124576,-7.6171573758276905,0.0732541436084535,15.030584348660843
1.9721462322805272,10.108676725914144,-7.382189755206108,-0.09543123098172046,12.517634674760044
1.9746331758269087,7.240887014634202,-6.888647025947673,-0.28804263713877276,9.998343421167618
1.9771201193732901,4.454502362524699,-6.19399003851701,-0.4950034199147506,7.6454648178324245
1.9796070629196716,1.8213487999412414,-5.3508912400326665,-0.6923717140919745,5.694622648093585
1.982094006466053,-0.5915360460498472,-4.397657867624471,-0.8657824607831532,4.520938938302023
1.9845809500124347,-2.7219029516630946,-3.401327578318634,-1.0391778273506986,4.478579633115893
1.9870678935588162,-4.5410215163209555,-2.4002076091923183,-1.2125579642411175,5.277515494582572
1.9895548371051976,-6.020161339409744,-1.4278167939754682,-1.352404198342363,6.333245650168337
1.992041780651579,-7.159322440201427,-0.5320391763318297,-1.458716679466292,7.3257639764653035
1.9945287241979606,-7.944139627969982,0.27276002334378635,-1.5458607670654487,8.097742770066837
1.997015667744342,-8.403343341835733,0.9722155846841165,-1.6186250136297122,8.612858375628
1.9995026112907237,-8.560875617561162,1.537597077387801,-1.6626443580436785,8.85534767093191
2.001989554837105,-0.14237553677010345,0.01523593641551857,-0.9931772740223845,1.0034460747163085
2.0044764983834864,-0.14667490565807922,0.006011448317841506,-0.9844956626875341,0.995380015527362
2.006963441929868,-0.1557607061640105,-0.008000249741152654,-0.990165223659405,1.0023734691845707
2.0094503854762498,-0.1552677473371561,-0.002857151429108473,-0.9910324911878252,1.003125931908547
2.011937329022631,-0.16434966143062207,-0.007289686909355275,-0.9775208058300446,0.9912673083372701
2.0144242725690127,-0.16864125741674613,-0.0069326564345741915,-1.00230275097236,1.0164146496558883
2.016911216115394,-0.16335415086967087,-0.00657447351076712,-1.0318596498986246,1.044730653995185
2.0193981596617756,-0.17721878056666668,-0.011003551615920149,-1.0566148421556427,1.0714301185785728
2.0218851032081573,-0.1862931487222822,-0.005854690918668304,-1.076568473590509,1.0925836778002929
2.0243720467545385,-0.18100046747246373,0.008872098479594026,-1.0869322863878121,1.1019354239468477
2.02685899030092,-0.1757059655149637,0.009234789904193796,-1.1020716356695317,1.1160285649612367
2.0293459338473014,-0.17519806486691708,0.0048101799509829846,-1.102833052969796,1.116672844877565
2.031832877393683,-0.17468838086460908,0.00517506524424638,-1.0940050860769475,1.107876319844237
2.0343198209400644,-0.1646001254835598,0.0055410324758407015,-1.094741492391183,1.1070604498007217
2.036806764486446,-0.1592985272601719,0.010696475006831463,-1.0858888023994293,1.097563176560374
2.0392937080328277,-0.1444183947680691,0.006276172945696157,-1.0674471595173856,1.077190559490736
2.041780651579209,-0.13432495646160897,-0.012508286929731938,-1.053781916767523,1.062382219013743
2.0442675951255906,-0.1290182307928709,-0.026503301211242558,-1.0305280068946452,1.038911017289867
2.046754538671972,-0.11892142953172924,-0.030920476422682697,-1.0216275888485562,1.0289904336584428
2.0492414822183536,-0.12318818432812861,-0.04012503234020448,-1.0127155946574415,1.0209692564620831
2.0517284257647352,-0.12266490022750426,-0.04932857542968616,-0.9846385526684269,0.9934752465475526
2.0542153693111165,-0.12213999883461879,-0.05374271212791992,-0.9709154273896949,0.9800424611033438
2.056702312857498,-0.12161349839147262,-0.06773266212379703,-0.9571811497623148,0.9672503863890136
2.0591892564038794,-0.11629701377708995,-0.08172162847542852,-0.9530126669633461,0.9635541309997764
2.061676199950261,-0.12534417642918017,-0.08134441089133349,-0.9488333125214279,0.960527319079657
2.0641631434966428,-0.13438979450017663,-0.07617782565225406,-0.9590084361980296,0.9713706083086389
2.066650087043024,-0.13864548273983424,-0.09016389897045407,-0.978749774103056,0.9926244097686189
2.0691370305894057,-0.13811125917471662,-0.09936062382562927,-0.9649618354121063,0.9798462110350507
2.071623974135787,-0.13757554510798037,-0.10376800976950573,-0.9655287920133109,0.9807857455479079
2.0741109176821686,-0.1322499551582355,-0.09859766300392181,-0.9804507822167814,0.9942310024027056
2.07659786122855,-0.14128812050152745,-0.10300320630264848,-0.9666323140733937,0.98231869783404
2.0790848047749315,-0.1407480423867591,-0.09783103584726938,-0.9575923483811177,0.9728124324291495
2.081571748321313,-0.14020654526048898,-0.08308116107088148,-0.9485426189960133,0.9624414032607821
2.0840586918676944,-0.13966364688391858,-0.08269560797835274,-0.9490600693541928,0.9628392976413097
2.086545635414076,-0.13911936497331806,-0.07752077266189872,-0.9495680292281872,0.9628307795438306
2.0890325789604574,-0.14336212052014163,-0.0627682611447864,-0.9548550379676577,0.9675953161003771
2.091519522506839,-0.12844991454864402,-0.04801488938128484,-0.9457676179354682,0.9556574685969762
2.0940064660532207,-0.1279015878813095,-0.03326066665505367,-0.9318827110296919,0.941206924775284
2.096493409599602,-0.1225635447714763,-0.018505602219732964,-0.9323540654009577,0.9405574852661361
2.0989803531459836,-0.11722420602813649,-0.008538108619193352,-0.9184513956072742,0.9259413479646914
2.101467296692365,-0.12146039573450051,-0.0033581950468843935,-0.8949632390579563,0.9031739059954417
2.1039542402387466,-0.11611851800562539,0.0018225326542071763,-0.9001969560122465,0.9076570891381903
2.106441183785128,-0.11556380015228196,0.0070040653509821915,-0.9006338565310728,0.908044818479303
2.1089281273315095,-0.12458466279796121,0.012186393940573748,-0.8962740735225605,0.9049735141265078
2.111415070877891,-0.12402750991775102,0.01736950935038406,-0.9110597561000553,0.9196273170456406
2.1139020144242724,-0.11868076204127831,0.017764999217817046,-0.8971070031745612,0.9050976155204198
2.116388957970654,-0.1276980496119024,0.0037960478903040773,-0.8783579630627862,0.8876000862607418
2.1188759015170353,-0.14150258310371977,-0.0005953370121583035,-0.873966380360832,0.885347711044761
2.121362845063417,-0.14094076630264823,-0.00019756776104218332,-0.8743555793413407,0.8856421499478948
2.1238497886097987,-0.15474303614997703,-0.004587459917682946,-0.8651604805537652,0.8789022181889357
2.12633673215618,-0.16854419965626616,0.010176994229226022,-0.8751116340262222,0.8912525402249115
2.1288236757025616,-0.1631906604636852,0.024942172538693796,-0.8802671528579893,0.8956135126460713
2.131310619248943,-0.1674128553692545,0.025342856220560872,-0.8758387630229212,0.892055414936664
2.1337975627953245,-0.18121080119968697,0.01616743979647195,-0.8809802066885482,0.8995692664592327
2.1362845063417057,-0.17106569149090323,0.016569527779590754,-0.8956916123320244,0.9120315150574793
2.1387714498880874,-0.15613115625348778,0.031337514752749485,-0.9103963013795546,0.9242188070741163
2.141258393434469,-0.15077242212877207,0.04131777872784426,-0.8915755782442343,0.9051776034763125
2.1437453369808503,-0.15498950574804382,0.04651031102867087,-0.8583831834498739,0.8735025160545025
2.146232280527232,-0.1496288104120705,0.05170350633001064,-0.8395496637470092,0.8543451710929635
2.1487192240736133,-0.13947875597374876,0.05210895269670912,-0.8302867422289228,0.8435317069560873
2.151206167619995,-0.1436929721973193,0.047726641544636905,-0.8066525282914228,0.8207397906589972
2.1536931111663766,-0.14311786223476536,0.043344967640703835,-0.797377567436401,0.8112783084498285
2.156180054712758,-0.12338823250848424,0.03896392246225444,-0.7928851781847577,0.8033739782693283
2.1586669982591395,-0.11323451927359601,0.029795094197076377,-0.7931754852784199,0.8017712606722641
2.161153941805521,-0.1222335454537603,0.020626877704363,-0.8030370163589247,0.8125484338552816
2.1636408853519025,-0.12165490735975482,0.011459264553781434,-0.8128930886850725,0.822025793306257
2.166127828898284,-0.1114986211737013,0.0022922463458026066,-0.8131670190927878,0.820778775223383
2.1686147724446654,-0.11091831630828936,-0.002085781967978928,-0.8134357372752952,0.8209658470701973
2.171101715991047,-0.11512560552381434,-0.016040038686394364,-0.8089109625398798,0.8172197582079626
2.1735886595374283,-0.10975529488896679,-0.020416918835257647,-0.8139580270490185,0.821578203902964
2.17607560308381,-0.10438420702287288,-0.02479323733141392,-0.8046350359756076,0.8117563109780134
2.178562546630191,-0.10380076117307463,-0.038745809060865,-0.7857305139863016,0.793503797312318
2.181049490176573,-0.11758177985601104,-0.04312102895688108,-0.7763981952795778,0.7864343937836092
2.1835364337229546,-0.11220845565375076,-0.04270730852343663,-0.7670613937019297,0.7764005624865702
2.186023377269336,-0.10683441762010082,-0.04229305923364235,-0.7672970359499995,0.7758524582839326
2.1885103208157175,-0.11582489143671659,-0.03230148256880394,-0.7627400316867945,0.7721600528323401
2.1909972643620987,-0.11044947285046797,-0.027097796580925593,-0.75339050010321,0.761925601537481
2.1934842079084804,-0.0954965807982937,-0.01710520268957172,-0.7584021732374016,0.7645822658644589
2.195971151454862,-0.09969665076645035,-0.007112112244375357,-0.7634099594504189,0.7699251720152513
2.1984580950012433,-0.09910768166537376,0.00766987007651343,-0.7588371699877747,0.7653202009793878
2.200945038547625,-0.09372968895454814,0.008087123024275389,-0.7542607289394709,0.7601051923060571
2.2034319820940063,-0.09313949468143773,-0.005860361337821196,-0.7544691566375246,0.7602190589704135
2.205918925640388,-0.10212551752041976,-0.0006537676734450493,-0.7642509729753915,0.7710444853799403
2.208405869186769,-0.10632256281171887,0.004553282861151864,-0.7788178907664616,0.7860550405191646
2.210892812733151,-0.11051904912378097,0.004972379101502611,-0.7598627991416205,0.7678741161756218
2.2133797562795325,-0.11471499165158533,0.0006035132342958605,-0.7504814432359179,0.7591984524347463
2.2158666998259138,-0.11412200221652091,-0.003764919202628114,-0.7554623411798822,0.7640427703653105
2.2183536433722955,-0.10874009590688921,-0.0033445226406025874,-0.741286784098703,0.7492273957677535
2.2208405869186767,-0.11293449771840847,-0.012500514761390136,-0.7079548859161111,0.7170150515412509
2.2233275304650584,-0.11712841599159446,-0.00729088665344424,-0.6985623899941729,0.7083513503730082
2.22581447401144,-0.11653346233351758,-0.002080855936922532,-0.6891673927653219,0.6989535557215651
2.2283014175578213,-0.11114965161768642,-0.001658833560569839,-0.6845584101378073,0.6935252076701446
2.230788361104203,-0.11534220862455774,0.0035519795185776637,-0.6847355542527538,0.694391259238419
2.233275304650584,-0.1147459381586104,-0.0008136342273195041,-0.6705453235224468,0.680292821674886
2.235762248196966,-0.10936085493104564,0.0043979309468316075,-0.6563530391530144,0.665415997999192
2.238249191743347,-0.10876378023936384,0.004821457574666788,-0.6325820052999571,0.6418822320133312
2.240736135289729,-0.11295472868600498,0.005245341501783685,-0.6279627522314737,0.6380623030160351
2.2432230788361105,-0.11714531149855345,0.010457978604475393,-0.6185533732418076,0.6296353459514513
2.2457100223824917,-0.12133554317025541,0.00609415150846182,-0.6043539777755491,0.6164439821850465
2.2481969659288734,-0.12552543813960582,0.0017306594716828272,-0.6236719013878815,0.6361810052045899
2.2506839094752547,-0.12013820414961068,0.002155898462410377,-0.6286232194157755,0.6400038968499551
2.2531708530216363,-0.11953906548988241,-0.006995348801718926,-0.6239964432663889,0.6353818413302003
2.255657796568018,-0.11415122979340997,-0.006569476330283486,-0.614580083892962,0.6251258599678007
2.2581447401143993,-0.12312832455988798,-0.006143298024161581,-0.6003742484738748,0.6129009403240533
2.260631683660781,-0.11773994403064386,-0.010505224433366767,-0.6053210603338606,0.6167549272153761
2.263118627207162,-0.10756290895413367,-0.014866859436759583,-0.6150554157793611,0.6245670239227414
2.265605570753544,-0.10696244334368366,-0.019228210203006135,-0.6200006139806984,0.6294532942880708
2.268092514299925,-0.10636175455551194,-0.023589283870294686,-0.6297335669324262,0.6390881335677239
2.2705794578463068,-0.11054925985113778,-0.02316168422604603,-0.6394659762105412,0.6493645641707915
2.2730664013926885,-0.10994816647541528,-0.02273382166788096,-0.6204675263313018,0.6305437155270183
2.2755533449390697,-0.10934689157831978,-0.022305703242708752,-0.5918919345553402,0.6023208026348216
2.2780402884854514,-0.10874544893360899,-0.01230052932644421,-0.6064117409261751,0.6162078182063234
2.2805272320318326,-0.09856704561842405,0.002493289774408769,-0.6161430153009348,0.6239822868319034
2.2830141755782143,-0.09317690525539218,0.007710537143021501,-0.5971438436779284,0.6044188598136697
2.285501119124596,-0.0973634447703543,0.01292801249441844,-0.592509958078951,0.6005953915135596
2.287988062670977,-0.09197306443134906,0.027722515573861628,-0.5830878469003515,0.5909475608321976
2.290475006217359,-0.08658258437196042,0.02815202291465768,-0.5832428213187839,0.5903060807162755
2.29296194976374,-0.08598042134905964,0.03815854428341314,-0.5738213688063354,0.5814805849346713
2.295448893310122,-0.09016658874272215,0.04816526623469919,-0.5644003962941344,0.5735832231977629
2.2979358368565035,-0.07998748659521548,0.04859537535320646,-0.5549800036093817,0.5628164113845723
2.3004227804028847,-0.08417354809529431,0.04902567153495774,-0.5455602901155263,0.5541883550015659
2.3029097239492664,-0.08357117317188495,0.04466774474508606,-0.536141354711825,0.5444510084830115
2.3053966674956476,-0.08775718161900309,0.04030999161936233,-0.5315116991532349,0.5402137583279628
2.3078836110420293,-0.08715477989256681,0.03595240550321632,-0.5125178081281234,0.5211171027399172
2.3103705545884106,-0.08655238435250434,0.031594979772018306,-0.5126786023828629,0.5208924143478608
2.3128574981347922,-0.08595000798144409,0.022449304510719248,-0.5128405656745816,0.5204774932179586
2.315344441681174,-0.08534766370495556,0.013303776474762774,-0.5034269879348301,0.5107836590470766
2.317831385227555,-0.07995696107117178,0.018523599090028764,-0.5131683851910847,0.5196903221213672
2.320318328773937,-0.08414312285228776,0.018955152569995803,-0.5181228364804564,0.5252529263267752
2.322805272320318,-0.07875254852105962,0.014598430439129562,-0.5182904369743397,0.5244426137614105
2.3252922158666998,-0.0829388640554295,0.010241829571908223,-0.5040944747358846,0.5109745489777671
2.3277791594130814,-0.08712527545409487,0.005885343552149536,-0.48990025396186,0.497622055101634
2.3302661029594627,-0.0865233919786283,0.006317369313605603,-0.4804962717401615,0.48826516737396597
2.3327530465058444,-0.09071003279405343,0.006749497178970998,-0.4710942180494939,0.4797954022719802
2.3352399900522256,-0.09010840372659706,0.0023933175004691165,-0.46648258904034456,0.47511183764309267
2.3377269335986073,-0.08471851718551143,0.0028256306207414816,-0.4618730737534591,0.4695869968397602
2.3402138771449885,-0.07932878884270378,0.01283483359155646,-0.47163097404143883,0.47842822384120437
2.34270082069137,-0.08351603763269311,0.013267306892511765,-0.49575638132629507,0.5029168316926651
2.345187764237752,-0.0924918724713002,0.018488254274739102,-0.5198841765992093,0.5283711944245376
2.347674707784133,-0.08710269225560291,0.018920862917108483,-0.5296492403812287,0.5370970078934669
2.350161651330515,-0.08171371906701214,0.019353529988678897,-0.5346284693246215,0.5411832325739342
2.352648594876896,-0.0859017716087257,0.005421039406465322,-0.5204567430095164,0.5275260404736792
2.3551355384232777,-0.8610229898150579,-0.7938095494927351,-6.6929048536312195,6.79459119959518
2.3576224819696594,-0.9897100028201555,-0.2570755718741746,-9.896545741352012,9.94923270157098
2.3601094255160406,-1.0417828176297812,0.2605048265787091,-12.329256618322232,12.375934023911972
2.3625963690624223,-1.0172414460744927,0.7349896232589179,-13.856962279231329,13.91367649163764
2.3650833126088036,-0.9160858999267143,1.142436795587968,-14.4030483581392,14.477298685005229
2.3675702561551852,-0.757469804181869,1.4732695309776473,-13.977091748400348,14.074920154599653
2.3700571997015665,-0.5557583804571297,1.6891805969461338,-12.636553376101013,12.761061072402935
2.372544143247948,-0.33010525363146753,1.794958390923743,-10.534662233260788,10.691583300545986
2.37503108679433,-0.08051043524450552,1.8001797136896327,-7.843800924709386,8.04812660674736
2.377518030340711,0.14993043333965062,1.7000561560907603,-4.76987087804638,5.065998249302742
2.3800049738870928,0.3516405340574084,1.494587712323042,-1.537927133680407,2.173168968011838
2.382491917433474,0.5150430489035315,1.2029279898922436,1.6317636717724628,2.091639971793996
2.3849788609798557,0.6209843532905255,0.8729610162546022,4.5428769187695455,4.667484676142065
2.3874658045262374,0.6742528392909436,0.5094751890117255,6.999087988242961,7.049923015656081
2.3899527480726186,0.6556948824341172,0.13162411575521116,8.866321504756861,8.891508179854112
2.3924396916190003,0.5844640848703989,-0.23186178925498346,10.020078899992601,10.039787812394087
2.3949266351653815,0.47013724216797514,-0.5618289183709269,10.42684126918806,10.452545126084576
2.397413578711763,0.3318679565942664,-0.8391236639162933,10.072243321335476,10.112583764209099
2.3999005222581444,0.16486781387351546,-1.0493808215071596,9.028111025664865,9.090388891369278
2.402387465804526,-0.016497986930130992,-1.178235186731259,7.38063556183997,7.474108082943489
2.404874409350908,-0.1930758433736653,-1.2304751684295314,5.278257353161031,5.423223036867895
2.407361352897289,-0.34571215295548874,-1.2013123687742602,2.883782033361726,3.1430665147290524
2.4098482964436707,-0.46004171643570707,-1.0907467932300663,0.37438044660911274,1.2415827264447679
2.412335239990052,-0.5456413511173664,-0.9227204638352167,-2.0584113524964103,2.3208177081614063
2.4148221835364336,-0.5881458576433143,-0.7115985959594975,-4.270941342085223,4.369579849272381
2.4173091270828153,-0.5779784399180548,-0.45738119498391194,-6.124345903135984,6.168538674256126
2.4197960706291965,-0.5390811250296474,-0.18879868618379492,-7.508491836076022,7.530186123575448
2.4222830141755782,-0.47624232672619055,0.08457211847473234,-8.35634157074484,8.370328765583059
2.4247699577219595,-0.3655200387752558,0.33878919709203537,-8.605645939829245,8.620065258483377
2.427256901268341,-0.23564469140915967,0.5594873344367097,-8.313865858552184,8.336001440258038
2.429743844814723,-0.10576990816087856,0.7514549285861136,-7.4953666117817646,7.533683855072601
2.432230788361104,0.01931589745615747,0.8763847477621334,-6.202820710477847,6.264455929794505
2.4347177319074857,0.11567069870610197,0.9342767867766559,-4.560726714932064,4.656874594955707
2.437204675453867,0.20723650211484868,0.9442846537500333,-2.7079483949265146,2.875344324546489
2.4396916190002487,0.2700712810638922,0.9016199402283189,-0.7833495197718445,1.2245380694774617
2.44217856254663,0.30417502559499526,0.8062826411050561,1.093359754973612,1.392138533817313
2.4446655060930116,0.31433612912893466,0.6582727513009288,2.7928924675814653,2.8865859683464037
2.4471524496393933,0.286189371863945,0.48632068568544184,4.2099036733967985,4.2475523663838795
2.4496393931857745,0.23409995397882266,0.29521484255368335,5.272567251475561,5.286011730317048
2.452126336732156,0.15806786575012627,0.08974362022755722,5.918633887985818,5.92142436138202
2.4546132802785374,0.07724671079433326,-0.10136256634261631,6.095431076205973,6.09676319279022
2.457100223824919,-0.003575117174278941,-0.27331531878116255,5.82690076300945,5.833308370633543
2.459587167371301,-0.09397443434380331,-0.4261146420061994,5.18486892894194,5.203198121612307
2.462074110917682,-0.17958604024198993,-0.5406069276277308,4.174123908535037,4.212815851642783
2.4645610544640637,-0.2508331376583464,-0.6072153738699324,2.9095873131557113,2.9828385987324566
2.467047998010445,-0.29335052600342054,-0.630728388891356,1.5061807546395798,1.659051927248398
2.4695349415568266,-0.30713821459001267,-0.6111459775037205,0.01178819880738935,0.6840849730199028
2.472021885103208,-0.3065614226333031,-0.5676217577736788,-1.4203615150048616,1.5600003843114725
2.4745088286495895,-0.2916201593289212,-0.48579052449928817,-2.7184424034400037,2.7768622313397153
2.4769957721959712,-0.24794922385301343,-0.3608638790930918,-3.8010516760307693,3.8261854895835548
2.4794827157423525,-0.1851254319246845,-0.21199543954286382,-4.591574945164265,4.600192818675375
2.481969659288734,-0.11751400252484406,-0.07749243709159614,-5.042128242681654,5.044092766221076
2.4844566028351154,-0.059480154575875965,0.07137554352817199,-5.133558019879472,5.134398728232076
2.486943546381497,0.008129716300518619,0.22503169104738419,-4.894594760791014,4.899771752502928
2.4894304899278787,0.07573879461924471,0.34995717762135703,-4.330026932381853,4.344806051635824
2.49191743347426,0.11940505499268783,0.4509404019936829,-3.506892244316563,3.5377815119868115
2.4944043770206417,0.1582821019745163,0.5279813596135265,-2.5113820190748086,2.5711587243181007
2.496891320567023,0.18279312025488964,0.5762916426353768,-1.4153223687110064,1.5390460647939144
2.4993782641134046,0.1833612945823453,0.5910828432393775,-0.285751001494603,0.681655284420233
2.501865207659786,0.16956342304501126,0.5819317635921766,0.8007175681284497,1.0042633896651718
2.5043521512061675,0.14139949714870148,0.5488383992452905,1.7818340361368339,1.8697994380723615
2.506839094752549,0.09408110513719792,0.4678607291740988,2.6001375022928386,2.6435695464800615
2.5093260382989304,0.04197344859377938,0.3773059755433974,3.1838018568606774,3.2063555375717625
2.511812981845312,-0.010135077480685317,0.2723857306604529,3.518461830410752,3.529004159549879
2.5142999253916933,-0.06224448134745991,0.1530999901780543,3.5993289606160666,3.60312127872214
2.516786868938075,-0.1143547712096642,0.05296757301631638,3.421614785611169,3.423934917401705
2.5192738124844567,-0.15688914857169034,-0.051953541723343655,3.004472860593129,3.0090148795706892
2.521760756030838,-0.18505921820015275,-0.15687495499256343,2.3862103545013245,2.398511313643133
2.5242476995772196,-0.2036533914442868,-0.23785465443690468,1.609922840055038,1.6400917935941692
2.526734643123601,-0.2174600795953307,-0.29010424095831056,0.737859503714331,0.8221228643342574
2.5292215866699825,-0.2073256772849949,-0.34714254199637473,-0.15815366096023453,0.43417100479017645
2.5317085302163638,-0.17803859568866393,-0.36587393184104045,-1.001502256629557,1.0810033513313957
2.5341954737627455,-0.1583292625253922,-0.34629841464041977,-1.74909070873918,1.790058394229649
2.536682417309127,-0.12904407225334152,-0.31714641443994074,-2.3386698289944645,2.363601233250828
2.5391693608555084,-0.08539462923378621,-0.2832063386589634,-2.7750280751293275,2.7907488046606006
2.54165630440189,-0.04653455437186188,-0.22053617477057452,-3.039011887819017,3.0473586798140992
2.5441432479482713,-0.007675451913464748,-0.138712733465717,-3.0731604807204054,3.0762989898982966
2.546630191494653,0.031182670632854514,-0.05210122873132006,-2.896627520159975,2.8972638622554276
2.5491171350410347,0.06525140249577499,0.02972152879011869,-2.562085495251411,2.5630886055263398
2.551604078587416,0.08495392964120568,0.10196713180053907,-2.083899668091984,2.088121714077748
2.5540910221337976,0.09029024473317165,0.1598471730259905,-1.4620700903638237,1.4735509479332083
2.556577965680179,0.0860487438134197,0.2225152618180024,-0.763634459780663,0.8000343843975125
2.5590649092265605,0.08180622630138173,0.2612409743488904,-0.060418876923957754,0.2803382707180431
2.561551852772942,0.06798587839254927,0.27123590341635406,0.6092693813190291,0.6703731602441768
2.5640387963193234,0.044587692980313176,0.27644206176371,1.1879694252306514,1.2205243263287797
2.566525739865705,0.016400066335551577,0.2768594455563931,1.6517391887867277,1.6748619234263584
2.5690126834120863,-0.007000201893386904,0.26291124434280455,1.9862134130533171,2.00355061014723
2.571499626958468,-0.03997832860263828,0.23459745433549317,2.172238436225644,2.18523546926975
2.5739865705048492,-0.06816911070944598,0.18712966845013135,2.1954490002679456,2.204463847117184
2.576473514051231,-0.08678415171470522,0.1348730929070543,2.0797870741551208,2.085961771941632
2.5789604575976126,-0.10061186170306002,0.09219293394983641,1.8300410140280938,1.8351219024388021
2.581447401143994,-0.10007544074136965,0.054300784564059956,1.446210773154295,1.4506857927998729
2.5839343446903755,-0.08996329880066611,0.01161983443813197,0.980968741770619,0.985153839770469
2.5864212882367568,-0.08464065243590424,-0.026273113435219653,0.467833697278083,0.4761540557878684
2.5889082317831384,-0.07931910486415372,-0.045012852719962027,-0.07404079243858064,0.11747219352413824
2.59139517532952,-0.059633452605291404,-0.06375300029932962,-0.5871939324881623,0.5936474610976673
2.5938821188759014,-0.049525718685195286,-0.08249355975246386,-1.0428953474580993,1.0473245389857282
2.596369062422283,-0.029842296190501938,-0.06292730807323998,-1.3980494515323514,1.399783082364255
2.5988560059686643,-0.010159998073365206,-0.0385730720375288,-1.633502675054645,1.6339896256885917
2.601342949515046,0.004732766090659646,-0.009430855156397744,-1.7588318678495227,1.7588635192836568
2.603829893061427,0.024412796743168097,0.01971093576131011,-1.7740370726605859,1.7743145270237604
2.606316836607809,0.024938071139707807,0.04885229724953,-1.6647531218309393,1.6656564504676779
2.6088037801541906,0.02067379315439094,0.07799322586458413,-1.4597104771477003,1.4619387901341565
2.611290723700572,0.021196763397005214,0.11192212150541803,-1.1636975833583936,1.1692595646711417
2.6137776672469535,0.016930169251998528,0.14585057745259045,-0.7910796914138452,0.804590641097434
2.6162646107933347,0.00787400480028444,0.1606249770478687,-0.38974087507088306,0.42161633377306545
2.6187515543397164,-0.001183332501166534,0.17539893021761976,0.02595361559196263,0.17731264805306227
2.621238497886098,-0.005453445139704249,0.19496083694926725,0.4272733209698849,0.4696828278961078
2.6237254414324793,-0.019301548828323023,0.19536867733029428,0.7806993785716028,0.8050049624511936
2.626212384978861,-0.03793924594328013,0.17662244807160077,1.0862317495819145,1.1011513471568461
2.6286993285252422,-0.061366542125688706,0.17224096914805154,1.2864095557736945,1.2993391971042043
2.631186272071624,-0.07042982968007838,0.15828222071246278,1.3764443558751758,1.3873041076573878
2.633673215618005,-0.06991751745727626,0.12995779622052606,1.3707013223265854,1.3786223569468667
2.636160159164387,-0.07419482089355789,0.0968444991104187,1.2739688213574567,1.2797969707130434
2.6386471027107685,-0.06410813212792099,0.06851913284179156,1.1054004295873696,1.109375875842928
2.6411340462571498,-0.05402266648654819,0.04498169425506893,0.8697845141032019,0.8726207092924831
2.6436209898035314,-0.05351523592039498,0.007078566930740937,0.5814862490598145,0.5839865104872382
2.6461079333499127,-0.04822063572402924,-0.01645983232633208,0.2836012289604497,0.2881420012037778
2.6485948768962944,-0.03813887109822134,-0.03521031325262136,-0.03344738778947587,0.06175003965937225
2.651081820442676,-0.018481543868784867,-0.04438447560257153,-0.3313524091566702,0.33482229345164344
2.6535687639890573,0.0011745342320806929,-0.05834753239086332,-0.5765950460043126,0.5795409054963079
2.656055707535439,0.006464148206323128,-0.06752268000967598,-0.7595985253742192,0.762621149246735
2.65854265108182,0.026117712993067477,-0.06233311483032766,-0.8899396871674128,0.8925022122841331
2.661029594628202,0.03619320706227147,-0.04277883984397768,-0.9484649509419327,0.9501188033825728
2.663516538174583,0.03669062553962987,-0.03759027794295111,-0.9351743491168651,0.9366484368451538
2.666003481720965,0.022821560284603137,-0.01803701215518938,-0.8740099302935818,0.874493862570288
2.6684904252673465,0.02331642645281995,0.01588095459004757,-0.7362413061316833,0.7367815967542267
2.6709773688137277,0.0285984126912896,0.04022160278241582,-0.54102212107653,0.5432684253966866
2.6734643123601094,0.014725497739870086,0.07892694613512008,-0.3122944224772084,0.32245016579353186
2.6759512559064906,0.00563969359522265,0.10805496517854696,-0.07400025726746406,0.1310866878032848
2.6784381994528723,0.006129399026343574,0.127605657064902,0.1594951346740956,0.20435134262367205
2.680925142999254,-0.0029590037458563367,0.15194422892752835,0.3738265138826904,0.4035369461266644
2.6834120865456352,-0.01204871252520745,0.1667054679979727,0.5833590612276947,0.6068308486311448
2.685899030092017,-0.01635132838258946,0.18146617812939025,0.7545739247872536,0.7762597166629238
2.688385973638398,-0.025443662296643965,0.19143795323393942,0.8587406563702995,0.8801882666752372
2.69087291718478,-0.034537315232012755,0.18225558060303548,0.9150128413985623,0.9336264899458753
2.6933598607311615,-0.03405548478006715,0.18264947743070525,0.9138136457805217,0.9325105827088526
2.6958468042775428,-0.028786578440269106,0.1830428343682029,0.8407778325120265,0.8609533726953305
2.6983337478239244,-0.023519003659332793,0.16907043876612038,0.7390010048392064,0.758459255300542
2.7008206913703057,-0.018252764511029973,0.15509749791650274,0.5941179265700995,0.6143000146054115
2.7033076349166874,-0.012987865016608646,0.1411240091699626,0.42528218515950833,0.44827403183314074
2.7057945784630686,-0.0077243091448994106,0.12236156657621144,0.24207056182502917,0.27134880657381905
2.7082815220094503,0.0023263025078767985,0.10838697416526699,0.05884824150725976,0.12335421914372113
2.710768465555832,0.007587159436755475,0.09920022934578077,-0.1052311871315883,0.14481661933527382
2.713255409102213,0.008058257829474225,0.0852245229049986,-0.26453295827092127,0.27803927930275585
2.715742352648595,0.022893207206984734,0.07603665893052769,-0.3711730625269265,0.37957227873378346
2.718229296194976,0.02814998725927531,0.06684823156810138,-0.4347283299611302,0.4407378231071996
2.720716239741358,0.014251787689005702,0.05765923830274389,-0.469563993558193,0.47330544604969826
2.7232031832877395,0.009929024812954435,0.053258079958697024,-0.4565264626644403,0.459729724650832
2.7256901268341207,0.015181695077522317,0.048856350738413656,-0.4147693727936623,0.41791274146710317
2.7281770703805024,0.010856181699248957,0.044454048183414585,-0.32992753582344925,0.3330858717741025
2.7306640139268836,0.011317691188122203,0.04483957317421794,-0.22115458648074338,0.22593810784757923
2.7331509574732653,0.01656622014433884,0.059589729930265456,-0.10760415910061916,0.12411297522331835
2.7356379010196465,0.0074481519378708505,0.05997409612703608,0.039454145575531285,0.07217337997239556
2.7381248445660282,-0.0016713067682191385,0.06993468598191077,0.22002030727410116,0.2308735350417883
2.74061178811241,-0.0060037559007067864,0.07510628716815848,0.36705665962544565,0.3747100089836024
2.743098731658791,-0.0055491986560248785,0.08506570397893531,0.4997167964130256,0.5069357397308392
2.745585675205173,-0.00030763818006562804,0.09023612744439058,0.5988470852438859,0.6056075336738374
2.748072618751554,0.00014411579106632377,0.09061755525347248,0.6596591040711086,0.6658541099019928
2.7505595622979357,0.010171270173115587,0.10536359839447762,0.6917296411926266,0.6997819939867325
2.7530465058443174,0.015408612010121447,0.1009554313503025,0.6806934686876094,0.6883117191775638
2.7555334493906987,0.015856138357087546,0.09175826182491642,0.626550568977791,0.6334324046203531
2.7580203929370803,0.01630224963924687,0.10171410418080029,0.5580313447872207,0.5674596938088529
2.7605073364834616,0.02153534633161358,0.1020925362748124,0.4799241826177223,0.4911352951742883
2.7629942800298433,0.03155542563854119,0.10247036254405195,0.3826522593883368,0.3973898233499921
2.7654812235762245,0.03199727485297721,0.09805917748235071,0.27579236567625287,0.29445009229381486
2.767968167122606,0.03722610123912928,0.09364738224176428,0.16892129243455933,0.19669778303774277
2.770455110668988,0.04724190214953833,0.07965816803093961,0.07640423431119103,0.1200617677424056
2.772942054215369,0.04767946502493864,0.07524514599785626,-0.011335630274045272,0.08979788357758162
2.775428997761751,0.04332719063631507,0.07083150738600663,-0.08472150924785637,0.11862580670429228
2.777915941308132,0.038973479803520616,0.06641725009682586,-0.12938820684562025,0.1505705525962655
2.7804028848545137,0.0489835400357676,0.06679077536930622,-0.15012414021413356,0.17145743595394633
2.7828898284008954,0.049415352328367024,0.062375274498678746,-0.12777570953000073,0.15052967767326578
2.7853767719472766,0.04026891432666457,0.06274755207853389,-0.07670813784467256,0.10697186155477459
2.7878637154936583,0.03590943368526334,0.06311920275856098,-0.03522866444492223,0.08071294805076559
2.7903506590400395,0.03154850482571647,0.06827862784604477,0.02539311823176149,0.07938570167737484
2.792837602586421,0.022397722217632143,0.07822582534485578,0.10036879486942674,0.1292084853829777
2.7953245461328025,0.013245487019162061,0.09296079327569329,0.19448675715522867,0.21596817062145493
2.797811489679184,0.018457007076863263,0.09811831971507878,0.2790165738953778,0.2963412125949758
2.800298433225566,0.02366707036305915,0.10327520935778844,0.36832344413889295,0.3832597795096705
2.802785376771947,0.00972206157726252,0.10843146027459749,0.45761895401228614,0.4703902710833766
2.8052723203183287,0.00535239866947268,0.11358707055283634,0.5038074634370648,0.5164810073789563
2.80775926386471,0.005769676394721701,0.12831884493695034,0.5404077858159635,0.5554634012265481
2.8102462074110917,0.006185489555119994,0.1286847649456173,0.5530547017035587,0.5678622474566852
2.8127331509574733,0.006599836320026586,0.11947323203574589,0.5369597986487449,0.5501301994777409
2.8152200945038546,0.007012714905593631,0.12462626096177543,0.5160650844747217,0.5309463762994916
2.8177070380502363,0.01700093021524718,0.11541342997093063,0.48558214743392725,0.4993989520937973
2.8201939815966175,0.017410867277041664,0.10619994720939863,0.43593417280835567,0.449021347052368
2.822680925142999,0.00824252444664797,0.10177421419883048,0.38148636283017545,0.3949148957819131
2.825167868689381,-0.0009272932334323247,0.09734782583626878,0.32702711343812396,0.34120989433406074
2.827654812235762,0.009055025965996055,0.09770918367533765,0.26297961095606404,0.28069085102359237
2.8301417557821438,0.009459060616932247,0.10285828596523672,0.2037090586540291,0.22840026575547562
2.832628699328525,-0.004503594061294969,0.09842992101005743,0.16836906346573777,0.19508170914220715
2.8351156428749067,-0.00410251956154184,0.09878929705151673,0.13780600610451543,0.16960734417224801
2.837602586421288,0.0010854761063120444,0.08957120242515382,0.12159668754625308,0.15102957652223736
2.8400895299676696,0.0014835849777147248,0.0755640387633858,0.11974110246564429,0.1415982224404971
2.8425764735140513,0.0018802090939632476,0.0759214176750298,0.13702764919478305,0.15666580192202725
2.8450634170604325,-1.4869180853950543,-0.4791766576136387,-5.4624943849215795,5.6814945716049445
2.847550360606814,-1.8312894735071081,-0.15799759597087748,-9.54410405693583,9.719491068246809
2.8500373041531954,-2.0176450403704287,0.15839239003988403,-12.778177835671642,12.937457573194353
2.852524247699577,-2.012465963842379,0.4604164921673024,-15.016275221847497,15.157523681002605
2.855011191245959,-1.8588478748608526,0.7193442888940647,-16.14347453909267,16.266054894232113
2.85749813479234,-1.5711559843978087,0.9160221653585228,-16.154987387073565,16.257036790609877
2.8599850783387217,-1.154178696740161,1.0552385233159223,-15.108274608291977,15.188996624025528
2.862472021885103,-0.6701652559748233,1.127416554575488,-13.103892674805168,13.169365694317218
2.8649589654314846,-0.17178809950423224,1.113402644320848,-10.319012511469433,10.380327346060655
2.867445908977866,0.3122223519143831,1.0371388076333785,-6.969112269378959,7.052777149927714
2.8699328525242476,0.7579240808875146,0.9082018496484143,-3.317554132508489,3.5221364161852304
2.8724197960706292,1.1222214567840987,0.712226558914407,0.36751131217201305,1.3790258278451772
2.8749067396170105,1.3668072523359056,0.48752016051829594,3.8849711244910274,4.147148250313569
2.877393683163392,1.4916814668808025,0.26281307292075384,6.995405138039979,7.157504967183037
2.8798806267097734,1.501632503119572,0.033316891355080536,9.516854026568602,9.634652082596949
2.882367570256155,1.3822951505144898,-0.18660317564964535,11.320030900666994,11.405641596173098
2.8848545138025368,1.1767650384140678,-0.363428306268609,12.328321307763648,12.3896877425095
2.887341457348918,0.8898305696469019,-0.5019469052249463,12.517783232123891,12.559404690700315
2.8898284008952997,0.5454337603648098,-0.5925821672665952,11.907570288208271,11.934776151253466
2.892315344441681,0.1914586433631872,-0.6305456904474405,10.569508527310923,10.590030915382572
2.8948022879880626,-0.14815276512191855,-0.6206258794476451,8.647250050840665,8.670758857552048
2.897289231534444,-0.4638236587739105,-0.5723995422535344,6.289235363834074,6.332239341979391
2.8997761750808255,-0.7172468113127167,-0.47628987355598373,3.6391165683135167,3.7395807826231247
2.902263118627207,-0.8892686096979834,-0.3227200680318769,0.902795009772424,1.3076642276114594
2.9047500621735884,-0.9798890541295491,-0.1691509668282669,-1.7042511593544285,1.9731362401371968
2.90723700571997,-0.9843197414457372,-0.01558257123458029,-4.057523449414047,4.1752394796551435
2.9097239492663514,-0.9025606717643122,0.15713873075493145,-6.018158160491854,6.087490122506452
2.912210892812733,-0.7537654584434812,0.31070571131626235,-7.456868399015945,7.501305668057373
2.9146978363591147,-0.5522993114805979,0.4307531592406191,-8.301828110958194,8.331322391886742
2.917184779905496,-0.30773903751240006,0.5364346865752059,-8.562614098440516,8.584918502058269
2.9196717234518776,-0.06796866969762727,0.608596678818512,-8.220072743367842,8.242851785868062
2.922158666998259,0.17658859868864357,0.6376623281232279,-7.336453283796626,7.366229942326308
2.9246456105446406,0.4019907511690694,0.6284200366165953,-6.017100587374258,6.063168131020804
2.927132554091022,0.5699305613452815,0.5904466097597045,-4.3338406982142965,4.410852892721617
2.9296194976374035,0.6899848360613775,0.5141652397458927,-2.430325709947148,2.578163692279392
2.932106441183785,0.7573651722400923,0.4187295387037966,-0.43584250595354135,0.9689660059574957
2.9345933847301664,0.7529179568824282,0.31371631213480766,1.5251104339922161,1.7295274528516165
2.937080328276548,0.6957968035909644,0.17997194563176633,3.313669420439748,3.3907120374722743
2.9395672718229293,0.5955785193665599,0.06538047128515867,4.8340663941049264,4.871055971898798
2.942054215369311,0.4474747012878729,-0.03963491864505864,6.0096869092668115,6.026453458086402
2.9445411589156927,0.2706389630736219,-0.14465103188578388,6.7399745038834915,6.746956771934937
2.947028102462074,0.08422491848118774,-0.20178383630697017,7.0009871693166925,7.004400895039124
2.9495150460084556,-0.0926138186941946,-0.23976375289062535,6.845397350331263,6.850221081142973
2.952001989554837,-0.245512037939411,-0.24422557272287904,6.277993458764509,6.287537209387707
2.9544889331012185,-0.3601045287033443,-0.22953450679875864,5.351447939931717,5.368459407986934
2.9569758766476,-0.4411796936785466,-0.19569055613947217,4.156740465983669,4.18466553232425
2.9594628201939814,-0.48394912887937747,-0.13311691511272583,2.784850709342553,2.829720895381373
2.961949763740363,-0.46925922032190803,-0.06096719799534567,1.3315467460220454,1.4131305502077387
2.9644367072867444,-0.4258403871881309,0.0351238041908668,-0.1121917510174022,0.4417699695290823
2.966923650833126,-0.34890422538084787,0.12163726723363721,-1.4362314952658695,1.4830005702164488
2.9694105943795073,-0.23845073408635054,0.20336159349585126,-2.587900039791565,2.60680672590982
2.971897537925889,-0.10884512241512412,0.2802967820327442,-3.490582920797771,3.50351005045748
2.9743844814722706,0.025547400558740163,0.3380776219510895,-4.0963960941457636,4.110402669845387
2.976871425018652,0.15036162579745532,0.3719157090108318,-4.376609128717497,4.394955901791827
2.9793583685650336,0.2560207476198004,0.41054146222658616,-4.312068399775946,4.339127193314945
2.981845312111415,0.34731317034136633,0.4252244607816089,-3.960234735450679,3.9981122345689206
2.9843322556577965,0.4098736850323044,0.4063878971527788,-3.330684930411488,3.3803268579095125
2.986819199204178,0.44370229275931294,0.38276219039178727,-2.4808798122759264,2.549145594498601
2.9893061427505594,0.4392221879839032,0.339982129679818,-1.4922222250101287,1.5922409201289767
2.991793086296941,0.4012217751637764,0.2828361174914833,-0.42696139904573727,0.6505929745227206
2.9942800298433223,0.33927786211202926,0.23047776627454297,0.6334998221543291,0.754686354147058
2.996766973389704,0.2629672566766604,0.16375346192638274,1.6412774186186727,1.67025702789855
2.9992539169360852,0.1722899600997464,0.09224001027835715,2.519756950701309,2.527324106729266
3.001740860482467,0.05288076369705874,0.12607068690040046,0.4629340864257312,0.4826988311976209
3.0042278040288486,0.053180171709233504,0.12638179471823108,0.4651135028469131,0.48490314417391656
3.00671474757523,0.05347810247368212,0.12669215620074414,0.4720701897644073,0.49169205195038784
3.0092016911216115,0.04898615404930462,0.11742496394593749,0.4742273549924203,0.49099882858246613
3.0116886346679927,0.049281134489769896,0.10815702384492054,0.4715850132258552,0.48633218762777725
3.0141755782143744,0.05436304524177371,0.10846514180062439,0.47850838935909756,0.49364998365322205
3.016662521760756,0.04507827450423385,0.10398410712619333,0.49020909524231193,0.503139843806269
3.0191494653071373,0.04536884039217215,0.10429072574806897,0.4779567263596114,0.4913018618201907
3.021636408853519,0.050446341131847205,0.09980819032313004,0.46569331495253685,0.4789329512370719
3.0241233523999003,0.04115716502151179,0.10011330680115194,0.4725724901747732,0.484810627875726
3.026610295946282,0.031866523634356936,0.10520607450289132,0.49380586480938504,0.5058932946392861
3.029097239492663,0.032151225255830584,0.11029808944035491,0.49587463194697,0.5090098431545177
3.031584183039045,0.03722286824283161,0.10581254431675546,0.48356721146850923,0.4964061688400321
3.0340711265854265,0.04229305098446612,0.09653784180772274,0.4951908467235331,0.506282758684549
3.036558070131808,0.042573371901866164,0.10162759456126169,0.5068035381223233,0.5186429274796948
3.0390450136781895,0.04285223608863209,0.10671659199458805,0.4992516896187702,0.5123250869632797
3.0415319572245707,0.04312964534971364,0.11180483349720882,0.49168893195103536,0.5060815081629446
3.0440189007709524,0.038617198201228,0.11210391514963858,0.4984804927571851,0.5123879169615891
3.046505844317334,0.02931489651090391,0.11719064300460236,0.5196263899330642,0.5334834534267638
3.0489927878637153,0.03916475877913983,0.11748820984481245,0.526396221669799,0.5407682867652347
3.051479731410097,0.04901317365446978,0.11778501842511346,0.5140016029757142,0.5295972522763795
3.0539666749564782,0.044494933136473236,0.12286947151150596,0.5015961656748011,0.5183390970436231
3.05645361850286,0.03997524917717932,0.12316476192017278,0.5083335418036192,0.5245670298905968
3.0589405620492416,0.049819333758999496,0.12824769575962902,0.5054833304066335,0.5238729185621517
3.061427505595623,0.054873575652353845,0.1381182725087986,0.49304555065967826,0.5149579415165813
3.0639144491420045,0.0503495736186218,0.13362287837636977,0.5045390451887304,0.5243565593268752
