Time (s),Acceleration x (m/s^2),Acceleration y (m/s^2),Acceleration z (m/s^2),Absolute acceleration (m/s^2)
0.0,0.4548113957922908,-0.5806669414781411,3.3430310250520794,3.4234316025194467
0.002486943546381497,0.47110988442503965,-0.027602474720696435,3.8555831806432526,3.8843568428599373
0.004973887092762994,0.6023296953448538,0.4153283948442983,5.689736395690894,5.7365842615538885
0.007460830639144491,0.8245288824460073,0.74333724283222,8.63958993475062,8.710620665326513
0.009947774185525988,1.128130709597911,0.9324820315885254,12.403474995912585,12.48953136075978
0.012434717731907486,1.4844048274014279,0.9636091267908111,16.627050340670948,16.720968969292812
0.014921661278288981,1.8598324831483088,0.8558721206914539,20.9463979237933,21.046212959443384
0.01740860482467048,2.244836940741564,0.6284246055555909,25.02633011986982,25.13466549696035
0.019895548371051976,2.615476254131458,0.3004201736615837,28.56517812662019,28.686240076423555
0.022382491917433474,2.9382316706343223,-0.08504556609695202,31.309157174841207,31.44684024027759
0.02486943546381497,3.1891612442123014,-0.49445381145286893,33.09546215827625,33.25244125599113
0.02735637901019647,3.3730534487531005,-0.9086509700853291,33.8522676336019,34.03203138354502
0.029843322556577963,3.465966338224736,-1.2845414330568445,33.56999740049277,33.77288401691567
0.032330266102959464,3.4678999831974706,-1.5838179947346904,32.33005492153002,32.554066734634766
0.03481720964934096,3.388431260881369,-1.8112690793529314,30.290458112227128,30.533162540688842
0.03730415319572246,3.237137048484178,-1.9525294978479093,27.647532114454037,27.90479277347177
0.03979109674210395,3.0092290132488864,-1.9980224644593394,24.63590929642391,24.89930882342498
0.04227804028848545,2.7430144522959714,-1.9525364033704722,21.499798832757932,21.761844511462048
0.04476498383486695,2.4528586461375252,-1.806494528785765,18.492986704472024,18.742211589677552
0.04725192738124844,2.1435500686366975,-1.5838388781335386,15.82616326244019,16.049012309112708
0.04973887092762994,1.8438192102483764,-1.3228766987842744,13.676500034021824,13.863488926704788
0.05222581447401144,1.5776081580958232,-1.0475500281282848,12.173284513087593,12.319702285303013
0.05471275802039294,1.3592821926488556,-0.7674356935752513,11.38834335336554,11.494823615748555
0.05719970156677443,1.1840529810817335,-0.49211052251471044,11.355195981709153,11.427363213419005
0.059686645113155926,1.0806510137950969,-0.2694585688780955,12.011593758240394,12.063117306358164
0.062173588659537427,1.0442879579300965,-0.0994798533726633,13.223461992938109,13.265005867280406
0.06466053220591893,1.0701754806090922,0.01782560331582861,14.899821625312342,14.938215347810319
0.06714747575230041,1.1487368456138434,0.05372736060170746,16.868290738063042,16.907445560863756
0.06963441929868192,1.2895489299855845,0.03695581776545165,18.937333800231073,18.98122529334363
0.07212136284506342,1.4734581908204052,-0.04685425577241853,20.944145700388113,20.995964218879436
0.07460830639144492,1.6765226818693288,-0.17376086400558055,22.735498133342396,22.797890176766312
0.0770952499378264,1.8748004568571321,-0.32939881754458655,24.191681616727163,24.26645503115621
0.0795821934842079,2.0778683927230563,-0.5137681369367346,25.212140281026713,25.302836052628145
0.0820691370305894,2.280938156416187,-0.6981384227828054,25.725048676203947,25.835406045267092
0.0845560805769709,2.460067801573667,-0.8633560822991209,25.720830594929573,25.8526293402866
0.0870430241233524,2.5817385751598367,-1.0094211359577279,25.247370669248795,25.39909507857772
0.0895299676697339,2.6603157573085103,-1.126756797564088,24.352553530724585,24.52333020362951
0.0920169112161154,2.7005878214777397,-1.2009978775769468,23.112994230346576,23.30120324737528
0.09450385476249688,2.6929780311280305,-1.2369327997094515,21.657980255119902,21.859785958657024
0.09699079830887838,2.627909649681807,-1.2297731810068502,20.107222284887904,20.315477824001757
0.09947774185525989,2.524536360443808,-1.1795190418069867,18.58043099896013,18.78821346249575
0.10196468540164137,2.3924350400371237,-1.1053240157008006,17.192528672779087,17.393347255914065
0.10445162894802287,2.241182565042342,-0.9976113163287765,16.02491875798554,16.21160537480338
0.10693857249440437,2.0612021987148474,-0.8755345772242573,15.14942789900729,15.314055013846678
0.10942551604078588,1.8812244308270953,-0.7534590285708287,14.62351752972608,14.763264232854521
0.11191245958716736,1.7204029444640296,-0.636173093881578,14.451976646902347,14.567914452635634
0.11439940313354886,1.5691610027403688,-0.5284651966392881,14.610863826764069,14.704383138398663
0.11688634667993036,1.4466522886429063,-0.43991216361633034,15.066660838275308,15.142344414639107
0.11937329022631185,1.3576652751462337,-0.3753024182336073,15.766695836482933,15.82949160600675
0.12186023377269335,1.3117768384925435,-0.3537895938413831,16.643931765824316,16.699293104084727
0.12434717731907485,1.3041986449089253,-0.356220097195425,17.593024343513136,17.64489536422571
0.12683412086545634,1.320565553926235,-0.3825939483003302,18.551724915972123,18.602601131814698
0.12932106441183785,1.3560892316588977,-0.4424879737684848,19.42905440901587,19.481348229515582
0.13180800795821934,1.444288570725331,-0.507171773616522,20.167552571002275,20.22556227617966
0.13429495150460083,1.5468564138793308,-0.58143377106959,20.700182342937346,20.76603907889405
0.13678189505098234,1.6590044270555038,-0.6509087760375074,21.003002294986153,21.07847440700835
0.13926883859736383,1.7807326794459462,-0.7347504216377807,21.071224609858795,21.15909671079705
0.14175578214374532,1.8928876268972687,-0.8281703243514502,20.900061469516842,21.0019394124395
0.14424272569012683,1.9954693384716502,-0.8928612773820506,20.50866707176248,20.62485210133211
0.14672966923650832,2.0741126732032336,-0.9336117037802025,19.94013763022623,20.069446003986798
0.14921661278288983,2.1383945066592,-0.9552100265603993,19.242357761073375,19.384361982435546
0.15170355632927132,2.1739496977352215,-0.957656265380284,18.47278888631204,18.624905155440622
0.1541904998756528,2.1807783152165428,-0.9457388431808731,17.67931562049973,17.838397260652805
0.15667744342203432,2.1636688311359418,-0.9098809729049053,16.924187787332656,17.08617799440774
0.1591643869684158,2.1226213141316954,-0.8548710774183177,16.274443612993053,16.43453195910072
0.1616513305147973,2.0624242360867924,-0.7998627895098434,15.76360249957447,15.918056978671459
0.1641382740611788,1.9735008588462812,-0.7448561286484288,15.39645342839007,15.540279742167979
0.1666252176075603,1.8702164607783693,-0.6898511142640902,15.216092606444946,15.346109551867741
0.1691121611539418,1.7669363201714596,-0.6300593624272119,15.208155400017873,15.323414418164642
0.1715991047003233,1.668448908592132,-0.5798461024497121,15.339123561211835,15.4404875210996
0.1740860482467048,1.5795426975243734,-0.5535765636034071,15.608997664465548,15.698477959164208
0.1765729917930863,1.5002177550478768,-0.5273087485571168,15.984259460057197,16.063164641978048
0.1790599353394678,1.4352625524772902,-0.5058310798606653,16.412237084053437,16.482638435004134
0.18154687888584928,1.3846771577201866,-0.5082971899835411,16.84025867157905,16.904733330938726
0.1840338224322308,1.358038445236648,-0.5251302914317182,17.249171180047085,17.310515204357348
0.18652076597861228,1.3505580794363112,-0.5419651933488319,17.605456355944217,17.66549820689439
0.18900770952499377,1.3622361279582544,-0.5635903181173627,17.870807541459563,17.931510909537945
0.19149465307137528,1.3978610616696296,-0.5995824913973227,18.04043690103559,18.10444360625228
0.19398159661775677,1.4478561413830446,-0.6403649255243145,18.080826178192407,18.150003579338218
0.19646854016413826,1.5170098377770853,-0.6619956228294765,17.99676434200059,18.072716559335007
0.19895548371051977,1.5718033948715142,-0.6884166188031688,17.826559183749318,17.908955739654147
0.20144242725690126,1.6361788964321669,-0.70526272232898,17.551057653848993,17.64126133975029
0.20392937080328274,1.6957711995633666,-0.7125339522068006,17.184625524905705,17.282786205515496
0.20641631434966426,1.7505803712299999,-0.7245955371524517,16.77993579503014,16.886557245748193
0.20890325789604575,1.7910296716546252,-0.7175054792738869,16.365719444662183,16.479058660582805
0.21139020144242726,1.8123307642770685,-0.6912637972348956,15.956342243200218,16.07380621441756
0.21387714498880875,1.8288489257140281,-0.6650241229344234,15.590111975552375,15.71109597983004
0.21636408853519024,1.8214306092343109,-0.6483632815843445,15.29097121556278,15.412715047139878
0.21885103208157175,1.794864284601252,-0.6173392751075428,15.04934371271915,15.168565909943066
0.22133797562795324,1.7587268247901469,-0.5911057352625577,14.898748845266645,15.01383505933214
0.22382491917433472,1.7178066993463068,-0.5696626804791709,14.834398763751452,14.944388984091667
0.22631186272071624,1.6625271677431248,-0.5434333224986836,14.841928810931641,14.94463673657706
0.22879880626709773,1.616830312583892,-0.5267828896157463,14.91176273172708,15.008407918223929
0.2312857498134792,1.561562586475495,-0.5101345934748975,15.019959059927253,15.10952961467797
0.23377269335986073,1.5015124585114876,-0.4982768556327173,15.166518344742833,15.248806451304487
0.23625963690624222,1.44625680098955,-0.5007865009168553,15.337075924232334,15.413252212287198
0.2387465804526237,1.3862188728086293,-0.5080867408241354,15.526843941892855,15.596879101135169
0.24123352399900522,1.3453407559910917,-0.5153891901217764,15.683150506805582,15.749183394263376
0.2437204675453867,1.3236225158376929,-0.527482270167372,15.791630953390666,15.855781982540616
0.24620741109176822,1.3114874108872365,-0.5587312089085561,15.861862631435653,15.925792474199168
0.2486943546381497,1.2993586995559268,-0.5804056043592305,15.879480872881702,15.943121290635002
0.2511812981845312,1.3063900600579712,-0.5972938777242414,15.830121008414597,15.895161090924317
0.2536682417309127,1.3277931538808785,-0.6046076435162302,15.728148787376089,15.795671854654715
0.2561551852772942,1.3539912390654512,-0.6119237261568746,15.573564747870593,15.644285278599893
0.2586421288236757,1.384984380165466,-0.6288189500156287,15.399888249957893,15.474823201458305
0.26112907237005717,1.420772641605799,-0.6265629128469019,15.19754302251776,15.276664881582267
0.2636160159164387,1.4517792810405508,-0.6147324389147388,14.966529599763085,15.049337769911913
0.2661029594628202,1.4780043626330617,-0.6076927557503149,14.726002127870185,14.812458474250349
0.26858990300920166,1.4946595470937307,-0.6006554775500628,14.495114751687366,14.584345917078831
0.2710768465555832,1.5017448983194117,-0.5888322184566044,14.307386824685667,14.39803038169839
0.2735637901019647,1.5184140933531247,-0.5722229958787564,14.143665262464339,14.236442237179423
0.27605073364834615,1.5207251792187684,-0.5556162304912187,14.008738995865812,14.101988608724186
0.27853767719472766,1.5086782194042794,-0.5438003429139573,13.931338970965651,14.023338914345773
0.2810246207411092,1.5014268905401045,-0.5367753503915855,13.887523695937563,13.978759776519958
0.28351156428749064,1.4654524325933052,-0.5249644634727488,13.877293694168511,13.964326650229577
0.28599850783387215,1.4199085219132321,-0.5179445059317027,13.895861084326933,13.977816782199513
0.28848545138025367,1.3983140446678235,-0.5252923014867652,13.938437983673282,14.018247664891025
0.2909723949266352,1.3671502403971014,-0.5374310605187649,14.009813314690835,14.08661779978135
0.29345933847301664,1.3264171717385465,-0.539995590031698,14.081257175193217,14.153896332270737
0.29594628201939815,1.3048453211055984,-0.5377743102539889,14.128828064877215,14.199140995413854
0.29843322556577967,1.2737043309208576,-0.5499208513178946,14.171680111875682,14.239426001726807
0.30092016911216113,1.232994263380536,-0.5620700200560909,14.190660216302671,14.25521079940702
0.30340711265854264,1.2114456004532856,-0.5646450265638894,14.176192083447052,14.239060588243447
0.30589405620492416,1.2042700007149756,-0.5672226941598879,14.123487820442769,14.186081771708047
0.3083809997513056,1.1923139126287863,-0.5698030394638205,14.05170154954068,14.113702717833982
0.31086794329768713,1.199519414387801,-0.5675976757165913,13.951256971575798,14.014227949976926
0.31335488684406865,1.2019445508279243,-0.5606066194206214,13.812577785879888,13.876103760637772
0.3158418303904501,1.209166189872052,-0.5536182903395797,13.664394916834727,13.728957153744306
0.3183287739368316,1.2211843926461214,-0.5514211081778,13.530650883980108,13.596833083609512
0.32081571748321314,1.242787623438916,-0.549226685939384,13.373038962160997,13.441887594865426
0.3233026610295946,1.2643991364196854,-0.542246636568561,13.225078474487207,13.29644453406224
0.3257896045759761,1.2764421855979693,-0.5448461862306742,13.110711935879063,13.183964862112838
0.3282765481223576,1.283705234783411,-0.5474485444291073,13.00120942317567,13.075895590890886
0.3307634916687391,1.2957651509440251,-0.5500537272472084,12.896571431571294,12.973169278124772
0.3332504352151206,1.3078335909238414,-0.5382965407464702,12.811163664645607,12.8889916715647
0.3357373787615021,1.3055454047621193,-0.5313306141694021,12.759351824393962,12.836970826644214
0.3382243223078836,1.2984774589344394,-0.5243675600955293,12.71719438465614,12.794062609920708
0.3407112658542651,1.2914182164297374,-0.5174073943630177,12.679903430951471,12.755995548749732
0.3431982094006466,1.2843677367492217,-0.5248153427090445,12.666633063790488,12.74239478276574
0.34568515294702806,1.2773260792256063,-0.5130725976054968,12.667806962142944,12.74237570601341
0.3481720964934096,1.255928093061101,-0.5013327879852882,12.669060400030865,12.741027484425242
0.3506590400397911,1.2297506438888413,-0.49917273607805246,12.656028649840437,12.725428136301373
0.3531459835861726,1.2131590004905783,-0.48743884412865546,12.647865805555771,12.715260941977704
0.35563292713255407,1.1965764148737488,-0.4852847408813381,12.64457234622715,12.710330688669622
0.3581198706789356,1.1704261388719843,-0.4879220384154159,12.612629926001826,12.67621390291293
0.3606068142253171,1.1538618440659387,-0.49535075206692225,12.556827423920472,12.619456584056453
0.36309375777169856,1.137306781938503,-0.4884172838268128,12.491530523987157,12.552703015330481
0.36558070131808007,1.10639580047533,-0.4862752621844928,12.416739698559676,12.475415826324582
0.3680676448644616,1.0898593773669312,-0.4841362989635254,12.337243821622756,12.39474753807344
0.37055458841084304,1.0924859735232768,-0.4820004092432848,12.253043362139458,12.311089376303205
0.37304153195722456,1.0903336297524704,-0.48944441467904864,12.149773577402598,12.208414362290464
0.3755284755036061,1.0834024032831713,-0.49210312025959313,12.056165352870647,12.114745117589868
0.37801541904998753,1.0812691578026499,-0.4851881375491627,11.953065539073972,12.011674583580401
0.38050236259636905,1.08872235349485,-0.4734878846872581,11.840474598091472,11.89984646321096
0.38298930614275056,1.0770316271175202,-0.46657918306811297,11.756700216824106,11.815146772180018
0.385476249689132,1.0797158584074718,-0.4644620473795502,11.687377643901343,11.746331662247472
0.38796319323551354,1.0967751036733489,-0.45755968560277216,11.622930529517326,11.683526461985375
0.39045013678189505,1.0994789991149592,-0.4650257255746557,11.568147732063972,11.629580600597679
0.3929370803282765,1.097404407306681,-0.47249497182348943,11.523029704842278,11.584807357494215
0.395424023874658,1.095339787313682,-0.45602542217033815,11.478000092734593,11.539160045867868
0.39791096742103954,1.0884967913706454,-0.439559107572594,11.4186941355176,11.47887682808637
0.400397910967421,1.0768754748417528,-0.4278844456394033,11.369054297737835,11.427954388780474
0.4028848545138025,1.0700526995400501,-0.421001450592414,11.33386942886073,11.392052108011871
0.40537179806018403,1.0632401171249404,-0.4189101365859029,11.308351569904062,11.365948287659501
0.4078587416065655,1.056437782382496,-0.4120337110659591,11.29250116339178,11.349291391637838
0.410345685152947,1.0448573465839024,-0.41473739801248843,11.262376633425106,11.318341813938133
0.4128326286993285,1.0189220574845348,-0.41265600141559045,11.217978418878664,11.27171357607885
0.41531957224571003,0.9977855825652231,-0.410577938478506,11.178460570073236,11.230410991100118
0.4178065157920915,0.9718711691875902,-0.4132916263361843,11.124669908925163,11.174686757150853
0.420293459338473,0.9603324844368891,-0.4160086754144854,11.061395272103583,11.110795068958852
0.4227804028848545,0.9488043719570439,-0.41872909939094294,10.979060284461207,11.0279340098114
0.425267346431236,0.9277100785122546,-0.4262413151945905,10.882453778949492,10.930239151067285
0.4277542899776175,0.920991673907975,-0.42418012640423575,10.790729796612018,10.83826572780602
0.430241233523999,0.9094955978650342,-0.4269107564514134,10.70867716665606,10.755705541533324
0.43272817707038047,0.9027987098234443,-0.42964481541710065,10.641084716407013,10.68795228842385
0.435215120616762,0.9056894656993405,-0.42280550999249034,10.578376061341004,10.62549189462357
0.4377020641631435,0.9133795145638034,-0.42554646672101626,10.51576321835977,10.563930518399474
0.44018900770952496,0.9162921019623069,-0.4187140855138223,10.448458202464014,10.496913427773125
0.4426759512559065,0.9144272798748063,-0.4118851861339863,10.395615043348704,10.443880446760856
0.445162894802288,0.9125735033945732,-0.40027137831354853,10.328503735592182,10.376463607199543
0.44764983834866945,0.9203076307273547,-0.39344948167524363,10.261489901735969,10.310186401478626
0.45013678189505096,0.9280529065889731,-0.3962079124510991,10.223304372356793,10.272984726804895
0.4526237254414325,0.9214441721654352,-0.3941814735213569,10.185217136255892,10.234406993527557
0.45511066898781394,0.919635091674604,-0.3921585809768229,10.132863390257736,10.182064502845119
0.45759761253419545,0.9178373125216334,-0.3901392475171659,10.099762362446317,10.14888337417459
0.46008455608057697,0.9160508852200302,-0.3833350824507793,10.071549245753056,10.12038532958992
0.4625714996269584,0.909487456750222,-0.38132290497589594,10.014705617872906,10.063145790680982
0.46505844317333994,0.9029354805196956,-0.3936795342195172,9.97232750766488,10.02085784640089
0.46754538671972146,0.8963950064012648,-0.39646296599509157,9.920473295537018,9.968776118379319
0.4700323302661029,0.8755008740916588,-0.3896732126461395,9.849566569886111,9.896075414415922
0.47251927381248443,0.8689835529544848,-0.3924638997258101,9.778761337053087,9.82513784203243
0.47500621735886595,0.8576894789335208,-0.40483503943425836,9.712846391434745,9.759042354403118
0.4774931609052474,0.8320418943956915,-0.3980562239778975,9.647033718798639,9.691026882798077
0.4799801044516289,0.8207712680521777,-0.40085788533490296,9.586112109558979,9.629532589680998
0.48246704799801043,0.8143008418326626,-0.4132400354894714,9.53487035213072,9.578497054333845
0.48495399154439195,0.7934770508064546,-0.4208374763926397,9.474155216322758,9.516634230370986
0.4874409350907734,0.7822419597051758,-0.4236502198840477,9.408755486535895,9.450717528195968
0.4899278786371549,0.7758072131173382,-0.4168898744105798,9.34824834847647,9.389644358765885
0.49241482218353644,0.7741728587297969,-0.41492166162781885,9.292634179190388,9.334053438283888
0.4949017657299179,0.7629737340457742,-0.4177455931577523,9.237124950378426,9.27799103515142
0.4973887092762994,0.7469982896263251,-0.4109964705886675,9.18650943835226,9.225989388920636
0.4998756528226809,0.7454001857693106,-0.39946270871724066,9.145576417388964,9.184593616426467
0.5023625963690624,0.753391065946185,-0.407086335548434,9.090384239804338,9.130629935011104
0.5048495399154439,0.7613941700825502,-0.4099253458110308,9.030510079112222,9.071817467317198
0.5073364834618254,0.75025593123714,-0.39361454080128366,8.980319510097942,9.020197052866
0.5098234270082069,0.743918412124571,-0.37730754498438923,8.939812895532425,8.978643004069598
0.5123103705545884,0.747170061950595,-0.38494638607252085,8.880260176206724,8.919947736323829
0.5147973141009698,0.7456457164114207,-0.39258905850130477,8.816026920732181,8.85620936802717
0.5172842576473514,0.739345420935231,-0.38587036327348345,8.761478695653185,8.801081554166814
0.5197712011937329,0.7330576240408897,-0.37915552124008345,8.716615855481859,8.755599600340862
0.5222581447401143,0.7267823706966574,-0.37244454321751874,8.671861946014047,8.710230603310942
0.5247450882864959,0.7253081089601625,-0.37531424658907886,8.617640510965686,8.65624980074241
0.5272320318328774,0.7238464800168176,-0.3781878353829722,8.558740301929541,8.597616839644424
0.5297189753792588,0.7080323181791783,-0.3762769168738198,8.49516166508983,8.532916605579247
0.5322059189256404,0.6970192807691216,-0.3695815015825805,8.422116541218134,8.458987728915089
0.5346928624720219,0.6860190082734661,-0.36767840659679507,8.353970482270954,8.390150910981546
0.5371798060184033,0.6893967542261628,-0.36577923896895914,8.290723828143573,8.327374371970189
0.5396667495647849,0.6784221420436161,-0.3638840089977027,8.241953723267706,8.27782999048094
0.5421536931111663,0.6722488281100101,-0.3572043235871045,8.193295293365505,8.228584397086168
0.5446406366575478,0.666088451972018,-0.3553169995278842,8.154325678648894,8.189197229855727
0.5471275802039294,0.6599410562600798,-0.353433643575467,8.110680000612728,8.145156082635125
0.5496145237503108,0.6538066833674978,-0.361131072371804,8.076723798554593,8.111186482185362
0.5521014672966923,0.6476853754498515,-0.3640440858828149,8.028515383086829,8.062821075684349
0.5545884108430739,0.6367887711041056,-0.3669610972811479,7.966055079297057,7.999887118723395
0.5570753543894553,0.6354821219695987,-0.35551690638363365,7.908496823424409,7.941948866882835
0.5595622979358368,0.6246118562040399,-0.33928832953404964,7.8702061462545405,7.902240272606965
0.5620492414822184,0.6233316282876344,-0.33742898964213497,7.817664543233475,7.8497311770788984
0.5645361850285998,0.6316414791787806,-0.3307852829804241,7.7412955242689945,7.7740624036421755
0.5670231285749813,0.6255994329932071,-0.319357219027959,7.665041420368038,7.697156855610022
0.5695100721213628,0.619570740167495,-0.307933210509316,7.603267753750717,7.634682134799833
0.5719970156677443,0.6231322475757297,-0.3013016700742521,7.560763237847195,7.592378891568829
0.5744839592141259,0.6123419786070952,-0.2994626069773596,7.518374567333714,7.549211659933277
0.5769709027605073,0.6015651829700379,-0.2880508204374115,7.480890451332713,7.510564285681696
0.5794578463068888,0.595590303488625,-0.28621993284045066,7.448311193488028,7.477565733218526
0.5819447898532704,0.5944173794223475,-0.2891815498960204,7.3966950786807715,7.426173717113002
0.5844317333996518,0.5932580464656132,-0.2921472772386937,7.335619212870261,7.3653658685448535
0.5869186769460333,0.5873239400675625,-0.2903287204280516,7.279449103169393,7.308872650560793
0.5894056204924149,0.571826695431574,-0.28851429158928843,7.232973447881012,7.2612761387934555
0.5918925640387963,0.565919964116341,-0.28670399945225267,7.177038926534342,7.2050227162776235
0.5943795075851778,0.5552385741916415,-0.2848978526717443,7.121222636405836,7.14851512539396
0.5968664511315593,0.5397825634409887,-0.28309585982749885,7.075101672594801,7.101307778092719
0.5993533946779408,0.529128776040853,-0.2765096261038611,7.029099514739674,7.054408183758303
0.6018403382243223,0.5232772492789457,-0.26992756325071277,6.973639640296883,6.998451957521424
0.6043272817707038,0.522228020194393,-0.27292648626315286,6.918299137819748,6.943347458707333
0.6068142253170853,0.5164043189366596,-0.27592959677992734,6.877443496995272,6.902321320929512
0.6093011688634667,0.5058061820463569,-0.2741484996849861,6.817554172118469,6.84178647601968
0.6117881124098483,0.5000104524548055,-0.2723716064277917,6.748208245176148,6.772186594063653
0.6142750559562298,0.4990171662023546,-0.275387328382696,6.69813640924324,6.722342424306301
0.6167619995026112,0.4788843424770197,-0.27840727020831624,6.643396918676066,6.6664505878802665
0.6192489430489928,0.473130840059377,-0.26706622984753947,6.593566848875964,6.61591270752089
0.6217358865953743,0.47217988759558804,-0.2748830383712799,6.558223273045185,6.5809427159143015
0.6242228301417557,0.46645471347980605,-0.2779156869316073,6.518212842263127,6.540788621092578
0.6267097736881373,0.4559553524944022,-0.27137577988676576,6.468747415367353,6.490472495989738
0.6291967172345188,0.4550470491298837,-0.2600517281605508,6.438557672233072,6.459854457873835
0.6316836607809002,0.45894143434231893,-0.26309715256264,6.379759837404258,6.401654702871685
0.6341706043272818,0.45327333219358124,-0.2709352539057961,6.31150777970138,6.3335608530050385
0.6366575478736632,0.45719638973378574,-0.2692008296074486,6.257743769055754,6.280195435223577
0.6391444914200447,0.4515570271962327,-0.25310548365064944,6.213679653265842,6.235204966003463
0.6416314349664263,0.4459320844814194,-0.25616804650597214,6.184104084558265,6.205450895839145
0.6441183785128077,0.44032159459418274,-0.26402331536590795,6.149863696344219,6.171257157284515
0.6466053220591892,0.42993718696366146,-0.26230608734802097,6.091805119819673,6.112588656703086
0.6490922656055708,0.42914410404451364,-0.2510163694559111,6.029082210526578,6.049545948338524
0.6515792091519522,0.43315397475407813,-0.25888458854018115,5.990425628429742,6.011642271940069
0.6540661526983337,0.42760162111266775,-0.26196873485315475,5.942316788110972,5.963438569708272
0.6565530962447153,0.41727547816511723,-0.2650572184942228,5.884755925174188,5.905482745095996
0.6590400397910967,0.4069639806992136,-0.2633616428473813,5.82253167632248,5.842675256959648
0.6615269833374782,0.40145556324538134,-0.26167041786251977,5.779586289318033,5.799418561590291
0.6640139268838597,0.3959618534357492,-0.2647719534148347,5.741554783137413,5.761279485015415
0.6665008704302412,0.3952712852850988,-0.26308944934393663,5.694072174533183,5.713835259798805
0.6689878139766227,0.3850186792686935,-0.2614113153757627,5.641927091314284,5.6610879310339595
0.6714747575230042,0.36999246888448856,-0.24058394456012433,5.599484965704642,5.616850268839616
0.6739617010693857,0.3693462973325349,-0.23891456971606706,5.552380807779925,5.569778226606399
0.6764486446157671,0.37350338763188917,-0.24203798706473467,5.500614835349683,5.518591372318109
0.6789355881621487,0.3680985592219048,-0.24037739607316855,5.444187263995782,5.461909263920267
0.6814225317085302,0.357920244563529,-0.2387212060949837,5.387886710392155,5.405036347678733
0.6839094752549116,0.3477568758577928,-0.2418578264094915,5.35565540226523,5.372380742344555
0.6863964188012932,0.3471852883658705,-0.24499885958112744,5.313974725268462,5.330937013925955
0.6888833623476747,0.3418403004869577,-0.24335590810013263,5.281998499349137,5.298639923241698
0.6913703058940561,0.3317219403205297,-0.24171738102323959,5.259726928943321,5.275717401930309
0.6938572494404377,0.32161863902548116,-0.230506477372173,5.204064586374014,5.219086127305361
0.6963441929868192,0.3211072308198969,-0.21451160605558872,5.143742091538412,5.158217500947525
0.6988311365332006,0.3062457264183278,-0.22246319250976487,5.093124852142104,5.107171142274229
0.7013180800795822,0.2961877661565744,-0.2256308222533554,5.047424660378625,5.061139413508565
0.7038050236259636,0.29093337682741327,-0.22880290397340097,5.001853306210639,5.015528835075037
0.7062919671723452,0.2856941816413291,-0.2271910396425798,4.95641098069023,4.969833673617687
0.7087789107187267,0.2852586101872526,-0.23516044444115947,4.915886275958938,4.929767822877378
0.7112658542651081,0.28004988183080737,-0.23834591355395052,4.865914168646279,4.8797907134890455
0.7137527978114897,0.27006802231568194,-0.22238224209225166,4.81128324643239,4.823985600691246
0.7162397413578712,0.26488986376345036,-0.23515346825798877,4.775935708048225,4.789052691396127
0.7187266849042526,0.2501502214312086,-0.24314077373442888,4.745506523432053,4.758311121928707
0.7212136284506342,0.24979113687546817,-0.22719055009250555,4.686477047011014,4.698625146814113
0.7237005719970157,0.2494474248269909,-0.2256100286737155,4.627577874146771,4.639784573025316
0.7261875155433971,0.24433070639375976,-0.23361081086364388,4.578385984690621,4.590848476028233
0.7286744590897787,0.23922940906082524,-0.22246248137329871,4.524536339663643,4.536314512323329
0.7311614026361601,0.22935515340891144,-0.21610706136420355,4.461240704499391,4.472356724574743
0.7336483461825416,0.22907317303614916,-0.22412136196410604,4.417229665646022,4.428839895791759
0.7361352897289232,0.2288066846751321,-0.23214017762645023,4.392503387402853,4.404580294348828
0.7386222332753046,0.22376730811466228,-0.23537510937265527,4.358331611921035,4.370415047768722
0.7411091768216861,0.2187434695199414,-0.22903775815158722,4.329079709008952,4.340649505208841
0.7435961203680677,0.22331199811214297,-0.2370701447615322,4.309536239609563,4.321825204996868
0.7460830639144491,0.22789610956673767,-0.24031866004560243,4.275759342519977,4.2885670859004446
0.7485700074608306,0.22770742261495658,-0.23399490473558515,4.237325977556393,4.249886554465943
0.7510569510072121,0.2131691524030631,-0.23246409277236424,4.184659489031588,4.196529003963493
0.7535438945535936,0.19385812709382455,-0.22136101810289377,4.1321252356387035,4.142588639580098
0.7560308380999751,0.1937163845461134,-0.21505089452405635,4.079723363889794,4.089977463354226
0.7585177816463566,0.18401352583045116,-0.223110532440578,4.0322424213981325,4.042600429463335
0.7610047251927381,0.19347999159612084,-0.22159791894326197,3.980105743598111,3.990962524886784
0.7634916687391196,0.19338538238359848,-0.21530146097316027,3.932890276988606,3.9435236218448524
0.7659786122855011,0.1837297183901141,-0.21379796872012458,3.8905961592123264,3.900795387472441
0.7684655558318826,0.17887822950865728,-0.2027222357010401,3.8580119290180415,3.8674733056978283
0.770952499378264,0.17404253208573883,-0.20122787860369362,3.811195703019729,3.820470671110852
0.7734394429246456,0.15964583888228212,-0.21410330408376232,3.7645128221823176,3.7739745371513953
0.7759263864710271,0.15484178231577106,-0.20304128884305328,3.713175011979379,3.721944439686578
0.7784133300174085,0.16441878457740333,-0.20156065931712686,3.6667592056368044,3.6759737904708345
0.7809002735637901,0.15964644435081232,-0.20487301530822544,3.634842334173376,3.6441101429422105
0.7833872171101716,0.1501015866167319,-0.19382474658696225,3.6078477131211137,3.6161669817318463
0.785874160656553,0.14057263277016763,-0.17799266277525172,3.5714102524878326,3.5786049299497935
0.7883611042029346,0.13584800394069896,-0.1765303800651865,3.5303184733603787,3.5373388554971923
0.790848047749316,0.13592771767216094,-0.1750726913363505,3.4893608946251105,3.496393319496859
0.7933349912956975,0.13123498460233263,-0.1688311960387603,3.4533260329696684,3.459940358434735
0.7958219348420791,0.1217698217441926,-0.16259430019299437,3.40306038628324,3.4091178901048727
0.7983088783884605,0.1075322458453063,-0.15157360310907197,3.3672944834631107,3.3724189952342964
0.800795821934842,0.09809908002846945,-0.15013431730846483,3.3268748180103307,3.3317052386799437
0.8032827654812236,0.1078355504714188,-0.1534880419617255,3.2913783011566906,3.2967193096009586
0.805769709027605,0.09843444656311129,-0.14726956952924697,3.2512282286635985,3.2560501625802014
0.8082566525739865,0.09383780059125901,-0.141055709003588,3.206424700746018,3.210897321219802
0.8107435961203681,0.09404562797674498,-0.14442326930804583,3.1617562187542516,3.1664499123924807
0.8132305396667495,0.07990433059398205,-0.14300704269523257,3.126799685176115,3.131087987828761
0.815717483213131,0.08014434325533948,-0.14159543463002722,3.0871899837172405,3.091474466727479
0.8182044267595125,0.08040047062526334,-0.14018844718815826,3.0429272058658396,3.04721561701831
0.820691370305894,0.06630751710315241,-0.13878608237665624,2.9892230376137467,2.9931776813424555
0.8231783138522755,0.06180751338592738,-0.13738834213399587,2.945231179380631,2.949081624041814
0.825665257398657,0.062112069983730644,-0.13599522833024347,2.9157401194538863,2.9195706971332656
0.8281522009450385,0.05285599050125611,-0.1250299361265781,2.8863847306707378,2.8895748915902617
0.8306391444914201,0.04840449820033521,-0.12364608053794246,2.852376690342613,2.8554656594482624
0.8331260880378015,0.043969202796904194,-0.12226685658944092,2.808927673617024,2.8119312137081884
0.835613031584183,0.04433852038297603,-0.13046907251961137,2.7560377568004633,2.75948042214175
0.8380999751305646,0.04951246346580607,-0.129099116577454,2.7320142406031866,2.735510898680197
0.840586918676946,0.04991423764768643,-0.12294539354602252,2.6841847604934426,2.6874625261348997
0.8430738622233275,0.035967048266687285,-0.11679630814101394,2.6269145962704767,2.629755749543153
0.845560805769709,0.0316129236389614,-0.1250170716515493,2.5889342355438503,2.5921437307981887
0.8480477493160905,0.017698261933873027,-0.1236656687372073,2.560666937212779,2.5637124623160013
0.850534692862472,0.018165090939748163,-0.11753050391255426,2.532535958031483,2.535326757757514
0.8530216364088535,0.018648211618703447,-0.13534199822699078,2.4949645526120516,2.498702329424477
0.855508579955235,0.019147634630221733,-0.1340045228586626,2.45274118338832,2.456473724009204
0.8579955235016165,0.019663370370364808,-0.127883288763059,2.4154427139782033,2.418905597204977
0.860482467047998,0.010618622331299066,-0.12655510350910903,2.38306919922576,2.386450870573899
0.8629694105943795,0.0015902070233307919,-0.1252315646387232,2.3556206918448774,2.358947714000456
0.8654563541407609,-0.002633462626495442,-0.12391267294820985,2.323520435781748,2.326823693608516
0.8679432976871425,-0.006840780594536855,-0.1225984291681268,2.2915568828195525,2.2948442470702233
0.870430241233524,-0.006243334479130169,-0.13086564060407158,2.259730079300401,2.263524867637007
0.8729171847799054,-0.010417922101970789,-0.1343490978946651,2.218463262808239,2.222552015507356
0.875404128326287,-0.014576131586053864,-0.12826039825390367,2.1677564754533565,2.171596493421884
0.8778910718726685,-0.013929551316420152,-0.126964752111959,2.1267633705163265,2.130595342820568
0.8803780154190499,-0.018054979900894996,-0.12567375655284563,2.0906955825685376,2.0945471812200656
0.8828649589654315,-0.03174081288863839,-0.12438741191615765,2.0451879374365225,2.0492128749551344
0.885351902511813,-0.035833429488685786,-0.13268252511755163,2.0046056787678967,2.0093114777179246
0.8878388460581944,-0.0351212257728602,-0.13140548308642108,1.9593720315113723,1.9640874877036323
0.890325789604576,-0.04396940471461602,-0.13492149593013547,1.9382174450843461,1.9434052544552496
0.8928127331509574,-0.06237795958725223,-0.14323056373109067,1.9267767369311501,1.9330997382980646
0.8952996766973389,-0.07119327064337111,-0.14675587986719663,1.9011079157688036,1.9080925232963153
0.8977866202437205,-0.0799921383177683,-0.15028584761361907,1.861211004832862,1.8689812686853085
0.9002735637901019,-0.07919775002406682,-0.15382046686171114,1.8214512352404437,1.8296495899470389
0.9027605073364834,-0.07838690671697224,-0.16214814075981376,1.7914054327127067,1.8004360446983725
0.905247450882865,-0.08713640961077074,-0.16090365911187599,1.7519200009770381,1.7614500933091555
0.9077343944292464,-0.09586944689782373,-0.16445223158075972,1.7125717616145844,1.7231185467053818
0.9102213379756279,-0.09022080370924335,-0.1632170511649882,1.6781491308219083,1.6884798205756746
0.9127082815220094,-0.08455568535681146,-0.15719811744111478,1.6294985061336007,1.6392456477126383
0.9151952250683909,-0.08845089409052331,-0.1559722365639069,1.5905619129105695,1.6006367789245286
0.9176821686147724,-0.09711802245767975,-0.15475100466496894,1.5373973412580506,1.5482152203870851
0.9201691121611539,-2.3611066271306327,0.47853481714704316,-13.397987513735373,13.612857506567499
0.9226560557075354,-2.139897417383561,0.8580306152863786,-11.822820481489252,12.04551624594045
0.9251429992539169,-1.7462891935677325,1.127388490095964,-9.323354369045571,9.552249339604439
0.9276299428002984,-1.2185891791434607,1.3009736523318822,-6.1629513604853425,6.415564005081348
0.9301168863466799,-0.6094698077887011,1.3596324895692797,-2.624127255202568,3.0176311578447286
0.9326038298930613,0.014031276601321252,1.2889997927647197,0.9531413055377183,1.6031829873076557
0.9350907734394429,0.5944532365156079,1.1321711927794214,4.286338518288945,4.473017343307639
0.9375777169858244,1.088700444148443,0.9083003039337623,7.145621014109379,7.284928124319191
0.9400646605322058,1.448888868118292,0.617387127327357,9.344241051924802,9.476037497478751
0.9425516040785874,1.6606533000305712,0.3025272940029975,10.743334921852739,10.875133902146667
0.9450385476249689,1.7096285312358717,-0.017125581537981382,11.275864961808901,11.404746978223953
0.9475254911713503,1.581449352830315,-0.3224178847342314,10.984926784073968,11.102862324618348
0.9500124347177319,1.304846185538639,-0.5941960009647898,9.932769612211995,10.035716448005061
0.9524993782641133,0.9133378531520814,-0.7989411055881213,8.263045524238814,8.351671345296216
0.9549863218104948,0.4548083891694991,-0.9414416004658139,6.1625022260647935,6.250567705752824
0.9574732653568764,-0.04201178644474568,-1.016909080759748,3.8274642282558933,3.960473644314578
0.9599602089032578,-0.5436038506585992,-1.0109783349321855,1.4446792327581068,1.845177613595955
0.9624471524496394,-0.9733533508095857,-0.9475913779491274,-0.8038934637783006,1.5784773885619168
0.9649340959960209,-1.3073182710105213,-0.8219598047961796,-2.7410829699932604,3.1461460282074616
0.9674210395424023,-1.5263449989462452,-0.6484488236818129,-4.261544446297906,4.572852064140613
0.9699079830887839,-1.6064915192324505,-0.4510004493969224,-5.264721458384815,5.5228170747454195
0.9723949266351654,-1.557334639977761,-0.22961468007299013,-5.712306817066432,5.925239510305327
0.9748818701815468,-1.398027976181857,-0.003445127064897857,-5.609088964990056,5.780689674101253
0.9773688137279284,-1.1381483364537925,0.1892009850487275,-4.993375169991831,5.124936510514729
0.9798557572743098,-0.7920609329725179,0.34832365830911627,-3.951356735052995,4.044985777493885
0.9823427008206913,-0.39328459144739003,0.47392289481464944,-2.641051014896486,2.711904523279755
0.9848296443670729,-0.008856961078761827,0.5612102934003209,-1.1725913329744628,1.3000022589768268
0.9873165879134543,0.3420683418878335,0.5814554363563187,0.3438889853337379,0.7572059226023503
0.9898035314598358,0.6355492976387385,0.5681771491934167,1.7695261928050794,1.964171868655564
0.9922904750062174,0.84285548279238,0.5070102242755796,2.9893985569002623,3.1470571117141364
0.9947774185525988,0.9400448770405322,0.4075314706244759,3.9412567796913915,4.072256287841282
0.9972643620989803,0.9319058797502731,0.29368290727859847,4.562851561343605,4.666295381734478
0.9997513056453619,0.818438486722124,0.15109932676962456,4.80629881008049,4.87782541865526
1.0022382491917432,-0.22396267758244331,-0.06810330155735489,0.476957156839525,0.5313054395480558
1.0047251927381249,-0.2320522565258586,-0.06225556591928383,0.4573146984377079,0.5165856547116314
1.0072121362845063,0.1525237000350682,-8.747364446079505,0.2606374594944949,8.752575627602422
1.0096990798308878,1.3942403089913389,-7.123045564324638,0.3418236893101483,7.266259531921136
1.0121860233772693,2.4875328676542114,-5.388597990152265,0.4135691206604353,5.949440938835922
1.0146729669236507,3.4371897736775514,-3.6110593672242652,0.4710852803487917,5.007588704681421
1.0171599104700322,4.224057407870824,-1.8718325491092138,0.5239489032741318,4.649832312044731
1.0196468540164139,4.833770554121397,-0.20922475943899155,0.562583109194005,4.870894427577318
1.0221337975627953,5.247175592754715,1.3240915682481198,0.5917762259721862,5.443920396546265
1.0246207411091768,5.502579743698192,2.6850208071066946,0.6067397729824453,6.152711087193379
1.0271076846555582,6.174591398513753,-2.188555643286786,0.46860997478595934,6.5677203085112685
1.0295946282019397,7.52657273270252,-0.18598948877204258,0.550882209378889,7.548997310848967
1.0320815717483214,8.514651815080564,1.6441895863488178,0.6045594212838417,8.692994134461134
1.0345685152947028,9.162770654654096,3.244520745482122,0.6392183324928524,9.741246378890592
1.0370554588410843,9.490082856870599,4.59106197532979,0.6500704532151822,10.562296828139782
1.0395424023874658,9.515742026939064,5.659871262645504,0.6419040984844084,11.090334977115248
1.0420293459338472,9.254113366510516,6.450948610836768,0.624295984843739,11.297924484460738
1.0445162894802287,8.72435048031917,6.959505620042634,0.5828808104297583,11.175363968033327
1.0470032330266104,8.017433022666946,7.19511910041496,0.5128700782202653,10.78480444232719
1.0494901765729918,7.13336098453467,7.172154265477136,0.44299411264158195,10.12525947950562
1.0519771201193733,6.110441583229004,6.914553135444599,0.382829623050732,9.235534631261261
1.0544640636657547,5.001347245783263,6.465411343865059,0.3036460904600151,8.179683310895017
1.0569510072121362,3.849173592355576,5.85345931437611,0.21023181734742558,7.008803086559729
1.0594379507585177,2.687439436229616,5.097850664025348,0.11216350774057737,5.763938997645144
1.0619248943048993,1.544875187135389,4.251257833152877,0.0142294605819,4.523277018414719
1.0644118378512808,0.4454228512502988,3.3519880521883705,-0.07878202694518244,3.3823707700663337
1.0668987813976623,-0.5726103555199069,2.419194938329831,-0.14292904612918278,2.490143666762363
1.0693857249440437,-1.4948592341025932,1.5007625287468005,-0.22130733649024847,2.1297580225595327
1.0718726684904252,-2.2878049723740648,0.6254212473778482,-0.3091286060866967,2.391811828591928
1.0743596120368066,-2.9658127916448573,-0.19246369175086997,-0.3872393547513511,2.9971723516666304
1.0768465555831883,-3.500152283572077,-0.9145850579621833,-0.45085129400735724,3.64565477325413
1.0793334991295698,-3.900400266604374,-1.5409428470923796,-0.5191181537028431,4.22576747529209
1.0818204426759512,-4.166556752778487,-2.0715370549294025,-0.5633096322002302,4.687086374902765
1.0843073862223327,-4.293833351038594,-2.4920024672515697,-0.5882142528154617,4.999307667116966
1.0867943297687142,-4.30138368715774,-2.7783970631483847,-0.6081973472103854,5.156674885797245
1.0892812733150956,-4.189207773854367,-2.9450860482238177,-0.6376242487460448,5.160383540644378
1.0917682168614773,-3.981247640674505,-3.0112230313543384,-0.6477646625937403,5.033626523595121
1.0942551604078588,-3.7062337207098826,-2.9815964114078826,-0.6529839254945085,4.801299153354392
1.0967421039542402,-3.34980081739417,-2.841840973923756,-0.6676473758701746,4.443307175493598
1.0992290475006217,-2.9454677675882768,-2.625475537597228,-0.6678131272546306,4.001859135621409
1.1017159910470031,-2.49802298845471,-2.3612305177563115,-0.6774233280532798,3.5034883722117187
1.1042029345933846,-2.02183170401942,-2.049105909760417,-0.6821129017711822,2.958363817983826
1.1066898781397663,-1.545624348491509,-1.6938901122427896,-0.6914587901708433,2.395064424500564
1.1091768216861477,-1.0789777430201324,-1.3147367337511562,-0.6958843233831455,1.837656290098313
1.1116637652325292,-0.6362571122960257,-0.9307993827874961,-0.6953896398229347,1.324680095388291
1.1141507087789106,-0.2270392779093918,-0.5660200711279124,-0.7043400895029848,0.931676186405093
1.116637652325292,0.14388734165015638,-0.21561039058116105,-0.7131590074651815,0.75880641638196
1.1191245958716736,0.4717343276741972,0.10127605048789512,-0.7266349403366643,0.8722318790474934
1.1216115394180552,0.7565016645564496,0.38942766036115994,-0.7399796297218568,1.127616301555783
1.1240984829644367,0.9742473198715775,0.63926763740458,-0.7484048188367165,1.3848937595959496
1.1265854265108182,1.1345480842196243,0.836430776708557,-0.7566990591429121,1.5998153848927281
1.1290723700571996,1.246980747984513,0.9904938900096028,-0.7648625003804739,1.76665043980937
1.131559313603581,1.3019684880534872,1.0918801758073058,-0.7728952938816125,1.8667328136371366
1.1340462571499625,1.294722884419368,1.1453780426063047,-0.7903743992048877,1.9007603475562997
1.1365332006963442,1.2539743401031413,1.1605643022754335,-0.8172999708474258,1.894027557270584
1.1390201442427257,1.1749344346702584,1.142227363406894,-0.8488837615587297,1.8454695652130062
1.1415070877891071,1.0528147474735559,1.071213618034772,-0.8803375256544381,1.740951368371998
1.1439940313354886,0.9067688742555188,0.9810418947598265,-0.9212382289707293,1.6227608773660083
1.14648097488187,0.7320083939458693,0.8669237956633316,-0.9572208222952252,1.484474607034447
1.1489679184282517,0.5476869018653926,0.7336477295099688,-0.993073871243201,1.3507019090961567
1.1514548619746332,0.3442275732033111,0.5907905084273608,-1.033585942969724,1.2392844501993536
1.1539418055210147,0.14557240618190917,0.4431405412651106,-1.0548151862411554,1.1533429420078354
1.1564287490673961,-0.05306702110672559,0.29548623691494313,-1.0711269779128596,1.1124033565879021
1.1589156926137776,-0.24211392081698824,0.14303919767000028,-1.0968866963600465,1.1323602727820812
1.161402636160159,-0.42156831195090827,0.00016463914623621179,-1.108152494908575,1.1856314017093534
1.1638895797065407,-0.5818534070759173,-0.12834902963948114,-1.1192897549532734,1.2680048959994628
1.1663765232529222,-0.7229692256053963,-0.23292499630868768,-1.1350870527480623,1.3657822565819746
1.1688634667993036,-0.8449157871574121,-0.30877485176224617,-1.1651213693601825,1.4719824733360019
1.171350410345685,-0.9381163049132184,-0.3846290101023473,-1.1998160740618644,1.5708469971749532
1.1738373538920666,-1.016936008858752,-0.4269686422265284,-1.2104409243235477,1.637567799767563
1.176324297438448,-1.062221305940116,-0.45015895219506863,-1.2353033255727386,1.6902459854132341
1.1788112409848297,-1.0931258298675062,-0.4494115307468327,-1.2600382481793773,1.727596941061974
1.1812981845312112,-1.1000727946300743,-0.43430317854167466,-1.2654922606521506,1.7321229939433036
1.1837851280775926,-1.0878506243779742,-0.41441069619972204,-1.285184369475413,1.734028278208923
1.186272071623974,-1.0564593401403424,-0.3801572710203458,-1.3143263560163945,1.7286062762233447
1.1887590151703555,-1.0058989631448383,-0.3411197035448801,-1.338553196440218,1.7087773511791207
1.191245958716737,-0.9505347247778058,-0.29729798763496573,-1.3578650783045756,1.6839536594987732
1.1937329022631187,-0.8807898400209898,-0.2343269071524512,-1.3674737872715728,1.64337591578272
1.1962198458095001,-0.8158179439742134,-0.18093687580338136,-1.3961099336633431,1.6270894313495081
1.1987067893558816,-0.7460422520108168,-0.13233948401319395,-1.419831692689474,1.6093522971617205
1.201193732902263,-0.6570975763784265,-0.07416951552850293,-1.433850854244783,1.5789891114680394
1.2036806764486445,-0.5825027627216298,-0.025580577300145624,-1.4477444195820333,1.5607458918556405
1.206167619995026,-0.5126810269952488,0.03258095032127706,-1.4758777946643598,1.5627279413090671
1.2086545635414077,-0.43326718202597947,0.06679625049929738,-1.49430916027546,1.55728676119225
1.2111415070877891,-0.3682032673944988,0.09621894295816658,-1.498250311856383,1.5458284924537136
1.2136284506341706,-0.31270090295019365,0.1400026474592564,-1.5212202727797504,1.5593247622985937
1.216115394180552,-0.24760649877135926,0.15505174063674243,-1.5488540345771202,1.5761658672024712
1.2186023377269335,-0.20165049832842263,0.16051984232552652,-1.5619981868147672,1.5831196666294476
1.221089281273315,-0.17962132867844902,0.16119536243601118,-1.565441337008517,1.5839363453756912
1.2235762248196966,-0.157576997144015,0.17144351755544607,-1.5735489006557764,1.590685239918857
1.226063168366078,-0.14030593115614076,0.17211070106489723,-1.576744277986263,1.592303477952951
1.2285501119124596,-0.1325965583315945,0.1488317097015308,-1.594181290478355,1.6065947566219982
1.231037055458841,-0.13923730647207022,0.13991377676151862,-1.606706534367646,1.6187862057791824
1.2335239990052225,-0.1506513936024233,0.14056850569356794,-1.6430506404054697,1.6559199117481795
1.236010942551604,-0.18120405453234195,0.1172770800596421,-1.6649065941642807,1.6788397154517105
1.2384978860979856,-0.2021648943711417,0.09398152330037002,-1.6818514157180289,1.6965633957476187
1.240984829644367,-0.2326875516128677,0.08025864893013379,-1.6986737231115896,1.7164141006742721
1.2434717731907485,-0.26319524501046193,0.07132006053685513,-1.7153737323536227,1.7369125855033394
1.24595871673713,-0.29847640345772075,0.05280055510209314,-1.727163257409405,1.7535589467666068
1.2484456602835114,-0.34331945602754604,0.02948854292269054,-1.7531961301155565,1.7867385073655622
1.250932603829893,-0.3689940087288822,0.020537644290257173,-1.7838957636494168,1.8217745384314545
1.2534195473762746,-0.3994421042715102,0.002005849647197522,-1.8001087658031256,1.8438952212148365
1.255906490922656,-0.439452172260506,-0.021318430608819217,-1.8114121655389255,1.8640779813759187
1.2583934344690375,-0.47944743251570193,-0.03028157608601445,-1.808229379778835,1.8709570557047805
1.260880378015419,-0.5194279116723941,-0.039248789601841416,-1.8145026499208665,1.887793868376365
1.2633673215618004,-0.5498168298992347,-0.04343166065976334,-1.835020605308351,1.9161120733126067
1.2658542651081819,-0.5706142141786218,-0.047618585371345556,-1.8458414565821073,1.9326144969787973
1.2683412086545636,-0.5866084949855316,-0.05180955649553409,-1.8565422388372443,1.9477019384701197
1.270828152200945,-0.602588102966326,-0.05121616343887103,-1.8719115850534092,1.9671778006807417
1.2733150957473265,-0.6089762589769645,-0.04104999557602529,-1.887161322767227,1.9834099536613505
1.275802039293708,-0.6201382006446261,-0.035676255531258416,-1.8927148773853446,1.992037597582763
1.2782889828400894,-0.6169203425230897,-0.025518129295826864,-1.9077260954193562,2.005158532157881
1.280775926386471,-0.6088995192559236,-0.020152416111010485,-1.932195211275399,2.025967195909349
1.2832628699328525,-0.6152293722943554,-0.01000230190582796,-1.9469688472468576,2.0418851384754433
1.285749813479234,-0.6119679133729641,0.004932220780869745,-1.9712008533508172,2.064015953923535
1.2882367570256155,-0.6086919776337893,0.010285949479881484,-2.0001030641567183,2.090699402506618
1.290723700571997,-0.5910363837817044,0.020424101674242134,-2.028887315380606,2.1133208202720373
1.2932106441183784,-0.5781547739272817,0.02576987827557753,-2.062342250518423,2.1420043388178835
1.29569758766476,-0.5556819671015244,0.031111690186388596,-2.0861029009168384,2.1590682478888255
1.2981845312111415,-0.53319479909874,0.04123794833889516,-2.1001695090080954,2.1671892461749738
1.300671474757523,-0.5298469125146894,0.0465718537338935,-2.109330721662058,2.175358081238337
1.3031584183039044,-0.5169079169019638,0.047113414042096124,-2.113586783538249,2.176387502235342
1.305645361850286,-0.5039546485347037,0.03807423364298579,-2.127303150359751,2.1865128923877304
1.3081323053966674,-0.4861987338842654,0.0338195302261628,-2.1409032623433557,2.1956775146108782
1.310619248943049,-0.48279381618082023,0.0343493115489415,-2.15438736743441,2.2080884658698103
1.3131061924894305,-0.4841631188890158,0.020509972115835495,-2.162967311338525,2.2165879577782466
1.315593136035812,-0.4759414623086338,0.01624353634239295,-2.1714317474751237,2.223038452649944
1.3180800795821934,-0.4724940868158714,0.011973205429993694,-2.189357733649773,2.2397949249018994
1.3205670231285749,-0.4738210229796207,0.01727579388907241,-2.1975919088046325,2.2481581377909206
1.3230539666749563,-0.4655570915605584,0.022574502976404176,-2.2009229295345047,2.249736596901447
1.325540910221338,-0.46685593671335834,0.023080937296457993,-2.223293066759137,2.2718977212916602
1.3280278537677195,-0.45856397618109446,0.023583508121496788,-2.2455489625517604,2.2920137969313403
1.330514797314101,-0.4598348544193126,0.038447433391366914,-2.248537260014526,2.2953967212982698
1.3330017408604824,-0.7483959953295047,-9.41815425642734,-2.6584261120601678,9.814731558069685
1.3354886844068639,0.471403814733902,-7.894950972247879,-2.474439483162442,8.287057569884297
1.3379756279532453,1.5619306086057165,-6.347809502886195,-2.2807628378251916,6.9235967411047366
1.340462571499627,2.5088191445594674,-4.824613873461461,-2.120492066356425,5.8367421676467295
1.3429495150460085,3.3216461973255256,-3.3732481090661155,-1.9792622202122185,5.1312391487714395
1.34543645859239,3.9573161049663677,-2.0128658148449237,-1.8474967551534576,4.808869285341416
1.3479234021387714,4.444559255205431,-0.772197402558175,-1.7443495478400468,4.836646684077681
1.3504103456851528,4.769010405740833,0.32960352269987325,-1.6650324593000079,5.062058061970757
1.3528972892315343,4.925881120769653,1.2829601625006601,-1.5999689482033244,5.335746642198584
1.355384232777916,4.948690190910745,2.11181454168273,-1.5922549106982569,5.6111113840950955
1.3578711763242974,4.827860776760405,2.768282635304361,-1.598794984114857,5.790317247780131
1.360358119870679,4.582546458697891,3.266729661612686,-1.624377839926309,5.857461745075965
1.3628450634170604,4.2414776236052205,3.626309242199157,-1.6642153438977694,5.823217655426215
1.3653320069634418,3.814231044946181,3.8565981920386854,-1.7230961693601845,5.691288824856022
1.3678189505098233,3.3151718993688446,3.9528081161690705,-1.801020587241931,5.464314401760405
1.370305894056205,2.753876960065889,3.93409263625329,-1.8788352561004515,5.156640873802456
1.3727928376025864,2.1590766133771004,3.8291821806183615,-1.9852708685992013,4.823437406715852
1.3752797811489679,1.554712842188818,3.6332883543723358,-2.1011740850939766,4.475807058347687
1.3777667246953493,0.93599720933299,3.3703531825680444,-2.1930263568677155,4.1285270924437665
1.3802536682417308,0.3316601007529962,3.0547418836407116,-2.275193169286995,3.8233428247634937
1.3827406117881123,-0.24393330769955074,2.7103964826885694,-2.3859820251931954,3.619207479065111
1.385227555334494,-0.7572642270211167,2.33252858491037,-2.4775091685278383,3.4859991952221336
1.3877144988808754,-1.2418515148207268,1.9307150054881506,-2.5641400872547866,3.4416086361390117
1.3902014424272569,-1.6689647856710315,1.528897769586743,-2.6410866569076017,3.4782625799316302
1.3926883859736383,-2.05296928415397,1.1510189023927913,-2.6987723505430186,3.580907649660999
1.3951753295200198,-2.360346221773928,0.7827132025520229,-2.7419858520147624,3.701669982148709
1.3976622730664012,-2.586307230081774,0.43834588865341484,-2.7946694592864407,3.8329244178748136
1.400149216612783,-2.7500059573535958,0.137070582627437,-2.8280930346194495,3.9470788340955565
1.4026361601591644,-2.8562308420272307,-0.1402663201369645,-2.8566220709717776,4.042031533755698
1.4051231037055458,-2.890616709380997,-0.37451119766756413,-2.87068004550626,4.09105457326089
1.4076100472519273,-2.8627404014155418,-0.5704524445731218,-2.8750556461456114,4.09715066428488
1.4100969907983087,-2.786967163571626,-0.7280900521217066,-2.8793259649244263,4.0728146418801146
1.4125839343446904,-2.653720224807271,-0.8378472049205912,-2.8787028847004574,4.003891765361188
1.4150708778910719,-2.4821532341203203,-0.9188775074789055,-2.8540330791472766,3.892418961041
1.4175578214374533,-2.27705463066441,-0.9616041443641932,-2.834047255910857,3.760516476526128
1.4200447649838348,-2.0384244503890394,-0.9803923167258943,-2.813957300156961,3.6103599573651484
1.4225317085302163,-1.7902047459600532,-0.9704536124128549,-2.784186694485509,3.44939252565625
1.4250186520765977,-1.5371839568760366,-0.9317880225750146,-2.74952413220449,3.284972814174598
1.4275055956229794,-1.2841505227487788,-0.8691839416636502,-2.7099699040413086,3.122252419381172
1.4299925391693609,-1.0215276733410577,-0.7970065707518525,-2.6798895114166132,2.9766669371335444
1.4324794827157423,-0.768469058448582,-0.720044304253465,-2.654494843194721,2.855757581873516
1.4349664262621238,-0.5393399246569308,-0.6191435199623752,-2.614632578996579,2.7405345784701653
1.4374533698085052,-0.31019829209829647,-0.5086694188964342,-2.5842450290361008,2.6520350541120177
1.4399403133548867,-0.10977461753647241,-0.40777560537577795,-2.5681208909487445,2.6026095215230107
1.4424272569012684,0.04277744879819787,-0.31167366710113864,-2.5614720564247513,2.580718791487131
1.4449142004476498,0.18576509641285777,-0.22036359507595726,-2.56429882116273,2.5804451610713692
1.4474011439940313,0.30482307818605364,-0.12426857364555266,-2.5622362715810407,2.583295279056623
1.4498880875404128,0.38079774357171026,-0.03775380373958237,-2.564861511372934,2.5932502470313894
1.4523750310867942,0.42326586184235826,0.04875753033092867,-2.5721748382570144,2.6072235587167483
1.4548619746331757,0.446592605488539,0.12568863099058625,-2.593753357251135,2.6349191762725592
1.4573489181795574,0.43641272697765454,0.17388589403955024,-2.6008669474619417,2.642953130650259
1.4598358617259388,1.1109866866843339,-5.4090825561879035,-2.828147671257126,6.204102253193704
1.4623228052723203,2.13033781109505,-4.1159072379224275,-2.638738187344229,5.333101424303891
1.4648097488187017,2.929434470543379,-2.8275237133213,-2.4731719021302148,4.763722905888673
1.4672966923650832,3.508276627061675,-1.5966044097618801,-2.3314491171754117,4.504753657996886
1.4697836359114647,3.876441049227137,-0.44709133468288975,-2.2087817313343407,4.483904839128284
1.4722705794578463,4.05308131216198,0.587496697851893,-2.105170047389171,4.604819369031546
1.4747575230042278,4.038197377612576,1.4832176804335369,-2.025402772042522,4.754916312313526
1.4772444665506093,3.8605196271538116,2.2209180089899756,-1.9790570159098984,4.8736798485864865
1.4797314100969907,3.5344132323071205,2.795809289424336,-1.9613446802313792,4.914824456093117
1.4822183536433722,3.1029737844242984,3.212679934295342,-1.9674776668251717,4.880648218884884
1.4847052971897536,2.609296874766618,3.466741549535718,-2.02618670132253,4.7887534599893975
1.4871922407361353,2.053382464622941,3.5819361610145064,-2.118318476715192,4.640465426699922
1.4896791842825168,1.4687493384359687,3.5391101647322096,-2.219931283230874,4.428388000111782
1.4921661278288982,0.8889162805605145,3.3813591998674473,-2.3214486216073595,4.1967708890451085
1.4946530713752797,0.31867165534313513,3.1230484856908736,-2.451601219686717,3.9831309303441924
1.4971400149216612,-0.21325415635370776,2.802485258088412,-2.591235772642481,3.8228135955637543
1.4996269584680426,-0.6924959837131115,2.4100927197563964,-2.7211989761755415,3.700408284665408
1.5021139020144243,-1.12384226928306,1.9746012999670128,-2.8462795431084675,3.641892224871085
1.5046008455608058,-1.4929278424129397,1.515164621364991,-2.9616893801360984,3.646390181658954
1.5070877891071872,-1.7853875325338036,1.0509363066080564,-3.0434867811777284,3.681696286914185
1.5095747326535687,-1.9964329757979944,0.6154351883277234,-3.1012488638933107,3.7392846392973573
1.5120616761999501,-2.1356410183985717,0.20387287260545284,-3.14934114975442,3.810626770649073
1.5145486197463316,-2.2030116999665474,-0.16938542118321598,-3.187763950755782,3.87863261689439
1.5170355632927133,-2.2033334635310866,-0.47560926368988365,-3.2260943860097218,3.935551741581728
1.5195225068390947,-2.1509715588386813,-0.733952258756996,-3.26433276845769,3.9775913551160644
1.5220094503854762,-2.050714429070968,-0.9204723803322921,-3.2737489915818774,3.9711624913163424
1.5244963939318577,-1.9169273241249831,-1.0447464255939434,-3.268708579202741,3.930720192982692
1.5269833374782391,-1.7543986873309356,-1.1211395950288567,-3.2683654589093845,3.875187933331999
1.5294702810246208,-1.5583401554512002,-1.135286669190656,-3.2535663321695925,3.7819298961193315
1.5319572245710023,-1.3526937852419476,-1.1111296551842467,-3.2195231108461666,3.6646580534252617
1.5344441681173837,-1.1470364235690553,-1.0390917368612598,-3.1710245138694564,3.5285692089242717
1.5369311116637652,-0.946156514048206,-0.9479033246249966,-3.1128592605897385,3.3887498636149394
1.5394180552101466,-0.7404772904028291,-0.8375644089461083,-3.054604474090299,3.2527571765915804
1.541904998756528,-0.5635176163071552,-0.6937097703238029,-3.005837277860161,3.135895899149872
1.5443919423029098,-0.4248543389007437,-0.5402814158093956,-2.947404375865073,3.026482739488262
1.5468788858492912,-0.2909686755063276,-0.3964329491237417,-2.8840944890639317,2.925717497491136
1.5493658293956727,-0.1714374733943395,-0.25258755405571254,-2.830273145440735,2.846688841013481
1.5518527729420541,-0.09499119318048657,-0.11832202766560984,-2.7715754534350765,2.775725837163426
1.5543397164884356,-0.05205306898097951,0.011152042956863006,-2.7127901351382597,2.7133124050422035
1.556826660034817,-0.018681125013091434,0.1310462640909691,-2.6922247362471694,2.6954769778696117
1.5593136035811987,-0.004452208797344134,0.2269954353846746,-2.690725962971383,2.7002875694371755
1.5618005471275802,-0.009366361273694564,0.3133647764169565,-2.693928925190212,2.712109560065531
1.5642874906739617,-0.047788833402134384,0.38057749017434483,-2.7066223464066717,2.7336655839171873
1.5667744342203431,-0.09098924631795471,0.4190567796521658,-2.733594950459242,2.767025294552657
1.5692613777667246,-0.13896764113546345,0.4479562677763278,-2.7748470581945917,2.8142055752012913
1.571748321313106,-0.2013008656657599,0.4529107542390789,-2.796860167538771,2.840436055711904
1.5742352648594877,-0.2540469445329554,0.4482854586629026,-2.8283650198965233,2.8749171098049766
1.5767222084058692,-0.3211479356184822,0.4340803907175461,-2.878938743699031,2.92913811079793
1.5792091519522506,-0.3930270736148696,0.4055071567604749,-2.9198512411157953,2.9739599198751288
1.581696095498632,-0.4601075932669006,0.3673541697976561,-2.955891237852386,3.013957712620085
1.5841830390450136,-0.5271779393316087,0.32919824616307913,-2.9726938466201247,3.0369716447026507
1.586669982591395,-0.5798729433351157,0.28146258891703324,-2.9894130036526523,3.058114439614643
1.5891569261377767,-0.6277694534544794,0.23372401440843982,-3.006049032175625,3.079781191163707
1.5916438696841582,-0.6708675112745189,0.1859825323528419,-3.0226022556811163,3.1017377574631637
1.5941308132305396,-0.7091671584275131,0.13344974915251306,-3.019919384639527,3.1049380000029956
1.596617756776921,-0.7283032266312577,0.0761256745369634,-3.0410963729380835,3.1280166012574764
1.5991047003233025,-0.7426409675709351,0.03316393152369379,-3.0669799315458963,3.1557853782496164
1.601591643869684,-0.7617572296559512,-0.00022387346475571945,-3.0784167716712076,3.171265354264606
1.6040785874160657,-0.776075248058052,-0.028826133999430237,-3.0754072180358865,3.171947870535856
1.6065655309624471,-0.7616530480306583,-0.043066033684149296,-3.057951595587392,3.151672256086783
1.6090524745088286,-0.7520094947126019,-0.062097176038490964,-3.064357456054541,3.1558930523525217
1.61153941805521,-0.7471446300412269,-0.0763427446541951,-3.0706831082141886,3.1611940883047227
1.6140263616015915,-0.7279048827123695,-0.07143751979688151,-3.0625636676891723,3.148689418815548
1.616513305147973,-0.703867101382527,-0.05695829832807764,-3.0591530735431736,3.139600399975404
1.6190002486943547,-0.6798197314257128,-0.042481877103811794,-3.0652400550708876,3.140008944625631
1.6214871922407361,-0.6653396215731318,-0.023219843013834396,-3.061671325150723,3.1332167617952718
1.6239741357871176,-0.6316963940294159,0.010404620377602036,-3.062812420081869,3.1272941196764212
1.626461079333499,-0.602832107557594,0.02487269962848604,-3.068663666374528,3.12741457092217
1.6289480228798805,-0.5835352076734769,0.02976121118449271,-3.055283374102636,3.1106519516579936
1.631434966426262,-0.5642289299650078,0.06337739141790744,-3.0370370800612925,3.089654544576079
1.6339219099726436,-0.5497017200131928,0.07304881361966187,-3.0091367079164186,3.0598058495739178
1.636408853519025,-0.5351652167895914,0.08271750421011648,-2.985947794760632,3.034654548346497
1.6388957970654066,-0.5206194626163104,0.10196027965297727,-2.9578938612238783,3.0050917819174363
1.641382740611788,-0.506064499844747,0.11162353649420842,-2.929763638029346,2.9752438667479915
1.6438696841581695,-0.4962887741749612,0.12607249452594127,-2.9111342593462783,2.9558246729445377
1.646356627704551,-0.5008691346547304,0.13573035694258406,-2.906794456142812,2.9527523821187796
1.6488435712509326,-0.49586360711611926,0.1358087302625366,-2.907167749538832,2.9522786203264095
1.651330514797314,-0.5004258472995341,0.14067283428899113,-2.912254467401022,2.9582834478544418
1.6538174583436955,-0.5001906877277907,0.1455342755472806,-2.9316317443363857,2.977555311635616
1.656304401890077,-0.4951581709083047,0.13602785392535877,-2.9557231017638887,2.9999973742591077
1.6587913454364585,-0.5044819526524711,0.1313071925564655,-2.9605868512283315,3.0061300908369217
1.6612782889828401,-0.5137968655512956,0.12179549465491668,-2.9653769342376357,3.012022862409442
1.6637652325292216,-0.5135261455369654,0.10749277007846736,-2.984458889053295,3.03022419273202
1.666252176075603,-0.5180350451631712,0.0836106253672182,-2.989102624121461,3.0348122746261113
1.6687391196219845,-0.5273236070416816,0.05972587702473042,-3.003250484472794,3.049778818113847
1.671226063168366,-0.5366034704820399,0.05020374487725565,-3.022114395270778,3.069794637860313
1.6737130067147474,-0.5458746781312744,0.04546743215171034,-3.036117878406934,3.085135041322116
1.6761999502611291,-0.555137272652657,0.03594014207710394,-3.0548380690960233,3.1050772476218804
1.6786868938075106,-0.5596028934044734,0.02641028784533539,-3.068698489307204,3.119417144257409
1.681173837353892,-0.5544831797594219,0.016877879329796563,-3.058545854398375,3.1084464291514298
1.6836607809002735,-0.558931787705255,0.007342926405546457,-3.0578993162739234,3.1085699108020908
1.686147724446655,-0.5633719533204314,0.007382245589796721,-3.066759203612813,3.118085064311415
1.6886346679930364,-0.5630153160153899,0.012207443440208188,-3.0611838285029638,3.1125522806261934
1.691121611539418,-0.5578619185316396,0.007453319875063258,-3.0507503262787754,3.1013453573272063
1.6936085550857995,-0.5527002069408518,0.021850304696566347,-3.0450358322726814,3.0948664227058935
1.696095498632181,-0.5523186273236405,0.04582160114539313,-3.034463868527707,3.084659860441721
1.6985824421785625,-0.5519288191280332,0.04105999254117565,-3.0094579570725397,3.059926231097536
1.701069385724944,-0.5515308251295059,0.05066111864955625,-2.989172039837202,3.0400497173163727
1.7035563292713254,-0.55112468810977,0.06504818271329826,-2.9736064454437887,3.0249471037198714
1.706043272817707,-0.5554988541761854,0.06027917801465188,-2.9531846958409425,3.005580210881476
1.7085302163640885,-0.5550765594796142,0.06508453435958961,-2.9470607328602334,2.9995854624703107
1.71101715991047,-0.5498578468150904,0.07467585831204993,-2.9504464816866136,3.002174974383686
1.7135041034568514,-0.5589963722615481,0.07947635311567725,-2.953765464133596,3.007245226451361
1.715991047003233,-0.5633385653371846,0.0794860286546264,-2.952229605277802,3.006547523360668
1.7184779905496144,-0.5580960655220082,0.08428170145342717,-2.9554160400935423,3.0088301038099883
1.720964934095996,-0.5672109322178888,0.08428657475497481,-2.948959886884273,3.0041965452952506
1.7234518776423775,-0.5667411916226739,0.08907746508289716,-2.9376498771594086,2.993145030539311
1.725938821188759,-0.5566868865339942,0.08907757567892549,-2.9454283556283247,2.9988970142816047
1.7284257647351404,-0.5562016730280706,0.08907531974494765,-2.957930440350639,3.0110873789413377
1.7309127082815219,-0.5461319806150874,0.08907070716162613,-2.9655796526130587,3.01676257055762
1.7333996518279033,-0.5552082720039377,0.1034289577695171,-2.973164723564075,3.026328179172366
1.735886595374285,-0.5642769766951045,0.0986312582048825,-2.971109174286166,3.0258265576616696
1.7383735389206665,-0.5589729275032284,0.08904282830580534,-2.9546249290711586,3.0083530096122324
1.740860482467048,-0.5584497804781049,0.08902888790893249,-2.9476543320158957,3.001409395808979
1.7433474260134294,-0.5483423684194508,0.09380104356810381,-2.9549861138132574,3.0068955621383817
1.7458343695598109,-0.5525927506807237,0.07941728855421859,-2.94310177846506,2.9955824028442937
1.7483213131061923,-0.5616241633635726,0.07460805265979698,-2.9455204763231144,2.999513116963196
1.750808256652574,-0.5610714392388518,0.08895015239416226,-2.9478773243959306,3.0021149227216823
1.7532952001989555,-0.5461462177067087,0.07934796774113284,-2.9453842461866646,2.996641478185967
1.755782143745337,-0.5455789613972706,0.06974352516669757,-2.947618375007666,2.998495397212548
1.7582690872917184,-0.5497929063651313,0.06492523785327942,-2.954580037373171,3.005999122362442
1.7607560308380998,-0.5444228853306678,0.0553163090199118,-2.9566927529935754,3.006906750752355
1.7632429743844813,-0.5486225542417,0.06485876512523925,-2.9587452513712904,3.009878208324785
1.765729917930863,-0.5528151491085811,0.06482219610177298,-2.975103068474752,3.0267217867255796
1.7682168614772444,-0.5426355026049163,0.050418208480762505,-2.967459303568692,3.0170863432739354
1.770703805023626,-0.5420256739495353,0.05037723203269895,-2.9645447022162905,3.0141093192129578
1.7731907485700074,-0.5509857057415898,0.05512246996250303,-2.971147993187614,3.0223077493943453
1.7756776921163888,-0.5455736239597186,0.050288722151589305,-2.968115888454024,3.018259674386782
1.7781646356627703,-0.5593082944065249,0.050241208399934845,-2.9602371163857075,3.0130306557419875
1.780651579209152,-0.5586709363796261,0.04540313190251677,-2.9570888084648583,3.009742327955993
1.7831385227555334,-0.5532383990380004,0.030986099171065096,-2.949094482678566,3.000698440742943
1.7856254663019149,-0.5573759348386735,0.03572053995582136,-2.931466060114852,2.984197907531824
1.7881124098482963,-0.5423531663327634,0.04045285080010297,-2.923357478238426,2.9735168295709307
1.7905993533946778,-0.5464773625318483,0.04518304152455954,-2.9151922543617435,2.96631503635266
1.7930862969410595,-0.5553833558993362,0.04991112194580394,-2.9021823088817307,2.9552671530827785
1.795573240487441,-0.5594943821933968,0.06421390851691333,-2.8939047719149666,2.948193042978225
1.7980601840338224,-0.5540220804661524,0.06893779776482178,-2.895148370011011,2.9484872341562074
1.8005471275802039,-0.543754896383177,0.05450599285269053,-2.901125022826699,2.9521461157383038
1.8030340711265853,-0.5478464855429979,0.06401413346260432,-2.892681439800432,2.9447987186174003
1.8055210146729668,-0.5471432769528611,0.08788542274858502,-2.893759959990579,2.9463428719500873
1.8080079582193485,-0.546433716191985,0.08302424061772395,-2.91393771222638,2.9658920785248815
1.81049490176573,-0.5552946521295051,0.07337261345662949,-2.905330985219825,2.9588314965147107
1.8129818453121114,-0.5545725136815061,0.08766097096723335,-2.896670520529092,2.9505821837841126
1.8154687888584928,-0.5490557463336471,0.08758209636201242,-2.8783798328657717,2.931587163710735
1.8179557324048743,-0.5483211988591289,0.07792440273103862,-2.8648244532536733,2.917866943097219
1.8204426759512558,-0.5475805100366525,0.06826470647938176,-2.8655815091017285,2.918229235414596
1.8229296194976374,-0.546833721930883,0.07296822732698516,-2.8662861109175086,2.918894919533528
1.825416563044019,-0.5460808765713532,0.07766976506636647,-2.857361772223907,2.910112233837202
1.8279035065904004,-0.54053361263137,0.07279252280469795,-2.848385619514916,2.9001337857450586
1.8303904501367818,-0.5301919720678616,0.07270172024493338,-2.8345695690082877,2.8846444683738084
1.8328773936831633,-0.529421206761227,0.08697417376381944,-2.81591393992168,2.866569838346112
1.8353643372295447,-0.5286445519520631,0.09645627981023663,-2.8067842611081346,2.8577625451789666
1.8378512807759264,-0.5326504528028955,0.08678283814725285,-2.7976040444885495,2.849181664198812
1.8403382243223079,-0.5270737411552239,0.08668427841452786,-2.7883736082887527,2.839075249467835
1.8428251678686893,-0.5214912654115688,0.11052582028444968,-2.7934584803547917,2.84386697619917
1.8453121114150708,-0.5206914706128394,0.12000024689951827,-2.808070574905722,2.8584576296450956
1.8477990549614522,-0.519885995117258,0.11510756795817967,-2.813056595848961,2.86300866424984
1.8502859985078337,-0.5142864772402336,0.11500140643346368,-2.822782069978391,2.871552632069511
1.8527729420542154,-0.5134697652145425,0.11489336869006062,-2.8324589104459914,2.8809156817448374
1.8552598856005968,-0.5126474972677075,0.10041825444515684,-2.8325106267178466,2.880279106744724
1.8577468291469783,-0.4974545049415617,0.09072968665112802,-2.827725937850458,2.8725819118205695
1.8602337726933598,-0.49183284629463014,0.08582767497200372,-2.8324703691655593,2.876135311609358
1.8627207162397412,-0.4957825627373263,0.06177021246303749,-2.822802219042133,2.8666754745682863
1.8652076597861227,-0.504515292312459,0.04728772869562148,-2.7987218020756295,2.844224944492924
1.8676946033325044,-0.5132426730148256,0.04716863663213422,-2.7985366590340455,2.8456019316908288
1.8701815468788858,-0.5075995361498362,0.042259332625887325,-2.788728280485998,2.8348630588929518
1.8726684904252673,-0.5067395362156051,0.03734822962410744,-2.7692969798428013,2.8155258141928874
1.8751554339716487,-0.5106627143787893,0.032435337245969365,-2.7546082800724587,2.8017307571575683
1.8776423775180302,-0.5002154984738636,0.027520665102803488,-2.759027703734006,2.8041410096307384
1.8801293210644117,-0.4849747362055239,0.03218102943861023,-2.768190353050926,2.810536237826788
1.8826162646107933,-0.488882485187029,0.041628036528403634,-2.748577716547082,2.7920276577510883
1.8851032081571748,-0.48799676977544065,0.055861695959333435,-2.728920525487373,2.7727727297441813
1.8875901517035563,-0.4823176308755794,0.05094000070874305,-2.7235843007480725,2.7664303034790168
1.8900770952499377,-0.49099872261901384,0.04601657362840683,-2.7038389328903687,2.7484436042378113
1.8925640387963192,-0.49009806919929505,0.05545663424131719,-2.70799195852293,2.752542824941895
1.8950509823427006,-0.4796157113556264,0.06010657881970838,-2.721678477289533,2.7642680342429973
1.8975379258890823,-0.49307051301278765,0.05517801358807439,-2.7257451850676393,2.7705324322060623
1.9000248694354638,-0.4969436915538832,0.045459351402758585,-2.705827180604473,2.7514578529396214
1.9025118129818452,-0.49123528754621,0.05010421507215801,-2.7145972086765955,2.759141269571634
1.9049987565282267,-0.49509895477962235,0.0499590008331956,-2.7089599471948063,2.7542844574033767
1.9074857000746082,-0.49416952374242246,0.04502371819495643,-2.693704106809042,2.739027650177305
1.9099726436209896,-0.4932354381441032,0.04008677997765808,-2.7023488176227097,2.7472854382966907
1.9124595871673713,-0.49708514163342254,0.03514819567191729,-2.6917987561413987,2.7375371371464703
1.9149465307137528,-0.5105070777977281,0.03499637807928346,-2.676419438237236,2.7248969214145267
1.9174334742601342,-0.5143476735607158,0.030054530030886983,-2.670576379300787,2.719822604831425
1.9199204178065157,-0.5086069690645791,0.029899467629524334,-2.6646930776351336,2.7129622601765377
1.9224073613528971,-0.5076502143490211,0.03453120032768897,-2.6491930310531124,2.6976146610858
1.9248943048992788,-0.5114774494287198,0.034372930927467404,-2.6336533501542867,2.683080440171996
1.9273812484456603,-0.5105119076129824,0.03421307218200553,-2.6132859350784834,2.6629037385158707
1.9298681919920417,-0.5095420321066425,0.03884003683447457,-2.616821508704639,2.6662513833777743
1.9323551355384232,-0.5037794594078503,0.053042237617964894,-2.6251067602012945,2.6735356225693576
1.9348420790848047,-0.5028010359089772,0.07203128061477759,-2.618988378225513,2.6677888807734482
1.9373290226311861,-0.5018183979740976,0.08144196525632275,-2.631985487442128,2.6806346458173067
1.9398159661775678,-0.5008315852195918,0.08127430092457066,-2.6449447754727053,2.6931711148838477
1.9423029097239493,-0.49984063719319194,0.09068191027228822,-2.648289736055496,2.6965723423519004
1.9447898532703307,-0.49884559337334367,0.09529959269949462,-2.637232265720982,2.6856885451884622
1.9472767968167122,-0.5026348964888829,0.09991576087680443,-2.6213494704284415,2.6709732392061607
1.9497637403630936,-0.49684337591684347,0.09495361750314801,-2.619795262241551,2.668182292447924
1.952250683909475,-0.4958362808849491,0.08520157522755056,-2.599051116160293,2.6472966645763636
1.9547376274558568,-0.5091904572288048,0.06587124004747213,-2.5830593464841254,2.6335925139355307
1.9572245710022382,-0.508175524149085,0.05611623455090298,-2.581397057003308,2.631539883989925
1.9597115145486197,-0.49757992401560336,0.04635976139282638,-2.574910931033985,2.6229565972425233
1.9621984580950012,-0.5013457124057568,0.0366018298576285,-2.5779664745783037,2.6265182964042437
1.9646854016413826,-0.5051077182601668,0.045996062499624735,-2.5714103698361317,2.6209541649773755
1.967172345187764,-0.5040775770851953,0.06017725861953549,-2.560031315044901,2.609880426415273
1.9696592887341458,-0.4982553276320224,0.055203410865956926,-2.5486180078741665,2.5974525093147354
1.9721462322805272,-0.4924294118960511,0.06459335171962932,-2.537170742101445,2.5853228814525786
1.9746331758269087,-0.49138827179598593,0.07877028376680029,-2.5352666175693344,2.5836493596122523
1.9771201193732901,-0.4903435425326216,0.08336900626162258,-2.528540716939526,2.5769954090237617
1.9796070629196716,-0.48929526254918326,0.08796633504792872,-2.51699333225152,2.5656194894515143
1.982094006466053,-0.47866666356980136,0.08777387599665909,-2.5197783682391925,2.5663415698551684
1.9845809500124347,-0.48239980048173814,0.09715684824793946,-2.508165695842685,2.5559820379784193
1.9870678935588162,-0.4813410982098054,0.09217324436725338,-2.501309218610949,2.5488689583639097
1.9895548371051976,-0.4802789982001606,0.08718828347034391,-2.50878603285431,2.555831972476188
1.992041780651579,-0.5031555550994188,-8.206524172761252,-2.9136686932658176,8.722939284717022
1.9945287241979606,1.0685095153942172,-6.6026083046507456,-2.6864507744410417,7.207854519385491
1.997015667744342,2.424699720321289,-4.960386539603599,-2.468778609155631,6.0480964920403775
1.9995026112907237,3.5510498119211844,-3.3421081116793534,-2.265440887971282,5.376975340634409
2.001989554837105,-1.0926228891237144,0.014359410089390234,-18.10322381059918,18.136172234160664
2.0044764983834864,-1.0245035522819184,0.19611422814148405,-17.243814162068432,17.275334878811165
2.006963441929868,-0.9132854524065143,0.3443489296685356,-15.177696968972537,15.209048352375614
2.0094503854762498,-0.7637570302814864,0.4638519270445087,-12.129927472122125,12.162796713357924
2.011937329022631,-0.599860339886794,0.5498348259896964,-8.411752171463384,8.451019190450296
2.0144242725690127,-0.43596062847595035,0.5975092322112583,-4.353571179590233,4.415955272409077
2.016911216115394,-0.2912115465364191,0.606875154723439,-0.32409183502214667,0.7470857620010928
2.0193981596617756,-0.16561313118753568,0.5731441992068658,3.3654393642048195,3.417909316591878
2.0218851032081573,-0.06874222610172681,0.5058931812896597,6.4229295339826,6.44318843454316
2.0243720467545385,-0.01496407818393615,0.4003337066256285,8.599381420727504,8.608707906500829
2.02685899030092,-0.004278724289529814,0.2899846074173684,9.765507854518996,9.769813357311016
2.0293459338473014,-0.036686201184927145,0.17005748929137177,9.87821292585347,9.879744735342104
2.031832877393683,-0.10260973890632444,0.04055236118076877,8.966226775690016,8.96690558919945
2.0343198209400644,-0.19726097072024515,-0.07937715471403584,7.1588360153735096,7.161993138663905
2.036806764486446,-0.2966979165213428,-0.18015424284708992,4.618846080155109,4.6318704987346235
2.0392937080328277,-0.40570901603505627,-0.2569904910067722,1.6000420690389259,1.6705623427021221
2.041780651579209,-0.509929095614063,-0.3050974869956109,-1.6198489017016993,1.7254050606941589
2.0442675951255906,-0.5997813848391574,-0.3196868186302262,-4.782253328398956,4.830308920616608
2.046754538671972,-0.6848427264798072,-0.30075847706188386,-7.57592527018562,7.612759612714298
2.0492414822183536,-0.7315943333296505,-0.267466066737414,-9.828482481806763,9.859302016907609
2.0517284257647352,-0.7448246446511801,-0.2006559655555944,-11.357965910682516,11.384130014894373
2.0542153693111165,-0.7245336962925191,-0.11948177799221904,-12.049454150032519,12.07180890695638
2.056702312857498,-0.6946635406087931,-0.03830870521736873,-11.883793858794256,11.904141357941892
2.0591892564038794,-0.6408490032975863,0.04286326154512343,-10.928022954979422,10.946881309705288
2.061676199950261,-0.5630901199218986,0.128822534376972,-9.301851792428742,9.319769980896886
2.0641631434966428,-0.48054053922997036,0.20999231538410834,-7.1489327408866865,7.168141691964902
2.066650087043024,-0.4075655065533112,0.2672190000168624,-4.684744219203838,4.7100259060291645
2.0691370305894057,-0.32979984720454114,0.3052910003121676,-2.1343414521655415,2.1811428124998726
2.071623974135787,-0.2663972096411161,0.3242083249715053,0.31552756270972004,0.5250106228591362
2.0741109176821686,-0.22693443558198934,0.3191825793608696,2.439807602050399,2.47103984023797
2.07659786122855,-0.20662315668685458,0.2950021754716179,4.099634702962417,4.115425143304877
2.0790848047749315,-0.2006750045166278,0.2516671219594495,5.165721709906981,5.175740293128839
2.081571748321313,-0.2138784171736222,0.1939658307849461,5.5710307112268165,5.578507856611583
2.0840586918676944,-0.25102183266047534,0.12668671389318176,5.301196232508316,5.308647942697805
2.086545635414076,-0.29774007559845517,0.06419498985426442,4.418467253185849,4.428952812665254
2.0890325789604574,-0.3492447771488946,0.0017022639413846186,2.989881156739795,3.0102099832895384
2.091519522506839,-0.40074756837213044,-0.06079145526770402,1.1686665871445552,1.236962330266303
2.0940064660532207,-0.4570368868677034,-0.10413254592983101,-0.8344869710509961,0.9571284176814605
2.096493409599602,-0.5085359601723196,-0.1331094028192772,-2.856774065765915,2.904734927448631
2.0989803531459836,-0.550456419040761,-0.16208722736696135,-4.716235630903496,4.751016003418888
2.101467296692365,-0.5827982974454069,-0.16712399445736947,-6.274008229510756,6.30323437205038
2.1039542402387466,-0.5816196126539095,-0.1530080989129794,-7.439112457094646,7.4633830801759995
2.106441183785128,-0.5564972050725973,-0.1293163388928278,-8.125357311739664,8.145418546532737
2.1089281273315095,-0.5361615282850829,-0.10562551257223918,-8.289647420666093,8.307639874975031
2.111415070877891,-0.5158242125284422,-0.07235880486169144,-7.922406233587521,7.939510749716132
2.1139020144242724,-0.49069688793496313,-0.02951620732870497,-7.071518039309283,7.088583922237271
2.116388957970654,-0.43683757125052874,0.022902288442643748,-5.861481579007865,5.877781714177595
2.1188759015170353,-0.40213032892014555,0.05616627092979298,-4.397641979822172,4.416346729381861
2.121362845063417,-0.38178679075939903,0.0798525551560183,-2.7805559648108176,2.807780094239633
2.1238497886097987,-0.35665337651661755,0.12269156940905379,-1.168241096116116,1.2276164347382064
2.12633673215618,-0.3315185224349479,0.14637609547542585,0.29086187152395304,0.46468389293206475
2.1288236757025616,-0.3159590679707096,0.15090614168726635,1.472254200740311,1.513319274915029
2.131310619248943,-0.314763449152426,0.15064692632063803,2.3136863980952747,2.3398536864648767
2.1337975627953245,-0.3231432952601151,0.14081005435329308,2.7481205676017755,2.7706345328740936
2.1362845063417057,-0.34588704210617127,0.12618393738647082,2.775556460530071,2.799870335844416
2.1387714498880874,-0.3590527054724961,0.10676858368388897,2.405570635566219,2.4345612455774135
2.141258393434469,-0.3865823342351336,0.07777559817166502,1.6860468787362048,1.7315452700145448
2.1437453369808503,-0.4141107505982833,0.04878179571949515,0.7031762034081179,0.8175109481799904
2.146232280527232,-0.43684958329706713,0.024575587859325676,-0.4712155862290892,0.6430284959865129
2.1487192240736133,-0.45958726759717483,0.00036857946497503846,-1.7461490719212645,1.8056182248082657
2.151206167619995,-0.4679586253726383,-0.028627624607315827,-2.9875492047453847,3.0241122774669074
2.1536931111663766,-0.4811173016289234,-0.04804780623770766,-4.080494548271631,4.1090410326602305
2.156180054712758,-0.48948652133851506,-0.0531035539647049,-4.9435824885214945,4.9680403443241214
2.1586669982591395,-0.4834895093624691,-0.04858326298523252,-5.524140830646943,5.545471517907792
2.161153941805521,-0.4727031037313091,-0.039275328514080776,-5.798227798926839,5.817597131458578
2.1636408853519025,-0.4571273357228265,-0.01081453250272224,-5.737113213523522,5.7553062802916495
2.166127828898284,-0.4319738331820627,0.012857116516863165,-5.340797313722835,5.35825369353376
2.1686147724446654,-0.4116078371225454,0.022162819955556134,-4.666741177854026,4.68491039650146
2.171101715991047,-0.386452571843154,0.04583300576859006,-3.8155015133268986,3.8352963448606974
2.1735886595374283,-0.36129647149030175,0.06950247201016824,-2.8493278001845734,2.8729835792833076
2.17607560308381,-0.35050477673730723,0.09317122667714672,-1.825681114343773,1.8613559593123812
2.178562546630191,-0.33971230822158394,0.11205087442771466,-0.8738485807179508,0.9442304765469227
2.181049490176573,-0.3145538864662069,0.12135301990163994,-0.056079676926369615,0.341783020488744
2.1835364337229546,-0.31333676840304664,0.11628926772019943,0.5797413301842838,0.6691809427531595
2.186023377269336,-0.32648417764590576,0.11122483576736242,1.0096721911823163,1.0669586758593324
2.1885103208157175,-0.3300541277324123,0.10615973194753225,1.1906170441700006,1.2400703858202906
2.1909972643620987,-0.34320026196746334,0.0963055608261163,1.0986336413478828,1.1550138781685164
2.1934842079084804,-0.35634580361827384,0.07208552362943532,0.7528753656179283,0.8360621810772286
2.195971151454862,-0.3647023791562535,0.047864838166553625,0.20122602062432726,0.41927411018478616
2.1984580950012433,-0.3730584215770395,0.033220318907338786,-0.5036421858456936,0.6276397269622802
2.200945038547625,-0.38620236375961536,0.018575167021426253,-1.2899034319011662,1.3466061659719946
2.2034319820940063,-0.38976902518475176,0.003929390300078772,-2.0809434915041223,2.117135127462338
2.205918925640388,-0.39333524181757235,-0.005928600164231579,-2.8049365411105107,2.832387113445581
2.208405869186769,-0.4016894461854004,-0.006210393298181849,-3.4331523862303506,3.456577539596183
2.210892812733151,-0.4004664574165589,-0.016069594649231078,-3.8746115883793886,3.895285172640356
2.2133797562795325,-0.3896663044822962,-0.02114098654193297,-4.114949161366631,4.133411831742973
2.2158666998259138,-0.383654226196529,-0.016636157960811637,-4.168530538089687,4.186181335539163
2.2183536433722955,-0.36806504133277607,-0.012131907870739145,-4.016202327369202,4.03305097813128
2.2208405869186767,-0.3572639884676572,0.006736981345504489,-3.686695170392688,3.703971412385662
2.2233275304650584,-0.35125109609783484,0.016028500723104244,-3.208739707509947,3.227947452468268
2.22581447401144,-0.34044958596008257,0.030107867840148295,-2.620643384872249,2.642836384447768
2.2283014175578213,-0.32964788963260855,0.04897509029412861,-1.989444067712185,2.0171648393633466
2.230788361104203,-0.32842284189419413,0.06305336902218883,-1.353449200498524,1.3941527996432101
2.233275304650584,-0.3319860674427116,0.07234271158231875,-0.755754630177055,0.8286213115345371
2.235762248196966,-0.3259723842152076,0.08163152883297764,-0.28734023605202985,0.44213811532709146
2.238249191743347,-0.32953543327049023,0.08613142497209703,0.04221695986360352,0.34321202754073
2.240736135289729,-0.3378868389451575,0.07626560085733303,0.21855153308384345,0.40957139843961166
2.2432230788361105,-0.3414498221346287,0.07118767724819541,0.2225096566509439,0.4137223872727747
2.2457100223824917,-0.3450128135741793,0.07089766160286226,0.07803313433978865,0.3607623733235173
2.2481969659288734,-0.3533642438777961,0.061030351398429605,-0.20530143918475297,0.4132065749410011
2.2506839094752547,-0.3712925435379614,0.04637415737304451,-0.5891870484835273,0.6979613839315748
2.2531708530216363,-0.3796441263238945,0.03650589356490608,-1.0401050805843663,1.1078271171868905
2.255657796568018,-0.38320742248447287,0.03142556735127,-1.5197485183402435,1.5676323082687176
2.2581447401143993,-0.38198245882616033,0.021556379448401497,-1.9945987470682667,2.030960225645028
2.260631683660781,-0.3807576653534388,0.0164751438333659,-2.431137151229578,2.460828250443009
2.263118627207162,-0.3795330686279937,0.020970271142445096,-2.791056711106153,2.816821376492422
2.265605570753544,-0.3735202917685271,0.030253365350741745,-3.0408388094416985,3.063842903852072
2.268092514299925,-0.37229616773182506,0.03953603041275899,-3.1421764247994313,3.1644020317864068
2.2705794578463068,-0.36628391607039057,0.04881827358265545,-3.0998581647642567,3.1218052105573593
2.2730664013926885,-0.34590675621351785,0.053311698773564675,-2.9378262493401976,2.9586004617948287
2.2755533449390697,-0.34468353734993307,0.057804716518479626,-2.670446091027543,2.6932193470373202
2.2780402884854514,-0.34346067202137476,0.0575089306889458,-2.3216599081031806,2.347632262350309
2.2805272320318326,-0.3326613792864918,0.04763594513563163,-1.9201983212990434,1.9493830741179172
2.2830141755782143,-0.3218624913613063,0.04733938028983742,-1.4995803538018002,1.5344633321718266
2.285501119124596,-0.3158524370174936,0.05183083996031801,-1.1124786412122223,1.1576087098386374
2.287988062670977,-0.3194196449025356,0.046745121294170744,-0.7588933817402239,0.8247018738693286
2.290475006217359,-0.3181989302583285,0.046447441339272366,-0.4914972092502037,0.5873477936667918
2.29296194976374,-0.3169787214835261,0.05093780716142593,-0.34380914345614144,0.4703986577317064
2.295448893310122,-0.32054744685215,0.05063941916461623,-0.26794534675640413,0.420844062932069
2.2979358368565035,-0.3241167278728224,0.040763881051891104,-0.2926364338033771,0.43857659499174856
2.3004227804028847,-0.32289818592925434,0.026099603145635974,-0.4418246150572447,0.547862590647733
2.3029097239492664,-0.3216802489207365,0.01622339906718384,-0.6580492436605034,0.7326460184189639
2.3053966674956476,-0.31567453798075956,0.015923679096167653,-0.9269453017650431,0.9793526279893319
2.3078836110420293,-0.30488107743782034,0.02041204685014497,-1.2389361739693374,1.2760611138209796
2.3103705545884106,-0.2988766981356197,0.015323299284549563,-1.555714824075034,1.5842382074789851
2.3128574981347922,-0.30244982747199867,0.005445846614518857,-1.8293974083680933,1.8542385049197654
2.315344441681174,-0.3156004893988137,0.00993330899452749,-2.064772518781737,2.088776650064011
2.317831385227555,-0.3191750944609103,0.009632079994906562,-2.2331099231307032,2.25582478190882
2.320318328773937,-0.3179620696788007,-0.00024623687477243195,-2.329621404953947,2.35122007238936
2.322805272320318,-0.3071730353063824,-0.010124828165741562,-2.3495187469127163,2.3695350024549167
2.3252922158666998,-0.29638482143239697,-0.0056384771307103065,-2.283225327469662,2.3023886836932665
2.3277791594130814,-0.29038585469907136,-0.0011523869660923225,-2.1403181374897766,2.1599275456071982
2.3302661029594627,-0.28438775498173047,0.0033334490707424003,-1.9543161835604508,1.974902339963306
2.3327530465058444,-0.28796735199024115,0.012607441020818566,-1.7060660348655432,1.7302443349721455
2.3352399900522256,-0.28675945870644026,0.017092788942242088,-1.4434519061931024,1.4717596801393682
2.3377269335986073,-0.28076409794654356,0.00721269287110049,-1.1856275915285437,1.218438873078155
2.3402138771449885,-0.2747696957204347,-0.007456033897344394,-0.9469584806555833,0.9860447972649667
2.34270082069137,-0.2783530812315953,-0.01254817476961767,-0.756175172437537,0.8058776494804349
2.345187764237752,-0.29630268023639517,-0.01285212645565803,-0.6228546515743041,0.6898611254864644
2.347674707784133,-0.29031128848152443,-0.008367882367289692,-0.5565739018834606,0.6277938944692721
2.350161651330515,-0.28432094475079894,-0.0038838392588895765,-0.5477562930186313,0.6171632202042572
2.352648594876896,-0.2879084777400941,-0.01855360386806071,-0.6059788070316383,0.6711526222422131
2.3551355384232777,-0.2867086994166582,-0.023646749751610407,-0.7264532151300074,0.7813419999383956
2.3576224819696594,-0.2998752448628042,-0.01437486709028013,-0.87566086771578,0.9256963619536067
2.3601094255160406,-0.3034661191508494,-0.014679966009103484,-1.0392367275882428,1.0827373471174002
2.3625963690624223,-0.2974813438274474,-0.014985233413382648,-1.2267577732642643,1.262400230279658
2.3650833126088036,-0.29628615027290506,-0.015290662871540572,-1.4190705624543014,1.4497518920280659
2.3675702561551852,-0.29988055977926664,-0.015596247974539956,-1.5778680387031834,1.6061877663104773
2.3700571997015665,-0.298687786870583,-0.020690385656231935,-1.703150371233166,1.7292668021782878
2.372544143247948,-0.30707306254506017,-0.01620785959183957,-1.790129325061553,1.8163478634057637
2.37503108679433,-0.3010943911109615,-0.011725470080804268,-1.8100746477188832,1.8349838008336028
2.377518030340711,-0.28554019667094976,-0.007243210804639411,-1.7821401190536452,1.8048847807985378
2.3800049738870928,-0.2939293231220591,-0.00276107546759663,-1.7111143080680975,1.7361780570563878
2.382491917433474,-0.2975313710697307,-0.0030674611170145027,-1.601785782879114,1.629187533810026
2.3849788609798557,-0.30113476423403995,0.010991251778514233,-1.4685199173587637,1.4991176409893052
2.3874658045262374,-0.2951627162465556,0.020261456165057812,-1.3065284712122622,1.3396074804793472
2.3899527480726186,-0.28919205389250674,0.019954754926713836,-1.120600009900187,1.1574863361902163
2.3924396916190003,-0.28322279718889565,0.02443636420591533,-0.9538303245598012,0.9952912020072127
2.3949266351653815,-0.2820433693454276,0.03370629016119464,-0.8253731888414357,0.872883426951407
2.397413578711763,-0.26650017684263855,0.04297613560776048,-0.7160751489474766,0.7652665623356903
2.3999005222581444,-0.2653236592365551,0.05703430997842629,-0.6403015734369646,0.695439186134376
2.402387465804526,-0.26414862607278294,0.06151560940167489,-0.6124178299836753,0.6697867312347358
2.404874409350908,-0.2677635000505599,0.0659968465844516,-0.6276356720948488,0.6855504449742341
2.407361352897289,-0.2713798971008904,0.060901220929310274,-0.6668016424316399,0.722482136533979
2.4098482964436707,-0.2654210297068679,0.05580554509688218,-0.7299158960514323,0.7786782372602816
2.412335239990052,-0.26904053014587553,0.055498228404275984,-0.8409206037283035,0.8846526561266639
2.4148221835364336,-0.2774500139661648,0.059979276825045336,-0.9662970955078816,1.00712764865495
2.4173091270828153,-0.27149588662749913,0.06446029298915734,-1.0868919105122572,1.1221404417295031
2.4197960706291965,-0.2655433767043061,0.059364476182958814,-1.217070410221302,1.2471157962997061
2.4222830141755782,-0.2643809060028818,0.06384544559132621,-1.3185255187075242,1.346284905903875
2.4247699577219595,-0.27758529952236577,0.058749593813266276,-1.3768921757610606,1.405822597967529
2.427256901268341,-0.2764261555719569,0.05844213666656817,-1.40653574021038,1.4346322495021526
2.429743844814723,-0.27526870221626154,0.06292307998464963,-1.4026679567194158,1.4308073137994508
2.432230788361104,-0.27411295743158226,0.05782721961652726,-1.3748657790300776,1.403117176542447
2.4347177319074857,-0.2681705357465842,0.04794296466896775,-1.318340950040655,1.3461934573670893
2.437204675453867,-0.2622298582032773,0.04284712754552844,-1.233093615087423,1.2613961465144816
2.4396916190002487,-0.270656152357064,0.05211652062621397,-1.1143355153043757,1.1479174731658985
2.44217856254663,-0.26471901575335266,0.06138593966588246,-1.0003740208267153,1.0366255700276241
2.4446655060930116,-0.25878367569323785,0.061078583716094315,-0.8912092743459752,0.9300287924974939
2.4471524496393933,-0.26721535935074,0.05119445844539339,-0.7964182243134417,0.8416097129115359
2.4496393931857745,-0.26607206721037435,0.04609877945959351,-0.7064242050189034,0.7562768010813605
2.452126336732156,-0.26014221955158034,0.04100314905956237,-0.6451693731143617,0.6968491606013469
2.4546132802785374,-0.26379104316754115,0.03590757284275714,-0.6126538677708346,0.6679968786883969
2.457100223824919,-0.2578649414824442,0.03560045970319736,-0.5897242139991459,0.6446211052655146
2.459587167371301,-0.25194073771560804,0.03050500855019056,-0.6098993724551001,0.6605921096928549
2.462074110917682,-0.2555952549596868,0.02540962823018411,-0.6588142697134138,0.7071144359597832
2.4645610544640637,-0.2544632995791911,0.010737517604859192,-0.7173154281511476,0.7611887338766307
2.467047998010445,-0.24854488777306105,0.0008538921136014288,-0.7901913858701057,0.8283584469740038
2.4695349415568266,-0.2569936488950688,-0.009029646109318001,-0.8630770668145367,0.900571648089393
2.472021885103208,-0.2606559856101509,-0.018913091633223633,-0.9216073940530158,0.9579454246681889
2.4745088286495895,-0.2547435104179448,-0.02400803573105792,-0.9897245163416528,1.0222647700705723
2.4769957721959712,-0.25362144897318595,-0.019526069699709048,-1.0482749516792325,1.0786961949943428
2.4794827157423525,-0.2572898168436211,-0.034197608102224386,-1.097258830472093,1.1275391200753624
2.481969659288734,-0.25138341951010656,-0.03929222568189816,-1.0983690556909327,1.1274538061947472
2.4844566028351154,-0.2550558855698356,-0.034809917127915924,-1.0755477725980658,1.1059241593504168
2.486943546381497,-0.2539420202520687,-0.03511588711443814,-1.0335835123028474,1.0649011935770503
2.4894304899278787,-0.24804183862136553,-0.035421727058435604,-0.9724764017232861,1.0042359306274298
2.49191743347426,-0.2421437589370754,-0.03572743172127302,-0.9065917768680816,0.9390520215911363
2.4944043770206417,-0.24103619933312986,-0.04082139920873029,-0.8455065695560329,0.8801398725115966
2.496891320567023,-0.24471917449785602,-0.041126817689769,-0.7700672908153248,0.8090627428598189
2.4993782641134046,-0.23403908571315446,-0.04143208531842868,-0.6994276773686607,0.7387083234975779
2.501865207659786,-0.22814956069837294,-0.04652560027290775,-0.6431646584309281,0.6840158122311116
2.5043521512061675,-0.22705061376668156,-0.046830550794648484,-0.6012783557100434,0.6444227981263003
2.506839094752549,-0.2211654524658262,-0.05192373843054021,-0.5833456966890083,0.6260211129208034
2.5093260382989304,-0.2344361074610724,-0.04743994815012709,-0.570213188064276,0.6183477314621698
2.511812981845312,-0.23813217276971438,-0.04774438486906263,-0.581034562230986,0.6297520309625876
2.5142999253916933,-0.21788845224558667,-0.03847183360537709,-0.5918679208385349,0.6318726891713767
2.516786868938075,-0.20722378282139148,-0.0339874993232443,-0.6122901879164893,0.6472990966283396
2.5192738124844567,-0.21092658138384118,-0.04386818369080858,-0.6375130766723647,0.6729319157261521
2.521760756030838,-0.20984324809411642,-0.034595058517709276,-0.6627482994534812,0.6960361450909097
2.5242476995772196,-0.20876219959113945,-0.02053332884102277,-0.6975727777088991,0.7284305414876105
2.526734643123601,-0.2076834490698498,-0.025625006362777203,-0.722833012107559,0.752513534337508
2.5292215866699825,-0.2018186062813579,-0.025928069606238058,-0.7481059223829636,0.7752841322633403
2.5317085302163638,-0.20553289413466308,-0.01665411040027287,-0.7733916207717453,0.8004097257308548
2.5341954737627455,-0.2044611154936925,-0.016956737199682603,-0.7891134120146894,0.8153476900726764
2.536682417309127,-0.20339168638057886,-0.022047541882101562,-0.7904830033186236,0.8165278015642884
2.5391693608555084,-0.20711302269458376,-0.022349713029251372,-0.7679236977169328,0.7956771451772536
2.54165630440189,-0.21083673357163596,-0.017863245887892454,-0.7358008139924337,0.7656200504484821
2.5441432479482713,-0.21456283134543896,-0.008588135729216795,-0.7036912667566053,0.7357257393756118
2.546630191494653,-0.20871452158671067,-0.008889587809784771,-0.6524415498490921,0.685069888596837
2.5491171350410347,-0.20286862302522507,-0.00919079080905627,-0.5964169795029193,0.630042349595035
2.551604078587416,-0.20181355094843678,-0.004703336751258114,-0.5547712744237199,0.5903575168054789
2.5540910221337976,-0.19597251056103265,-0.00021562432571053947,-0.5131393292283466,0.5492879414208557
2.556577965680179,-0.19492232022730344,0.004272351074090963,-0.4715212476492088,0.5102403853980614
2.5590649092265605,-0.19387458822914272,0.003972190709848444,-0.45385914917604886,0.4935496545950185
2.561551852772942,-0.19761772936779792,0.0036723024593827702,-0.45057632921338353,0.49202162677391
2.5640387963193234,-0.19657494836249906,-0.006204115784924635,-0.45209608232388376,0.49302238187428754
2.566525739865705,-0.2098998697334652,-0.016080252873975187,-0.4584185088702384,0.5044443072544574
2.5690126834120863,-0.20886208467710116,-0.011590894362878412,-0.47433211169606615,0.5184097524486256
2.571499626958468,-0.19346160419119662,-0.00231284243284291,-0.4950485861662077,0.5315127883706201
2.5739865705048492,-0.19721726239544218,-0.0073997059302484125,-0.5109912234883289,0.5477786366012334
2.576473514051231,-0.20576386008631276,-0.0076978671635239415,-0.5269485239954115,0.5657497416856941
2.5789604575976126,-0.19515939129979104,-0.0032073217469061888,-0.5477089871861551,0.5814487161992681
2.581447401143994,-0.1845574798349977,-0.003504871959818523,-0.5589074984449987,0.5886011716846531
2.5839343446903755,-0.1835349427309741,-0.013378916785940831,-0.5653325556059627,0.594529199489475
2.5864212882367568,-0.19209179026689555,-0.008887435311649927,-0.5669842523524196,0.5987064262307462
2.5889082317831384,-0.18628601600135086,-0.009184036530714312,-0.5590742782184392,0.589364806253412
2.59139517532952,-0.18527124325693634,-0.009480312859922346,-0.5511795318714192,0.581561850763863
2.5938821188759014,-0.17947067531579064,0.004588949899976047,-0.5385117011915863,0.5676492174571782
2.596369062422283,-0.17846112862294383,0.009081739361140428,-0.5210708765546439,0.5508590661980826
2.5988560059686643,-0.17745420954435653,0.008786463033008562,-0.4940687441925533,0.525043924263151
2.601342949515046,-0.1764499276483995,0.008491528400421888,-0.47187060279650517,0.5038536978183625
2.603829893061427,-0.18981350234671052,0.022562149564245626,-0.4496881369558743,0.48862832171797943
2.606316836607809,-0.18402611973036598,0.02705631403824338,-0.3987910138393449,0.44003628213064844
2.6088037801541906,-0.1734529989763675,0.026762429233447627,-0.3526981429620033,0.39395196473836347
2.611290723700572,-0.16767095582444336,0.02646890253628653,-0.32577481974150757,0.3673464106346619
2.6137776672469535,-0.17146840257729,0.03096414130858527,-0.31802112881990396,0.3626260187924628
2.6162646107933347,-0.1704801381398786,0.04024814956724354,-0.31986034738542557,0.3646834694269873
2.6187515543397164,-0.16949457458220085,0.039955721343629236,-0.33129255845527616,0.3742721333050773
2.621238497886098,-0.15893491389733183,0.03008686060543564,-0.3379526342756094,0.3746698667500057
2.6237254414324793,-0.16753158452510825,0.025006781256696975,-0.3446290595652304,0.384006978607328
2.626212384978861,-0.17134257826646965,0.019927083895586062,-0.3513219149156406,0.3913853033770885
2.6286993285252422,-0.17036790340868013,0.005270965775374226,-0.3293008601910099,0.3707992207578295
2.631186272071624,-0.17418437476467374,-0.009384762594022877,-0.32166160425635404,0.36591591634401177
2.633673215618005,-0.18758040371236684,-0.00488648408665604,-0.3379810319322534,0.3865765946479618
2.636160159164387,-0.1866139815933598,-0.005176211483981952,-0.3064331707933352,0.35882148688994514
2.6386471027107685,-0.17607351955695139,-0.015042344310796096,-0.2988441472245853,0.3471829211552986
2.6411340462571498,-0.17032423527915574,-0.010542862194602876,-0.3008488270479983,0.34587788857173274
2.6436209898035314,-0.16936613636140918,0.003533835290638443,-0.2932936719695416,0.3387012756917663
2.6461079333499127,-0.1684108269714661,0.0032457352651444893,-0.29533236946362784,0.33999110266538635
2.6485948768962944,-0.18182352444523542,-0.0018303519332514284,-0.2973881862904246,0.3485726288379439
2.651081820442676,-0.18087381612299375,-0.002117615991281241,-0.28988438841940223,0.34169105973916253
2.6535687639890573,-0.1751385157949759,-0.00719285990148677,-0.28718625763263184,0.33645383564683257
2.656055707535439,-0.17898284045946766,-0.012267676720023157,-0.2797170583233619,0.3323055608745079
2.65854265108182,-0.1780415870809004,-0.012553659527591243,-0.2626884574196229,0.3175871955216733
2.661029594628202,-0.16752635915263553,-0.012839208070055896,-0.25046573434690345,0.30160074661170455
2.663516538174583,-0.17137917997850133,-0.02748952875843713,-0.24783736110804,0.3025720659321701
2.666003481720965,-0.17523484618870666,-0.042139408106399046,-0.25001500228496454,0.30820526017881034
2.6684904252673465,-0.17430496094325665,-0.04242363265211946,-0.2426335150404988,0.30174990743617497
2.6709773688137277,-0.17337793393224554,-0.03791900555984373,-0.23048136904201222,0.29089417394087114
2.6734643123601094,-0.1820305780558396,-0.052567539979242905,-0.2231354365022895,0.2927249573061369
2.6759512559064906,-0.18589768950269742,-0.062427215881355025,-0.19665376561883896,0.2777189438572886
2.6784381994528723,-0.17540246767215278,-0.07228643318355266,-0.1749784370210392,0.25808682165156477
2.680925142999254,-0.16969853177605976,-0.07735678518706068,-0.16289791728758196,0.24762349516566337
2.6834120865456352,-0.1592090809953709,-0.0824266718581681,-0.15562386558896613,0.23740361253750392
2.685899030092017,-0.14872252436323058,-0.08270768654698868,-0.14357953700966597,0.22265227174865448
2.688385973638398,-0.1573924807653002,-0.06862301930774573,-0.1459186057922004,0.2253303159734753
2.69087291718478,-0.16127693909630947,-0.06411468346126581,-0.1578527288155751,0.23460270184747772
2.6933598607311615,-0.15079909810412034,-0.06918267575121106,-0.16501675555812412,0.23400243637202373
2.6958468042775428,-0.15468938299159835,-0.050308169703457306,-0.16262234138066312,0.2300124845858637
2.6983337478239244,-0.14900578233099904,-0.03622158203229375,-0.16024635084872507,0.22179634607749502
2.7008206913703057,-0.14811351115021365,-0.041288119515447974,-0.15788884113292312,0.22038876367152618
2.7033076349166874,-0.14243576776903144,-0.041565762392489436,-0.1507614653311986,0.21152938323559814
2.7057945784630686,-0.1415493636822679,-0.03705450752887973,-0.14365268243171236,0.20504963315472952
2.7082815220094503,-0.14545430363822154,-0.0469079650956461,-0.13656254735387208,0.20495521700135583
2.710768465555832,-0.14936218895930148,-0.05676092204592553,-0.12949111427062654,0.205666755790201
2.713255409102213,-0.14369621754236295,-0.05703656867744833,-0.11765003329012735,0.19427635840638832
2.715742352648595,-0.14282160378090142,-0.057311708593457134,-0.11540456705928293,0.19235606709067088
2.718229296194976,-0.1419499486825796,-0.06237474210112959,-0.10838955756265456,0.18917899611689828
2.720716239741358,-0.13150444983049264,-0.05786045625061975,-0.09181665268696904,0.17050381354500532
2.7232031832877395,-0.13542712794600387,-0.06292246135848156,-0.08483951618408447,0.1717483235244596
2.7256901268341207,-0.1393527770843888,-0.06319554452327125,-0.07309298782928231,0.16957434416366093
2.7281770703805024,-0.1384929978383066,-0.05389129950834359,-0.056577116626426616,0.15901431614386005
2.7306640139268836,-0.12327098737719633,-0.044586530062144636,-0.05444556413035073,0.14194370167571213
2.7331509574732653,-0.11284036268979708,-0.030492829996306536,-0.06190997456608294,0.13227095328877628
2.7356379010196465,-0.1263547406626408,-0.006821793146583044,-0.07418199143251769,0.1466800095532861
2.7381248445660282,-0.1255068982366217,0.016849776666248317,-0.06731964422324843,0.14341489105746622
2.74061178811241,-0.12466204877454262,0.016579865636404012,-0.06047659159272811,0.13954546384551986
2.743098731658791,-0.12382019557708607,0.011522089816862202,-0.04886447487400858,0.13361113835009528
2.745585675205173,-0.1181929385237892,0.016041661916265326,-0.03727174132303901,0.12496434825651477
2.748072618751554,-0.12214549067495745,0.010984971377063779,-0.016121627519240178,0.12369356233147362
2.7505595622979357,-1.6057176743655033,0.6810936957035496,-24.54992320916793,24.61180504246162
2.7530465058443174,-1.5043313674956522,1.255434903001619,-22.46022184057687,22.545524939260837
2.7555334493906987,-1.3023916021616424,1.7100665793209466,-18.598830795242964,18.72263492516931
2.7580203929370803,-0.9998983810646235,2.0114699040476403,-13.439802042258622,13.626227903658595
2.7605073364834616,-0.630370530049112,2.150068073145045,-7.52422519649418,7.8507403811277525
2.7629942800298433,-0.2321152781816359,2.1210726858730458,-1.4267086953599506,2.5667731770722804
2.7654812235762245,0.15177174224922269,1.958002568030175,4.354753477563545,4.7771002259226165
2.767968167122606,0.49734851233331534,1.6847997387505695,9.34610935598903,9.509766863415729
2.770455110668988,0.7710962066173962,1.31104100718363,13.17865184737648,13.266132910412752
2.772942054215369,0.9490728063856486,0.8750336023768881,15.627325959487958,15.680552912483527
2.775428997761751,1.0169130996593878,0.4198731566744631,16.57720997714425,16.613677989725378
2.777915941308132,0.9937706977982517,-0.025709907564154477,16.05703428546486,16.08777769748648
2.7804028848545137,0.8748571956560791,-0.452138781284392,14.200874143303205,14.23497913676975
2.7828898284008954,0.6793262047836127,-0.8211062355334866,11.28645690980627,11.336657757886643
2.7853767719472766,0.4071777235455549,-1.1038818480227062,7.6393939780092985,7.729468881119226
2.7878637154936583,0.09193057364314117,-1.2861004064481343,3.6331807748270197,3.8551923464866285
2.7903506590400395,-0.2281080198076253,-1.3677619084901358,-0.3778408854264885,1.4372089763555638
2.792837602586421,-0.5098424282765966,-1.3728083684542047,-4.0584828010433585,4.314605980218079
2.7953245461328025,-0.7532726530229381,-1.2820861707865068,-7.107075592884502,7.260970191516339
2.797811489679184,-0.9392450819314468,-1.1051721198785334,-9.308141140905372,9.420460617056067
2.800298433225566,-1.0294524895129364,-0.866008230106136,-10.561123004080141,10.646457710904913
2.802785376771947,-1.0286832800686843,-0.5981133225091804,-10.818137177239958,10.883382783989413
2.8052723203183287,-0.9608794710892548,-0.31585260486963573,-10.11270251099717,10.16315916936718
2.80775926386471,-0.8260410633720752,-0.014437671711543754,-8.583682728349206,8.623349782172923
2.8102462074110917,-0.6289564609437348,0.24867063925365418,-6.417825584837575,6.453364126870996
2.8127331509574733,-0.38877927770077825,0.4734723301352317,-3.8641280785087506,3.912392002508562
2.8152200945038546,-0.1294515307700534,0.6312369830969717,-1.1811640133993233,1.3454985151228052
2.8177070380502363,0.11550795617139492,0.7411182134829555,1.4299536469546261,1.6147339492107968
2.8201939815966175,0.331733972817198,0.7935392166920785,3.734593116422845,3.8323540627638066
2.822680925142999,0.49049609898920443,0.7741347847798528,5.574737062646845,5.649563204866209
2.825167868689381,0.5822175278795161,0.7068469363411758,6.830675380477901,6.891787576141038
2.827654812235762,0.6308402760107018,0.6060408833073652,7.430581998611483,7.481897743498387
2.8301417557821438,0.6076339234700052,0.44777461102415117,7.374456896189134,7.412984257435116
2.832628699328525,0.5221752769947466,0.2751437512986312,6.705395682872716,6.731322482816529
2.8351156428749067,0.38882954672982006,0.09772511267293948,5.533531615444222,5.5480366575192885
2.837602586421288,0.21238513626630104,-0.07969289965410775,4.012093581201551,4.018501375971
2.8400895299676696,0.021572465883252956,-0.2475334771862019,2.279945258112388,2.2934446959979957
2.8425764735140513,-0.17403165733552584,-0.37706619816861586,0.4807387280927031,0.6352760504256978
2.8450634170604325,-0.3456968129392539,-0.46829106079120164,-1.193989893111393,1.3283127150432092
2.847550360606814,-0.4934230003140066,-0.525996466586955,-2.605376925655654,2.7033548536660414
2.8500373041531954,-0.6028450088000035,-0.5501824137911862,-3.681596335558095,3.7709779064686875
2.852524247699577,-0.6548092243327963,-0.5408489006618766,-4.341245281577957,4.423539674111826
2.855011191245959,-0.6636808560061409,-0.483630715518665,-4.541228148420966,4.614880718245386
2.85749813479234,-0.6150946929083867,-0.4024698732663201,-4.334217386585746,4.396107805128675
2.8599850783387217,-0.5234159439665544,-0.3021547755507994,-3.753731832678441,3.8020737013437813
2.862472021885103,-0.4125866246655846,-0.1874738240406031,-2.871597549259307,2.9071371901692915
2.8649589654314846,-0.2730299271658971,-0.06800382374697245,-1.7883710182044155,1.8103703377833835
2.867445908977866,-0.1191110601475644,0.05146682361676369,-0.6093971241066214,0.6230578893265831
2.8699328525242476,0.034804767790807545,0.15657290967427473,0.5647676523623364,0.5871021623701496
2.8724197960706292,0.15998713817087745,0.23294922602700296,1.6479320410911509,1.671987212373807
2.8749067396170105,0.25164764919629656,0.2997493874961501,2.529962755961055,2.5600562066486736
2.877393683163392,0.3193631091121007,0.34739658895896586,3.1533989479719438,3.1885109550623523
2.8798806267097734,0.3487683096414913,0.34716041198920466,3.4895101886356876,3.524037605085248
2.882367570256155,0.33028644590739864,0.322982874661935,3.5095660500527153,3.5398391112249223
2.8848545138025368,0.27828272971327656,0.2748639784285656,3.280604171315481,3.3038394654018504
2.887341457348918,0.18318035633964103,0.22195733799974926,2.831354965537578,2.8459429094264967
2.8898284008952997,0.07370974770755823,0.1642629547828509,2.209702459694224,2.217025125162051
2.892315344441681,-0.045340690785769355,0.07305041024140246,1.4587422780184145,1.4612738190892633
2.8948022879880626,-0.16439415034544158,-0.013373067698533081,0.6550888685615543,0.6755336418867136
2.897289231534444,-0.26908541877946585,-0.08543067105466529,-0.10548970677107228,0.3013858662764692
2.8997761750808255,-0.368991300420972,-0.15748760846807075,-0.7655326120661634,0.8642899436787376
2.902263118627207,-0.435381372964536,-0.2151786686796684,-1.2915210274436912,1.379813524976635
2.9047500621735884,-0.4586788273104778,-0.25371544709277094,-1.6403593258182152,1.7220733179848033
2.90723700571997,-0.44846046756517016,-0.27788634577293614,-1.7928938961427265,1.868905063121627
2.9097239492663514,-0.42866830772121844,-0.29247976680733956,-1.7395479334507682,1.8153038161170398
2.912210892812733,-0.3705719251734861,-0.29270730566410696,-1.513840262101092,1.5857848081231665
2.9146978363591147,-0.28374812380547904,-0.2833573644734777,-1.1301360926161843,1.1991713729064173
2.917184779905496,-0.1825621107476454,-0.254853135426246,-0.645896264849279,0.7179561475908358
2.9196717234518776,-0.0909558996979562,-0.22155982733614143,-0.11379321478303517,0.2651615140056027
2.922158666998259,-0.004141084360014646,-0.17868903575702477,0.423077428787316,0.45928360609620994
2.9246456105446406,0.08745914495502172,-0.13102916290469224,0.9072548276501422,0.9208306390766204
2.927132554091022,0.15511437144525886,-0.09294541765678455,1.324373774018886,1.336661966318066
2.9296194976374035,0.18445938834090703,-0.045284185670007915,1.6361270440442013,1.6471149406376329
2.932106441183785,0.18985940886494584,-0.007199079184684987,1.8185726243746831,1.828470621038434
2.9345933847301664,0.18567964631073297,0.02609830613931896,1.8764989221147559,1.885843646046846
2.937080328276548,0.16713170076033473,0.05460797130078099,1.8051175382596174,1.8136604872084219
2.9395672718229293,0.11985036572471497,0.0591763039962383,1.6379473008957177,1.6433920121597798
2.942054215369311,0.04383564474485985,0.049380111823167816,1.3797766187137643,1.3813556662724682
2.9445411589156927,-0.027393635327430388,0.030007799037843785,1.064124320849686,1.0648997368219006
2.947028102462074,-0.0890490674939316,0.015424576516362531,0.7292976402810236,0.7348759773606137
2.9495150460084556,-0.16507266461064196,0.0056304451530770905,0.3992386005418904,0.4320557217268699
2.952001989554837,-0.23152240626306664,-0.01852820745960937,0.08831241904151987,0.24848541693723558
2.9544889331012185,-0.2692446752900685,-0.042686170507762355,-0.17475047633681484,0.3238094089192219
2.9569758766476,-0.2830278710656726,-0.06684344315900015,-0.36600806052020296,0.4674769748972435
2.9594628201939814,-0.2824487962181836,-0.09578842792180398,-0.46151830792813975,0.5495014958684689
2.961949763740363,-0.26271904334940627,-0.11994431736419076,-0.46128120907681236,0.5442318337379345
2.9644367072867444,-0.2286270116366143,-0.12494590075432699,-0.3700851573005206,0.4525978482266015
2.966923650833126,-0.18017269687208798,-0.1299467906229239,-0.1975069487543628,0.29724966593356805
2.9694105943795073,-0.12693290142448554,-0.1301585829194538,-0.0010074122997512092,0.18180823152756365
2.971897537925889,-0.06890762095798997,-0.13036968025427553,0.22899027018056728,0.27236199733637817
2.9743844814722706,-0.006096851073461251,-0.11621487197669866,0.4733324973732991,0.4874286831231997
2.976871425018652,0.047134202730232555,-0.10205936737806232,0.6889236518523649,0.6980354902282716
2.9793583685650336,0.07642033501675638,-0.08790316580883939,0.8901289565217407,0.8977174351664184
2.981845312111415,0.09133835701334359,-0.07853466995985192,1.0530064082061834,1.0598739951385199
2.9843322556577965,0.10146508000883875,-0.05958866926063422,1.1584024075315273,1.16436339247689
2.986819199204178,0.09243529875167616,-0.0310651631215606,1.201528565562585,1.2054792502063085
2.9893061427505594,0.05946061469165481,-0.016906167574426423,1.1967501071207671,1.1983456104543178
2.991793086296941,0.02648304926068573,-0.0027464721082908206,1.134490240898561,1.1348026267599405
2.9942800298433223,-0.006497392651029554,0.0018371171664903763,1.029114192659966,1.0291363430784664
2.996766973389704,-0.05384591605484618,0.011209810721466429,0.8997755919565442,0.9014550229561906
2.9992539169360852,-0.10598570930160961,0.01579480240701603,0.7512628588434271,0.7588664766853528
3.001740860482467,-0.07672550755868635,-0.032291940508484274,0.6027296237986306,0.6084509613242305
3.0042278040288486,-0.07619858206816987,-0.03728235116681056,0.5786743908060217,0.5848591695378001
3.00671474757523,-0.0613092977645624,-0.042272059018176655,0.5785407082513139,0.5833139018315541
3.0092016911216115,-0.05121126268925558,-0.04726106364934379,0.583174981419214,0.587323812318891
3.0116886346679927,-0.050692874865979676,-0.04267255802573722,0.5734236160454333,0.5772394288414976
3.0141755782143744,-0.05975412894187182,-0.04766015505387555,0.5923822614780256,0.5972928846212562
3.016662521760756,-0.059241406226982984,-0.03828183777662497,0.5873785011043768,0.5915982985733906
3.0191494653071373,-0.0491547012572216,-0.02890281581844567,0.5823543718797275,0.5851394465128408
3.021636408853519,-0.04385921847448476,-0.03388829882282751,0.5964635078791645,0.5990331911286852
3.0241233523999003,-0.0481433556255394,-0.03408467321003883,0.6105523170526972,0.6133952066140879
3.026610295946282,-0.05243030044215319,-0.019915132059871166,0.6150440144256759,0.6175958942304163
3.029097239492663,-0.04714324060247549,-0.015321691713133578,0.619515428736694,0.6214954592064731
3.031584183039045,-0.03228217037210601,-0.010727545287215978,0.6191781791926854,0.6201119546825332
3.0340711265854265,-0.031789100565475514,0.0034441140817946803,0.6283974987083862,0.629210477677801
3.036558070131808,0.7444225225083985,-6.078020946799885,0.4269068579270616,6.138302125759297
3.0390450136781895,1.8558195992721962,-4.9289962873162665,0.6371987122881144,5.305194905407528
3.0415319572245707,2.7804661737540273,-3.708144871167604,0.8331051905007669,4.709075789090284
3.0440189007709524,3.523150655268326,-2.4872927480087776,1.0098379138776057,4.429332722467276
3.046505844317334,4.074296243218508,-1.2808051276699441,1.1482432941830965,4.422534829168281
3.0489927878637153,4.414749330417296,-0.1126240266410079,1.2626865668340468,4.593155036340484
3.051479731410097,4.5732403429307835,0.9693665219704268,1.3627445643346459,4.869422084370006
3.0539666749564782,4.56892290023302,1.9172824850365124,1.448417312953035,5.1622612591928725
3.05645361850286,4.4017970085658575,2.7454890725764165,1.4909744194376202,5.397826587773379
3.0589405620492416,4.095804690820887,3.4300442680286767,1.5143579274595353,5.5528460881287085
3.061427505595623,3.689253179898796,3.9565828614541276,1.5233562678052621,5.6201202196756865
3.0639144491420045,3.1917192888253862,4.315528046216606,1.4796622417723384,5.567787234267208
3.0664013926883857,2.6510870572362384,4.521245032263324,1.4120062975338126,5.428045781963011
3.0688883362347674,2.076933298250906,4.568945416242604,1.3299652703699163,5.192082603578049
3.0713752797811487,1.4836232283553643,4.468206004746042,1.2191739793449994,4.8633720787614125
3.0738622233275303,0.9046756773625034,4.2525456209492,1.108362873789213,4.486763934001855
3.076349166873912,0.3496674585288816,3.9171758614476238,1.007108790131701,4.059655425799401
3.0788361104202933,-0.1622478082035289,3.4860387427412856,0.9106233552181884,3.6066640212568903
3.081323053966675,-0.611916502848403,2.978287877992465,0.7997529863082598,3.1439219662332683
3.083809997513056,-0.9897618120161277,2.403500073705516,0.698439730916391,2.691516135294461
