Time (s),Acceleration x (m/s^2),Acceleration y (m/s^2),Acceleration z (m/s^2),Absolute acceleration (m/s^2)
0.0,0.3185282440447623,0.48782953809255525,3.9434834563886243,3.9862889598347744
0.002486943546381497,0.5357446827743684,0.23040427270695063,0.023544471237437747,0.583663290029858
0.004973887092762994,0.8583045385451911,0.0735365893360489,-3.211650376825071,3.3251755523308946
0.007460830639144491,1.2814194762704094,0.0076497157914179326,-5.604083577293222,5.748725696500435
0.009947774185525988,1.7667823376430893,0.013590073221698917,-7.048410056246734,7.2664839392719935
0.012434717731907486,2.271297561056634,0.12008811595555113,-7.511110789636533,7.84792960344637
0.014921661278288981,2.756657988243969,0.3079902650946136,-7.011339190007924,7.540086107259207
0.01740860482467048,3.1845564609557946,0.5294125217939696,-5.6496515264268465,6.506937823685174
0.019895548371051976,3.5310510309200813,0.7939317270269752,-3.5649112946014805,5.08008282496644
0.022382491917433474,3.7721997498797,1.106336318420409,-0.9390776202069393,4.0416998625853
0.02486943546381497,3.893637476231608,1.3948002804490038,2.026736757711899,4.605816160434154
0.02735637901019647,3.9097294883066604,1.6497468407237126,5.1362075033375465,6.662452763626429
0.029843322556577963,3.8061106445244266,1.8807528401081168,8.159491457513056,9.197880752062696
0.032330266102959464,3.6067230298761226,2.0542994895535784,10.91462949418294,11.677231452801944
0.03481720964934096,3.3259319227200583,2.1560216132625163,13.267546520388779,13.846950675946811
0.03730415319572246,2.9733141981005105,2.2002844553282515,15.060225426460214,15.50781218937036
0.03979109674210395,2.60633076426973,2.1775112432107835,16.196898345776162,16.54913989579201
0.04227804028848545,2.244135302920875,2.078125204337578,16.667988671362046,16.946285550862537
0.04476498383486695,1.8867278824678313,1.9212799860246592,16.502227022682305,16.720483114890147
0.04725192738124844,1.5772042012078467,1.711764025593019,15.728344019073592,15.899638824638444
0.04973887092762994,1.3538715541169646,1.4735193736100278,14.408589102982537,14.546878272263031
0.05222581447401144,1.1975763963251689,1.2304880806074099,12.686614573164645,12.802284150478213
0.05471275802039294,1.1131071995602544,0.9970353904398428,10.682130711633011,10.786148698581695
0.05719970156677443,1.1196176455057745,0.792314950245121,8.524424606896233,8.634067496329166
0.059686645113155926,1.2075309959168063,0.611538390521515,6.3715137672353315,6.513700791044277
0.062173588659537427,1.3672705125403974,0.4786477616504283,4.357473684176005,4.591961372058988
0.06466053220591893,1.5701058438328908,0.40321990401282615,2.602014639124977,3.0656645012217156
0.06714747575230041,1.8016718482006868,0.38046644798846163,1.2152701066860039,2.2062768635981405
0.06963441929868192,2.0619685939988286,0.4055990239160494,0.2307591081712035,2.114113245983556
0.07212136284506342,2.307900519685821,0.4929828753737535,-0.27969210871568606,2.3764815589134467
0.07460830639144492,2.5251024836269043,0.6186760193346719,-0.320871749571098,2.6195154608040347
0.0770952499378264,2.708786150811385,0.7731016826895138,0.04975954330566745,2.8173896845759385
0.0795821934842079,2.844586379569972,0.9514714956052217,0.7986831440332076,3.104007803203305
0.0820691370305894,2.922926431534295,1.1394202815632646,1.868438409940639,3.651416108024532
0.0845560805769709,2.9438063749558037,1.308217654038578,3.1584690682821166,4.51146941238257
0.0870430241233524,2.9120146813840453,1.453075243061304,4.582584056076357,5.620616852054508
0.0895299676697339,2.8227630157043166,1.5787814852551079,6.035438696860242,6.84741281686525
0.0920169112161154,2.6808398494175036,1.6805480105551727,7.4021115073252775,8.04999370688469
0.09450385476249688,2.514975670599635,1.7440096422074416,8.605988230516324,9.13398629731872
0.09699079830887838,2.320382144056695,1.745224396767898,9.60397343250742,10.033259050868734
0.09947774185525989,2.1257897578076195,1.7081343239455409,10.338606469194236,10.692216266420427
0.10196468540164137,1.945563789879765,1.6327394567969702,10.757215099571237,11.052996575260321
0.10445162894802287,1.794069518268445,1.5286166349678292,10.859799518930634,11.112632444405168
0.10693857249440437,1.656941801013669,1.410131101371753,10.665513535616059,10.88517821780662
0.10942551604078588,1.562911126003428,1.2629176789474459,10.203087764377788,10.399069774704804
0.11191245958716736,1.5215543678082462,1.115706820462632,9.491676013087385,9.677388229312784
0.11439940313354886,1.5089295777188572,0.9876521719898808,8.617469735858553,8.804152993433792
0.11688634667993036,1.534613630229193,0.8691769596246377,7.642718369957128,7.843573908857346
0.11937329022631185,1.5986065931521878,0.7746464260079204,6.615306142437598,6.849663895635253
0.12186023377269335,1.6769665176574633,0.6992722004427863,5.626212909982726,5.912315115089232
0.12434717731907485,1.788847084754319,0.6574195254561077,4.718534495813617,5.0888841717284174
0.12683412086545634,1.9150947488450465,0.6586652401962871,3.9401551262090444,4.430152391768043
0.12932106441183785,2.0365559642860656,0.6934325704715993,3.3389590271810645,3.972034278635309
0.13180800795821934,2.1436539920271622,0.7521447420307237,2.9388884078695,3.714571203303038
0.13429495150460083,2.2316004962898246,0.834801787202653,2.7638854771393886,3.6491091693315725
0.13678189505098234,2.2908187379252505,0.9318269316147358,2.7947968136942083,3.731895115132159
0.13926883859736383,2.335673994334852,1.0336434008325828,3.0268342059155975,3.9604945395742654
0.14175578214374532,2.356589526265784,1.1354628236796782,3.431267425296893,4.314671037653715
0.14424272569012683,2.3439885944111447,1.222920022275734,3.960212629759439,4.761627871276648
0.14672966923650832,2.293082862728939,1.2912266253172344,4.560997573609571,5.265756743312558
0.14921661278288983,2.223026011721977,1.3547478747173634,5.209680430776849,5.8239124859206965
0.15170355632927132,2.138606511874032,1.389541785761555,5.844012148325742,6.376279650139749
0.1541904998756528,2.0446128336094307,1.390819986950548,6.444839302897011,6.9029541151327045
0.15667744342203432,1.9554102539323384,1.3681593166793773,6.9738548575397505,7.370898232307314
0.1591643869684158,1.861422033183243,1.326348209955438,7.38796337166837,7.733440006930001
0.1616513305147973,1.762648238279796,1.2749635050384163,7.672799824300979,7.975231526099029
0.1641382740611788,1.6926077593170543,1.1996400235177338,7.818787597453877,8.089344640143878
0.1666252176075603,1.6369354531208384,1.1051662001946765,7.825926879458033,8.071312255783468
0.1691121611539418,1.6052081930510989,1.0154840830817131,7.694217858314614,7.9252059731743385
0.1715991047003233,1.5926376424380964,0.930593703519007,7.418872318370837,7.6447475940955085
0.1740860482467048,1.5992238678623343,0.8552834960956148,7.033409270198961,7.263461488873936
0.1765729917930863,1.6297553391532533,0.7847650886878768,6.5857129339909015,6.829610059063173
0.1790599353394678,1.6746553161066555,0.7286153190603186,6.094937109671729,6.362673108198097
0.18154687888584928,1.7195586551240547,0.7011994282243397,5.604177613419099,5.903843606439958
0.1840338224322308,1.7740422291332163,0.7025174471563194,5.156530261058213,5.498232527596124
0.18652076597861228,1.823740894383759,0.713415793476633,4.751995238175035,5.139693734831655
0.18900770952499377,1.8830199269692867,0.7386829013318092,4.409726343276734,4.851505219689266
0.19149465307137528,1.9375141829823554,0.7831072047923142,4.148877374506671,4.645471081833228
0.19398159661775677,1.972858518435056,0.8419003312112665,3.9886021296407197,4.5287872383266015
0.19646854016413826,1.9938414025389872,0.9102739078644251,3.9145355828413724,4.48637837850851
0.19895548371051977,2.0052513044227243,0.9786511586292215,3.9458315311384498,4.533031806230986
0.20144242725690126,1.992723079849299,1.0518205172653645,4.077701754581676,4.658854287571455
0.20392937080328274,1.9658336010977377,1.1106284008517102,4.286204419557366,4.844537699122221
0.20641631434966426,1.9293713370399221,1.1454980330278033,4.547397692066034,5.07084463079567
0.20890325789604575,1.888124756459639,1.1803714605948046,4.8373397377187874,5.325236860371166
0.21139020144242726,1.8325171180903836,1.205671907030491,5.132088721733726,5.581227318721513
0.21387714498880875,1.781702100496919,1.2070341924104968,5.4172796155729905,5.8290918975313675
0.21636408853519024,1.7308913655505909,1.189246750009255,5.683335793618872,6.058927173582352
0.21885103208157175,1.6705081717093329,1.1618864163384315,5.896738613248407,6.237956706261608
0.22133797562795324,1.6292830038992379,1.1297416245056875,6.062276657993861,6.3782503496643095
0.22382491917433472,1.6072159270289421,1.078447194253122,6.156008091054889,6.453109870753883
0.22631186272071624,1.570788182668084,1.0319451718004091,6.173144688498126,6.452906453493999
0.22879880626709773,1.5535186587726382,0.985447183359812,6.137628645894331,6.407418494936101
0.2312857498134792,1.5601958232774407,0.9341648550574537,6.039883335150863,6.30769892160604
0.23377269335986073,1.5716661274152843,0.8924634262139604,5.879908934391026,6.1514188981019275
0.23625963690624222,1.5831412322781997,0.8507661194610545,5.672070831270961,5.950002240866554
0.2387465804526237,1.599409605495934,0.8234381739440773,5.440311219655897,5.730021612452683
0.24123352399900522,1.6204713112738094,0.8104796187588967,5.198995486335509,5.50566604054605
0.2437204675453867,1.6415380103915163,0.802313676271631,4.957700614340842,5.2836682007984
0.24620741109176822,1.667398170162858,0.8037287787196237,4.735580392901874,5.084478170396767
0.2486943546381497,1.6741098378720545,0.8243017615702328,4.537423400842594,4.906152083038372
0.2511812981845312,1.6951919005381857,0.8496674435983791,4.377595023179242,4.77063397582805
0.2536682417309127,1.7258560185077538,0.8702490468078394,4.256095434515415,4.674426247978713
0.2561551852772942,1.723006625453508,0.8908350030713024,4.187290018960643,4.614730386159212
0.2586421288236757,1.7057973980998307,0.9162137441688585,4.166390546884915,4.594344629818278
0.26112907237005717,1.6885936097371976,0.9463852984671186,4.188608788196663,4.614264523470486
0.2636160159164387,1.671395323580388,0.9717728875983371,4.249156512339506,4.6683226044388615
0.2661029594628202,1.649414199407948,0.9827997331004834,4.36239910157028,4.766234198816937
0.26858990300920166,1.6226503002016623,0.9938310730182378,4.494817904471444,4.880991927139215
0.2710768465555832,1.6006804954657186,0.9952901286993201,4.612894269150984,4.9831289394532705
0.2735637901019647,1.5835048479443088,0.9823885247158104,4.721416769801776,5.075859644545136
0.27605073364834615,1.5519698069798675,0.9551262888636047,4.849115996737454,5.180231892422438
0.27853767719472766,1.515652241715061,0.9278686588024994,4.967261699943954,5.275588191048837
0.2810246207411092,1.4889174244900896,0.9006156621337711,5.04712362892016,5.338674048247848
0.28351156428749064,1.476553820880631,0.868578923040267,5.088701952596653,5.369313558907503
0.28599850783387215,1.4689846863764087,0.8317584689265018,5.106362049371676,5.378166187345149
0.28848545138025367,1.4662100829816351,0.7949427304181236,5.104892490506516,5.370440698090936
0.2909723949266352,1.4586532659326543,0.7677085413613896,5.060351426841182,5.322048695552195
0.29345933847301664,1.4654679102593375,0.7452675255413945,4.982315831955452,5.246569443930044
0.29594628201939815,1.4675004642996088,0.7276197099628052,4.885151082243964,5.152444968303427
0.29843322556577967,1.474327796182725,0.7195535248493383,4.783222553592904,5.056739831444756
0.30092016911216113,1.4811615639453743,0.7019153837213847,4.657376798134845,4.937376167988279
0.30340711265854264,1.4784250221712163,0.7082241365204929,4.521979190730151,4.809949872413295
0.30589405620492416,1.4852718452319875,0.7145377932416836,4.396183509042164,4.695000123257059
0.3083809997513056,1.4873368841223684,0.7256447836985684,4.294355126893655,4.602197009565931
0.31086794329768713,1.4941970063026655,0.7463335376009856,4.202128997662341,4.521894133655338
0.31335488684406865,1.4962754658149326,0.7718156779138738,4.1242936874811456,4.45469843321298
0.3158418303904501,1.49357232320379,0.802091230817723,4.0704261652743705,4.409362515618927
0.3183287739368316,1.4860876388747446,0.832371819067468,4.026161382832982,4.371644404135542
0.32081571748321314,1.4642446664525168,0.8674458719529377,4.029806727936762,4.37445048532124
0.3233026610295946,1.4567738859831254,0.8881598020561903,4.057420344664022,4.401554025814562
0.3257896045759761,1.4397333408469128,0.9088788450947929,4.080271973232526,4.421256860142138
0.3282765481223576,1.4035462842418882,0.9248146233979062,4.127092193160802,4.4562444087492175
0.3307634916687391,1.3769431957842637,0.9263903558667606,4.183515953538823,4.500664105370825
0.3332504352151206,1.3647125383433698,0.9231828745757484,4.216024589626817,4.526540651817844
0.3357373787615021,1.3572775646812656,0.910403801529786,4.2533486792978685,4.556535137262952
0.3382243223078836,1.3354847207720417,0.8976299685857272,4.314641993230543,4.604931544514774
0.3407112658542651,1.3136992756836294,0.8752845942097238,4.361597461703062,4.6384761857453976
0.3431982094006466,1.3014980950142996,0.8625213166799033,4.379850031035971,4.649830814924226
0.34568515294702806,1.298881237571358,0.8401865476015471,4.39334187355043,4.6577310701646475
0.3481720964934096,1.2866951487295317,0.8082803117504029,4.3924963377609,4.647894743361811
0.3506590400397911,1.2840935002737348,0.7907446503925573,4.362948368294418,4.616220497763579
0.3531459835861726,1.286287947234031,0.7875795880808776,4.319063329130207,4.574836208193523
0.35563292713255407,1.2884901444862233,0.7700547293342734,4.256052970393986,4.513000999934265
0.3581198706789356,1.2859117467508905,0.7477469051216408,4.202647864878844,4.458132291747479
0.3606068142253171,1.2833412152330497,0.7445981562598787,4.134906148277116,4.393044496027937
0.36309375777169856,1.2951438176211996,0.7414548935697234,4.071981585584118,4.336840658919469
0.36558070131808007,1.2973775948832507,0.733528737719082,4.0042975212909715,4.272663299603868
0.3680676448644616,1.2852542011093315,0.7399733258632477,3.9366425092649457,4.206731882377354
0.37055458841084304,1.2875041134717833,0.7416350684804309,3.878593506106405,4.153453623506288
0.37304153195722456,1.284973775778922,0.7433023925354199,3.8253622578651143,4.10329775364734
0.3755284755036061,1.2728748416381668,0.7545521281979279,3.7817373166393944,4.060923098102984
0.37801541904998753,1.2703609810957477,0.7610190889203297,3.762084040573747,4.043048775903077
0.38050236259636905,1.2630670407920408,0.7627032979997634,3.737672157333039,4.018363824495922
0.38298930614275056,1.2557814804840945,0.7596047786168103,3.7276554271860913,4.006170432002892
0.385476249689132,1.238927549802538,0.7517235538351088,3.7320339965189886,4.0035118990985525
0.38796319323551354,1.2172937081725577,0.7486364532415999,3.7412312044733795,4.004880951589447
0.39045013678189505,1.2100336248130048,0.7551319029852139,3.7504587929051416,4.012523734679168
0.3929370803282765,1.2075705488526958,0.732902699214004,3.740563293100844,3.9983980225416533
0.395424023874658,1.1955393259310938,0.7154676877622679,3.7354868656192775,3.9868622267760636
0.39791096742103954,1.1787284147989934,0.7076152944236327,3.7400180571251376,3.9847026424036813
0.400397910967421,1.1715030806770286,0.6901919282710043,3.75415701034776,3.9928034291997707
0.4028848545138025,1.1594981686923074,0.6679860148593304,3.763538657438306,3.9943540836136435
0.40537179806018403,1.1475021370806795,0.6553627862643174,3.768163139889471,3.993158522403854
0.4078587416065655,1.1450918472249452,0.6331686511992687,3.7584537919317684,3.9797126511255594
0.410345685152947,1.1379021437321346,0.620557244819425,3.729622350492348,3.948416829578677
0.4128326286993285,1.1402982909561046,0.6127401855575649,3.696034165153817,3.916171507651166
0.41531957224571003,1.1331267298326377,0.6001406884049167,3.6816313915115355,3.8985323821540203
0.4178065157920915,1.121175917722368,0.6067007914733253,3.657683748007485,3.873470238596527
0.420293459338473,1.128387925089641,0.6276321128308646,3.6194029690532075,3.842819177496622
0.4227804028848545,1.1260323856970103,0.6389926571421345,3.5667891917465413,3.794502034243757
0.425267346431236,1.1188977563700497,0.6455708488710643,3.514207762510237,3.7441087201374432
0.4277542899776175,1.1165608970746737,0.6665203223196616,3.471235623808708,3.706809184856962
0.430241233523999,1.114233457635087,0.6826874851042608,3.4235077008648203,3.664421288322639
0.43272817707038047,1.1119154910142401,0.6988607613192719,3.3997545481423206,3.644597839334758
0.435215120616762,1.095241840031793,0.7198285749353224,3.390399492898588,3.63490255535092
0.4377020641631435,1.0881545738867637,0.7312257365176997,3.385865861745236,3.6308207182603147
0.44018900770952496,1.0810769383520697,0.7330522664682437,3.367000174005578,3.6114793566853605
0.4426759512559065,1.0596437756956325,0.739673395025054,3.3433793682752846,3.5844312328300045
0.445162894802288,1.057373961203048,0.7415123356997022,3.32458038249867,3.566611130684148
0.44764983834866945,1.0455371268096383,0.7433575118394469,3.3153917506465227,3.554933295323627
0.45013678189505096,1.0289217275059532,0.7308437333847628,3.2918715861127525,3.5255114555789064
0.4526237254414325,1.0266814280557663,0.7231246333925041,3.2779620348376,3.5102733642795303
0.45511066898781394,1.0148742631515888,0.7345654414731302,3.2736632255011964,3.5052000045379708
0.45759761253419545,0.9982886872186209,0.7220705472669973,3.2885520927639824,3.511771781463241
0.46008455608057697,1.000866767773394,0.7047935834519095,3.30826355402281,3.52747445419294
0.4625714996269584,1.0034549422589887,0.6923113759381652,3.299278912729547,3.51730837521808
0.46505844317333994,0.9916880512474378,0.684623943868301,3.2903287148347014,3.504057389251852
0.46754538671972146,0.9799313550405798,0.6673660962965295,3.276624682379502,3.484524684409096
0.4700323302661029,0.9825501137474758,0.6596914653916102,3.262955343377069,3.470947295538881
0.47251927381248443,0.975602360721211,0.6472348599522353,3.234955611888921,3.440298059917747
0.47500621735886595,0.9734533556831969,0.6395731052505325,3.202202417906177,3.4074573391159064
0.4774931609052474,0.9665263415584248,0.6367062197896438,3.1886379007073415,3.3921939273974964
0.4799801044516289,0.9596097710372818,0.6290574153034905,3.175108569013002,3.3760744318569644
0.48246704799801043,0.9574920966139376,0.6214151133581067,3.1520377375077144,3.3523558517646626
0.48495399154439195,0.941019753984111,0.6233561387107907,3.1002719135572336,3.299360088115357
0.4874409350907734,0.9389232118490894,0.6300921060286306,3.072483653652326,3.2739500090547127
0.4899278786371549,0.9416257121494482,0.6320462265289144,3.054307867118208,3.2580573907453765
0.49241482218353644,0.9251852866659585,0.6244301146195406,3.0218026559568436,3.221361835350816
0.4949017657299179,0.9135440001830034,0.6072437878988091,2.9893333480486213,3.184245832841371
0.4973887092762994,0.9019134973629365,0.5948524737958385,2.9664768672681268,3.1571003193347202
0.4998756528226809,0.8855054226673226,0.5824677863281797,2.9436565235217875,3.12865822744442
0.5023625963690624,0.8834734369578688,0.5700897427031815,2.925660835988685,3.1088613600132673
0.5048495399154439,0.8814523776520548,0.5672951666381028,2.91248991983794,3.0953803697311617
0.5073364834618254,0.8650770819646995,0.5740840750786793,2.8945670829070593,3.0751340589393146
0.5098234270082069,0.8582896134698513,0.5617260649176847,2.871892438981864,3.0495841378258994
0.5123103705545884,0.8658784222564312,0.5397979594791249,2.8588313111154973,3.035464337560477
0.5147973141009698,0.8591131349666937,0.5418185985571231,2.8410186017443264,3.0171227134261533
0.5172842576473514,0.8475706046003234,0.5534227886110563,2.8423964391710586,3.0172620420090976
0.5197712011937329,0.8360392806310321,0.5458801260075745,2.8246577078369324,2.9959369080757847
0.5222581447401143,0.834096015646603,0.5335558368641833,2.8021677280079995,2.9719592813931506
0.5247450882864959,0.8465292587076889,0.5356035504865837,2.794080222570777,2.9682262783189537
0.5272320318328774,0.8398202321050547,0.5376580728060134,2.7812416871482837,2.9546031117288654
0.5297189753792588,0.837910997765263,0.5397194195822155,2.773229036583216,2.946895176520267
0.5322059189256404,0.8360131974844911,0.541787606442355,2.7508887650930847,2.9257205735986025
0.5346928624720219,0.8197616662092269,0.5390742455605568,2.7190093827925095,2.8906093225004508
0.5371798060184033,0.8130984652388471,0.5555213688999523,2.711109819012437,2.884414941755762
0.5396667495647849,0.8064468324203886,0.5576101684469137,2.6936713558928007,2.8665573371264763
0.5421536931111663,0.8045952153511369,0.5597058692577965,2.6762709047486473,2.8501000116226995
0.5446406366575478,0.7979668514562228,0.5618084862947437,2.6589085695456536,2.8323443739240224
0.5471275802039294,0.7817733812693496,0.5734948410271228,2.6367960502194174,2.8094055176849704
0.5496145237503108,0.7703800583932133,0.5803997381892181,2.6147218526353866,2.7869552664348727
0.5521014672966923,0.7733637328974279,0.5777347890222924,2.602262885267553,2.7755433835284737
0.5545884108430739,0.7667824313961438,0.579865217915104,2.594630845916253,2.7670034684881775
0.5570753543894553,0.750636196891299,0.591579442481919,2.5774606250275243,2.7489496558536546
0.5595622979358368,0.7440786854518132,0.5889354602811521,2.555540725614068,2.7260386033202737
0.5620492414822184,0.7327447296896609,0.5815100919793283,2.548024859934009,2.7143138198822014
0.5645361850285998,0.7166343719625147,0.583668561429104,2.545336319607216,2.7079458621971075
0.5670231285749813,0.7149012676935816,0.581045672426987,2.5331099922159765,2.6954302307165072
0.5695100721213628,0.7036034422070675,0.5736414385960558,2.51613437790573,2.674893364536097
0.5719970156677443,0.6875293405324004,0.5662442767452456,2.4800443628217224,2.6351374189221075
0.5744839592141259,0.6762558108022086,0.5588542002286396,2.4535704622722756,2.605695291489765
0.5769709027605073,0.6697828942909291,0.5418944156250762,2.4415011742436086,2.5890513063675074
0.5794578463068888,0.6681106320549849,0.5440953559411965,2.42468297939908,2.5732273750310695
0.5819447898532704,0.6664506616120319,0.5558802274863739,2.417481180922172,2.5685354916345378
0.5844317333996518,0.6552262169405226,0.5341534131929588,2.4103190646720183,2.554266872844979
0.5869186769460333,0.6440141450808355,0.5315873622646432,2.3888315124639288,2.5305839914384154
0.5894056204924149,0.6519680994942282,0.5194516673248435,2.3530186153499697,2.4963150926171487
0.5918925640387963,0.6455692968983543,0.507323147424454,2.3411876902198268,2.480986959628635
0.5943795075851778,0.6296061803527885,0.5047786214792911,2.324608406753292,2.4606929194414
0.5968664511315593,0.623232402657056,0.4974528916684844,2.2889156438649287,2.4238425757215802
0.5993533946779408,0.6168711964674186,0.4805575666766173,2.272416716265954,2.4031944116708988
0.6018403382243223,0.6153110041792905,0.46366946501399564,2.2607465014167802,2.3884245326823086
0.6043272817707038,0.6185518646455991,0.45636540505567247,2.244328279370192,2.3723164244613204
0.6068142253170853,0.6170170098560864,0.449068591760164,2.2279505394113936,2.355023608506021
0.6093011688634667,0.610706478218182,0.4369906332709794,2.206824963455923,2.3310940854964355
0.6117881124098483,0.6044087112363153,0.4297083475572192,2.195316845970984,2.317191232587999
0.6142750559562298,0.6029121501912366,0.4272217458119889,2.1790610607718497,2.300940804869826
0.6167619995026112,0.5966400261787165,0.4247424357726928,2.162846094224478,2.28348170233237
0.6192489430489928,0.5903807800310653,0.42705883168195413,2.1418836253231808,2.262431032225119
0.6217358865953743,0.5889228523558453,0.4245941376860407,2.125750542291727,2.24631379727719
0.6242228301417557,0.5922662802152121,0.417348364436418,2.1192353293016755,2.2396690346875134
0.6267097736881373,0.5956226971255756,0.4196867324100588,2.1079728565110374,2.230348159924697
0.6291967172345188,0.594203736377579,0.4268208486672531,2.0823863966654255,2.2071672392909703
0.6316836607809002,0.592797837676396,0.41959711017192314,2.061629641699266,2.1858151318790626
0.6341706043272818,0.5818282305398459,0.42195754363537796,2.036125862891673,2.1592546834545225
0.6366575478736632,0.5756601608605756,0.4243253523913264,2.0202403473895876,2.143083686351247
0.6391444914200447,0.5742936643432481,0.43148894959901085,2.013973171644934,2.1382431720074324
0.6416314349664263,0.5585751631839242,0.438659941641665,2.002959201414317,2.1251527756510344
0.6441183785128077,0.5524467092338241,0.4458383380874711,1.9871985116806457,2.1101959897312033
0.6466053220591892,0.5415431275537208,0.44823574504895625,1.9619027733715964,2.0840457610866943
0.6490922656055708,0.525864452937088,0.4554289784642771,1.9510140766015773,2.071329260254232
0.6515792091519522,0.5293527365504416,0.46262964417537056,1.940167284187094,2.0636108155350406
0.6540661526983337,0.532854399448687,0.4506841379279951,1.9293624681700257,2.051704056820782
0.6565530962447153,0.5172158624576584,0.44353448521551186,1.9377533131377191,2.054050386560519
0.6590400397910967,0.5111675793769768,0.4507575014351808,1.9318210664181379,2.048513424892089
0.6615269833374782,0.505132777214164,0.4531995819272665,1.916354201165646,2.032968865477375
0.6640139268838597,0.494323086067197,0.4460723318579025,1.8961411897983789,2.0096485390033143
0.6665008704302412,0.4931037490851955,0.4485293728597659,1.8807589073184312,1.9953906818308713
0.6689878139766227,0.4775327826244269,0.45099390650870186,1.8558422113898887,1.9686501405190107
0.6714747575230042,0.45718702605275363,0.44867753756596684,1.8309679755418813,1.939787420561118
0.6739617010693857,0.4464317218275248,0.44636867729860485,1.820501475887248,1.9268554439902446
0.6764486446157671,0.4356900955734716,0.45364414015920396,1.8100775678803247,1.916246243838499
0.6789355881621487,0.4249621793246704,0.44656191722346383,1.7996963161997268,1.9023451922071177
0.6814225317085302,0.4190364082040112,0.4490640326355857,1.7845693814670858,1.8873096974469428
0.6839094752549116,0.42270121710267294,0.44678528384272154,1.774273633528316,1.8778552487964228
0.6863964188012932,0.41201462075804063,0.4445140814388058,1.7640207315317502,1.8652393834544638
0.6888833623476747,0.40134186023787866,0.4278852226021419,1.7394455272485052,1.8357101608819721
0.6913703058940561,0.39068296641669564,0.42084073093923946,1.71012488831472,1.8039587674609017
0.6938572494404377,0.3944031798974279,0.42338061332084065,1.6712704716691311,1.7686011425763284
0.6963441929868192,0.38856051448781515,0.4067744565617044,1.6420359501156847,1.7357208281870748
0.6988311365332006,0.3779434036845951,0.3997526871863273,1.6367865924017488,1.7267639608144234
0.7013180800795822,0.37691708739207797,0.3975269083431101,1.6411572466167055,1.7301708706793917
0.7038050236259636,0.3759047886797887,0.38573191640602333,1.6455711634342611,1.7314727763996314
0.7062919671723452,0.37969494034480156,0.37394452421690305,1.6212979795110662,1.7066370127481456
0.7087789107187267,0.378710764989704,0.37174154448400065,1.5970681706118803,1.6829261305820928
0.7112658542651081,0.363375484983382,0.3695461765008483,1.582458598484787,1.6651670593582315
0.7137527978114897,0.35763114570305454,0.36735842606825164,1.5439504942598328,1.6268482960329782
0.7162397413578712,0.36626617901069025,0.35560149221316406,1.5150627348164507,1.5987552738242408
0.7187266849042526,0.3749154032528751,0.353428993751308,1.4957953730571365,1.5820484857549297
0.7212136284506342,0.36921363654192263,0.3560525327638713,1.490936864470223,1.5767006213395043
0.7237005719970157,0.3731029233182457,0.35389530787888424,1.4861220505285937,1.5725795462852183
0.7261875155433971,0.37221808122523603,0.35174572755260725,1.4909277885728027,1.576431738953862
0.7286744590897787,0.3521939276716419,0.35439220010873074,1.5101425318895023,1.590649194765559
0.7311614026361601,0.3369725063939586,0.3570463270978901,1.5006706998289685,1.5789379655593458
0.7336483461825416,0.3457074575735035,0.3501313066181244,1.476877550852321,1.5566865061108486
0.7361352897289232,0.3400915813128783,0.3623775631978363,1.477070359289705,1.558434030776187
0.7386222332753046,0.3249133073624333,0.3746314880303174,1.4581535422937906,1.540171796271096
0.7411091768216861,0.3241146785186073,0.37252787549734245,1.429703952808918,1.512574208272516
0.7435961203680677,0.3185421074597814,0.3704319397708855,1.4156636530090232,1.4975955644559686
0.7460830639144491,0.3034072165899456,0.3731320882507836,1.4016674777746196,1.4818755725810153
0.7485700074608306,0.2882868380386173,0.37583992156489776,1.382927067896368,1.4617975997889237
0.7510569510072121,0.28754620702014777,0.36897863688959465,1.3690192733958497,1.4467348846909986
0.7535438945535936,0.2868201385914634,0.3621250445514761,1.3503673302838575,1.427197346722235
0.7560308380999751,0.2765318508941913,0.36485595474630506,1.3317596838030727,1.4082519617156815
0.7585177816463566,0.2614697717952257,0.3532293542969964,1.3179847784676326,1.389324042321335
0.7610047251927381,0.2607875388866747,0.34161045645848187,1.3042542514230338,1.3732395991797641
0.7634916687391196,0.25054315964206264,0.3395760710350806,1.2762029324466777,1.3441643157175946
0.7659786122855011,0.24510186786159827,0.3375493944197485,1.2481960705109092,1.3160577303983507
0.7684655558318826,0.2300984771877611,0.3355304295161412,1.2393873171820555,1.3044565536372401
0.770952499378264,0.2151098176287055,0.33351917909818063,1.2401999033787998,1.302153246283771
0.7734394429246456,0.20971271895666943,0.33630404913056156,1.2266918493337187,1.2891286713030585
0.7759263864710271,0.2091188007470134,0.3390966388080132,1.1988631911564163,1.263325039087925
0.7784133300174085,0.19417447237820107,0.33232014387581144,1.1854443841544562,1.2463622233012082
0.7809002735637901,0.18403336955522287,0.33512817987217147,1.1816470596699524,1.2419617351919212
0.7833872171101716,0.18348391778614814,0.33315553896438965,1.1539524284005385,1.2150165300275988
0.785874160656553,0.18294933238212086,0.32640222315217926,1.1406677501266351,1.2004714847411864
0.7883611042029346,0.17285282841829708,0.3340218475881973,1.141793057344925,1.202139792519784
0.790848047749316,0.1675596373354119,0.32728399409388187,1.13338636522999,1.1915350174221768
0.7933349912956975,0.16706978037728915,0.32534227756592404,1.1298129147991336,1.1875340548944324
0.7958219348420791,0.16659487523148064,0.3377735061327374,1.121495929749024,1.1830460322160852
0.7983088783884605,0.16134653934959753,0.33584726123280895,1.122800649659581,1.1830077715356087
0.800795821934842,0.15132479326764647,0.33392875406023803,1.1193618934713125,1.1778703894747506
0.8032827654812236,0.14610646392637106,0.3368063890415285,1.1016028827282778,1.1611694767498468
0.805769709027605,0.14090316806972147,0.33011495719519734,1.083888854860131,1.1417725856868686
0.8082566525739865,0.14050332884645567,0.3330080726554483,1.080585046581378,1.1394295084672463
0.8107435961203681,0.13533015920861835,0.32633212286772517,1.0581726606890651,1.1155878657625142
0.8132305396667495,0.13974888847408717,0.3244523183936372,1.0405937391105002,1.0989241960284253
0.815717483213131,0.12981751916256234,0.3273686597080805,1.0326367097791103,1.0910368472347822
0.8182044267595125,0.11511287680030957,0.32550434051979593,1.010359579994665,1.0677221225531792
0.820691370305894,0.11478859331865798,0.3284361676934928,0.9881275829085521,1.047589069010345
0.8231783138522755,0.1096910738509409,0.31701052804697927,0.9659407410012246,1.0225308414425416
0.825665257398657,0.10939714321694016,0.31038103483579293,0.9533758826846874,1.008578056183344
0.8281522009450385,0.10433001271983566,0.3181244945503314,0.9600098356627846,1.0167137405171192
0.8306391444914201,0.09927810338847065,0.3162988903145547,0.9571122003696502,1.0128992516154132
0.8331260880378015,0.10381823933680867,0.3144810283706194,0.9303177864940917,0.9875058115734325
0.835613031584183,0.09879682452183813,0.322247714836958,0.9131454362227487,0.9733647774332469
0.8380999751305646,0.10336748922803474,0.3156569324663594,0.9103835711160606,0.9690832695911177
0.840586918676946,0.10795344358308367,0.3138622937712423,0.9028785954295877,0.9619528281146101
0.8430738622233275,0.09818949415954714,0.31207539453955135,0.8954189293181223,0.9533138452899637
0.845560805769709,0.08844086721715261,0.3007194271162845,0.8880045889148445,0.9417038338952913
0.8480477493160905,0.08828438546071604,0.30373640696627113,0.8806355896526625,0.9357184295480394
0.850534692862472,-2.0953686559831795,-1.5798697853333576,-8.674764274437855,9.063006871902358
0.8530216364088535,-1.707633744448858,-1.9216023738194554,-13.882248553774458,14.118264539135893
0.855508579955235,-1.181019751294043,-2.043060676400356,-17.37065065786981,17.530214170344667
0.8579955235016165,-0.5634106945948093,-1.9586099046603243,-18.94364603794913,19.05296065131409
0.860482467047998,0.07336739073715381,-1.6874036736248208,-18.57729266546309,18.65391424634666
0.8629694105943795,0.6910072927984069,-1.2533840017603284,-16.40566582212702,16.46797903817818
0.8654563541407609,1.2081061695691544,-0.7235885375363562,-12.783107343082701,12.860440670263984
0.8679432976871425,1.6150872286006228,-0.1363245096206187,-8.145361920608941,8.30505941854833
0.870430241233524,1.873643257288727,0.45094723991810426,-2.9952118941601267,3.5616269821096593
0.8729171847799054,1.9550438494368105,0.9855542722120774,2.178925606082453,3.0888882261321733
0.875404128326287,1.8592890185369275,1.4339777615556062,6.883845045928382,7.273277836810633
0.8778910718726685,1.6198976010904236,1.7435452688429085,10.707743746945244,10.969037993040592
0.8803780154190499,1.246446416764237,1.904679984732597,13.334587096422238,13.527477501226008
0.8828649589654315,0.7772427049146096,1.903016696444733,14.596780983893106,14.740813880550618
0.885351902511813,0.26974731794658185,1.7529206110033968,14.484748607778855,14.592924193408646
0.8878388460581944,-0.23294410192800574,1.4879105485963708,13.084681232224742,13.17106767518039
0.890325789604576,-0.7068895260106443,1.1319285226535798,10.612057010343738,10.695639717808652
0.8928127331509574,-1.1089933125534697,0.7137049498083581,7.3781221609755825,7.495060209561246
0.8952996766973389,-1.3913714167200113,0.27633545653839375,3.7420069354849392,4.001861018204296
0.8977866202437205,-1.5396586171474973,-0.1322959274745643,0.048476374598617866,1.5460921151979026
0.9002735637901019,-1.5538549026654085,-0.48345878594594294,-3.362492884952509,3.7355797217569724
0.9027605073364834,-1.4435370689749627,-0.7627879126676982,-6.174866223713444,6.387066427552941
0.905247450882865,-1.2134935086879721,-0.9271876816251683,-8.177953895949054,8.319325298174943
0.9077343944292464,-0.8780894212875713,-0.9718696934811129,-9.223315399759919,9.31585308473318
0.9102213379756279,-0.4947856363702078,-0.920775968934749,-9.282220316924741,9.340891564666428
0.9127082815220094,-0.09231256384065067,-0.7643297055573395,-8.426494699617749,8.461591719701808
0.9151952250683909,0.30538778948651124,-0.52168452095592,-6.790213843844702,6.817068320510857
0.9176821686147724,0.6456429966450034,-0.226359242812062,-4.569702289442042,4.620635497424032
0.9201691121611539,0.9045110503609002,0.08812730107951872,-2.0187454167542898,2.2138743684064344
0.9226560557075354,1.077203556412156,0.3882562828112541,0.5992945865700605,1.2923871109623422
0.9251429992539169,1.1541437170272384,0.6740276976051871,3.035420742180877,3.3166459170002316
0.9276299428002984,1.1113895242448468,0.907134314008768,5.074154894310091,5.273056725439657
0.9301168863466799,0.9585177931172308,1.0779993203795022,6.54790291973346,6.704913984587346
0.9326038298930613,0.7338357583900914,1.1674690983228668,7.356108341053682,7.484238701508011
0.9350907734394429,0.4517086379795097,1.1563900293332128,7.484405939982425,7.586673241151933
0.9375777169858244,0.1217132462533358,1.0591273180364067,6.937584110858266,7.019019738208291
0.9400646605322058,-0.20826637608572718,0.9044113789088724,5.820987717092821,5.894508701177157
0.9425516040785874,-0.5094998018435328,0.6970306097155019,4.287845654649178,4.373906957978508
0.9450385476249689,-0.7676218140139794,0.47050382803343016,2.4865984155197296,2.644577240620787
0.9475254911713503,-0.963478792497424,0.22961943140872343,0.6039937176110382,1.160096926030908
0.9500124347177319,-1.07312871410053,-0.0064689727605919956,-1.1732207218183195,1.589998096457833
0.9524993782641133,-1.0965715724577154,-0.20424256722399425,-2.696604412717492,2.9181945785838344
0.9549863218104948,-1.0338073614294017,-0.3349709381593686,-3.8416588822810747,3.9924060612325074
0.9574732653568764,-0.8944128817423205,-0.4369613183367922,-4.507827674948359,4.6164293500257925
0.9599602089032578,-0.7023301443095519,-0.4766948908289961,-4.666380385604068,4.742953884837878
0.9624471524496394,-0.462347546988009,-0.4445948554172612,-4.346047449616094,4.393126252907362
0.9649340959960209,-0.2079839077813757,-0.35981483191137476,-3.6090781262325917,3.632928424894988
0.9674210395424023,0.041607165043170746,-0.2319316335867061,-2.5560289019002997,2.5668671929398257
0.9699079830887839,0.267272062994272,-0.07052207382442388,-1.3209750869425285,1.3495861954230757
0.9723949266351654,0.4402803707159201,0.0956834206075241,-0.01883837903499952,0.4509512239051699
0.9748818701815468,0.5654204958708073,0.2571080361174589,1.2306711201954457,1.3785341074743416
0.9773688137279284,0.6187504259764307,0.4137517656496237,2.307843308491945,2.4249089363881775
0.9798557572743098,0.6050585682492108,0.5320957788018084,3.1312753095320858,3.2332811280363094
0.9823427008206913,0.5195565230422982,0.5977748583491755,3.6387178596482705,3.723914798170531
0.9848296443670729,0.37660950376779767,0.634731013525899,3.787075307829342,3.8583231545621666
0.9873165879134543,0.20494793357676652,0.6333874302208953,3.6098664555661326,3.670738225379305
0.9898035314598358,0.0045718154766831165,0.5889556975407046,3.135821700407673,3.1906531387648647
0.9922904750062174,-0.2101536377852956,0.5062242111302093,2.4176134558848883,2.4789679960589384
0.9947774185525988,-0.4057096004017464,0.3947697698527488,1.507914134910866,1.6106670945020645
0.9972643620989803,-0.5773076667077967,0.2737459791107941,0.5551642161884462,0.8464208823363585
0.9997513056453619,-0.7105826246181937,0.14794123424481276,-0.3640218719986912,0.8119890384066714
1.0022382491917432,-0.21656086383027062,0.1705844334243234,0.17730003434845365,0.3277696734744892
1.0047251927381249,-0.21572875961228138,0.18844666221859185,0.17278891795390017,0.33452511474157093
1.0072121362845063,-0.21966917182688744,0.1967395090267332,0.18747634394001977,0.34944006496151414
1.0096990798308878,-0.21880529258683568,0.19067456214844425,0.19263186510294616,0.3483383128045942
1.0121860233772693,-0.2179255241843288,0.1941938297062884,0.178678646914312,0.3422409041160025
1.0146729669236507,-0.22181826912972274,0.19293209316173776,0.1695586774839608,0.3393763135541215
1.0171599104700322,-0.2256951235105331,0.20125455379996415,0.15569512107737182,0.34012152964632353
1.0196468540164139,-0.22955608695200164,0.20958439620682245,0.14187635132058318,0.341687745250155
1.0221337975627953,-0.23340115929640898,0.19876799823020708,0.12331393460044815,0.33044083395971946
1.0246207411091768,-0.2372303406026971,0.19274736750391197,0.10000784002739316,0.3216074474403608
1.0271076846555582,-0.23146682450546313,0.20109930160430167,0.0815348427575433,0.3172786638522642
1.0295946282019397,-0.23047582145676282,0.19988177476948898,0.07268331403363604,0.3136155166762042
1.0320815717483214,-0.2390457354835352,0.1890947777435077,0.06866481786656209,0.3124332822145857
1.0345685152947028,-0.24281135754658728,0.18310351113611656,0.059902514357524694,0.3099557425993977
1.0370554588410843,-0.2465610921027006,0.18669636882166207,0.06554998294208225,0.31614032728169583
1.0395424023874658,-0.2550833438229844,0.18550813129888732,0.07603038254828753,0.32444013029272295
1.0420293459338472,-0.2635897109518508,0.1843271922538583,0.07697846820012089,0.3307290947139488
1.0445162894802287,-0.2625033886269251,0.18315354195883815,0.06839420430063292,0.32730874744589866
1.0470032330266104,-0.26140118548019986,0.177198767272718,0.05985436131352273,0.32142266171145195
1.0494901765729918,-0.2650715070360682,0.17125126160239512,0.03220528920256349,0.31721771560775897
1.0519771201193733,-0.2735143557109071,0.17967622490319712,0.014177370558485336,0.32755861522996077
1.0544640636657547,-0.28672973413297725,0.18332003379651773,-0.0038062391647066818,0.34034491722912974
1.0569510072121362,-0.285564031860755,0.18697108141399887,-0.021745578444681612,0.3420202797490001
1.0594379507585177,-0.28917086522626073,0.17626414751515718,-0.03485228300917065,0.34044606125772797
1.0619248943048993,-0.30712704413150915,0.16556443169095303,-0.05270319911523913,0.3528685725239452
1.0644118378512808,-0.301125345485587,0.1740255367626622,-0.06093315698487878,0.35309235443363923
1.0668987813976623,-0.29989619289171443,0.17291703225889377,-0.05954219736552169,0.3512595903648503
1.0693857249440437,-0.3082279935608825,0.1670273108613327,-0.053318764887439585,0.3546061325996178
1.0718726684904252,-0.32133234827235047,0.16593316848331474,-0.06141651470240639,0.3668245939510138
1.0743596120368066,-0.32484405137321243,0.16005778766871037,-0.08862389255982706,0.3728221391473688
1.0768465555831883,-0.32833991402013707,0.14461275419393216,-0.10142211820319069,0.3728356124019373
1.0793334991295698,-0.33660834425705033,0.1483284769902613,-0.09502283185245908,0.379915586786044
1.0818204426759512,-0.33528413705375426,0.15205133169898533,-0.08857969088173512,0.37865739352087036
1.0843073862223327,-0.33394410418828524,0.14620450051559208,-0.08209273993443311,0.37367584701592976
1.0867943297687142,-0.34695346096521273,0.14515318215116269,-0.08035042752282529,0.38458073478458177
1.0892812733150956,-0.36473540629330903,0.144108961950006,-0.09771800934633923,0.40416348037503924
1.0917682168614773,-0.35855952600540275,0.14307182849167477,-0.11983032172700447,0.4042199745217543
1.0942551604078588,-0.3523678426626053,0.13725336695079537,-0.14189900816993628,0.4039021067061174
1.0967421039542402,-0.36052557238978444,0.14101877569908305,-0.1447705027597106,0.4133079746580622
1.0992290475006217,-0.363879108273535,0.14957963974329713,-0.15238687000204187,0.42190500377774226
1.1017159910470031,-0.3720052635257717,0.1485707373663221,-0.16953656165768471,0.4349756611940045
1.1042029345933846,-0.3657504316395074,0.1427804600495013,-0.17706601342003303,0.43071105294024725
1.1066898781397663,-0.36905663619306495,0.13220879587153034,-0.18934048475680676,0.4353524843065477
1.1091768216861477,-0.38192388436522506,0.1264325394698469,-0.20157162238451676,0.4499801767146442
1.1116637652325292,-0.38041016693474755,0.13024008208016147,-0.21375947686794206,0.45537620495413017
1.1141507087789106,-0.3836691047642593,0.1340546048962854,-0.22590409929772726,0.46497879642412165
1.116637652325292,-0.38691230231539797,0.13787609567215586,-0.23321713796796573,0.47233587719203435
1.1191245958716736,-0.39492817089050913,0.1369161387613569,-0.2356986450147165,0.47986262667352586
1.1216115394180552,-0.3837747020696556,0.1311747217582071,-0.2381370764138957,0.47031808038810663
1.1240984829644367,-0.3726055175148116,0.13980544545915796,-0.22616727537759473,0.4577467320628722
1.1265854265108182,-0.3757858357662416,0.13886628069919382,-0.2189429088753876,0.4565466412367703
1.1290723700571996,-0.38852726228106405,0.1379340214772964,-0.21646403110876022,0.4656564233212856
1.131559313603581,-0.3964645960733755,0.13700865507409787,-0.21394229346990556,0.47087880865462733
1.1340462571499625,-0.39002103967468305,0.14087857201328013,-0.21616615450052912,0.4676440845268635
1.1365332006963442,-0.38835021573496353,0.14475535610110324,-0.23271247656936822,0.47531578969396615
1.1390201442427257,-0.3914521338190245,0.14863899438781214,-0.2540045092684835,0.48974137506730087
1.1415070877891071,-5.2643445771247475,-6.977403070097527,0.49567902855764956,8.75460879358187
1.1439940313354886,-3.4430335370528855,-7.251233155143437,0.38349254744713157,8.036288244050846
1.14648097488187,-1.7701473684799816,-7.31436667919931,0.25698337736188037,7.52990186391284
1.1489679184282517,-0.2839933083124241,-7.185957268796791,0.12093986339291618,7.192583716488615
1.1514548619746332,1.0106402295916213,-6.89473535718225,-0.015061246542099838,6.968428528757072
1.1539418055210147,2.0945996212206723,-6.455066167714533,-0.1510200116576943,6.788080276979027
1.1564287490673961,2.9726732589723417,-5.876526520505125,-0.2965132982983736,6.592288706274711
1.1589156926137776,3.6304959217703683,-5.207000462301048,-0.4323875533737791,6.362414121126285
1.161402636160159,4.096798018230653,-4.4560648133584335,-0.529912417637961,6.076271454880588
1.1638895797065407,4.352425923574792,-3.6620268139271452,-0.6082415655307365,5.720490329348225
1.1663765232529222,4.45005206263877,-2.834463284406597,-0.6769518653317874,5.319342938636387
1.1688634667993036,4.404041633506344,-2.0021046585477213,-0.7360433791584597,4.893441082657348
1.171350410345685,4.204817817470429,-1.1697393535704304,-0.7663625563228589,4.431263318867641
1.1738373538920666,3.895476232158691,-0.37088620668620775,-0.7774862665328008,3.989583505614398
1.176324297438448,3.5143240916903267,0.37051275146478435,-0.7694145733270314,3.616594020080366
1.1788112409848297,3.0565729801141197,1.0496691034548036,-0.7565127506745686,3.3191497633346594
1.1812981845312112,2.5461649012136713,1.6570060284674364,-0.7387808630505983,3.1264071785613017
1.1837851280775926,2.02140706854702,2.1781583022980673,-0.6970653621138734,3.0522713257016982
1.186272071623974,1.5014530822050067,2.627491120596541,-0.6457315232279459,3.094356176487585
1.1887590151703555,0.9910913321321454,2.961908839102009,-0.5943562188963671,3.1793749880627273
1.191245958716737,0.4951102080881209,3.2101418632918386,-0.5381511121198379,3.292377791215291
1.1937329022631187,0.03745171292956264,3.367401775335219,-0.48190467299546036,3.401915557621471
1.1962198458095001,-0.37230736063142894,3.4241117540154775,-0.4399821787145122,3.4722814391050822
1.1987067893558816,-0.7341670267066054,3.385060188011877,-0.4028068903179509,3.4871029652784613
1.201193732902263,-1.0433388962700234,3.278977482540625,-0.3655904726160095,3.4603331887472923
1.2036806764486445,-1.2950345804776648,3.1154404294725686,-0.3283329941859279,3.3898209671450616
1.206167619995026,-1.4892540939872132,2.860930190732212,-0.2958229273696702,3.2388748844403183
1.2086545635414077,-1.6403626615982536,2.563330784626047,-0.27763714827159447,3.0559019550826028
1.2111415070877891,-1.7292066850483585,2.2417958094762187,-0.25941051683434146,2.8430789695759997
1.2136284506341706,-1.7749397928173614,1.8867484436205983,-0.26029671668023724,2.603456421441657
1.216115394180552,-1.772773596962618,1.5173422852573188,-0.28029581858557684,2.3502381969992405
1.2186023377269335,-1.7179197097200234,1.143154125882604,-0.28588907051736534,2.08321435411919
1.221089281273315,-1.6582621800268595,0.759395546970961,-0.29144175407633277,1.8470120060481057
1.2235762248196966,-1.5650706038727684,0.3947969531787803,-0.31610755461179885,1.6447597439834705
1.226063168366078,-1.4431334006663512,0.049358329180747784,-0.34073293133654836,1.483633778017857
1.2285501119124596,-1.3211810065939538,-0.257766727126552,-0.3557411505276278,1.3923055354256364
1.231037055458841,-1.1944250347753216,-0.536155037827287,-0.3850743021255951,1.3646961590196998
1.2335239990052225,-1.053288695184882,-0.78101821510309,-0.4335208632087433,1.38106729255469
1.236010942551604,-0.926502424533959,-0.9827794678732056,-0.4675620847095132,1.4292923172669583
1.2384978860979856,-0.79491262650455,-1.1366504084346407,-0.5015632511777923,1.4749325169996879
1.240984829644367,-0.6680961248737252,-1.2569962624226243,-0.5403128409348348,1.5226063187491399
1.2434717731907485,-0.565206550231767,-1.343817045567949,-0.5550805094693505,1.5599413669675601
1.24595871673713,-0.47187871009879667,-1.3827475636964768,-0.5602315425601567,1.5647746557355724
1.2484456602835114,-0.388112622127207,-1.3689994293302605,-0.574919629711335,1.5347062994555192
1.250932603829893,-0.32348511078082803,-1.3265146749682855,-0.5991448475483274,1.4910594717001764
1.2534195473762746,-0.2732077907327125,-1.2552933165625708,-0.6185420631358642,1.4258324205151458
1.255906490922656,-0.22291547018484534,-1.1601237734395657,-0.6283229505772017,1.338046414280696
1.2583934344690375,-0.19176178075034303,-1.0362176583387361,-0.6380643943320674,1.2319276713037597
1.260880378015419,-0.18453514424971432,-0.8883633906933399,-0.6429780692923988,1.1120537446447503
1.2633673215618004,-0.19644717603055517,-0.730926196629949,-0.6382756507409599,0.9900709086823523
1.2658542651081819,-0.2083442816466185,-0.5734828990070522,-0.6335340243099008,0.8795767931833333
1.2683412086545636,-0.22501488341969716,-0.4208219174145085,-0.6383300760174375,0.7969868693304996
1.270828152200945,-0.24645900051711997,-0.25378965489196226,-0.6335102723436243,0.7255938898798502
1.2733150957473265,-0.2774650555917611,-0.09153974109229113,-0.628651500071717,0.6932309065644742
1.275802039293708,-0.3132446648204734,0.056351000921927685,-0.623753839723296,0.7002617424313206
1.2782889828400894,-0.35858625118471354,0.19467095799921452,-0.614028968876223,0.7372329727068887
1.280775926386471,-0.40391302786835287,0.32820851693873765,-0.6090537754434919,0.8011323648779133
1.2832628699328525,-0.43964820821797496,0.4473868545298081,-0.613616744389601,0.8774799448367151
1.285749813479234,-0.48494542566412985,0.5474175508336603,-0.6133527477672338,0.9544839621632745
1.2882367570256155,-0.5254394905566429,0.6187237825432832,-0.6034734646367461,1.0114771375773999
1.290723700571997,-0.5467652134061618,0.675670742905762,-0.6079209943450277,1.0606842540432837
1.2932106441183784,-0.5776530347663151,0.7134700118399109,-0.5979650000778065,1.0955750214785054
1.29569758766476,-0.6085261687877933,0.7369099758586746,-0.6023359852244301,1.1296676722451906
1.2981845312111415,-0.6250194264598736,0.7412022147883186,-0.6162456302895389,1.1488205619287502
1.300671474757523,-0.6367096355316708,0.7263467117298532,-0.6061751962109909,1.140362694111429
1.3031584183039044,-0.6483852205896068,0.7067086597001233,-0.5960667841230798,1.129219259094091
1.305645361850286,-0.6648346063770858,0.6679228317494723,-0.6098624955104057,1.1225231518498797
1.3081323053966674,-0.6716926045125984,0.6147776141653414,-0.6044667857210797,1.0929330102415797
1.310619248943049,-0.659382430090637,0.547272989871173,-0.5894565469721496,1.040073043263355
1.3131061924894305,-0.6662113315638586,0.4941393616690899,-0.593562285104996,1.0199644274943562
1.315593136035812,-0.6730257176955644,0.42664629247469543,-0.6072072797391925,1.0018439779378339
1.3180800795821934,-0.6750372073637322,0.34479376508322,-0.6208148108325933,0.9797800779332052
1.3205670231285749,-0.6578806129588033,0.2725237788496524,-0.6248081586789294,0.9473443651055825
1.3230539666749563,-0.6502863769064662,0.20983631648609125,-0.6191874105460311,0.9221153404456999
1.325540910221338,-0.6522545218623128,0.14715455402314737,-0.623106267314034,0.9139758445525866
1.3280278537677195,-0.6446314573518125,0.0701132641307618,-0.631776413590158,0.9053215022208596
1.330514797314101,-0.6274172063321404,-0.0021339573189242955,-0.6499863409484821,0.9034041996775657
1.3330017408604824,-0.6101885985509117,-0.0456451111728402,-0.6585825246853556,0.8989686000058309
1.3354886844068639,-0.6073108672251949,-0.09393903816067795,-0.6671418603404167,0.9070442625136017
1.3379756279532453,-0.6044188257986657,-0.13743894916784472,-0.6852412437723103,0.9239952077228658
1.340462571499627,-0.6015124978237608,-0.15699124847713986,-0.6889387479140758,0.9279548132931934
1.3429495150460085,-0.5938035036797595,-0.18611477693239742,-0.6925996725754313,0.9310937748833621
1.34543645859239,-0.5812918672127396,-0.20086753557082115,-0.7058009145575372,0.9361639454306198
1.3479234021387714,-0.578342822375543,-0.2012495420678162,-0.7189657576896664,0.9444011642867086
1.3504103456851528,-0.5753795866646022,-0.21120283073653567,-0.7225174861079999,0.9474702223253658
1.3528972892315343,-0.5819789910020847,-0.2115738060430381,-0.721244594214177,0.9506086397958492
1.355384232777916,-0.5837758498524103,-0.20236248576988425,-0.7295123833525512,0.9559985020817711
1.3578711763242974,-0.5951353977450121,-0.19314569437505513,-0.7473209452062068,0.974669172616347
1.360358119870679,-0.59690404610961,-0.17434664306960768,-0.7555167584742524,0.9785176362984503
1.3628450634170604,-0.598658626439589,-0.14596534973909003,-0.754099915431869,0.9738401905802319
1.3653320069634418,-0.6051875670491411,-0.12236704226339024,-0.7478589119669792,0.9698034009795918
1.3678189505098233,-0.611702489752275,-0.0939749319537797,-0.746370647577816,0.969577416904178
1.370305894056205,-0.6134150165027624,-0.05600063347432105,-0.7448468120892642,0.9665458224523807
1.3727928376025864,-0.6151135760340845,-0.032386181442972894,-0.7432874989316822,0.965344437099014
1.3752797811489679,-0.612009790577501,-0.008766383946758882,-0.7273275918572608,0.9505988949746895
1.3777667246953493,-0.6041036858223059,0.014858740935272507,-0.7304860081016127,0.9480357870030572
1.3802536682417308,-0.6105489008760825,0.03848917509340488,-0.7431860352954747,0.9625886245009182
1.3827406117881123,-0.626557058381207,0.0621249003877522,-0.7462741547044427,0.9764007192927143
1.385227555334494,-0.6329745711547924,0.08097749532838439,-0.7541156711093802,0.987878842718581
1.3877144988808754,-0.6250130621098662,0.09983534503671132,-0.7667106796008731,0.994210083503775
1.3902014424272569,-0.6266145742156335,0.118698431285019,-0.7601172589361731,0.9922264809717615
1.3926883859736383,-0.6329907306530312,0.13756673581722811,-0.7534891180211822,0.993653723825561
1.3951753295200198,-0.6345647514156039,0.15165183702903606,-0.7611915627048855,1.0025384274662663
1.3976622730664012,-0.6361250665900617,0.1609537166089936,-0.7688594791753864,1.0107947852815156
1.400149216612783,-0.63767170307434,0.1606839528983346,-0.7764929638403064,1.0175391179282822
1.4026361601591644,-0.6487814945378433,0.1604193341726745,-0.7793037100431182,1.0266284931357255
1.4051231037055458,-0.6503008548582524,0.16015984204090072,-0.7820802180216635,1.029656177688821
1.4076100472519273,-0.6518066179645787,0.15990545808624823,-0.789610988265121,1.03629490760942
1.4100969907983087,-0.6485104079536568,0.15486776054643236,-0.7827425049100167,1.0282196270611124
1.4125839343446904,-0.6404122523706973,0.15462353759534775,-0.7806284789019102,1.021477906485363
1.4150708778910719,-0.646665792169524,0.1448075607810244,-0.7832690081491958,1.0259903584091874
1.4175578214374533,-0.6529058451884442,0.13499661822918352,-0.7858757874816504,1.030587639633067
1.4200447649838348,-0.6543440360323525,0.12040228808120634,-0.788448915288642,1.0316562026596527
1.4225317085302163,-0.6461919894314118,0.10102455177580616,-0.7814116835557883,1.0190065095299046
1.4250186520765977,-0.6523917501622207,0.10080540733073118,-0.7647641911437955,1.0102677832548477
1.4275055956229794,-0.6585781365627418,0.09101441621821982,-0.7528717471063722,1.004402635156339
1.4299925391693609,-0.6599627737347183,0.07643996313104706,-0.7361576441253099,0.9916259414130035
1.4324794827157423,-0.6709109001835949,0.06665883606109446,-0.7337755950315152,0.9964895685726147
1.4349664262621238,-0.6674805279740621,0.06645941965917412,-0.7409372962792009,0.9994674515478227
1.4374533698085052,-0.659248492534037,0.07105329191515075,-0.7528544445450223,1.0032183012044655
1.4399403133548867,-0.6605800327320802,0.06607522415837863,-0.7886807533272453,1.0308973011705518
1.4424272569012684,-0.6618983709548122,0.0706788109409544,-0.8101090964980404,1.0485140418790455
1.4449142004476498,-0.6584151330280795,0.07528722687408695,-0.8267163813479623,1.0595464261276348
1.4474011439940313,-0.6597071548568658,0.07990045319103967,-0.8432911120601112,1.0736561424725577
1.4498880875404128,-0.6657744658230212,0.07015326114599407,-0.859833389707747,1.0897204125130728
1.4523750310867942,-0.6670402887845484,0.06998764853792183,-0.8619781056112572,1.0921754769096461
1.4548619746331757,-0.6682930566764506,0.06982678990633095,-0.8593021678982815,1.0908215279986286
1.4573489181795574,-0.6743212025490813,0.055305456453570656,-0.8565940815794395,1.091568228888007
1.4598358617259388,-0.6803363529268014,0.04078883928745425,-0.8442771419053408,1.0850461625516261
1.4623228052723203,-0.6767617311275796,0.035853726179485346,-0.8510818708875973,1.0879486574987283
1.4648097488187017,-0.6779625771841442,0.03092329160435936,-0.8530663542105472,1.0900971106795438
1.4672966923650832,-0.6791505179604586,0.02120911334195741,-0.8454422910335353,1.0846510590981526
1.4697836359114647,-0.6851139870728719,0.025864785759006637,-0.8377865906682231,1.0825601756617187
1.4722705794578463,-6.2025168332875005,-3.6948527032373786,-0.36562423390436116,7.228888755974428
1.4747575230042278,-4.297881718958706,-3.8146862925116727,-0.41536640777297684,5.7616098473553485
1.4772444665506093,-2.4554830643609074,-3.8291704248481686,-0.48423086687223993,4.574540715123976
1.4797314100969907,-0.7375701433943882,-3.747881925856591,-0.5530641013337334,3.8595995319169343
1.4822183536433722,0.8367033998155663,-3.5708208145186626,-0.6266546180701571,3.7206894359797493
1.4847052971897536,2.2242419044346797,-3.326717529750161,-0.7097909241713705,4.064247129324972
1.4871922407361353,3.405891726123621,-3.0251488971973517,-0.7785311069801537,4.621442954838611
1.4896791842825168,4.3864412370382935,-2.670903339197659,-0.8472404805742038,5.205036772708801
1.4921661278288982,5.1323715826673775,-2.292711294700815,-0.9159191492403735,5.695320099113442
1.4946530713752797,5.643682731636864,-1.8809959761046997,-0.9749904107925911,6.028259030485976
1.4971400149216612,5.934739862429979,-1.464487822379771,-1.0005123532492224,6.194100966695518
1.4996269584680426,6.034273363387823,-1.0479752559046223,-1.030792307955691,6.210735861652849
1.5021139020144243,5.932706396186657,-0.6506119090280724,-1.0658303798555924,6.0626970432429115
1.5046008455608058,5.6348273323620885,-0.2723978008265715,-1.07689625412897,5.743273036308391
1.5070877891071872,5.188520173231662,0.08666704961495508,-1.0879320526352902,5.302060817896388
1.5095747326535687,4.632092113372211,0.40264060660192147,-1.089361074145458,4.775469019343874
1.5120616761999501,3.9894851372999716,0.6898880609947105,-1.0859718275426147,4.191810111116277
1.5145486197463316,3.260699212831504,0.9292557804040018,-1.0777644185385569,3.5577031640992756
1.5170355632927133,2.4792531309270416,1.1207437457151048,-1.0599505496713917,2.9199756503299383
1.5195225068390947,1.6834540857702431,1.2643519378067554,-1.0373187302641664,2.3470478541540403
1.5220094503854762,0.8972440614873114,1.3792339508328961,-1.0098690664615724,1.9305876640029414
1.5244963939318577,0.13498823546810504,1.4366593457386805,-0.9776016645479686,1.7429621091521308
1.5269833374782391,-0.5793714083518693,1.4653585233077426,-0.9453050342653544,1.8375386903283695
1.5294702810246208,-7.154724599998367,-2.729309844196802,0.2027186914623762,7.66030751310413
1.5319572245710023,-5.316841074474277,-2.935234081586538,0.11057497235209901,6.074259209931251
1.5344441681173837,-3.4358498686312466,-3.0166556875054438,-0.0006934517363514914,4.5722288150974695
1.5369311116637652,-1.597942275274615,-2.9831514877494643,-0.13108668775078414,3.3867087317448967
1.5394180552101466,0.1154788160211272,-2.8682403247194888,-0.26623963280395735,2.882884225800992
1.541904998756528,1.651740935512015,-2.647980200975574,-0.40136399077267804,3.146607747383477
1.5443919423029098,2.9773252266458097,-2.360678362244338,-0.5460366756159001,3.8386747565153
1.5468788858492912,4.039559219499601,-2.020700037653111,-0.7002577947707689,4.570736079577636
1.5493658293956727,4.82886607394557,-1.6376220530104928,-0.8400854391895471,5.167736167196145
1.5518527729420541,5.321303739807051,-1.2258096374468643,-0.9655197165403173,5.545368435151104
1.5543397164884356,5.521660586742473,-0.8139932300546635,-1.0765607346031718,5.684215304600045
1.556826660034817,5.453878597605571,-0.40217285000485736,-1.1779970045883097,5.594122960886734
1.5593136035811987,5.151476561805236,-0.019078936390620527,-1.2650402311727351,5.304564219530956
1.5618005471275802,4.62403125206463,0.3257116849760413,-1.3233253124980031,4.820678687124693
1.5642874906739617,3.914638264264733,0.6417758015652479,-1.372005970050834,4.197459862985642
1.5667744342203431,3.085546807485094,0.9099597809258775,-1.4206591187779303,3.5166600967183355
1.5692613777667246,2.151122057519733,1.1302636038893734,-1.4501312538025157,2.8297884327065477
1.571748321313106,1.159248013323303,1.2931104446481774,-1.446057273664266,2.259883230870472
1.5742352648594877,0.17696228705081596,1.4032886873576658,-1.4419561101998521,2.019844601657995
1.5767222084058692,-0.7574279291443109,1.4560099095349357,-1.4282510654547735,2.1756753044708823
1.5792091519522506,-1.6391342664306499,1.4656393019810898,-1.3953654415638965,2.6042089820921763
1.581696095498632,-2.4346379361331145,1.422600038898742,-1.343299347389852,3.123412538783697
1.5841830390450136,-3.086478133052935,1.336468907775219,-1.2912065051614245,3.602736549657079
1.586669982591395,-3.5946548919121355,1.2120342927813534,-1.2199334106275526,3.98482226017563
1.5891569261377767,-3.9591682475090466,1.049296174771834,-1.153422189500418,4.255163736180618
1.5916438696841582,-4.165653024756525,0.8865617611684469,-1.0964613542891808,4.397827234041708
1.5941308132305396,-4.209320855282942,0.709465822874352,-1.034685804297693,4.392299913503387
1.596617756776921,-4.123690597353124,0.5180083407589566,-0.9728840521848614,4.268449386227983
1.5991047003233025,-3.918339092703593,0.32176610233787395,-0.9349982239623795,4.041180068845699
1.601591643869684,-3.5884779731825693,0.13031589513274877,-0.8922980091878596,3.7000475853347274
1.6040785874160657,-3.1628376939520453,-0.04197709000824945,-0.8399951140875928,3.272750547484559
1.6065655309624471,-2.6749371135654485,-0.1903244688708421,-0.8020316648746917,2.79906533622252
1.6090524745088286,-2.143929880685489,-0.33387987383531037,-0.7640425612625048,2.3003634797285724
1.61153941805521,-1.5889696440443721,-0.45827811403238705,-0.7116627030249205,1.8003630640435602
1.6140263616015915,-1.0339984557633517,-0.5635192085460332,-0.6592574099160693,1.349565499503669
1.616513305147973,-0.5173235779926018,-0.6256611598505919,-0.6307688083868666,1.028078236773079
1.6190002486943547,-0.03415664306666932,-0.6542807936541968,-0.6214086050203491,0.9029942899064677
1.6214871922407361,0.40113710333205554,-0.663743338976545,-0.61202329649044,0.9879467147333352
1.6239741357871176,0.7502503988540172,-0.6444720082267041,-0.6217666060832023,1.1682523455181235
1.626461079333499,1.0275484176081746,-0.6108320304058696,-0.6458502405306277,1.358710437544472
1.6289480228798805,1.213877510397015,-0.5532466179039277,-0.6651206966490832,1.490626033443919
1.631434966426262,1.3092376412408653,-0.47650419306160696,-0.689154891219987,1.554378947148883
1.6339219099726436,1.3375707906989316,-0.3853931782092097,-0.7179529344251332,1.5662311253422403
1.636408853519025,1.2893001160263053,-0.2799135923459657,-0.7515149364851936,1.5183613233106976
1.6388957970654066,1.1452719677762824,-0.1840074710615749,-0.7754757976966271,1.3953025988630046
1.641382740611788,0.9390051329651844,-0.08330962337181314,-0.8042008383123509,1.2391166698191116
1.6438696841581695,0.6944415919090734,0.007814721797408275,-0.8233249586958564,1.0771138203836736
1.646356627704551,0.40200450162283885,0.10373075545416244,-0.8472134791628534,0.9434714453693577
1.6488435712509326,0.09042424562586016,0.1757080387360599,-0.8710781067759967,0.8932115802977105
1.651330514797314,-0.23072240590120457,0.2333233593559747,-0.8757653386631059,0.935220587353434
1.6538174583436955,-0.5614354894749277,0.29573031168043995,-0.875640495218164,1.0813937779340481
1.656304401890077,-0.8681962184255639,0.338986860206548,-0.8946457034976465,1.2919240302231174
1.6587913454364585,-1.1462162260603557,0.3774581960075758,-0.9184158640152944,1.5165005855232294
1.6612782889828401,-1.3954955490612335,0.40635589688955687,-0.9230090706618963,1.7217661533758781
1.6637652325292216,-1.616034224163649,0.42567994399314957,-0.9419442571875649,1.9183401710944936
1.666252176075603,-1.7743134649138261,0.4258535118330311,-0.9752215341137358,2.0689602523765847
1.6687391196219845,-1.8846985181131288,0.41645338822006694,-0.9797453820904085,2.1645837804218337
1.671226063168366,-1.9663430339345533,0.3974795543397658,-0.9794579282613043,2.2324499448935042
1.6737130067147474,-1.9761514194376515,0.3737203947135064,-0.9839360898164635,2.2389666354846773
1.6761999502611291,-1.942854131536442,0.3451758905582336,-0.9692379607089219,2.198465554956475
1.6786868938075106,-1.861662803951855,0.30226921646646243,-0.9736708780589272,2.122543298409051
1.681173837353892,-1.7469426837343316,0.2689423702893561,-0.9732929358237268,2.017780433474895
1.6836607809002735,-1.5986938080209558,0.2212533166917594,-0.9728926478814746,1.8844880010903426
1.686147724446655,-1.4360698272768486,0.15920203695716273,-0.98683533474793,1.749710208946992
1.6886346679930364,-1.2542823754116084,0.12109573894894865,-0.9863906870509691,1.600267178555088
1.691121611539418,-1.0724851029816818,0.08778079070443612,-0.9811356219738752,1.456213195943639
1.6936085550857995,-0.890678047306795,0.04010356027893147,-0.9567050400892398,1.3077462342646777
1.696095498632181,-0.7040728424301385,-0.021935970972730257,-0.9226758585600745,1.1608318113489748
1.6985824421785625,-0.5366115423598001,-0.06003059511463604,-0.8934133978565271,1.0439076200570268
1.701069385724944,-0.3882941845445732,-0.0837571373951338,-0.8784945751132582,0.9641267293873698
1.7035563292713254,-0.25433240315445366,-0.1170576330043529,-0.8683426941664969,0.9123631378191644
1.706043272817707,-0.14909144568144295,-0.12641327726922968,-0.8438042521926548,0.86614905868663
1.7085302163640885,-0.07735975301694777,-0.126189298700095,-0.8336097795500965,0.8466484128933482
1.71101715991047,-0.03913736277129454,-0.13075092578726144,-0.8425477899724427,0.8535305010053041
1.7135041034568514,-0.010482295991756096,-0.12573296707886783,-0.8418879739259761,0.8512896206232633
1.715991047003233,-0.02491341360711466,-0.11113544106340845,-0.8316304417717291,0.8393932070962683
1.7184779905496144,-0.058488736739399805,-0.09174676952882832,-0.8213521104822537,0.828527423467684
1.720964934095996,-0.11120830314845984,-0.07714377756224478,-0.8302067036396625,0.8411668204785346
1.7234518776423775,-0.19264895727023712,-0.052961273627806005,-0.8342523149102163,0.8578434834948877
1.725938821188759,-0.2884455269739036,-0.01919927612889305,-0.8478542644876903,0.8957825004123985
1.7284257647351404,-0.3842328401625994,0.009776986592131554,-0.8614358559273612,0.9432932729557365
1.7309127082815219,-0.4895877413742731,0.02917909285576803,-0.8702087960659313,0.9989048626943235
1.7333996518279033,-0.6092986718591064,0.05816063760659551,-0.8837500016602302,1.0750077193818348
1.735886595374285,-0.7146352496567572,0.08235639256976235,-0.8589639529009006,1.1204040288361252
1.7383735389206665,-0.805597512759821,0.09218953281378761,-0.8485231963401407,1.1736600347854242
1.740860482467048,-0.8965507091520852,0.10681365335236759,-0.842851035319514,1.2351559409089863
1.7433474260134294,-0.973129666924944,0.13101713926182823,-0.8323707731320606,1.2872404372898911
1.7458343695598109,-1.035334424159495,0.13606955240014074,-0.8266593263016624,1.331840055975779
1.7483213131061923,-1.097530228925785,0.15548969781343036,-0.8305052079795754,1.3850951411412846
1.750808256652574,-1.1357751027586254,0.16533554072841872,-0.843908527942542,1.424606095946691
1.7532952001989555,-1.1500690838209031,0.16560706299799843,-0.8525041859502647,1.4411273309247168
1.755782143745337,-1.1547774202622278,0.16588105314054502,-0.8562922916653939,1.4471571797507257
1.7582690872917184,-1.1403233436556617,0.16136908973860997,-0.8504845513704229,1.4316777861407384
1.7607560308380998,-1.0923416822782437,0.15685955804073215,-0.8542346878876739,1.395540101101272
1.7632429743844813,-1.0587165075946134,0.15235244000075054,-0.862754407374311,1.3742041612771065
1.765729917930863,-1.020294244607831,0.15742452423899156,-0.8616786092814248,1.3447203620474062
1.7682168614772444,-0.9722865283039454,0.1529221794800133,-0.8749494195553034,1.3169141099093815
1.770703805023626,-0.9146933970106282,0.13884538775597477,-0.8929901408309089,1.2858356986245
1.7731907485700074,-0.8523032923964313,0.12477093776625159,-0.901435672351889,1.2468259543855225
1.7756776921163888,-0.7994814627903564,0.1154872149167363,-0.8859209132890822,1.1989010679608196
1.7781646356627703,-0.7418627366186207,0.10141739467945632,-0.879964795941806,1.155415012029765
1.780651579209152,-0.6794471522867016,0.09692666915530435,-0.8692022193297841,1.1074997562220374
1.7831385227555334,-0.6361767648192741,0.08286140723053403,-0.8584216956757178,1.0716691170836814
1.7856254663019149,-0.5928979993750435,0.07837520438166568,-0.847623333801879,1.0373697635511692
1.7881124098482963,-0.5687645076913455,0.07389123619135551,-0.8415956457689777,1.0184479422005663
1.7905993533946778,-0.5494111182787145,0.05504427495018405,-0.8547039501946578,1.0175467024030942
1.7930862969410595,-0.5348378696232701,0.05056472286000879,-0.8582179357282769,1.0124951176113257
1.795573240487441,-0.5250448002250452,0.04608735226856808,-0.8425609042131903,0.9938334687416366
1.7980601840338224,-0.5535507718394296,0.03682374219313944,-0.8412517872865166,1.0077097868959564
1.8005471275802039,-5.830138635491593,-6.7288748066395705,0.16563921397406745,8.904813811736124
1.8030340711265853,-3.502733918001354,-6.843479014960278,0.03290730385723961,7.687875702635024
1.8055210146729668,-1.342915246783369,-6.694718929638421,-0.12853805544199481,6.829290222167971
1.8080079582193485,0.6062217097214171,-6.306536584820573,-0.30433176198387635,6.342911498544663
1.81049490176573,2.2967928797407438,-5.726816031224718,-0.4801087137307469,6.188875807844298
1.8129818453121114,3.7096446114173394,-4.9842877062568025,-0.6702342284674749,6.2493040414729215
1.8154687888584928,4.839988462846138,-4.14598927385499,-0.8555548006354119,6.430139142840896
1.8179557324048743,5.683035992114321,-3.245439574684908,-1.0264937312134723,6.6244596384020875
1.8204426759512558,6.229210353982647,-2.311369046060841,-1.1830511277165545,6.748710874829668
1.8229296194976374,6.512030333088929,-1.3820849319061475,-1.3060734842719395,6.783990401260204
1.825416563044019,6.541072697463994,-0.5198364927159125,-1.4003493115001557,6.709459010001256
1.8279035065904004,6.345067828415783,0.2705878508917068,-1.4467251033105732,6.513533377268912
1.8303904501367818,5.952746107248471,0.9891880816495711,-1.4835081933446865,6.214054701880262
1.8328773936831633,5.402414721904193,1.5832917457989284,-1.5011218819277001,5.826342290336565
1.8353643372295447,4.727592457002099,2.048110422816734,-1.48520106594966,5.361968756888806
1.8378512807759264,3.9570096938400576,2.407586112133538,-1.4596878687465615,4.856447804583958
1.8403382243223079,3.128973620355664,2.6377767800094514,-1.4150055902940348,4.330194346516335
1.8428251678686893,2.267426214525247,2.738682409338811,-1.3463659337681548,3.8018816663790997
1.8453121114150708,1.4010978576469257,2.7342449996502127,-1.268134215504805,3.3237531968166625
1.8477990549614522,0.5682957376600651,2.648406550505328,-1.175522138435431,2.9527732049979623
1.8502859985078337,-0.20703816745407522,2.462013431616257,-1.068529808687078,2.69186383242066
1.8527729420542154,-0.9201154929931349,2.2085844492517936,-0.9663109455415846,2.580351649174259
1.8552598856005968,-1.5469942609693812,1.9168500063941498,-0.8688656548716089,2.611978697597077
1.8577468291469783,-2.073309300031767,1.5915984894575463,-0.7714056390998039,2.7252273052493687
1.8602337726933598,-2.4799070355036053,1.2519834948511934,-0.6835078104785968,2.8608712839107833
1.8627207162397412,-6.190495880007034,-3.3876159659427643,0.17054906340369946,7.058843259070303
1.8652076597861227,-4.638622332096211,-3.832572419493311,0.12918892505410895,6.018481392248309
1.8676946033325044,-3.067588066096971,-4.095567864992002,0.06868947688123761,5.117469191333733
1.8701815468788858,-1.5492191703925664,-4.157448705892013,-0.05404501606860812,4.437046387383938
1.8726684904252673,-0.11703450679326038,-4.051733782135523,-0.17676541556320657,4.057276146532031
1.8751554339716487,1.1427746263766825,-3.8215187402702053,-0.29468342307337814,3.9995971858127146
1.8776423775180302,2.2302081905676174,-3.4476499836446917,-0.43174115984944805,4.128743078965834
1.8801293210644117,3.1309009372806456,-2.968434755415988,-0.5448431005136314,4.348677911780051
1.8826162646107933,3.78260358482528,-2.4173918953850984,-0.6531429627068572,4.536349764462625
1.8851032081571748,4.204469707967713,-1.8088866300369872,-0.7614292539620688,4.639979620034328
1.8875901517035563,4.401287671527136,-1.1860146057418217,-0.860125271703021,4.638726042308586
1.8900770952499377,4.382634243656315,-0.5727178555528434,-0.9635963298050321,4.523716010378164
1.8925640387963192,4.177239805803688,0.011849990832665025,-1.0431121121090836,4.305526181072674
1.8950509823427006,3.780315916190593,0.548535303754139,-1.1178263355063898,3.980102400946515
1.8975379258890823,3.2397465695774637,1.0181844535873599,-1.1877391034524383,3.5976911477343267
1.9000248694354638,2.6034157607417203,1.4064322140645444,-1.233696905965454,3.205905995475479
1.9025118129818452,1.8856886612349675,1.7228553755567342,-1.246123039546914,2.8419843423010795
1.9049987565282267,1.1248724592294432,1.953088711869675,-1.2393828171408945,2.5721514989187053
1.9074857000746082,0.34969753627422195,2.08276699684651,-1.223053148210786,2.4405052209281597
1.9099726436209896,-0.41110572606141677,2.1310438276094694,-1.197134135417505,2.4786056264308605
1.9124595871673713,-7.358519665914641,-3.0687679945798676,-0.189580007235298,7.975029106990996
1.9149465307137528,-5.720320078435341,-3.3652534467447124,-0.28334631033268565,6.642836569731098
1.9174334742601342,-4.082114155232831,-3.5037202353601256,-0.38188878652501934,5.39310212301768
1.9199204178065157,-2.544458404302566,-3.5033219897169676,-0.4660539245300068,4.354852442440529
1.9224073613528971,-1.1025644605697646,-3.3880007423880283,-0.5502070361385698,3.605124852588287
1.9248943048992788,0.2100488145004302,-3.1769101225879868,-0.6343482230101607,3.246425126121223
1.9273812484456603,1.3790161727492285,-2.8556849362512837,-0.7136891833120949,3.2505344653169135
1.9298681919920417,2.389972366043443,-2.476997635758191,-0.7834416150384556,3.5300518356218262
1.9323551355384232,3.2381289529146056,-2.0695786568495946,-0.8531824259694574,3.936566420698924
1.9348420790848047,3.909120685280965,-1.6238512086650778,-0.9037581037874389,4.328382606717667
1.9373290226311861,4.412524331689201,-1.1637573235478038,-0.9351687492785246,4.658244591634014
1.9398159661775678,4.729186240791395,-0.722815840443255,-0.966568076331205,4.880770337300142
1.9423029097239493,4.897413601112295,-0.2818731617340986,-0.9835909754116479,5.003155371021063
1.9447898532703307,4.907629568002258,0.11597506707144856,-1.0006027567263143,5.009938529531131
1.9472767968167122,4.774199313443087,0.45636362042633305,-0.9984499070565711,4.898790570684804
1.9497637403630936,4.516276412767417,0.7488692894241007,-0.9962861395620397,4.685098069522699
1.952250683909475,4.143437634698252,0.9982804618774388,-0.9845347472948696,4.374236845648741
1.9547376274558568,3.684413361271759,1.185443509036781,-0.9631958297609113,3.98847393576843
1.9572245710022382,3.14399195795507,1.3199352221139735,-0.9418462929184059,3.5375116765527945
1.9597115145486197,2.5556922101702297,1.4017555857199118,-0.9492166558172652,3.0655331762847844
1.9621984580950012,1.9338792900918604,1.421327777864565,-0.9374229841915636,2.5765914717056404
1.9646854016413826,1.292918369929641,1.402593799839957,-0.9016769734660208,2.1099593937158723
1.967172345187764,0.6423862186075349,1.340765233056215,-0.8659207387937577,1.7205028886643292
1.9696592887341458,0.020590025007326096,1.2262652556431721,-0.8349427818518986,1.4836710805613231
1.9721462322805272,-0.5628934418739826,1.1069778856146857,-0.8183200074418817,1.4872446674049231
1.9746331758269087,-1.1080642196434176,0.9733263011810092,-0.8064757068865784,1.6809442195453383
1.9771201193732901,-1.6053455392292957,0.8061568739521654,-0.7802563646697074,1.9585257721948193
1.9796070629196716,-2.035583824880322,0.6294116054616086,-0.7492388849970375,2.2585657803118697
1.982094006466053,-2.3987791140879504,0.4670324972830908,-0.7517305917951447,2.556826054768633
1.9845809500124347,-2.6853546376624657,0.3094427277890959,-0.7398475490227092,2.802545044703435
1.9870678935588162,-2.9000988363348097,0.15664228203339414,-0.6944362403567599,2.9861935230242493
1.9895548371051976,-3.0382233441540643,0.018207951751232354,-0.6681691990742493,3.1108813376696327
1.992041780651579,-3.104516601768054,-0.10586027792184005,-0.6562581184024232,3.174886525068927
1.9945287241979606,-3.0941902431414054,-0.20598561516856595,-0.6395494814004188,3.1663017660304247
1.997015667744342,-3.021609515476812,-0.27737967145092046,-0.6084665775596072,3.0947205240798943
1.9995026112907237,-2.8867744559721835,-0.3344076714708586,-0.5917399227242868,2.9657126270995646
2.001989554837105,-0.7168629338121748,0.09219389546249523,-0.21108575030143228,0.7529604068041471
2.0044764983834864,-0.7113046980191036,0.1069935937923554,-0.3475703667282666,0.7988786906435003
2.006963441929868,-0.6913762749132374,0.12179409444872258,-0.5127767286195244,0.869353166652788
2.0094503854762498,-0.6810197181121482,0.13180697953596443,-0.668397704485038,0.9632841884266616
2.011937329022631,-0.6754466612644427,0.14660904116102502,-0.8096449858613948,1.0645409368802763
2.0144242725690127,-0.669868737970996,0.1566234581913175,-0.9317302640686158,1.1581780168644347
2.016911216115394,-0.6642859851046223,0.15706181285636678,-1.0059232136074154,1.2156585847755186
2.0193981596617756,-0.6730636494500614,0.15271249406820075,-1.0609543486034028,1.2656855501569244
2.0218851032081573,-0.6770481545002245,0.15794069742142414,-1.1016121663606935,1.302646856399702
2.0243720467545385,-0.6714511336586724,0.16795800527141536,-1.1039547440403545,1.302986029593362
2.02685899030092,-0.6802146401999302,0.1588223867344163,-1.0679821751828449,1.2761279065119677
2.0293459338473014,-0.6889735007844812,0.1592642474922732,-0.9936945531052945,1.2196222571696675
2.031832877393683,-0.6881509453409504,0.16449517002689218,-0.9146107941426607,1.1563404729136173
2.0343198209400644,-0.6969006236670416,0.1601499302218765,-0.80200057124026,1.0744875037371477
2.036806764486446,-0.7056457655851643,0.141440110643837,-0.6702291869997037,0.9834370414487638
2.0392937080328277,-0.7000211975433757,0.12273090718309643,-0.5528155570762188,0.9003874681122221
2.041780651579209,-0.6943921658569447,0.11838751577248052,-0.4641249836149708,0.8435686601041286
2.0442675951255906,-0.6983355134655569,0.11883311578586442,-0.3945807519299258,0.810856194752291
2.046754538671972,-0.697486066651441,0.11449088663976292,-0.3393945504244815,0.78408139702093
2.0492414822183536,-0.6870554582809486,0.1293028310355928,-0.3129316805513884,0.7659573497004775
2.0517284257647352,-0.6814089344445688,0.1297501118738018,-0.31519223356960424,0.7619050935482338
2.0542153693111165,-0.6805465312141329,0.12540952198048982,-0.33181109054321567,0.7674436325610121
2.056702312857498,-0.6748914779625214,0.12106945090434262,-0.3484231323013791,0.7691131243786052
2.0591892564038794,-0.6692322139646244,0.12151828823700495,-0.40333567596073117,0.7907705849908332
2.061676199950261,-0.6492035651545528,0.11717921365219874,-0.4869720051978401,0.819962176547147
2.0641631434966428,-0.6435359872891033,0.12241742346828088,-0.5753901934903958,0.8718936100635721
2.066650087043024,-0.6426527095018503,0.11329088748424265,-0.6590135240380341,0.9274352565446634
2.0691370305894057,-0.6369769608650517,0.11374160874537109,-0.737842086441205,0.9813703412864958
2.071623974135787,-0.640873986990622,0.11898117041832101,-0.7831455501375295,1.0189175328826094
2.0741109176821686,-0.6399786135061059,0.10985594575209756,-0.8092892142056112,1.0375885440731412
2.07659786122855,-0.6438676825775294,0.11509634124216861,-0.8258499741609242,1.0534898861672526
2.0790848047749315,-0.6477528263463174,0.11554873022426682,-0.8088859020329977,1.0427040019122489
2.081571748321313,-0.64684567688965,0.12078990599943884,-0.7727622961691729,1.0149685204393462
2.0840586918676944,-0.6507230761808216,0.12603145195128063,-0.7462096646320955,0.9980748029809808
2.086545635414076,-0.6498082528464783,0.12169654818660591,-0.7052860787143889,0.9666898510568147
2.0890325789604574,-0.6441012420879186,0.11257358481674684,-0.669145239344024,0.935571789546085
2.091519522506839,-0.6479672890008372,0.10823935531697204,-0.6234220239583976,0.9056668182123673
2.0940064660532207,-0.656618025332568,0.1134822498859096,-0.5681165197065372,0.8756607974520026
2.096493409599602,-0.6556882761221441,0.11872544880495672,-0.5319592334091805,0.852644986877452
2.0989803531459836,-0.6547548829419237,0.1191805357195812,-0.4957966384328323,0.8298929229195747
2.101467296692365,-0.6538178806548417,0.11005909431904204,-0.45962882117328796,0.8067524270552044
2.1039542402387466,-0.6528773040544774,0.1105147249379943,-0.43303267441415905,0.7911887105411971
2.106441183785128,-0.6519331878645003,0.1157590113534015,-0.4303734940056607,0.789707777909859
2.1089281273315095,-0.6557739700584305,0.11621513406582462,-0.44207455894190417,0.7993593515158323
2.111415070877891,-0.6548228785778397,0.12145988690101905,-0.47771276124282025,0.8196066060551345
2.1139020144242724,-0.6490799479333673,0.12191645044747901,-0.5085577661096359,0.8335462801604471
2.116388957970654,-0.6529104225244886,0.12237321529865142,-0.5202444484474089,0.8437544132056347
2.1188759015170353,-0.6567375300764742,0.12761857209203553,-0.5367149094657933,0.8577024993531456
2.121362845063417,-0.6461960949211054,0.13286410486859346,-0.5627576368344922,0.8671322974433376
2.1238497886097987,-0.654804974519568,0.13332139771339868,-0.5983727146433413,0.896991669623229
2.12633673215618,-0.6538337830947407,0.12899043807599364,-0.6244066134405788,0.9132473749972401
2.1288236757025616,-0.6576477646775367,0.1342364234110347,-0.6552246267555208,0.9379975006696227
2.131310619248943,-0.6614585499423149,0.13469413129551455,-0.6764616279336675,0.9556517442896815
2.1337975627953245,-0.6556893661672936,0.13994035595222654,-0.668964086737514,0.9471139305666764
2.1362845063417057,-0.6594938604762166,0.14518668168729132,-0.6758277158301418,0.9553818221158372
2.1387714498880874,-0.6680836633143983,0.14085628953081164,-0.6731105811260178,0.9587774141644032
2.141258393434469,-0.6623051950888327,0.1461027804790831,-0.646447554915234,0.9369571148997483
2.1437453369808503,-0.6661005060114314,0.16092614229149582,-0.6197807357846301,0.9239671356878691
2.146232280527232,-0.6698928229735146,0.15659594284993172,-0.564379785531127,0.8898332573604139
2.1487192240736133,-0.6545285661468662,0.16184258992441425,-0.5137636088484605,0.8476754765785717
2.151206167619995,-0.6535265921472935,0.18145447472781884,-0.4727206902405463,0.8267330790671812
2.1536931111663766,-0.6429449176669367,0.18191276195495476,-0.44125111062230893,0.8007327661219098
2.156180054712758,-0.6275719792394089,0.17279424622791062,-0.42893175727990673,0.7795427461397929
2.1586669982591395,-0.6313498265986508,0.17804093217418027,-0.42618590394816636,0.7822631282373681
2.161153941805521,-0.6207596695534654,0.1784991945829466,-0.42343682409112837,0.7723362440072777
2.1636408853519025,-0.6101667510338912,0.17416902156915715,-0.4302614041826125,0.7666571515813346
2.166127828898284,-0.6139363138875944,0.17462720793291764,-0.44665972378365204,0.7790490152171567
2.1686147724446654,-0.6129147776371993,0.15593172527669408,-0.4582666522215195,0.7810169986191997
2.171101715991047,-0.6071021750032461,0.1468129817709567,-0.45071705854998534,0.7702421498321825
2.1735886595374283,-0.6012869419427775,0.1472709657088811,-0.45752984475180014,0.7697845690388512
2.17607560308381,-0.600257514328553,0.14294045546730194,-0.4739166859723962,0.7780347566530378
2.178562546630191,-0.5992255213079533,0.1290330361082881,-0.49030085376146104,0.784930364423067
2.181049490176573,-0.5934025919431388,0.11033709937915681,-0.5210476359941527,0.7973653808633382
2.1835364337229546,-0.5923655651715238,0.10600624703280026,-0.5470034970267275,0.8132325085548578
2.186023377269336,-0.5913260698834398,0.10646366094488124,-0.5490149009381184,0.8138908977729591
2.1885103208157175,-0.5902841382029295,0.0973441197154088,-0.5606007480527655,0.8198685505460392
2.1909972643620987,-0.5940282054872877,0.08822441859062913,-0.5673959052134094,0.8261907589673503
2.1934842079084804,-0.5881930937250569,0.08389294954114623,-0.5502468356633639,0.8098028912310155
2.195971151454862,-0.5823556414183823,0.0891381045822559,-0.5330956322489975,0.794527940291146
2.1984580950012433,-0.5813042836606965,0.0943830658130067,-0.520730774255135,0.7861191847111291
2.200945038547625,-0.58982745545659,0.09483941869747037,-0.498787127404432,0.7782541622205659
2.2034319820940063,-0.5935599784401222,0.1048723620256693,-0.49120678370058535,0.777557563577228
2.205918925640388,-0.5925018841165739,0.1196934813510957,-0.502778221584034,0.7862384830691251
2.208405869186769,-0.5914416072213902,0.12493755563133613,-0.495194289329806,0.78142814880487
2.210892812733151,-0.5951675823994395,0.13018138047026584,-0.4828202714532477,0.777359027404021
2.2133797562795325,-0.5941030342436504,0.14500175151648698,-0.4752330488657446,0.7744871683731063
2.2158666998259138,-0.5930363972164647,0.1550334478617703,-0.46764429223353865,0.7709855526778696
2.2183536433722955,-0.591967702368168,0.15069965196293422,-0.4456888652975408,0.7561578607665246
2.2208405869186767,-0.5908969806567868,0.15594236956372276,-0.42373205143529447,0.7436572569322636
2.2233275304650584,-0.6041894729086138,0.16118478321042895,-0.4161391337386142,0.7511306358689585
2.22581447401144,-0.6031147899740485,0.16163847881439874,-0.39896816845059035,0.7409791138457898
2.2283014175578213,-0.602038172492817,0.176457058933277,-0.40094964805101085,0.7445452807305291
2.230788361104203,-0.6057480543701311,0.18648689960694664,-0.42687204813089963,0.7641516960484219
2.233275304650584,-0.6046676594559777,0.19172799020127762,-0.4288514074701446,0.7656997651218886
2.235762248196966,-0.6179506314275346,0.19218032012687347,-0.42604141104485116,0.7747951614787253
2.238249191743347,-0.6264433873044041,0.20220908880000854,-0.41844213026124955,0.780008749610104
2.240736135289729,-0.6205691506513478,0.22181428572074813,-0.4108420395568082,0.7765943790403963
2.2432230788361105,-0.6099047582185265,0.21268867387138402,-0.4080296130794707,0.7640081486741812
2.2457100223824917,-0.6040270466598691,0.2131394694039317,-0.40042811472627093,0.7553937923875658
2.2481969659288734,-0.612512852532688,0.22316666195262513,-0.41197963134602844,0.7711696118032771
2.2506839094752547,-0.6162085923754386,0.22361662791516013,-0.41874221629360164,0.7778576150581442
2.2531708530216363,-0.6199026992307751,0.21927776033550206,-0.42550434255448977,0.7832088088269202
2.255657796568018,-0.6235952027233106,0.21972685562262972,-0.4179008695412776,0.78217133973618
2.2581447401143993,-0.6177093257389431,0.22017550026927601,-0.41508547961669073,0.776104385641715
2.260631683660781,-0.6118219043463557,0.21104687749254625,-0.412269838249431,0.767354707203629
2.263118627207162,-0.6155097745154259,0.19712938051516105,-0.40945401393565994,0.7650914093847514
2.265605570753544,-0.6191961588356063,0.19278820924513518,-0.40184967155800244,0.7629248555867018
2.268092514299925,-0.6228810864374544,0.1932349503538946,-0.39903368566641895,0.7645576997037582
2.2705794578463068,-0.6265645863516579,0.1888927872372026,-0.40579452719658704,0.7700213401217949
2.2730664013926885,-0.6254582841883771,0.17976170997608687,-0.37903663358672723,0.7531142723612098
2.2755533449390697,-0.6243506120978418,0.170630112016521,-0.36664410506631917,0.7438791714610662
2.2780402884854514,-0.6232415988090751,0.16149798352878575,-0.37819381500731275,0.746687518899132
2.2805272320318326,-0.6125544663092475,0.1380001047668249,-0.3849554099237924,0.7365172575986639
2.2830141755782143,-0.6162312597261571,0.12886688591200057,-0.3773521493154064,0.7339906568487775
2.285501119124596,-0.615118394202902,0.13409831726837185,-0.3601725023467264,0.7253118150338297
2.287988062670977,-0.6044274947413135,0.12017556594239132,-0.3573585511672448,0.7123762328581624
2.290475006217359,-0.6033122028422444,0.11104063892880145,-0.35933355438763037,0.7109403919464178
2.29296194976374,-0.5878305300208941,0.10190512334502211,-0.3660975769622432,0.699969157925001
2.295448893310122,-0.5867129242127359,0.09755741299362297,-0.37765068354821274,0.7045349835548979
2.2979358368565035,-0.599959413327896,0.10278590172168345,-0.3844161318645263,0.7199249972540039
2.3004227804028847,-0.5940512019305388,0.10322537013953026,-0.3816055826526892,0.713565083413741
2.3029097239492664,-0.5833535276838676,0.11324101882384374,-0.3692190996764424,0.6996053245733324
2.3053966674956476,-0.5774432248263972,0.11846762847389192,-0.361621956362125,0.6915531044086982
2.3078836110420293,-0.5715319175310245,0.1045399798333948,-0.3636026191968682,0.6854080571652766
2.3103705545884106,-0.5704080365063082,0.10018848357331134,-0.3560075377673808,0.6798120529226402
2.3128574981347922,-0.5597063990742963,0.1054131304871393,-0.35320198460347463,0.6701752182613493
2.315344441681174,-0.5585806456936823,0.11063710477214217,-0.35039761865437846,0.6686040665854436
2.317831385227555,-0.562242400115773,0.11586039731058939,-0.3332292919291344,0.6637634436698853
2.320318328773937,-0.5563264793451478,0.11629459570879153,-0.3304274860198131,0.6574236899663809
2.322805272320318,-0.5599865235221962,0.12151649757833693,-0.32283864901537207,0.6577050699274347
2.3252922158666998,-0.5540689461181608,0.1267376906141915,-0.3296164552670646,0.6570402170777164
2.3277791594130814,-0.5433621770989266,0.12716976255562207,-0.32681894894292896,0.6467033550232281
2.3302661029594627,-0.5422314529638301,0.12760110782679046,-0.3240229971525892,0.6444283466651954
2.3327530465058444,-0.5458883968235133,0.13760852421643,-0.32601706338457603,0.6505515916062861
2.3352399900522256,-0.5495446316809226,0.1476151962762562,-0.3232244008655236,0.6544184912545452
2.3377269335986073,-0.543623377110742,0.15762111524281996,-0.3156450691615529,0.648076077168167
2.3402138771449885,-0.5377014658607028,0.1580494657562439,-0.3032791275374809,0.6372446384352545
2.34270082069137,-0.5413557305700948,0.16805385242268134,-0.30528024823792244,0.6438199704105123
2.345187764237752,-0.5402209871679534,0.16848065332993611,-0.29770647332306766,0.6394166011151561
2.347674707784133,-0.5342972614353252,0.16411826321149592,-0.2949230711138604,0.6319715070887906
2.350161651330515,-0.5331613856847184,0.17890869012619426,-0.28735329302778645,0.6315388330117416
2.352648594876896,-0.5368133854786217,0.18412150565350194,-0.28457400346155737,0.6348635310988262
2.3551355384232777,-0.5404648829495884,0.174968298018503,-0.3009504698300418,0.6428743114358566
2.3576224819696594,-0.5441159034406375,0.184967882052808,-0.30296392604271993,0.6496632775918163
2.3601094255160406,-0.5477664721847163,0.19975503942889095,-0.2906144289489099,0.6514652179051682
2.3625963690624223,-0.5466282109841787,0.19538774522259228,-0.29263245501731383,0.650086552511581
2.3650833126088036,-0.5454895481715004,0.19101960443650423,-0.28507604389064056,0.6444499105778234
2.3675702561551852,-0.5491389119684479,0.19143901215620307,-0.26794525151048987,0.6403101575176309
2.3700571997015665,-0.5479995205249338,0.19664596019085012,-0.2556053434766792,0.6358515548213828
2.372544143247948,-0.5420713985203758,0.20185203707316468,-0.25763318176588257,0.633214420485853
2.37503108679433,-0.5457197804838102,0.20226883137970475,-0.25966361145035144,0.6372973796199451
2.377518030340711,-0.5589446908718209,0.197896335051158,-0.27127349390096356,0.6520517121929147
2.3800049738870928,-0.5530157341074095,0.1983113467126243,-0.29246288354497096,0.656268489763733
2.382491917433474,-0.5470865477048069,0.18914864843140045,-0.2992898179050343,0.6516558117477493
2.3849788609798557,-0.5411571557849144,0.17998503892007633,-0.29654275412259246,0.6427933466635228
2.3874658045262374,-0.5448043889969912,0.18518572025524982,-0.28422174571567105,0.6417846788405782
2.3899527480726186,-0.5388746579559909,0.17602026467439735,-0.281480459180413,0.6329299167077246
2.3924396916190003,-0.5281563897658061,0.17164227766174855,-0.2787421407879158,0.621375429657782
2.3949266351653815,-0.5270148180581742,0.1720517514639055,-0.27600684314673885,0.6192949225518617
2.397413578711763,-0.5258731597503175,0.1724602750507418,-0.28285142520288,0.6215223691514737
2.3999005222581444,-0.5151546316463428,0.17286784075599737,-0.27054551903665924,0.6070110894745955
2.402387465804526,-0.5140128703589576,0.16369763431631057,-0.25345438630805894,0.5960245568046721
2.404874409350908,-0.5176594957858752,0.1688916647540024,-0.2507316916941953,0.5994682053457864
2.407361352897289,-0.5117293210706002,0.17408471457235608,-0.23364706636593802,0.5888661456668444
2.4098482964436707,-0.5010107725241548,0.16969996963839895,-0.23093098103479726,0.5771819400173726
2.412335239990052,-2.9228011630624327,-1.347821220074939,-5.845015370952957,6.672600195333131
2.4148221835364336,-2.529010476385746,-1.6443005660747971,-9.438396990405508,9.908731305760517
2.4173091270828153,-1.9772025779160758,-1.768398402871842,-11.987910166616972,12.27788878872407
2.4197960706291965,-1.3631455565943613,-1.7105379311444149,-13.302018816351744,13.480645771361349
2.4222830141755782,-0.7107814514417742,-1.4946611747697087,-13.304108535760264,13.406659771560058
2.4247699577219595,-0.05841751132631047,-1.1447101575817173,-12.080370633579847,12.134625193847507
2.427256901268341,0.5173317884363184,-0.6989921133321533,-9.798399274690617,9.8369126508313
2.429743844814723,0.9829476025280691,-0.21496788901071673,-6.71676828675535,6.791713583521011
2.432230788361104,1.3240646990268163,0.2690552817169394,-3.185031160222726,3.4597632236062745
2.4347177319074857,1.4927990228836376,0.7387121818303473,0.45204701808514614,1.7258305585620415
2.437204675453867,1.484362149047313,1.1317535611486464,3.8353359516850585,4.2654424125739805
2.4396916190002487,1.332272879144423,1.4146605894559756,6.658377780920137,6.936152411915029
2.44217856254663,1.031742788354392,1.577856453181044,8.710482712841904,8.912162097879728
2.4446655060930116,0.62107908185497,1.6165527421158354,9.795326164764662,9.947230602940861
2.4471524496393933,0.1481657715797746,1.5259610460953037,9.879389267195991,9.997641847098517
2.4496393931857745,-0.35826674370275735,1.330023374919136,9.02970962067067,9.13416515457801
2.452126336732156,-0.8407576451868926,1.062258545070542,7.346843649268077,7.470701321917928
2.4546132802785374,-1.2753649371932763,0.727454953153615,5.041481053735568,5.25093112191204
2.457100223824919,-1.6381466239264129,0.36870822237800294,2.3530419550456507,2.8907224973932917
2.459587167371301,-1.8860070961940096,0.029113975995676444,-0.42159268568758534,1.9327728224283651
2.462074110917682,-2.00936956792958,-0.27696258262006834,-3.0334259402483665,3.6491022550299643
2.4645610544640637,-2.01302246291167,-0.5303678467332809,-5.262191300044831,5.65899344117865
2.467047998010445,-1.9017542048025724,-0.6975829996043794,-6.897199062824802,7.188507912567992
2.4695349415568266,-1.685141620468619,-0.769031241052508,-7.809162382479028,8.025841292143514
2.472021885103208,-1.372761536660076,-0.7542893841356699,-7.945408865724443,8.098329997912266
2.4745088286495895,-1.0220748132135886,-0.6533574352286085,-7.33945737874302,7.439028664843245
2.4769957721959712,-0.6618118899280057,-0.49017741726524733,-6.082287627261376,6.137792083378495
2.4794827157423525,-0.28718438324309736,-0.27911454649623746,-4.3367053665098,4.355157085107197
2.481969659288734,0.04434684735354105,-0.039322442450222095,-2.2942467713418644,2.2950122320290625
2.4844566028351154,0.3088397657331031,0.21004527538658246,-0.15602482295227027,0.40477742524452937
2.486943546381497,0.5015059491646076,0.44025818092969615,1.8768474977633254,1.9919568300501582
2.4894304899278787,0.5984033617524348,0.6369510580979263,3.6128340168489306,3.717036839616936
2.49191743347426,0.6091087909597874,0.7953354974928795,4.917859400489949,5.018855761603843
2.4944043770206417,0.5336222177259227,0.8771042665163922,5.672213525132452,5.764379484410053
2.496891320567023,0.36715521978647203,0.8918341658155242,5.837589123964982,5.916723579394813
2.4993782641134046,0.14322660155628264,0.8538903993998495,5.4091977537163185,5.4780528486306395
2.501865207659786,-0.11901004239400313,0.758484558039827,4.482807441139382,4.5480792395592795
2.5043521512061675,-0.390824310736373,0.605616635868325,3.182916633206265,3.263506311537352
2.506839094752549,-0.6626394153073083,0.43359385362276814,1.6196585672251622,1.8028833847490302
2.5093260382989304,-0.9105133578655901,0.25678141548103817,-0.025007469394289217,0.946359679885837
2.511812981845312,-1.1105041400532325,0.07996771902237532,-1.5930642055475452,1.9435709002137902
2.5142999253916933,-1.248246570036109,-0.09205883813203641,-2.9456479831151334,3.200536887729211
2.516786868938075,-1.314163859183643,-0.22099103507692108,-3.9726255636035708,4.190181088564718
2.5192738124844567,-1.3034676220688006,-0.30204047410733104,-4.597382531466001,4.788129324737314
2.521760756030838,-1.230523086429104,-0.3495723707577061,-4.752881277500789,4.922018726767473
2.5242476995772196,-1.114483883205601,-0.3396447139582497,-4.467852258617807,4.61726506305205
2.526734643123601,-0.9361964166600932,-0.2770459125192475,-3.785391141392889,3.909271576847352
2.5292215866699825,-0.7339679307815499,-0.18571798849054177,-2.79168922199068,2.8925298281683545
2.5317085302163638,-0.5125868462000397,-0.07044935059906443,-1.5968798128833939,1.67861059292846
2.5341954737627455,-0.2959951967100721,0.06875999579030401,-0.3110962262485568,0.43488154189688266
2.536682417309127,-0.11771182263053286,0.21275643207280526,0.9172209994649911,0.9489023840390062
2.5391693608555084,0.041416872360053175,0.34717474300578344,1.992303762626987,2.022750588202824
2.54165630440189,0.20054448469953357,0.4720149233489126,2.813595558578408,2.859953871211846
2.5441432479482713,0.2686913345750851,0.5585465479814777,3.304481899554201,3.362107955437943
2.546630191494653,0.25543421201694805,0.5971928051055122,3.4889047678081386,3.5488508509055254
2.5491171350410347,0.20865713373417347,0.592742092925286,3.33334530604119,3.392060128814117
2.551604078587416,0.09005285678667427,0.5691364229677585,2.823438270527486,2.8816365927096395
2.5540910221337976,-0.052494601883853215,0.5311641935199134,2.0741053074797478,2.141682495193969
2.556577965680179,-0.20462004846157422,0.4453065763475319,1.1619608368390058,1.261079021123728
2.5590649092265605,-0.3806887089363714,0.3450823897420072,0.17798448879715778,0.5437685418209492
2.561551852772942,-0.5423933726586029,0.24964524207497574,-0.7820557028440795,0.9839331481079365
2.5640387963193234,-0.694522458745284,0.15899512847804997,-1.6319685106337616,1.7807195501486257
2.566525739865705,-0.8179223695960566,0.07792044744417392,-2.299927916793944,2.4422811102048962
2.5690126834120863,-0.8982279108148659,0.015998000827749603,-2.7093194999373216,2.85437934909464
2.571499626958468,-0.9450159044914253,-0.02677221611642322,-2.8457780815527753,2.9987038367841072
2.5739865705048492,-0.9582863659590788,-0.0551786114128574,-2.7188804994430757,2.883343303977578
2.576473514051231,-0.9332509071152182,-0.05006757644354565,-2.342991994444386,2.522513727192141
2.5789604575976126,-0.8651211397416431,-0.025804325791741523,-1.7803618403088315,1.979593072347268
2.581447401143994,-0.7730506921062554,0.027187942601737625,-1.078874100541542,1.3275224599260826
2.5839343446903755,-0.6570395790803213,0.09454401423535463,-0.3007780483226341,0.7287708922964429
2.5864212882367568,-0.5314530253807601,0.1523218680077445,0.4629466235313533,0.7210851862982709
2.5889082317831384,-0.4106562556093078,0.2148867094208029,1.1213202224888796,1.213331735148829
2.59139517532952,-0.2994376876119972,0.28223853405620547,1.6360354928263696,1.6869895235763137
2.5938821188759014,-0.20737414244020183,0.33522372425505864,1.963996775784036,2.003163077621572
2.596369062422283,-0.14883084435074803,0.3786306790006697,2.0764736228466454,2.1159523902225534
2.5988560059686643,-0.09986579092321526,0.39809418403569374,1.9974080223055655,2.0391397605682635
2.601342949515046,-0.08920941614599162,0.3840374284636563,1.7172231394926634,1.7619019204255173
2.603829893061427,-0.11207333065076866,0.36997923131141297,1.2790145765454408,1.336159926827868
2.606316836607809,-0.15409233831422814,0.33676597512285733,0.759396759125325,0.8448900570474495
2.6088037801541906,-0.22484325950035589,0.2939744624041962,0.19188848329214991,0.4168892729595501
2.611290723700572,-0.31474930117775934,0.24639309238171903,-0.3947798579337878,0.5618076314856677
2.6137776672469535,-0.3950800569198156,0.19402186100175278,-0.9192054347285961,1.01915227770777
2.6162646107933347,-0.47541234674848454,0.1464375708915968,-1.3191390302695751,1.409818655994482
2.6187515543397164,-0.5509577806111562,0.10364021807814794,-1.5802154606583443,1.6767160382494468
2.621238497886098,-0.6073511617009668,0.07041820194888215,-1.6832811383971764,1.7908851296688242
2.6237254414324793,-0.6398040997382313,0.04677151861117057,-1.633124492311798,1.754603222493254
2.626212384978861,-0.6531050109706671,0.0422769708531181,-1.4345339509501436,1.5767755560155476
2.6286993285252422,-0.6472539082124886,0.05214615154205138,-1.116239959184611,1.2913746510201636
2.631186272071624,-0.6126739975243403,0.07637905690565949,-0.7021845582905861,0.9350221074808867
2.633673215618005,-0.5637305014556054,0.11497568321166662,-0.24504020918922187,0.6253448569556446
2.636160159164387,-0.5100002391226989,0.15357081680685214,0.18815541751297538,0.5648775980860065
2.6386471027107685,-0.45148322288891884,0.19216445403888294,0.5782486846876687,0.7583770957045354
2.6411340462571498,-0.3833910616849263,0.230756591295338,0.9060859554810179,1.0105587906332256
2.6436209898035314,-0.3200889776104787,0.2645588216833521,1.1333599800318872,1.2070431508674762
2.6461079333499127,-0.25678857937210225,0.30314794831082725,1.2361287187134753,1.298404121330961
2.6485948768962944,-0.20785508884576887,0.32737035440357953,1.233545762054641,1.2930623472920295
2.651081820442676,-0.1828653244755131,0.3420144398287386,1.1208226842549482,1.1860257558279956
2.6535687639890573,-0.17224249131267722,0.3518686044931387,0.8979594631059893,0.9796990293060125
2.656055707535439,-0.18556340757859613,0.3377792317417212,0.6080517065533133,0.7198996218019594
2.65854265108182,-0.20367447146166112,0.31411152820124055,0.26067619957085064,0.4561813493522151
2.661029594628202,-0.2457293076018855,0.2904422972177274,-0.11064825599591366,0.39621036985741553
2.663516538174583,-0.30215112060672505,0.28113674549706946,-0.4245188248289651,0.5920721256627011
2.666003481720965,-0.36336311497314955,0.2622528532221593,-0.6713587211461629,0.8071752255893171
2.6684904252673465,-0.4150000917675304,0.23857902053722801,-0.8559563688580791,0.9807172531348012
2.6709773688137277,-0.46663886854770953,0.20532684098531506,-0.9352161584045131,1.0651479747947656
2.6734643123601094,-0.5182794561210651,0.18164992475038133,-0.9139265131614209,1.066241980630269
2.6759512559064906,-0.5699218651852549,0.1819134787354506,-0.8160294695194654,1.0118337518021887
2.6784381994528723,-0.5928356864066264,0.16781027335940024,-0.6511018536427162,0.8964084240674859
2.680925142999254,-0.6109629468657409,0.1584939189241119,-0.4287204914298055,0.763018547972857
2.6834120865456352,-0.619515253612237,0.16832962245037786,-0.17761582179630153,0.6660941310392222
2.685899030092017,-0.6184926169072766,0.17337536443567858,0.07348171660648717,0.6465227736417734
2.688385973638398,-0.5887414336221846,0.17841954533850046,0.3245721053123276,0.6955552180590546
2.69087291718478,-0.5542037304027452,0.19303896897674422,0.551713309516181,0.8054771221041728
2.6933598607311615,-0.5244563238256715,0.20765682592611778,0.7118096813938646,0.9082118780771823
2.6958468042775428,-0.47555720711762894,0.20790790348103583,0.800072799945104,0.9536754368145368
2.6983337478239244,-0.421871599960072,0.21294581221707842,0.8260794543914791,0.9516978673725113
2.7008206913703057,-0.38734152856769194,0.22277054946751296,0.761099207652201,0.8825713463239229
2.7033076349166874,-0.3480249858448706,0.223016902643566,0.6147088494685473,0.7407596771234226
2.7057945784630686,-0.3182871911515228,0.228050079117196,0.4204271864421454,0.5745194459164492
2.7082815220094503,-0.29812815377997215,0.22829326969761432,0.20698462211269764,0.42876665781823403
2.710768465555832,-0.29233628623638075,0.2189580685531185,-0.001676843042956122,0.36524779511666045
2.713255409102213,-0.29133479095978443,0.21919808649230443,-0.19598041825182477,0.41392280184066843
2.715742352648595,-0.29033527360358946,0.2146481111202716,-0.3615609091645613,0.5109742398026301
2.718229296194976,-0.30849135631707864,0.2053081400417085,-0.4888415244963831,0.6134202355332635
2.720716239741358,-0.33622624122223244,0.19596657422023034,-0.5443034561060678,0.6691167579929933
2.7232031832877395,-0.34959792037493165,0.18183500801739028,-0.5471003321215733,0.6742413881383263
2.7256901268341207,-0.3677600156089538,0.16291343915360113,-0.4828669571751405,0.6284494538697054
2.7281770703805024,-0.4050777453331501,0.1583554786689927,-0.3755453622085678,0.5746292339109094
2.7306640139268836,-0.4184554880082395,0.16337272104059464,-0.25386598123182047,0.5159879628937257
2.7331509574732653,-0.40789325187367376,0.1588115508229091,-0.10346361812044513,0.44978076200903816
2.7356379010196465,-0.41169827162757,0.14946036921036088,0.06608490689914781,0.442945915147092
2.7381248445660282,-0.4202937486613872,0.16404959403726949,0.22126075724922956,0.5025091314256257
2.74061178811241,-0.4145260776226978,0.18821401329341025,0.34769870988263385,0.5728444611614211
2.743098731658791,-0.39439526633733857,0.19322320504589152,0.4453987519620064,0.6255100969023759
2.745585675205173,-0.37905493580970395,0.21259599056406975,0.49520725761667705,0.6588701902209925
2.748072618751554,-0.3541398836995914,0.24633236791328095,0.5162778277858191,0.6727833887454178
2.7505595622979357,-0.32922692416624644,0.2609135119547945,0.484668433772411,0.641381102786755
2.7530465058443174,-0.3138928712670671,0.27549303411141146,0.395590660406544,0.5752539587669784
2.7555334493906987,-0.2937725223563957,0.29007093256269645,0.292140125966732,0.5057561606241584
2.7580203929370803,-0.2832310946091769,0.2950703988856165,0.18868202905393971,0.4504301292541842
2.7605073364834616,-0.27748019181818756,0.3000682379763302,0.08521635855202092,0.4174901580379402
2.7629942800298433,-0.26215461103494453,0.30985285144860253,-0.027833703052785097,0.40682741385425764
2.7654812235762245,-0.2659847790934378,0.3100590276728301,-0.12173774646954527,0.4262682046156962
2.767968167122606,-0.2841822994854613,0.30068676501817215,-0.18691897544688452,0.4539942878275573
2.770455110668988,-0.30238196896246017,0.296101271852526,-0.22337740013333374,0.47854809709853113
2.772942054215369,-0.3157953908171047,0.2915141433002848,-0.22632462711700718,0.48572632360731616
2.775428997761751,-0.3435761848445383,0.2869253778438674,-0.19097226274669055,0.486663304946824
2.777915941308132,-0.36657074417863184,0.2727581673627366,-0.13647392973412487,0.47686084117678335
2.7804028848545137,-0.37999067181573876,0.2729545270161706,-0.06761804059226506,0.47272537894546673
2.7828898284008954,-0.40298958725564493,0.26357243879790593,0.025172202363977547,0.4821873885764786
2.7853767719472766,-0.42120228665812337,0.24940030466111063,0.11795477381379804,0.50351286668421
2.7878637154936583,-0.4250519694057945,0.240014929916752,0.2011528586330158,0.5279572102120795
2.7903506590400395,-0.4336922547059813,0.24020471659295506,0.2747664485728407,0.5668190883578208
2.792837602586421,-0.4327579384269937,0.24518126011463748,0.329218728977958,0.5964715040073963
2.7953245461328025,-0.4318258329422073,0.2405793493034709,0.3692980953872933,0.6170357012071465
2.797811489679184,-0.41653073392727163,0.24076419294033746,0.3806393302910749,0.6134749780330422
2.800298433225566,-0.4108146635245097,0.24573578988247702,0.37281923301286035,0.6067527887865193
2.802785376771947,-0.3955240138979435,0.23634052574313147,0.3314725865056527,0.5676003570147113
2.8052723203183287,-0.37544719371800944,0.24130881937587567,0.27096459387455774,0.5221229287370087
2.80775926386471,-0.3697378215212759,0.24627545978864207,0.20087205513382322,0.48755229595510224
2.8102462074110917,-0.3544538858670407,0.24645204266711218,0.1164065605654514,0.4471315845293366
2.8127331509574733,-0.3391721984626647,0.24183856705435947,0.04151012060113679,0.41862484737199257
2.8152200945038546,-0.33825797424207227,0.22764662871019814,-0.01902886738143117,0.40817097213703146
2.8177070380502363,-0.3373460081238881,0.22302984003298842,-0.0652104090986736,0.40963036532595964
2.8201939815966175,-0.33164790157430474,0.22319979685649294,-0.10661131668203971,0.4137323443726603
2.822680925142999,-0.33552886924805536,0.22336809505138522,-0.10971277215542763,0.41774372569769624
2.825167868689381,-0.33462370578565465,0.22353473384551892,-0.08887999052191908,0.4121170397160105
2.827654812235762,-0.3337208190168741,0.20933450254264763,-0.04890137992082444,0.39696582215378673
2.8301417557821438,-0.33282021335954465,0.19513261040517227,0.02458826501217004,0.38658842822896067
2.832628699328525,-0.33671029646054396,0.1809290567712969,0.08849331001920646,0.39235215463261314
2.8351156428749067,-0.3453910725555358,0.18108905097687478,0.13323694430529542,0.41211687749057424
2.837602586421288,-0.35886254578965027,0.18124738247252914,0.18276118053763035,0.44162720651617515
2.8400895299676696,-0.3723363168975393,0.18619245402674656,0.23227761168065086,0.4767125462009514
2.8425764735140513,-0.3666587765631209,0.19113586180395759,0.2578442176358866,0.48729376834366417
2.8450634170604325,-0.3561951386230847,0.1960776053254274,0.27382620508486255,0.4902062776832319
2.847550360606814,-0.36009902014537476,0.20580608746921492,0.2850119742852044,0.5032487212452658
2.8500373041531954,-0.3592168115467699,0.21553290450918716,0.30097832903071264,0.5158285618014128
2.852524247699577,-0.3535485164370029,0.23004645939623014,0.2882064434474554,0.5108628788629864
2.855011191245959,-0.34788254165820265,0.23498154183632414,0.25627312175854833,0.49184804638243607
2.85749813479234,-0.3326420840040374,0.2303381515326932,0.21475516840055953,0.45806790157879396
2.8599850783387217,-0.3269807601028858,0.24484670814669007,0.17801779134292417,0.44559697261353143
2.862472021885103,-0.33089857321512206,0.2545651948524448,0.13648418216531866,0.4392325536289433
2.8649589654314846,-0.32524191323348994,0.2594936114618198,0.0901543392989872,0.4257311844435592
2.867445908977866,-0.31958758988661895,0.2548435545024863,0.08212389126808617,0.4169242118155432
2.8699328525242476,-0.30914720285660346,0.25498023381944446,0.0836624170013689,0.40937307274806367
2.8724197960706292,-0.3130743683418852,0.26469205265310025,0.07082789895635422,0.41604571157620834
2.8749067396170105,-0.30742707257329294,0.26003699435797367,0.0675623530012821,0.40828337576833007
2.877393683163392,-0.3113589315800368,0.25059186556671076,0.10259619853149005,0.41263379323072824
2.8798806267097734,-0.31050473806512224,0.25551027958848005,0.13283380534354627,0.4234896872160177
2.882367570256155,-0.31444130124949216,0.26042702652611105,0.14869836668129288,0.43451901262245113
2.8848545138025368,-0.3279570269505554,0.24618849319792302,0.1789203025553352,0.4474115112240674
2.887341457348918,-0.3414751109419495,0.24631350298142873,0.21871120993744952,0.4744577815739796
2.8898284008952997,-0.34063034559459526,0.24164844276641295,0.2441290727207548,0.48375821065778446
2.892315344441681,-0.3445763464395749,0.2226165061189418,0.2599622949219391,0.4856658955530356
2.8948022879880626,-0.3533131156451135,0.22273651652351756,0.2805760873991563,0.5031547021544244
2.897289231534444,-0.35726384865760874,0.2228548609767671,0.26766322468714066,0.49894423382632624
2.8997761750808255,-0.36600535412391455,0.23254834643271227,0.2547425313244709,0.5029238609785381
2.902263118627207,-0.3651724240089389,0.22787495663866153,0.24660241212614054,0.49607524105327716
2.9047500621735884,-0.35955346347886796,0.2279883052601539,0.2288776588233219,0.48336564125255294
2.90723700571997,-0.3587252809406416,0.24725360267779406,0.19677986998438435,0.47805908468949937
2.9097239492663514,-0.3531110714408061,0.24257521946376404,0.15988585433435176,0.45726759374374315
2.912210892812733,-0.34749923990811293,0.2283183660692676,0.13734922743369005,0.437892462024511
2.9146978363591147,-0.33710138455238065,0.223636656301057,0.11959318511501671,0.42184502774668775
2.917184779905496,-0.32670591014616296,0.2237416873994964,0.1209829400056126,0.4140458503320717
2.9196717234518776,-0.3211012213845309,0.22384505664008003,0.11757647836252083,0.40870139713606374
2.922158666998259,-0.3154989162448847,0.20479315137244347,0.11416220655604725,0.39308117533977494
2.9246456105446406,-0.3003221893076824,0.19052798886406785,0.12510533778763744,0.37702211801710606
2.927132554091022,-0.2899362516787276,0.19062637645646463,0.14082906884683943,0.3744786670435315
2.9296194976374035,-0.2939179110677442,0.2002999115651516,0.15175659671194985,0.3867012511810989
2.932106441183785,-0.29311355518721444,0.20997178832019836,0.18182994179138667,0.4038141105220686
2.9345933847301664,-0.2875231849559438,0.21485360420681454,0.19753028483681767,0.409694845654156
2.937080328276548,-0.2819352045385489,0.2101569567449837,0.21322283998920533,0.4112388424256257
2.9395672718229293,-0.2811380180255741,0.21024705677065914,0.21933080497322877,0.413942522665016
2.942054215369311,-0.28513162611360926,0.21991230851383836,0.22543099097921804,0.42483008290368157
2.9445411589156927,-0.2939160294260325,0.21999909963757247,0.23152340274039318,0.43403838794673133
2.947028102462074,-0.2883376152322008,0.22008423776134833,0.23281964185230208,0.4310227809536528
2.9495150460084556,-0.2923384006119284,0.21059091725791568,0.23889652005318318,0.43229830232999017
2.952001989554837,-0.3011299826512551,0.21067275245634853,0.24975404262152345,0.4443414867923913
2.9544889331012185,-0.2955587484038019,0.21554134111857426,0.24145019841422588,0.4383049643838004
2.9569758766476,-0.2995667147349685,0.22519668436117346,0.21877339638917803,0.43395341016291644
2.9594628201939814,-0.31315388183799087,0.23963878333502464,0.2104540622840414,0.4469709302855706
2.961949763740363,-0.312378233234381,0.24929083258461082,0.19255018549038105,0.44362332416335143
2.9644367072867444,-0.306816575618116,0.2541528333292318,0.17942698213869335,0.43694864192797567
2.966923650833126,-0.2964689089732655,0.2590131901426207,0.1710844585740876,0.429245312870443
2.9694105943795073,-0.30048884649630725,0.273448710952894,0.16273421799604115,0.4376644492042548
2.971897537925889,-0.29972277475282333,0.28788259044094167,0.17352988037933592,0.45035846496872384
2.9743844814722706,-0.30374750016231006,0.2975264266419084,0.18431783930916446,0.46341944746930336
2.976871425018652,-0.30777461911581366,0.30238022094515893,0.1807328918629949,0.467785626534087
2.9793583685650336,-0.30701572793731613,0.30723237809421544,0.19150546517220235,0.47468382586847074
2.981845312111415,-0.3062592295247975,0.3120828995460667,0.22142396993680968,0.49012144038062666
2.9843322556577965,-0.3055051233897487,0.31693178679142875,0.23696959046363375,0.49993372030769795
2.986819199204178,-0.2999650056576191,0.30741383139374134,0.24771914111072846,0.495829649399864
2.9893061427505594,-0.30879248899012995,0.29789424487193283,0.2536726297630203,0.4984411554791849
2.991793086296941,-0.3080455561013645,0.2979498354581551,0.2452532578314326,0.49377659883825176
2.9942800298433223,-0.3073010128831995,0.2980037981368029,0.2511914534550961,0.49632380812518395
2.996766973389704,-0.31613566516357516,0.29326773124600525,0.2619104183754537,0.5045243187718512
2.9992539169360852,-0.3249727054262066,0.2885300397979087,0.24867974121664993,0.5006979696677337
3.001740860482467,-3.197277318277219,0.44659643840815955,0.41740077346102744,3.2551887863002174
3.0042278040288486,-3.2300611482241655,0.09230206067112778,0.4376736948782103,3.260885302315875
3.00671474757523,-3.186232910022913,-0.23326351642637766,0.43399700082859916,3.224103816836067
3.0092016911216115,-3.0610041992275314,-0.5061582744581536,0.41594750714542705,3.1303282951140337
3.0116886346679927,-2.8639518212917974,-0.7311706148868238,0.3883136265010112,2.9812108236890844
3.0141755782143744,-2.5998641782883953,-0.9226657457826493,0.34630696508553704,2.780383847251059
3.016662521760756,-2.2974716888312505,-1.0471248419798476,0.3138695491686594,2.544279994333913
3.0191494653071373,-1.9663511581931645,-1.1045479015219668,0.3005781952157758,2.2752824430218226
3.021636408853519,-1.6112909882672093,-1.1236653423416432,0.28727929992618506,1.9852989312990026
3.0241233523999003,-1.2418679842078078,-1.1140539690575386,0.269184470115011,1.6899149727499068
3.026610295946282,-0.8772357577514993,-1.0469833596931595,0.2702357326732123,1.3923879062120768
3.029097239492663,-0.5365479205767707,-0.9176651088409853,0.2760678880823093,1.0982742835419668
3.031584183039045,-0.21501606770294884,-0.783560054225038,0.2771041402962844,0.858478288902478
3.0340711265854265,0.09214820590778053,-0.6303029837322001,0.26855609674067615,0.6912998772242942
3.036558070131808,0.3562144821077303,-0.4483170885372836,0.24563536499135452,0.6230679751618285
3.0390450136781895,0.5628175527664127,-0.26154438302494176,0.23707237601581,0.6643586181149852
3.0415319572245707,0.7406878396917986,-0.06998486494615808,0.2332903343675543,0.7797055452529249
3.0440189007709524,0.8754601348645543,0.11199625801952129,0.22950084806800852,0.911945310208553
3.046505844317334,0.9671344402810248,0.2796105848651691,0.21133871864469356,1.0286861322797707
3.0489927878637153,1.0109223546716402,0.4376465212564007,0.18838076437248397,1.1175803313982597
3.051479731410097,1.0164006867817932,0.5765272629301323,0.19893422359300317,1.18533913556786
3.0539666749564782,0.9787810354493529,0.6818876023345659,0.2190570916277963,1.2128351194475362
3.05645361850286,0.902851806205887,0.7680927518717273,0.22480736394147272,1.206501641246057
3.0589405620492416,0.8077666145964496,0.8303543106941036,0.23055026270329293,1.181155624199219
3.061427505595623,0.6887370596167398,0.8686722813061283,0.2458626069034473,1.135516926810193
3.0639144491420045,0.5409747403139937,0.8878350695641659,0.24680239243027202,1.0685580009129623
3.0664013926883857,0.3932100790289298,0.8782658713951257,0.2381580352334005,0.9913043714488554
3.0688883362347674,0.23586627159049794,0.8447530927182894,0.2534483713228628,0.9129494852714081
3.0713752797811487,0.068943320518571,0.79208513948429,0.26394299368221574,0.8377457571064767
3.0738622233275303,-0.0740399483749497,0.7106852077140964,0.26964191535357607,0.763716008038681
3.076349166873912,-0.21702554907252597,0.6244953167020548,0.27533355283515526,0.7161725035561337
3.0788361104202933,-0.3600134789061263,0.543092275812687,0.2762295161194004,0.7077158120439685
3.081323053966675,-0.4838501218779927,0.45689928116029765,0.27711822197334435,0.7208761353490715
3.083809997513056,-0.5837470719032833,0.36591633553076575,0.28278808729706384,0.7447311668522091
3.086296941059438,-0.6692811328105261,0.2701434417408404,0.29323912580245626,0.7790403704257672
3.0887838846058195,-0.730875495099895,0.17436900595835603,0.30368294801234264,0.8104362235795541
3.091270828152201,-0.7828953658264287,0.10253504766315302,0.3045427612595404,0.8462770723984954
3.0937577716985825,-0.815763935397452,0.0306995531624894,0.3053953862875147,0.8715960089543865
3.0962447152449637,-0.8151159908541855,-0.031560667963588696,0.3014524340072917,0.8696457464263417
3.0987316587913454,-0.8048935457550566,-0.07945720942495926,0.2927139187777996,0.8601444683156461
3.1012186023377266,-0.785096597012078,-0.11299006822137958,0.2935450650455671,0.8457612709087733
3.1037055458841083,-0.74614833485224,-0.12737083800206062,0.2895806774610179,0.8104428645715254
