Time (s),Acceleration x (m/s^2),Acceleration y (m/s^2),Acceleration z (m/s^2),Absolute acceleration (m/s^2)
0.0,0.4919400551323516,-0.07546291923493298,2.996881877510086,3.0379270329900057
0.002486943546381497,0.6320414049162624,0.21875757406343177,1.772065473033459,1.8940821667646675
0.004973887092762994,0.934949087412158,0.5560738485695436,1.6533716170015302,1.9791375962832967
0.007460830639144491,1.367144354891468,0.8886018949629841,2.549821027842498,3.0265961555634058
0.009947774185525988,1.875954846324694,1.2115533337991757,4.346492407336706,4.886620950424192
0.012434717731907486,2.4278618139422212,1.4961977690244899,6.83748479412383,7.4083951744967855
0.014921661278288981,2.9701928966701305,1.7138048045772556,9.778590000217918,10.362431912634392
0.01740860482467048,3.4694293466910073,1.8595860609887822,12.882504207678695,13.470483100867757
0.019895548371051976,3.9112060294422495,1.92875315878125,15.833193178564114,16.422777706039355
0.022382491917433474,4.252427390411256,1.8973641051859202,18.4103907412501,18.99014524704525
0.02486943546381497,4.459574681696243,1.789360940626964,20.42256114393779,20.980243625738602
0.02735637901019647,4.523071171965494,1.633474108838109,21.711687457965493,22.23789069950848
0.029843322556577963,4.457282146455675,1.4249152302995978,22.201155611003422,22.68896335249015
0.032330266102959464,4.2861496970092166,1.1732611354407692,21.900542790365655,22.346843075247676
0.03481720964934096,4.00009709218982,0.9216074779207688,20.87688702307995,21.27661977064846
0.03730415319572246,3.6422200370464015,0.6938962981045671,19.235533562598043,19.589614858608662
0.03979109674210395,3.231672219986424,0.4901276197421105,17.16801892199056,17.47640707144612
0.04227804028848545,2.797184136016397,0.3390318864912161,14.865879614172968,15.130550499367928
0.04476498383486695,2.3866398933808295,0.2501859287139083,12.525440555217598,12.753246805495966
0.04725192738124844,2.0144047770371243,0.19964775351494457,10.362180274306269,10.558052181555814
0.04973887092762994,1.7139976851773366,0.20657099786627486,8.543693267237575,8.716372771204396
0.05222581447401144,1.4949954993437014,0.2901092987236933,7.194478399738946,7.353889745745047
0.05471275802039294,1.3717635043488348,0.41674385650286405,6.395938907458308,6.55465064375938
0.05719970156677443,1.3490901783131384,0.5721094848834722,6.176805589315213,6.348250220344994
0.059686645113155926,1.4173987893428266,0.74184099752744,6.537078824094114,6.729988628969792
0.062173588659537427,1.5719010088095156,0.9115732080783916,7.419298150514239,7.6385747061481775
0.06466053220591893,1.788654894747005,1.0765177368017438,8.698965460580705,8.9459586883982
0.06714747575230041,2.0437185051308706,1.2079441873419865,10.246794242740341,10.518208342726638
0.06963441929868192,2.327515107837758,1.296275776604965,11.899979161951617,12.194554584777114
0.07212136284506342,2.6256795673624764,1.346300931437032,13.51486849619982,13.83323497443846
0.07460830639144492,2.8807511182538588,1.3628080786635832,14.952598926527937,15.288433128420845
0.0770952499378264,3.107095044800612,1.3218552251666542,16.08388394034878,16.43449614257566
0.0795821934842079,3.295134614623434,1.256961217650016,16.856051477921206,17.22104337888664
0.0820691370305894,3.392197465392119,1.172914482873022,17.206852672576268,17.577215676098735
0.0845560805769709,3.4318024944723655,1.055349834290709,17.131499497193506,17.503694085996404
0.0870430241233524,3.4091613725960173,0.9186325052563964,16.644357537630256,17.014726115473724
0.0895299676697339,3.314697367101626,0.7962813423805357,15.788522799354201,16.152360038007487
0.0920169112161154,3.17235256849532,0.6835079656864342,14.683705740638313,15.038025742618284
0.09450385476249688,2.9869154539257727,0.5898892051331899,13.435251609467016,13.77590719382645
0.09699079830887838,2.7727513071044125,0.5297902939745085,12.138928846848142,12.462841614795591
0.09947774185525989,2.553802218303844,0.47926923887540807,10.909659506726937,11.214823909730518
0.10196468540164137,2.3444334710749795,0.47184488631792476,9.84800043273578,10.134205366983895
0.10445162894802287,2.139856735604802,0.5027288561943624,9.035354854865826,9.298890283529062
0.10693857249440437,1.9783793118788282,0.5479791550880206,8.510030372857457,8.754135183045642
0.10942551604078588,1.8887316931560696,0.6171726127961121,8.30075777943446,8.535267374579396
0.11191245958716736,1.8326067261236896,0.6959440424855063,8.417114253655416,8.642372236949415
0.11439940313354886,1.8052160806219675,0.789081870575028,8.83036974762452,9.047479492984145
0.11688634667993036,1.8352902496427124,0.8917977168130655,9.45912177652266,9.67670286054252
0.11937329022631185,1.9132524995229938,0.9562075710348854,10.255486678365145,10.476157456623127
0.12186023377269335,2.024737693185754,1.0206186828105506,11.13327356418912,11.361822278005471
0.12434717731907485,2.164957500099163,1.0706658651553551,12.020656754569083,12.260895366294088
0.12683412086545634,2.3147583796734876,1.0776187210918227,12.81708014972622,13.068929260992352
0.12932106441183785,2.4597751945407764,1.065419290133567,13.474660085965915,13.738707242815453
0.13180800795821934,2.595219613873595,1.0532212084410468,13.926359285865125,14.205207591483695
0.13429495150460083,2.7019380967819187,1.0075056756179377,14.148236101428747,14.439117768998754
0.13678189505098234,2.7895075221943935,0.9330611177965689,14.13550249748021,14.43829581779623
0.13926883859736383,2.838774349013022,0.8729831876374268,13.883370438372472,14.197489714015875
0.14175578214374532,2.849738649314757,0.8033298912817808,13.425359114542756,13.747967727561093
0.14424272569012683,2.8271888983890165,0.7288896547574388,12.84287174914547,13.170559288085883
0.14672966923650832,2.751971554814271,0.678392920657942,12.15506232167731,12.481149964533119
0.14921661278288983,2.6671823202221354,0.6374745016576959,11.40502682773519,11.730084066660762
0.15170355632927132,2.5632444596083483,0.6061344203552317,10.688533698930478,11.008286593672274
0.1541904998756528,2.430581237854689,0.5891611026320884,10.077409349756344,10.383112017175895
0.15667744342203432,2.2979231462899516,0.5769777643710801,9.590807757658247,9.879116740437444
0.1591643869684158,2.189212272805639,0.5839496380183056,9.247882899549836,9.521396204282796
0.1616513305147973,2.080506671971622,0.6052883426998563,9.091730768406881,9.346360273128955
0.1641382740611788,1.9861716248002774,0.6409939008228931,9.107986516814451,9.34404458971209
0.1666252176075603,1.9205724121824879,0.6910663347548547,9.267920086842192,9.49002180216468
0.1691121611539418,1.883709104925206,0.731563650221418,9.557166629958699,9.76846862917108
0.1715991047003233,1.8851585803515372,0.7720626761497686,9.942207683781854,10.148763337295215
0.1740860482467048,1.900978892416446,0.8125634347853123,10.384736382032317,10.588518773146157
0.1765729917930863,1.9359585148693417,0.8387007383708898,10.84644585784642,11.04973945607012
0.1790599353394678,2.004462727971342,0.8504746090681761,11.260298823846801,11.468893036855023
0.18154687888584928,2.0825495852907205,0.8622502789572153,11.621507235221166,11.838070735430426
0.1840338224322308,2.151065543584214,0.8596625601531369,11.886975819988134,12.110586147462346
0.18652076597861228,2.2291642860377854,0.8474998780088168,12.013609305552587,12.248029964195506
0.18900770952499377,2.297692269140166,0.8257622545128458,12.00619645190141,12.251939695668382
0.19149465307137528,2.35664956252517,0.8040265182500088,11.879102825033744,12.137270687033556
0.19398159661775677,2.4012478323686812,0.7679274811586339,11.641905586992792,11.911745021835713
0.19646854016413826,2.4314871480278613,0.722253568412945,11.323335512460144,11.603952218785242
0.19895548371051977,2.437790772078779,0.6909468184226077,10.952123375467362,11.24140728671368
0.20144242725690126,2.415370370275927,0.6740072529494598,10.537846336107547,10.83210529888122
0.20392937080328274,2.3785912215117433,0.6714348937086199,10.114023570410994,10.411627816934843
0.20641631434966426,2.3226649912527026,0.6497109391258507,9.757269883619346,10.050930929411255
0.20890325789604575,2.2571685547801064,0.6423542340636685,9.462797223850371,9.749459479705424
0.21139020144242726,2.1868903839074347,0.6445763967740237,9.249759555137787,9.526595410238002
0.21387714498880875,2.1309841602602035,0.656377448780666,9.122945630861727,9.391488797321049
0.21636408853519024,2.0559311287902107,0.6825458148787016,9.096721010343288,9.351099119128083
0.21885103208157175,1.9952501807819618,0.6991394998919669,9.171086042236,9.411622523152722
0.22133797562795324,1.9585181907653681,0.7205237351569602,9.298157041276696,9.529463380522891
0.22382491917433472,1.9170048065534395,0.7514869453192823,9.492299564645776,9.713052613998789
0.22631186272071624,1.8898637090065498,0.7680871350519538,9.729571942233756,9.941132373364447
0.22879880626709773,1.8770949655467084,0.7894779388596629,9.957302083275028,10.163396366531225
0.2312857498134792,1.8739102401171495,0.7917173613127186,10.180278736106658,10.381542809864305
0.23377269335986073,1.8898864064622414,0.7891706334919288,10.364983421755348,10.565384150676207
0.23625963690624222,1.925023531524588,0.7914145831053614,10.487474467133756,10.69201446585524
0.2387465804526237,1.9601680688030783,0.7936608278472936,10.547752214994723,10.757659278697227
0.24123352399900522,1.995320084914062,0.7815441787181034,10.531451797362049,10.747259674201137
0.2437204675453867,2.02569124298847,0.7646414632660374,10.452938765406618,10.674831633923143
0.24620741109176822,2.046493205990824,0.747741105664917,10.307425056236626,10.535191621095565
0.2486943546381497,2.0720912499991773,0.7260547233934069,10.1188530260941,10.354318141402588
0.2511812981845312,2.1024854409616376,0.6995823371955459,9.901588223785772,10.146492489002528
0.2536682417309127,2.118522231374761,0.6731123710803286,9.660419390676555,9.912866362091748
0.2561551852772942,2.1058364768838365,0.6418564423603659,9.404923670643935,9.65914676410979
0.2586421288236757,2.0883702595237907,0.6297565882139728,9.168620223352725,9.424514868221863
0.26112907237005717,2.0661236445538633,0.6176592158800764,8.956297787725168,9.212254875108313
0.2636160159164387,2.0390966970579067,0.5959875391812552,8.806263925098557,9.058885185568037
0.2661029594628202,2.0120778852634373,0.5838951918045825,8.71373056609384,8.962058434860642
0.26858990300920166,1.9707020639388273,0.5861705974184206,8.673909640492056,8.914256617660927
0.2710768465555832,1.9197577009545674,0.5932369696720268,8.686801480548308,8.91616059158965
0.2735637901019647,1.883186877282021,0.6003059254764078,8.752406417665158,8.972813277836307
0.27605073364834615,1.851412850468769,0.5978006783633036,8.8563595724254,9.067535501448205
0.27853767719472766,1.8244356845201999,0.6096632650472964,8.98429606454675,9.187917644337539
0.2810246207411092,1.8070438465779795,0.6215284956207392,9.09312059295379,9.291746189620346
0.28351156428749064,1.7896605936375967,0.6286079867564989,9.182833485576461,9.376697919057523
0.28599850783387215,1.786651199109661,0.6309017583872587,9.267800279422026,9.459507468957943
0.28848545138025367,1.7932273229358988,0.6284098303848284,9.31929088072525,9.511032839088346
0.2909723949266352,1.7950238182285942,0.6307090292003927,9.3420940180673,9.533867265172706
0.29345933847301664,1.8016175545115964,0.6425877779031961,9.350575225768129,9.544213006727354
0.29594628201939815,1.8130085944769578,0.6401040795786159,9.311216004036744,9.507653594350737
0.29843322556577967,1.8339854039447105,0.6328347604918478,9.224016675410521,9.42584032987088
0.30092016911216113,1.85975964190077,0.6255682435250431,9.10334277146801,9.312405230003083
0.30340711265854264,1.8711777571754735,0.618304548176942,8.958771419541792,9.172959830983856
0.30589405620492416,1.8826050216455619,0.6206205005234489,8.7998797460329,9.020379981898497
0.3083809997513056,1.8940414970299175,0.613362506654773,8.636244876405,8.86274970436787
0.31086794329768713,1.8911220348884399,0.6156841991594442,8.496597548459789,8.726258045945473
0.31335488684406865,1.8834235031834197,0.6132203873192743,8.385726482448472,8.616480254384927
0.3158418303904501,1.8661575597159308,0.6011826869918133,8.289266784386298,8.517975609471629
0.3183287739368316,1.8536894753669075,0.5987247305709376,8.21200717260935,8.439887308315834
0.32081571748321314,1.831654100892926,0.605846537103689,8.15873636448765,8.38373340684516
0.3233026610295946,1.8096283034485483,0.6081829156102436,8.134243076419526,8.355270880214551
0.3257896045759761,1.7924005466633604,0.6105222883257593,8.143316023825976,8.360564158483717
0.3282765481223576,1.756028874039337,0.6128646740984696,8.17159030786391,8.38058044975365
0.3307634916687391,1.7340321687153977,0.624786898350286,8.214277835342438,8.418526390449106
0.3332504352151206,1.7168336837397793,0.6271353665139647,8.257013705436176,8.456896120759492
0.3357373787615021,1.6900682686314865,0.6342753071968334,8.290221419640691,8.48448036738986
0.3382243223078836,1.6728895959417445,0.6462067389773396,8.333054898368655,8.523845768720577
0.3407112658542651,1.6700861280498347,0.6485644704047191,8.356784027819453,8.546675542864264
0.3431982094006466,1.6672927138417526,0.650925326561173,8.356620709778529,8.546149920372798
0.34568515294702806,1.6597210086310548,0.6485009224990448,8.332565248330805,8.520966546740082
0.3481720964934096,1.6521594741578456,0.6412912765217513,8.284617946535096,8.472058778682065
0.3506590400397911,1.654184975267456,0.6388732135037776,8.217567509739185,8.40671771219031
0.3531459835861726,1.6562207633078807,0.6316699449684862,8.140991045574596,8.331735073819521
0.35563292713255407,1.663055299370971,0.6196814890096829,8.050100450670193,8.243414058657224
0.3581198706789356,1.6555350277289564,0.6124846702913045,7.9544728305689105,8.14797960918155
0.3606068142253171,1.667178828958462,0.6052911034455519,7.849320079800755,8.04721618218381
0.36309375777169856,1.6884099535332844,0.5885239997132095,7.749007705119984,7.952622780154833
0.36558070131808007,1.68570963510469,0.5717601835449044,7.663112808898445,7.867135730574089
0.3680676448644616,1.668654736984827,0.5549996726789366,7.582058879159714,7.783318708300482
0.37055458841084304,1.6611873322239035,0.5478192914222264,7.520211419456911,7.720960375634992
0.37304153195722456,1.6537306704061288,0.5358538474078411,7.472782318984969,7.672316473071093
0.3755284755036061,1.6414964042112816,0.5238917614775107,7.46371388577892,7.660025978516759
0.37801541904998753,1.629272992734097,0.5262982610407145,7.464275990263689,7.6581287794900765
0.38050236259636905,1.6266372981630415,0.5191313468712724,7.450526905093063,7.6436769567136436
0.38298930614275056,1.6240125691778395,0.5119678429117491,7.4320437250667934,7.624618143115629
0.385476249689132,1.6022452475892053,0.5000193630700487,7.442345560485227,7.629267110184394
0.38796319323551354,1.5757005982207555,0.4976511344613237,7.462279084019631,7.643042467150156
0.39045013678189505,1.5587438856659452,0.49528636752488664,7.46790256391062,7.644904171473948
0.3929370803282765,1.5465867610059374,0.4929250792661244,7.4496394772448316,7.624436640435344
0.395424023874658,1.5440176817306104,0.4953556899359157,7.436220526551862,7.610962066687753
0.39791096742103954,1.536671491815826,0.48821300642880394,7.41806918667475,7.591275365292654
0.400397910967421,1.5245482449647612,0.4906506588061641,7.38082052800763,7.552582146979329
0.4028848545138025,1.522013204607065,0.4883034538115756,7.324474829772524,7.496859074970919
0.40537179806018403,1.5147012140152134,0.4907482147143054,7.263397580014901,7.435865651244027
0.4078587416065655,1.5121891328271149,0.4931965547465529,7.207165862318021,7.380596085819665
0.410345685152947,1.5049002071624784,0.48128328042350965,7.131837935876714,7.304756708689422
0.4128326286993285,1.49762289286419,0.48373882806654356,7.046990881977416,7.220592640059605
0.41531957224571003,1.495145645536571,0.47662119739670117,6.976566990712644,7.1508821304141295
0.4178065157920915,1.4926801139039552,0.4742956146204005,6.920566534414242,7.095582527865265
0.420293459338473,1.4950147530911493,0.4719736925854361,6.864624574289806,7.041370521737684
0.4227804028848545,1.4973612113414065,0.47444385070261497,6.81352978366068,6.992236815034977
0.425267346431236,1.4949311366562752,0.4817061049845779,6.77207083467658,6.951820140423728
0.4277542899776175,1.4877245801151513,0.49376047136588297,6.730671188350582,6.910792897711152
0.430241233523999,1.470953189233895,0.5058185623824567,6.718061531078463,6.895789036674797
0.43272817707038047,1.4685590312062695,0.5083035871713659,6.719876918189377,6.897230165833466
0.435215120616762,1.4613885430985147,0.5203691747127737,6.697810387223143,6.875107601709597
0.4377020641631435,1.4302881617314251,0.5276501306656582,6.699746234293463,6.871007094299204
0.44018900770952496,1.4087767602030679,0.5301464705707133,6.692165897873079,6.859357961573534
0.4426759512559065,1.406431194763059,0.5374350165298183,6.66549283183679,6.833423724156339
0.445162894802288,1.4040979014915513,0.5303621706433197,6.638880908777928,6.80643186037725
0.44764983834866945,1.3874117195407172,0.5328699648145063,6.62669559676236,6.791314763068341
0.45013678189505096,1.3659495044153105,0.5305932043040857,6.6145719427232,6.774947171936256
0.4526237254414325,1.3588649180110406,0.5331087108940409,6.573779782417998,6.733891845787239
0.45511066898781394,1.351792798731089,0.5308396930046095,6.537838193550076,6.6971981302192765
0.45759761253419545,1.3399447913682514,0.5189977622956445,6.497170622718009,6.654174390703382
0.46008455608057697,1.3376861537449034,0.521524950267978,6.442200515294834,6.600253025372427
0.4625714996269584,1.3354401268295382,0.5288444650991577,6.377716525385421,6.537457065158194
0.46505844317333994,1.3284183546579964,0.5170143049245093,6.313295709182325,6.472225415424651
0.46754538671972146,1.3261976909734574,0.5051880976806893,6.258515121641974,6.417400319241649
0.4700323302661029,1.3144129726633138,0.4981542612617482,6.208586606520294,6.3657196593458325
0.47251927381248443,1.3217946662429236,0.4959128101595671,6.163510409650534,6.323126696884944
0.47500621735886595,1.3244008014487498,0.47931014550273954,6.118498372299285,6.278518776772827
0.4774931609052474,1.3078662144018245,0.47707670154076354,6.078339141124049,6.23572954259944
0.4799801044516289,1.3104981774899582,0.46527047591730364,6.043032958209027,6.200978102119484
0.48246704799801043,1.308354719679659,0.4534682894356403,6.007791661061852,6.16530503744592
0.48495399154439195,1.3014358862811768,0.45124696281630783,5.9821922958916165,6.138728195039786
0.4874409350907734,1.2993185289869942,0.4490297034156736,5.9710235043244415,6.127232491387399
0.4899278786371549,1.29242588594939,0.44202812182733586,5.950343506798759,6.105107810682823
0.49241482218353644,1.290334808342386,0.4302422318819552,5.929729345726285,6.083729317555329
0.4949017657299179,1.2738917271580754,0.41367204732678386,5.913969658926424,6.063741569523197
0.4973887092762994,1.2574618963701476,0.40668279178644307,5.893487872982641,6.039851043109547
0.4998756528226809,1.2506221663708574,0.41406288216120357,5.868284219840999,6.014338164606033
0.5023625963690624,1.2533725806501885,0.3975051053846457,5.8144169135650445,5.961241244865353
0.5048495399154439,1.2465595691547176,0.38573989479069315,5.760616603457875,5.906556499172668
0.5073364834618254,1.2349715781699175,0.3883440703478449,5.721248727574887,5.865888928256236
0.5098234270082069,1.2233970537180996,0.3813756286980854,5.686736706080309,5.829332902270388
0.5123103705545884,1.211836038237609,0.3744113896411232,5.64750395784597,5.788180320804658
0.5147973141009698,1.2002885739026565,0.36745136625143315,5.613127513729769,5.751774826311567
0.5172842576473514,1.1983315092634688,0.3604955715187441,5.569242386690149,5.708100929808834
0.5197712011937329,1.191599676003634,0.35833242166821977,5.511060395025597,5.649787481834185
0.5222581447401143,1.1896699221427736,0.36096192951969774,5.4721005822938515,5.611549948183165
0.5247450882864959,1.1781770788329649,0.3492304945266249,5.447574764184299,5.584454671565731
0.5272320318328774,1.1666979935614252,0.36144535590093163,5.42311794843729,5.558959905966699
0.5297189753792588,1.1695979168688266,0.3832413162457202,5.38915354480251,5.52791182301953
0.5322059189256404,1.167723275786372,0.3906763714379555,5.345681768356814,5.485664886279111
0.5346928624720219,1.161074110358813,0.39332734051115903,5.297491236181445,5.437482219185485
0.5371798060184033,1.1544388636831049,0.40555944573341707,5.263735774000241,5.404083812497309
0.5396667495647849,1.1526059785876912,0.41779589268539485,5.220473576333493,5.362499259768442
0.5421536931111663,1.145998687671173,0.42524829018209775,5.201223676222166,5.342927739595668
0.5446406366575478,1.1298286265831723,0.43749345691339236,5.186832668858388,5.326457207659279
0.5471275802039294,1.1280378506255189,0.4401661948813982,5.177300761387893,5.317015971898887
0.5496145237503108,1.1214727849471897,0.4380549192831995,5.148686143024938,5.2875856795954075
0.5521014672966923,1.1053450643876999,0.4407364485498051,5.110565824893882,5.247277330103664
0.5545884108430739,1.1035967434376834,0.44342239106480363,5.072516816784826,5.210084072794675
0.5570753543894553,1.1018626497541755,0.44132435512520596,5.03932772383118,5.177228253952448
0.5595622979358368,1.0857776107227735,0.4344423522616654,4.991845133226334,5.127004097082519
0.5620492414822184,1.084072083340121,0.42756479723839025,4.9444344540653615,5.079907086577817
0.5645361850285998,1.072804087807334,0.44463371801399365,4.916249497421129,5.051545988596419
0.5670231285749813,1.0615504672953118,0.43776509265547014,4.897713653100134,5.030519525727537
0.5695100721213628,1.0646764680225562,0.4261125456271788,4.8888271162030925,5.021527502187408
0.5719970156677443,1.0678169160126858,0.4240412979860744,4.851282853919886,4.985477842419685
0.5744839592141259,1.051818233695705,0.42197455410038254,4.818599881894917,4.9500796905545545
0.5769709027605073,1.045410876431161,0.41033551825109216,4.785989987858079,4.915990164959317
0.5794578463068888,1.0438064760625552,0.40827781455375467,4.753453361505794,4.883804008489453
0.5819447898532704,1.0326398575186397,0.4014362437943588,4.716201787858634,4.844590327052311
0.5844317333996518,1.0310646686959681,0.3945992199526991,4.669447050579926,4.79818076499729
0.5869186769460333,1.0199273306539594,0.39734356024137973,4.641919755216268,4.769229778333946
0.5894056204924149,1.01359308741934,0.3857272585432505,4.624043279391188,4.749519208775808
0.5918925640387963,1.0120619727827838,0.37890393853635107,4.596664192725433,4.721986799227153
0.5943795075851778,0.9961804069783712,0.37687361052979185,4.554994273436956,4.677860830829069
0.5968664511315593,0.9946788431677432,0.3796362847449526,4.513398911659716,4.637270689264493
0.5993533946779408,0.9931921043539514,0.3776151646748076,4.48145509284061,4.60569902597754
0.6018403382243223,0.9821434165843782,0.36602185704481816,4.435220977816157,4.557385523810233
0.6043272817707038,0.9711096189114753,0.34485637181288675,4.389061952615763,4.508419305368749
0.6068142253170853,0.960090743470701,0.3284839288099408,4.352554998577535,4.469274095737116
0.6093011688634667,0.944298418800649,0.31690453781801375,4.3209118857063,4.4342313329231065
0.6117881124098483,0.9476746930850649,0.3005414018905257,4.289344382633251,4.403054359304643
0.6142750559562298,0.9462775810276781,0.29854814391474394,4.257852659934976,4.3719425348814775
0.6167619995026112,0.9305303070161067,0.30134796676800546,4.22643688681191,4.338140846901475
0.6192489430489928,0.9243749184029547,0.2897872665989376,4.190308827766824,4.300829422531883
0.6217358865953743,0.932599848982231,0.2734428593899292,4.163833859205247,4.275748575715962
0.6242228301417557,0.9264747090282762,0.28104517431648324,4.132646936231169,4.244539135879947
0.6267097736881373,0.9155763351003195,0.2934406072628186,4.120690239130373,4.231368036728882
0.6291967172345188,0.9046931601595466,0.2962639573452881,4.0896567036428015,4.1989920219157195
0.6316836607809002,0.9034020202096117,0.28951523355298825,4.0539117006490315,4.163430599546145
0.6341706043272818,0.9164913476559065,0.2923480580680611,4.032609002966169,4.145764000541771
0.6366575478736632,0.9104423480632737,0.2999740363828671,4.006595155464103,4.1196716412159855
0.6391444914200447,0.9091970665621676,0.3076047739015375,3.990235524869261,4.10405160136918
0.6416314349664263,0.9079671280829447,0.305663472619655,3.950011443318431,4.064532552031002
0.6441183785128077,0.8923873506370379,0.30851535104612404,3.905076678084492,4.017606347954901
0.6466053220591892,0.886399778520014,0.3257372242812959,3.8841618016927884,3.997314374473464
0.6490922656055708,0.8804276325068234,0.3238102774544691,3.853748142115683,3.966280455883924
0.6515792091519522,0.8792593430548716,0.3266765354504573,3.823412655818683,3.9367878896173303
0.6540661526983337,0.8733181303820978,0.32954760314396836,3.7931554912363152,3.906317288737338
0.6565530962447153,0.8578156177481867,0.3372118919621161,3.7581883920917685,3.869565800524225
0.6590400397910967,0.8471170414154742,0.3448810066031758,3.7232999073572106,3.8339943128150753
0.6615269833374782,0.8507992340473605,0.3381897450365994,3.6980669879328776,3.809715355186322
0.6640139268838597,0.8449202047864182,0.33629172838584287,3.6777013733652666,3.7884653450559407
0.6665008704302412,0.8294799790981336,0.3439753677252608,3.647837995166924,3.7567376975655105
0.6689878139766227,0.8236321954505931,0.3420870574395032,3.613265396737831,3.721703961294259
0.6714747575230042,0.8130116687910479,0.33541520842666106,3.5979257333649555,3.7038575726455867
0.6739617010693857,0.7976184237490519,0.3383250381373557,3.5778771257374506,3.681285605357162
0.6764486446157671,0.7966060979567945,0.33645134401226917,3.5531197097509635,3.6568347589151995
0.6789355881621487,0.7860326988850649,0.3297941333649832,3.523653619905721,3.6252925960801
0.6814225317085302,0.7706866536479736,0.3279302200617016,3.475113779345265,3.5746205290542603
0.6839094752549116,0.7601447924014312,0.3212828045994107,3.43623073969992,3.533938941521902
0.6863964188012932,0.7544071383822567,0.3050634907074783,3.411793034602189,3.507495627191109
0.6888833623476747,0.7534737145488596,0.31279110858988224,3.3826471796865194,3.479635449062173
0.6913703058940561,0.7525561402609889,0.3253120518393122,3.363158512432891,3.4616475636705477
0.6938572494404377,0.7420776312798026,0.3091075039997171,3.3437503523229086,3.4390250185967464
0.6963441929868192,0.731615016369508,0.3072731016522865,3.310057614120944,3.4038446938684506
0.6988311365332006,0.7403219306568182,0.3006552381264407,3.2620804211553125,3.358517352539529
0.7013180800795822,0.7346795724669816,0.2892539199451907,3.238126121919784,3.3329990527846216
0.7038050236259636,0.7194763664098164,0.2874343635048837,3.2094644170266875,3.301655130280294
0.7062919671723452,0.7138659467782521,0.27604296187212984,3.166518618972561,3.2577053996745384
0.7087789107187267,0.7082715276656281,0.2598681246276153,3.138019265419455,3.2274362750088397
0.7112658542651081,0.707481532848624,0.2436982612645937,3.1096012627497114,3.198365047201433
0.7137527978114897,0.7114959825061365,0.23711018450926913,3.081264725909832,3.1712205984220936
0.7162397413578712,0.7107380898990973,0.2305270937192958,3.0530097684496944,3.143113109581222
0.7187266849042526,0.7052078746518639,0.21437218816509374,3.0248365025227466,3.113343772943125
0.7212136284506342,0.6996937594320519,0.20301068363148334,2.996745038886221,3.0840339691296945
0.7237005719970157,0.6989841666303741,0.20601939249588064,2.968735486901391,3.0568633018949294
0.7261875155433971,0.6935023083998647,0.19945630380650003,2.940807954533854,3.0280488262796696
0.7286744590897787,0.6880366065779185,0.20247503640742748,2.9129625483538497,2.99995688643547
0.7311614026361601,0.6873754827255255,0.2007103858137036,2.880410970216297,2.9680864324625094
0.7336483461825416,-0.6779643948022354,-1.194474605476098,-20.011895723949763,20.058972450501688
0.7361352897289232,-0.4343845464028715,-0.5162759282531935,-20.446508408320398,20.457637616786645
0.7386222332753046,-0.10459721052323179,0.2002350115654008,-19.387056718231268,19.388372877377357
0.7411091768216861,0.26830200009084015,0.8784437659841502,-16.981981057012586,17.00680246354333
0.7435961203680677,0.6460058757383312,1.465677903522546,-13.470701492473296,13.565593758021983
0.7460830639144491,1.0045724164038883,1.9188417992543116,-9.126156917057498,9.379651361597695
0.7485700074608306,1.310482815156623,2.194839828167042,-4.2739586611232205,4.980101376188977
0.7510569510072121,1.5206414581501762,2.288883591724607,0.7315515236577825,2.8436782821685815
0.7535438945535936,1.6446251677870922,2.191396287984529,5.5551854975047785,6.194117818156069
0.7560308380999751,1.658491942953418,1.9263199381605673,9.904850749130091,10.225818910558669
0.7585177816463566,1.571818605503323,1.5175965633806325,13.545915605700733,13.72098912814079
0.7610047251927381,1.4229123969390396,1.0226870079290808,16.272478812917264,16.366555383537214
0.7634916687391196,1.2069849286064325,0.45595648612182016,17.969618778178614,18.01587932819792
0.7659786122855011,0.9384014248593266,-0.09640373800608204,18.60381676394225,18.627718300994843
0.7684655558318826,0.6698343363410266,-0.5769328204268487,18.165496047881245,18.186994699042945
0.770952499378264,0.4156488868595942,-0.9712655470808165,16.75042477933045,16.78370790523064
0.7734394429246456,0.19499870327094615,-1.245883090712259,14.507043542763952,14.561749947092533
0.7759263864710271,0.03661421879945537,-1.367266624150518,11.626888551155343,11.707061800619378
0.7784133300174085,-0.06908136016487743,-1.3402045468723873,8.325438032697441,8.432902163434882
0.7809002735637901,-0.1077228109020596,-1.1790620650801142,4.837323827482924,4.980109774817587
0.7833872171101716,-0.07452171760398496,-0.8934159817403353,1.4115429841850373,1.6721839608804097
0.785874160656553,0.016156721985255418,-0.5119967131855188,-1.760368289746042,1.8333843540080428
0.7883611042029346,0.1451589065306329,-0.09705349907476979,-4.486873788238418,4.490270245921597
0.790848047749316,0.3124848477080694,0.34183685737191905,-6.62432133980048,6.640491881633549
0.7933349912956975,0.49419254032195925,0.7472135196472394,-8.072154404199473,8.121713552944996
0.7958219348420791,0.6519747689461318,1.0855576677613885,-8.782488879100963,8.873309273372026
0.7983088783884605,0.7906199477679476,1.3233504816406407,-8.760113100067649,8.894712919765537
0.800795821934842,0.8909744741042747,1.4558035610493612,-8.052911033917521,8.231802696983204
0.8032827654812236,0.9578267616049698,1.4877053123088952,-6.751862278722618,6.979852679846199
0.805769709027605,0.9720232070501168,1.3807485117742746,-4.952734837245249,5.232674071244414
0.8082566525739865,0.9431406268738337,1.1876055988031076,-2.794392343499191,3.179394575980678
0.8107435961203681,0.8711790306021467,0.913064979466661,-0.44921725610773056,1.3395658637313466
0.8132305396667495,0.7800804440955584,0.5810686730343817,1.9247731749008263,2.1565987287532344
0.815717483213131,0.6698448763463098,0.2299239086537357,4.131254471571106,4.1915177049625205
0.8182044267595125,0.5500491427209606,-0.10206208461058086,6.074458624311146,6.100165432755999
0.820691370305894,0.42069325167953775,-0.39573569105773476,7.649040815526661,7.670815794084643
0.8231783138522755,0.31529603465875056,-0.6271548917490457,8.744867822942826,8.772995388603432
0.825665257398657,0.24822270954896475,-0.7819544744687621,9.347574489332345,9.383507667567304
0.8281522009450385,0.21468488069461722,-0.8361924204426558,9.447584059431044,9.486946396076041
0.8306391444914201,0.1907405388946387,-0.7946571309003596,9.07362700318159,9.110355037084709
0.8331260880378015,0.20990851452787396,-0.6765022171142918,8.25443378917274,8.284768796657424
0.835613031584183,0.2530352011863377,-0.48651608047756567,7.085772531125008,7.10696117003944
0.8380999751305646,0.29617858887876947,-0.24864073574605028,5.658622938087886,5.671821358914342
0.840586918676946,0.3584922972341934,0.02275860888363601,4.044811104480758,4.060730421043167
0.8430738622233275,0.4447647356586456,0.28458632521191385,2.368835559898635,2.4269707366227977
0.845560805769709,0.5214770867340385,0.5368424148409838,0.7695600425520066,1.0734806889057507
0.8480477493160905,0.5790525493826841,0.7507964593703265,-0.690766163817365,1.1730963606731388
0.850534692862472,0.6270679355474728,0.8833528303578952,-1.9259517602086706,2.2097096192359644
0.8530216364088535,0.6559464436298147,0.9536651424451952,-2.845017045640879,3.0714597394093857
0.855508579955235,0.65611127177138,0.9569449935918879,-3.4288083702760934,3.6198000720732404
0.8579955235016165,0.6323508278155163,0.8884039816775191,-3.658172085613181,3.8172440597974515
0.860482467047998,0.6086071326280458,0.7528305111423177,-3.53789656108718,3.6679515396669338
0.8629694105943795,0.5705149802540153,0.5741665996280427,-3.1110773940285465,3.2146472867887264
0.8654563541407609,0.5037091644806777,0.37156586137652514,-2.411233376457857,2.4911504385457452
0.8679432976871425,0.4417085120411325,0.15460510390960946,-1.5006137216464959,1.5718939815898016
0.870430241233524,0.3845130261695232,-0.0575620586893999,-0.45104445083354694,0.5954869893812478
0.8729171847799054,0.3321227098437176,-0.2314168024553247,0.6417063968157555,0.7587136024659377
0.875404128326287,0.28932596910615904,-0.3621707234236453,1.7153896040553889,1.776918299474044
0.8778910718726685,0.2513344031034489,-0.44024701438814984,2.731697968919997,2.7783376701298717
0.8803780154190499,0.22293641736811187,-0.4608572715413921,3.604440254922727,3.6406152807223284
0.8828649589654315,0.22807403045976804,-0.41921309115415006,4.2713672408615615,4.297945495870147
0.885351902511813,0.24280522748128897,-0.33446808617680857,4.698960124142031,4.717101814402558
0.8878388460581944,0.25755320324340514,-0.21619906299697123,4.901584134060581,4.9131052004426
0.890325789604576,0.2771063622652542,-0.059617618118950944,4.860085675361466,4.868344171096758
0.8928127331509574,0.32061831877493197,0.1017574253129947,4.579253168082747,4.591591255473016
0.8952996766973389,0.3545702502256771,0.2583492606789308,4.11654746748038,4.139858385845775
0.8977866202437205,0.3789621570620577,0.41015788792251007,3.5054874109055394,3.5496878450826355
0.9002735637901019,0.39858244279866306,0.5188760803480528,2.774803431088131,2.8509006351753423
0.9027605073364834,0.4134311073800518,0.5892922410660661,1.991533186021961,2.117639028955819
0.905247450882865,0.42350815050164037,0.6357715797512671,1.1987723158030015,1.421485040475781
0.9077343944292464,0.4144483616493482,0.6247952727990378,0.4539816691942935,0.8764906921070468
0.9102213379756279,0.40061694998299574,0.5707285297318898,-0.19974311629351682,0.7253428897909238
0.9127082815220094,0.3724371078134556,0.4879365599965402,-0.7528252276811358,0.9713584864975766
0.9151952250683909,0.3490624471266899,0.37163095968289417,-1.147803820072589,1.2559489526099898
0.9176821686147724,0.32570456306091156,0.24575374472738654,-1.3703136797389295,1.4297684939618296
0.9201691121611539,0.2975750505087471,0.11030491438972234,-1.4395084174750572,1.4740768530864836
0.9226560557075354,0.27903911739909826,-0.005985112223440225,-1.3458112254330885,1.3744477091213423
0.9251429992539169,0.25094314817432406,-0.10311633600199244,-1.0987989103229703,1.1317970170013099
0.9276299428002984,0.2276523502752228,-0.17630035459001991,-0.7463555066911685,0.7999712182213997
0.9301168863466799,0.22353193089947287,-0.2111719590652381,-0.30763463043371786,0.43497032803305963
0.9326038298930613,0.21942827376007212,-0.22688476382159362,0.1838448913237105,0.36527305874582705
0.9350907734394429,0.22491818225002858,-0.2042851567643411,0.7041410368297036,0.7668997416406518
0.9375777169858244,0.23521324956018574,-0.13379633251296008,1.2197349764288568,1.2493919097250807
0.9400646605322058,0.24552506864080148,-0.05851392228371477,1.6731658626033923,1.69209646362536
0.9425516040785874,0.2702188454834368,0.04071568579804641,2.0309148631788947,2.0492172098158252
0.9450385476249689,0.28056415595754614,0.14952728029188922,2.297770371288088,2.3196601760449864
0.9475254911713503,0.3005030122173715,0.2344020364034316,2.4689439721703685,2.4981854840540136
0.9500124347177319,0.3204586029369898,0.3240703724299472,2.515705233213783,2.556655655911141
0.9524993782641133,0.31648890659220685,0.38501346343241183,2.4524193504420104,2.502550951617682
0.9549863218104948,0.3125359346252887,0.41723130764200134,2.2886631153142307,2.3472834362105903
0.9574732653568764,0.313388084961261,0.4350891131791106,2.0340133180481317,2.1035029845949453
0.9599602089032578,0.3094685453288879,0.41464486153011215,1.712411957583825,1.7888699936600678
0.9624471524496394,0.2864120999019749,0.370263760672608,1.323859015024098,1.4041829777839696
0.9649340959960209,0.26816075918286764,0.3115226151928696,0.925815310082827,1.0129612632899136
0.9674210395424023,0.25471451683906343,0.22405621300480316,0.5278576280407901,0.6274666103909118
0.9699079830887839,0.2364965596648434,0.1365949718345547,0.1491395595924132,0.3111774691381248
0.9723949266351654,0.22308368750384355,0.05392729273644381,-0.15287807922913643,0.2757647396622432
0.9748818701815468,0.2001106833669274,-0.028735229945943352,-0.3973489267368002,0.4458207808262329
0.9773688137279284,0.18673115327664336,-0.10181579197788926,-0.5794846058598573,0.6172822592045427
0.9798557572743098,0.18773349306480014,-0.1509491858739449,-0.6897083374222035,0.7305662953107118
0.9823427008206913,0.1791756784122367,-0.17613541417893064,-0.6992897301783625,0.7430570197470687
0.9848296443670729,0.17063450801359703,-0.16779767286613279,-0.6273824272947994,0.6714766596261156
0.9873165879134543,0.17647518365616488,-0.14030117457924396,-0.48835166982340716,0.5378803430634947
0.9898035314598358,0.1775440836580896,-0.10322272871022431,-0.3061395066592567,0.36864377236289825
0.9922904750062174,0.178629602712849,-0.051773934758450046,-0.09511118125633367,0.20889043081409372
0.9947774185525988,0.18930853860872765,0.00446839774767227,0.13994486837566278,0.23546179213045396
0.9972643620989803,0.2095808822686107,0.07508107249315277,0.379874993072967,0.44030253692364535
0.9997513056453619,0.21071620446946315,0.14569887649384716,0.5959487358412101,0.6486789476993394
1.0022382491917432,0.18792609236650326,0.08224651369046976,0.35242135627270876,0.4077763082420013
1.0047251927381249,0.17951776277518583,0.08583692037850676,0.362764909651176,0.41375473861467726
1.0072121362845063,0.1807028024063293,0.09422085016944726,0.36361717273634575,0.41683152437516985
1.0096990798308878,0.18190439442935458,0.107398299772266,0.35018970040777475,0.40896996195120583
1.0121860233772693,0.17354572179334748,0.09663884590774652,0.3368476596525358,0.39105438228531053
1.0146729669236507,0.1652035805090606,0.1050381150353017,0.32359100632632654,0.378201491269492
1.0171599104700322,0.17124316968873066,0.11344249038448107,0.3056312917974182,0.36824435951611684
1.0196468540164139,0.172510864984336,0.10748675843960509,0.29254527623124105,0.35622484531923226
1.0221337975627953,0.15942984847117347,0.11111293218220997,0.27475610535155326,0.33653362047442387
1.0246207411091768,0.1607305285704923,0.1147442012866251,0.2426869237250866,0.31288572592977354
1.0271076846555582,0.1572592802846443,0.11838056200304381,0.2250681013274196,0.2989984764692463
1.0295946282019397,0.1394392850415983,0.11244520387653667,0.20274597378078418,0.27054235892382256
1.0320815717483214,0.136000950617592,0.09693812302856264,0.1757204888418613,0.24242720240107574
1.0345685152947028,0.1421558613332159,0.09580133211817232,0.14877999644430062,0.22698385733124496
1.0370554588410843,0.1339619880151396,0.0994580204985196,0.1171360387412399,0.20385917601727327
1.0395424023874658,-4.337007366690615,-8.089838300275062,0.8086258647572286,9.214607556075316
1.0420293459338472,-4.6372610292553835,-7.640849963436983,0.7053255651573593,8.965727085410876
1.0445162894802287,-4.7459621720639396,-6.962013203651811,0.6164752431492335,8.448303173531352
1.0470032330266104,-4.677476018491829,-6.096423655060407,0.5133444197598784,7.701213266677198
1.0494901765729918,-4.441379388803141,-5.082388548546781,0.400721438136328,6.7614422947080515
1.0519771201193733,-4.05682591011031,-3.991733938297919,0.31691346354895344,5.700193895165352
1.0544640636657547,-3.5525460163736957,-2.8579786520009356,0.2188248037077507,4.564702560787881
1.0569510072121362,-2.9620585450802723,-1.7385835340059042,0.12560900837523725,3.436894114194461
1.0594379507585177,-2.309305527281924,-0.6862210254038921,0.037266012924765946,2.4093941291869463
1.0619248943048993,-1.6182289942351995,0.2943204658562011,-0.055781055015227565,1.6457220726793114
1.0644118378512808,-0.9175593807211332,1.1647337085222098,-0.14395545563566614,1.4897123890619028
1.0668987813976623,-0.24081552504386194,1.8819230679615648,-0.2128920469041553,1.9091751031435176
1.0693857249440437,0.3880605409308517,2.455465346004896,-0.25301409120189255,2.4987831396912394
1.0718726684904252,0.9690688017368203,2.8805721344614907,-0.28826367524180263,3.0528488516137804
1.0743596120368066,1.468690418465568,3.152455025081438,-0.313852466900844,3.4919231952369056
1.0768465555831883,1.877348568610103,3.2806908195161513,-0.3393573450990246,3.7950669702908564
1.0793334991295698,2.1902548327846736,3.274856319357948,-0.37435518983474303,3.9575297791844233
1.0818204426759512,2.3978323880852,3.1397399228199783,-0.40448086557948315,3.971293456157566
1.0843073862223327,2.514446428011693,2.899283641338058,-0.4201576411958765,3.8606759661653185
1.0867943297687142,2.5353085325864173,2.5917946962506417,-0.43575080321520154,3.6517212195649797
1.0892812733150956,2.4652070882765695,2.2124846789553407,-0.43210681598980294,3.3405165383703768
1.0917682168614773,2.313718884674803,1.7757187940732626,-0.42359096817366293,2.9471853727317727
1.0942551604078588,2.0856323078594388,1.329381069410228,-0.4149917428357348,2.507854520883381
1.0967421039542402,1.8144661636374957,0.8926251127929841,-0.3871556074951883,2.0588726321433843
1.0992290475006217,1.5002204343814676,0.4654509187101046,-0.34965945064095827,1.6092133608960424
1.1017159910470031,1.1572603122332947,0.06701209487477167,-0.32644537176694044,1.2042876034726357
1.1042029345933846,0.8047393924645845,-0.29311455769682215,-0.336667068086852,0.9202534153439852
1.1066898781397663,0.4522344635165543,-0.6005638347242288,-0.33244059136628046,0.8220156180747047
1.1091768216861477,0.10932231364132122,-0.8505473386235554,-0.3185544309265307,0.9148000158299245
1.1116637652325292,-0.2096318657764782,-1.0334882685458948,-0.3381043036798026,1.107410511299998
1.1141507087789106,-0.48547448021942674,-1.1541750336587264,-0.3336294578361638,1.2958063491129752
1.116637652325292,-0.7229939519579097,-1.2221844465047138,-0.319495192430848,1.455517864484038
1.1191245958716736,-0.9126134934869256,-1.242304916360905,-0.3148552108359084,1.5733145577091094
1.1216115394180552,-1.04954472080645,-1.2097480459181247,-0.32928641079529264,1.63507308580071
1.1240984829644367,-1.1481528633815077,-1.134090647882255,-0.34363527113960224,1.6500005439018304
1.1265854265108182,-1.1940727309381889,-1.0105443250520774,-0.3579018849852016,1.604712833793356
1.1290723700571996,-1.192092746665903,-0.8630511002018009,-0.37687474976925905,1.51920271696263
1.131559313603581,-1.147001333935265,-0.7107645928385937,-0.40534236392539036,1.4089360519466143
1.1340462571499625,-1.0635869162972118,-0.5441080026007197,-0.43851642023901505,1.2726222133186258
1.1365332006963442,-0.9466379174821867,-0.36308133581983615,-0.4668202091635667,1.1161865932357564
1.1390201442427257,-0.7961543580788502,-0.19162661548148474,-0.4902538287773961,0.9544272304789566
1.1415070877891071,-0.6408666787754951,-0.039320654662471366,-0.5040289748187217,0.8162728840924648
1.1439940313354886,-0.46640969055443326,0.10341334678981084,-0.5177225539627983,0.7044635992151153
1.14648097488187,-0.2919370278161276,0.24136378565608707,-0.5265462638959377,0.6486406349120617
1.1489679184282517,-0.12223711517517433,0.3458002354236176,-0.5257118032723351,0.641009060189658
1.1514548619746332,0.03311321925925703,0.4310878994114469,-0.5343728883114753,0.6873773680235871
1.1539418055210147,0.19326756712661874,0.4924383676066961,-0.5525296229112069,0.7649424047525344
1.1564287490673961,0.32470708337049875,0.525063229946054,-0.570605305284186,0.8406643205529886
1.1589156926137776,0.43700855264562866,0.5337508829566584,-0.607753654516225,0.9193644460823285
1.161402636160159,0.5158067428346295,0.5328665297564452,-0.6304559541168118,0.9733848388842337
1.1638895797065407,0.5611016316112267,0.517621760132517,-0.6578659250617704,1.0077474400447985
1.1663765232529222,0.6016236164021249,0.4784397605023938,-0.680406869343793,1.0265520386675877
1.1688634667993036,0.6086422546222997,0.4201089271955136,-0.6980788965307063,1.0169813423080143
1.171350410345685,0.5821575234414754,0.3522060598129313,-0.7204589237612851,0.9909679871195292
1.1738373538920666,0.5556882231053495,0.29388476454789814,-0.7331818524987987,0.9657708242460653
1.176324297438448,0.5052923138505451,0.22599142098302982,-0.7410361984096205,0.9249470753225556
1.1788112409848297,0.43096977235081824,0.153314425254655,-0.7344452681167617,0.8652456931591068
1.1812981845312112,0.3422973817570167,0.08543057677185129,-0.7469279990393876,0.8260552746361852
1.1837851280775926,0.25364032837766365,0.022339868255794038,-0.7784845062635384,0.8190669156946827
1.186272071623974,0.16021018507829454,-0.05032291758026464,-0.7908076792175436,0.808440773925987
1.1887590151703555,0.06679533120423131,-0.08467375490571438,-0.7886860381130507,0.7960257079736661
1.191245958716737,-0.021815854059143214,-0.11901987770198197,-0.7864849106985492,0.7957387621154505
1.1937329022631187,-0.10083499168549026,-0.15336129343412486,-0.7842044156534893,0.8053967639632228
1.1962198458095001,-0.18462731608783434,-0.16854439633178275,-0.7866330758652396,0.8254005424191638
1.1987067893558816,-0.263616045234885,-0.17893440391234172,-0.8033478184247418,0.864221416985565
1.201193732902263,-0.3090707839704425,-0.1797429204572003,-0.8295603613409472,0.9033286556213693
1.2036806764486445,-0.3449335738171492,-0.18054676025366945,-0.8556940201770864,0.9401002920705804
1.206167619995026,-0.37599284317091164,-0.1669807210321932,-0.8578069014057217,0.9513600051565455
1.2086545635414077,-0.3926718106203255,-0.1342564072082304,-0.8694179522090462,0.9633812897060428
1.2111415070877891,-0.39975890486761523,-0.11589264980386593,-0.8905272973886067,0.9829939754107208
1.2136284506341706,-0.3828889414855558,-0.09752424668187354,-0.9019814493218608,0.9847260812650189
1.216115394180552,-0.36600396276030694,-0.08393960902982434,-0.9181457444812278,0.991965910114514
1.2186023377269335,-0.3443155912061311,-0.06077353479728975,-0.9342319069062697,0.9975148644311572
1.221089281273315,-0.30824704616604554,-0.028026031937745,-0.9502400648008589,0.9993787473670871
1.2235762248196966,-5.204218983654662,-7.015073182666091,-0.44902278861470357,8.74624310505304
1.226063168366078,-5.5368276457713375,-6.805145537013058,-0.5031825519764244,8.7874716977934
1.2285501119124596,-5.692250500347702,-6.394100354035851,-0.5620531037594816,8.579168886764949
1.231037055458841,-5.646545557352993,-5.79630285181787,-0.6352113821402217,8.116901932465076
1.2335239990052225,-5.447596876705646,-5.040483458444977,-0.6987155028746983,7.454595131857128
1.236010942551604,-5.119346501866125,-4.184103021966153,-0.7621424057786097,6.655470513140392
1.2384978860979856,-4.685736476437583,-3.2654687771900823,-0.8398574348009689,5.7727613125965505
1.240984829644367,-4.151555230883686,-2.3085227490051823,-0.9079187081368438,4.836217995328272
1.2434717731907485,-3.53116800244952,-1.356360575621418,-0.9806915713479025,3.9077637378347494
1.24595871673713,-2.8724588517625333,-0.43292428200793065,-1.0581761608344724,3.0916306500582174
1.2484456602835114,-2.189793016346658,0.42347889686589024,-1.1355842104717766,2.502814281884326
1.250932603829893,-1.521477750465733,1.1889069359517395,-1.1793970350037846,2.2626028404676193
1.2534195473762746,-0.8627246786379161,1.8489946168027833,-1.2183451931247316,2.376434298209548
1.255906490922656,-0.23268744211920678,2.3893767209332357,-1.2476404210683452,2.7055260450679897
1.2583934344690375,0.3303267044177871,2.8052648364592727,-1.2720712624861914,3.0978689176867373
1.260880378015419,0.8311061360488248,3.087082148138376,-1.2820610518415663,3.444487500250474
1.2633673215618004,1.2648624210755137,3.244405453971182,-1.2871867376472022,3.7125319381227966
1.2658542651081819,1.6220187243465052,3.2772347452798907,-1.306602075820111,3.883094294803802
1.2683412086545636,1.8929982105788863,3.1951468199898128,-1.3163651931536489,3.940205927142936
1.270828152200945,2.0873776576400247,3.0077184759890034,-1.3021110238364102,3.8857443347210423
1.2733150957473265,2.186003423345683,2.719738107808261,-1.278204922728957,3.7160993213895726
1.275802039293708,2.222394301906087,2.3695129331839024,-1.2638006487577194,3.485802641210609
1.2782889828400894,2.1917618608409413,1.966619749893983,-1.2541099449885564,3.2006569715340034
1.280775926386471,2.0845292642225153,1.5350005656413561,-1.2347677485831685,2.868124889690212
1.2832628699328525,1.9198500959188065,1.0938089847728647,-1.2105626107164476,2.5194650861708556
1.285749813479234,1.72645474631315,0.6382565949981851,-1.1910714866109178,2.1924116306805668
1.2882367570256155,1.4851895724613797,0.20665061387450967,-1.1810829288916178,1.9087821843473733
1.290723700571997,1.2056313512177377,-0.2010089676384692,-1.1758086842611881,1.6960181667936867
1.2932106441183784,0.9212988759156229,-0.5607801420139857,-1.1704605001359436,1.5916167154246337
1.29569758766476,0.6465573264854745,-0.8535093050801621,-1.1602501246412853,1.5788270525996773
1.2981845312111415,0.3670414628152964,-1.1031384825819228,-1.1547545165680866,1.6386250152835868
1.300671474757523,0.08753965795442925,-1.3000908770559694,-1.1539738287665156,1.74056171329746
1.3031584183039044,-0.16321769856497031,-1.4300012877521509,-1.15790821478212,1.8472398690905227
1.305645361850286,-0.3948074438911995,-1.5072349338754798,-1.1761346354918327,1.9521584834357149
1.3081323053966674,-0.5976528020083167,-1.5413686313436448,-1.1942880358572054,2.0394435618644207
1.310619248943049,-0.7717538036571123,-1.5084603728648411,-1.212368571482303,2.083481265353926
1.3131061924894305,-0.9075336730528815,-1.4180869744219065,-1.2303763986481826,2.0852851404784913
1.315593136035812,-1.0097808444861904,-1.3181324785922703,-1.2387348676676648,2.0716164358748155
1.3180800795821934,-1.088072155681214,-1.1750780715399443,-1.2565977494432303,2.0356196585041593
1.3205670231285749,-1.1280424278730063,-0.9937121660230088,-1.2648115889780271,1.9646098705842054
1.3230539666749563,-1.1344800956893835,-0.7979767881120956,-1.2873185618165888,1.8923533289210606
1.325540910221338,-1.1073851905484426,-0.5926603506275849,-1.324118827555857,1.8250586075356374
1.3280278537677195,-1.0419693406576798,-0.3873396697409981,-1.3321169165593005,1.7350122783453503
1.330514797314101,-0.9765398042161124,-0.1915915616541337,-1.3400434096398115,1.6691475834792455
1.3330017408604824,-0.8919429996869215,-0.010204439278843846,-1.3574752749691417,1.6243169541145737
1.3354886844068639,-0.7786021522808348,0.16161009108381785,-1.3700474647529681,1.5840988570011987
1.3379756279532453,-0.674824520517685,0.31906361646260617,-1.3681833351481476,1.5585619536672992
1.340462571499627,-0.5614565231787616,0.44300251389586043,-1.3758250661799725,1.5506060968109086
1.3429495150460085,-0.43849819243074645,0.5430035803148225,-1.4025496285344126,1.5666138686676325
1.34543645859239,-0.3298915771451582,0.6142784026609993,-1.4196267669519376,1.581615176360381
1.3479234021387714,-0.21648309641311547,0.6664037778082958,-1.427056646707232,1.5897954582338787
1.3504103456851528,-0.11263799266938046,0.6802260826805155,-1.4439930469639695,1.6001596047369009
1.3528972892315343,-0.02314470180864736,0.6605337107750633,-1.4417057142858098,1.5859873350365832
1.355384232777916,0.05199674349506139,0.6264802655225958,-1.4297716223973698,1.5618668562448466
1.3578711763242974,0.11757471378927337,0.5876425436857513,-1.4273445522577397,1.5480504007725129
1.360358119870679,0.16401236956278448,0.5248669220781408,-1.4440014787745667,1.5451620024982868
1.3628450634170604,0.20088648448869495,0.4429417940880942,-1.4510121508775775,1.5303558653445872
1.3653320069634418,0.2329854288237839,0.35144395639766657,-1.4579535446389063,1.517703397524628
1.3678189505098233,0.2507323627687844,0.25995020566260685,-1.4696142333856592,1.5133429294556364
1.370305894056205,0.23976204310991403,0.17324893519231388,-1.4764175810546512,1.505758913142731
1.3727928376025864,0.21443964646196817,0.08176332830948496,-1.4735753554690127,1.4913396434335826
1.3752797811489679,0.18434194602703835,-0.014506625048037236,-1.4802413416148,1.4917462333322322
1.3777667246953493,0.15425731159540035,-0.10119572500672902,-1.491627308433241,1.502992987410145
1.3802536682417308,0.11939730622614453,-0.17351557835856113,-1.4981566220973423,1.5128901602566145
1.3827406117881123,0.07018508956833924,-0.23146619524055456,-1.504617859288496,1.523934857146706
1.385227555334494,0.020985837783827732,-0.28941279577505785,-1.5110111939105924,1.5386211359099868
1.3877144988808754,-0.03298888633465852,-0.32820177686633745,-1.5125483970853715,1.548097970570774
1.3902014424272569,-0.0917391167610781,-0.347833148723792,-1.5235948537493496,1.5654856253784997
1.3926883859736383,-0.1408996775945348,-0.3483069215804022,-1.539362336086672,1.5845525654042771
1.3951753295200198,-0.1948358129411975,-0.3439883156534056,-1.5502742134854302,1.599887212371045
1.3976622730664012,-0.24397075038996546,-0.3348773412221524,-1.546753855853332,1.6012845004267702
1.400149216612783,-0.2739393142928238,-0.31618560526846284,-1.5575318601755441,1.6127372942783016
1.4026361601591644,-0.3134719589670734,-0.2879131181169834,-1.5586663874241395,1.615734984435355
1.4051231037055458,-0.3434151056085001,-0.2500598901146045,-1.564522825639374,1.6211710444462164
1.4076100472519273,-0.36376878877485763,-0.21220273827082137,-1.5798897567219576,1.6350563834960947
1.4100969907983087,-0.3745330431037262,-0.16955326965590656,-1.5760369398268583,1.6287773780742272
1.4125839343446904,-0.38528470995224795,-0.11732309136157326,-1.562541361163337,1.613612258516834
1.4150708778910719,-0.3960238241149826,-0.07466582710229686,-1.5777104273497233,1.628367295044816
1.4175578214374533,-0.3923852105027187,-0.03679308401186443,-1.568871882400952,1.617615179157476
1.4200447649838348,-0.37436890406345175,-0.008493275885388396,-1.5551795206145673,1.5996273170347806
1.4225317085302163,-0.3659169564221214,0.03417560338353587,-1.5557871367614062,1.5986046433612382
1.4250186520765977,-0.3622409993562944,0.06727152667807035,-1.5611181061591033,1.6040055303190293
1.4275055956229794,-0.34897585807653675,0.08121767682242886,-1.575961014550268,1.6161786967817011
1.4299925391693609,-0.32133316450677385,0.09995605986343392,-1.5763740282150582,1.6118936979051468
1.4324794827157423,-0.29846656724433906,0.1234866652270088,-1.567145733810312,1.6000865599246088
1.4349664262621238,-0.28516450499661256,0.13265586903875182,-1.5722183317243115,1.6033673493963778
1.4374533698085052,-0.262273399939506,0.1226752573663834,-1.5724383929081185,1.598874308561246
1.4399403133548867,-0.23458169091971315,0.1079100295403248,-1.5869597153162616,1.6078290587704949
1.4424272569012684,-0.20687781685227025,0.10272538487270344,-1.5966288707771241,1.6132497285919005
1.4449142004476498,-0.19352702336031302,0.08796769941543081,-1.6062344481524065,1.6202407621531476
1.4474011439940313,-0.18016413621169097,0.06842536580420022,-1.6253534400512724,1.63673912146953
1.4498880875404128,-0.17157759452123328,0.058463583297816424,-1.630044016263259,1.6400915695379235
1.4523750310867942,-0.1581906275076852,0.034140324575320236,-1.6346715735583697,1.6426627742154443
1.4548619746331757,-0.14000327109440192,0.009820788861251817,-1.6488131057996505,1.6547755200230874
1.4573489181795574,-0.13616917454910638,-0.00970663127722382,-1.6628919939776523,1.6684861540999103
1.4598358617259388,-0.1323231639595877,-0.034018753250358635,-1.6673316194871255,1.6729200293602038
1.4623228052723203,-0.13804208207658164,-0.06311558784402616,-1.671708977403668,1.6785857437095528
1.4648097488187017,-0.13896075510978928,-0.08742033921945991,-1.6808126598775814,1.6888112993388806
1.4672966923650832,-0.1350792192895106,-0.11172142151453635,-1.699431259449593,1.7084480317245598
1.4697836359114647,-0.14076272086578456,-0.12644203892168937,-1.7131997557650536,1.7236168762070219
1.4722705794578463,-0.14643448954503785,-0.1363706056095091,-1.7125415321708868,1.724192130017078
1.4747575230042278,-0.16167136837202123,-0.15108393908184992,-1.7118219889923054,1.7260644570807147
1.4772444665506093,-0.17689658716648538,-0.156216840255742,-1.7110413169657637,1.7272401373562893
1.4797314100969907,-0.18253337580354867,-0.1517693200236101,-1.7149881105156073,1.7313395331339723
1.4822183536433722,-0.19294698081442163,-0.156895002573346,-1.714085754468302,1.7320319145180492
1.4847052971897536,-0.19856063218242898,-0.16201709218493798,-1.6987576340088157,1.7179794416453236
1.4871922407361353,-0.19937436658434976,-0.15755879315209054,-1.7025227645588732,1.7213827799741819
1.4896791842825168,-0.21454183403018873,-0.15788532638354358,-1.7158045320067963,1.7363585939809023
1.4921661278288982,-0.23927466797953195,-0.1486314928793866,-1.719449515945156,1.742369170209431
1.4946530713752797,-0.24963088866100203,-0.1441625135745599,-1.7278231195490434,1.7517052101715074
1.4971400149216612,-0.2503989362745487,-0.13968999613548272,-1.7409255363684206,1.7643793938627343
1.4996269584680426,-0.25115565438904447,-0.1256371449207485,-1.7300265403626636,1.752671014558817
1.5021139020144243,-0.2614778866211344,-0.10679237426212751,-1.7286451489819843,1.7515676828176934
1.5046008455608058,-0.2622120567125242,-0.09273250182370019,-1.7319931534363455,1.7541820781008655
1.5070877891071872,-0.2629350083728956,-0.0786691353203639,-1.7400707485737783,1.761581636349056
1.5095747326535687,-0.26843518203688593,-0.06939068911915225,-1.7480897262352464,1.769940735070196
1.5120616761999501,-0.2739242115429469,-0.06489717427805175,-1.751261878570439,1.7737430152738485
1.5145486197463316,-0.27461373077313567,-0.050823391905149506,-1.7495874013535975,1.7717369424576321
1.5170355632927133,-0.2705037769726051,-0.04153456304118475,-1.7574317006196623,1.7786128290402003
1.5195225068390947,-0.2663827907487762,-0.037030698776518545,-1.7556413594566571,1.776121518053819
1.5220094503854762,-0.25746240610957793,-0.027735003571192074,-1.7490049778449617,1.7680708508171503
1.5244963939318577,-0.2533194670641882,-0.023224295176566656,-1.7518879626918924,1.7702603068771785
1.5269833374782391,-0.25874241434096446,-0.02349858471321431,-1.7547137045850594,1.773843286629667
1.5294702810246208,-0.25457767210537535,-0.023769479990993325,-1.7574824010300993,1.7759840002782
1.5319572245710023,-0.24082527784200547,-0.028825395469748827,-1.7458290398446579,1.7625965942996107
1.5344441681173837,-0.24142728567403482,-0.01951272901689549,-1.734119029036739,1.7509530798193713
1.5369311116637652,-0.24201852319839162,-0.01977350839155001,-1.7223525669174808,1.7393856162370886
1.5394180552101466,-0.24259902800836036,-0.024819341439615616,-1.7057414487373084,1.7230856560370262
1.541904998756528,-0.24795724105215805,-0.029861836015420806,-1.7082278899237195,1.7263884402282277
1.5443919423029098,-0.24372799003056433,-0.020535793340862973,-1.7106584762721564,1.7280559812616758
1.5468788858492912,-0.234699715958623,-0.015994837887994606,-1.7273986170665854,1.74334327478947
1.5493658293956727,-0.24481447316483262,-0.011450577535035755,-1.7632369151922909,1.7801880971104391
1.5518527729420541,-0.24534187948620695,-0.006903023488449289,-1.7846547472095455,1.8014529847599892
1.5543397164884356,-6.279246962944469,-4.762025087350899,-1.3176003844431765,7.99011239766322
1.556826660034817,-6.887880615852207,-4.637760896554956,-1.3628503211027603,8.414813516030923
1.5593136035811987,-7.237930058673901,-4.388994959397618,-1.4176224090442648,8.582573132953621
1.5618005471275802,-7.343760539246485,-4.0205156904331645,-1.4675516390154364,8.499945475589241
1.5642874906739617,-7.219737305434453,-3.565841924143724,-1.5126382119406294,8.193162377719966
1.5667744342203431,-6.899379218410143,-3.0584924950178274,-1.5672475389163552,7.707922858315948
1.5692613777667246,-6.397051526090543,-2.5128326242686096,-1.6122262080038325,7.059452483785158
1.571748321313106,-5.741484686378677,-1.9432275331148996,-1.6763048406699532,6.288940894000372
1.5742352648594877,-4.970985963842447,-1.37840765274189,-1.735541622056374,5.442684432497084
1.5767222084058692,-4.119074219753287,-0.8327382043792837,-1.7755715441392272,4.562113507271158
1.5792091519522506,-3.2288451220455787,-0.30621919930058583,-1.8203368256467094,3.7192522338480027
1.581696095498632,-2.309875515433817,0.16284212465319126,-1.850684055609399,2.9642999052135495
1.5841830390450136,-1.4004726645755294,0.574445756198994,-1.876190243160675,2.4106848486622283
1.586669982591395,-0.5293670275080837,0.9285916840493909,-1.911220800930824,2.1898120730804935
1.5891569261377767,0.2699225343912055,1.2061262836315652,-1.9366223184802767,2.2974126296934525
1.5916438696841582,0.9973959829680132,1.421414753610871,-1.9619718054593243,2.6200290101525026
1.5941308132305396,1.6147460534877265,1.564880276047488,-1.9824810617210709,2.99774686317897
1.596617756776921,2.1219727077605537,1.6413112429589476,-1.993361887278084,3.3421792863933772
1.5991047003233025,2.5334411175410647,1.6554960463595014,-1.9994028889387625,3.627203188112892
1.601591643869684,2.810844018044382,1.6074346749400252,-2.0101810769827377,3.81123579567506
1.6040785874160657,2.9733349843143677,1.5210691339900588,-2.011331445234795,3.898695476940367
1.6065655309624471,3.0113371714584956,1.3916110088746283,-1.9837005843418662,3.865203845665449
1.6090524745088286,2.972734574414351,1.2286370949172447,-1.9703843282531892,3.77214983291371
1.61153941805521,2.828796734981597,1.0321473807985582,-1.9618060745285497,3.59389791975078
1.6140263616015915,2.579523614869589,0.8260838717987533,-1.9388124142169296,3.330968360768017
1.616513305147973,2.2680108056590567,0.6200233632352599,-1.9253455683756808,3.0389566537230635
1.6190002486943547,1.908623478998115,0.40438903714262864,-1.9022521283007556,2.7248738021363055
1.6214871922407361,1.5300920164859444,0.2031228987962468,-1.8838975086474719,2.435469218450023
1.6239741357871176,1.118051169829621,0.016224936868699302,-1.8750703175435497,2.183160636019861
1.626461079333499,0.6868661106495009,-0.16588166660907477,-1.8518287433036935,1.9820624298446083
1.6289480228798805,0.270055623839524,-0.3144665030443785,-1.8333266042301286,1.879602526940813
1.631434966426262,-0.1275919256353381,-0.43431798708730485,-1.8195641054443499,1.8750267590667604
1.6339219099726436,-0.49171136617582134,-0.5493781466695782,-1.7961762422033143,1.9416089999585944
1.636408853519025,-0.8223027361492128,-0.6261281698793544,-1.777528429778112,2.056167695900408
1.6388957970654066,-1.1097892672870693,-0.6645680680469559,-1.773197680207664,2.1948833563419887
1.641382740611788,-1.354170997965752,-0.6838514657837347,-1.7544537790524153,2.319383534868139
1.6438696841581695,-1.5362943532838238,-0.6696131644584358,-1.740450545155845,2.416143669172237
1.646356627704551,-1.656159371623918,-0.6410067886813664,-1.740764990796631,2.4867682482564644
1.6488435712509326,-1.7377081079721814,-0.6123975597417122,-1.7314553050830117,2.528358699470858
1.651330514797314,-1.7617869874333563,-0.5550550690448275,-1.726886903753364,2.5286593082336615
1.6538174583436955,-1.7283960483940564,-0.4881329411979829,-1.73663679928935,2.4983062344381928
1.656304401890077,-1.6566889425220865,-0.4212079941664175,-1.7511283909509086,2.447138138360596
1.6587913454364585,-1.5418773048829273,-0.3447034326325218,-1.765573481373771,2.369273263663772
1.6612782889828401,-1.4079031904624657,-0.26340767123782305,-1.7751838732451066,2.2809762775642413
1.6637652325292216,-1.254766637642933,-0.1916859312625121,-1.7799597726197902,2.1861929474157633
1.666252176075603,-1.0776792814833251,-0.11996141738300237,-1.789478192236702,2.092370802675685
1.6687391196219845,-0.8814295636797734,-0.05781094755460359,-1.8037393382334699,2.0084162371572267
1.671226063168366,-0.6899595392054996,-0.010022936409765038,-1.8035898035018612,1.9310828061714034
1.6737130067147474,-0.5080576497474774,0.032979411382779045,-1.8033950042072089,1.873884670475108
1.6761999502611291,-0.316570320385592,0.07598448783690426,-1.8223087598625707,1.8511616964524555
1.6786868938075106,-0.14901641271695404,0.10462707168835594,-1.841177663441938,1.8501588860815776
1.681173837353892,-0.01497277173008943,0.12848395827777503,-1.8360599046184838,1.8406108455552581
1.6836607809002735,0.11907938747683411,0.14276673298834908,-1.8452629162449732,1.8546043973416346
1.686147724446655,0.2387748166108149,0.15226378784758055,-1.8544216946623333,1.8759204396166542
1.6886346679930364,0.3249598640674827,0.1569751115665281,-1.8587480428598013,1.8934583137056973
1.691121611539418,0.36805768489270296,0.14253548289936813,-1.8534537638303412,1.8950128437429627
1.6936085550857995,0.40158706402542677,0.1280985038466982,-1.8481158705277334,1.8955773968838114
1.696095498632181,0.4207595598530385,0.10887575981197362,-1.83315776262042,1.8839745011379168
1.6985824421785625,0.4064215208135778,0.07050202956262197,-1.8277332596908042,1.8737016457624311
1.701069385724944,0.3777265219198318,0.051284528394290874,-1.8318425680282342,1.8710838095217845
1.7035563292713254,0.339462928236551,0.03206963176383537,-1.831120683945466,1.8625967089258244
1.706043272817707,0.27726549156077934,0.0032805217738736125,-1.8303562170169823,1.8512403398279402
1.7085302163640885,0.19113417366472096,-0.03029440950671347,-1.8487029867548408,1.8588041200799306
1.71101715991047,0.10979935625728274,-0.0590783666832464,-1.8574307794408131,1.8616109293992074
1.7135041034568514,0.023684194500345757,-0.08307136099600543,-1.8565398012475143,1.8585483113718133
1.715991047003233,-0.0672113497874347,-0.09748500035910768,-1.8603954682736905,1.8641598614948633
1.7184779905496144,-0.1580989114503331,-0.12147290928221643,-1.8546327766575939,1.8653186509934228
1.720964934095996,-0.2394017219949176,-0.15024669566724258,-1.8344635291357054,1.8561098280495374
1.7234518776423775,-0.3159082228706337,-0.17901796740971987,-1.804676335038975,1.8408427722601668
1.725938821188759,-0.40198366214892994,-0.18863312243772423,-1.7892134169296572,1.8434907026715295
1.7284257647351404,-0.45932085135849937,-0.1886689785944866,-1.7880749807147733,1.8557434533455104
1.7309127082815219,-0.5022850385315605,-0.1887023537163599,-1.7773192156423736,1.8565458336713283
1.7333996518279033,-0.5500298750001236,-0.1791564523513971,-1.7856767474228032,1.8770379175973702
1.735886595374285,-0.5690365755515765,-0.1743964956419961,-1.798782571818732,1.894686122471605
1.7383735389206665,-0.588035598115614,-0.16005728480129688,-1.8022716845242766,1.9025213333645237
1.740860482467048,-0.5974501740370425,-0.14571563763644146,-1.8057210977628593,1.9075661038125502
1.7433474260134294,-0.58291513131735,-0.12179475866561074,-1.809131017041338,1.9046204478525803
1.7458343695598109,-0.5492189112156673,-0.0978714656803481,-1.8125016477869735,1.8964130508572854
1.7483213131061923,-0.529880374888784,-0.07873417314383824,-1.8110447920234591,1.8886120619196036
1.750808256652574,-0.5057459469452295,-0.05959448887042651,-1.8095490583281997,1.8798399560738486
1.7532952001989555,-0.46723885860875375,-0.05481763394733674,-1.8032262485474266,1.863583115247619
1.755782143745337,-0.428724357678616,-0.035673199570439795,-1.7920765677535133,1.8429909323503866
1.7582690872917184,-0.38541407864624355,-0.03568002009097393,-1.7952538342023043,1.8365057596072223
1.7607560308380998,-0.3420964626164625,-0.04047289664819287,-1.7696626228842032,1.8028793204014486
1.7632429743844813,-0.3035599506663028,-0.0308982270520195,-1.7488219618096625,1.7752412788664202
1.765729917930863,-0.2602277738834686,-0.030898038986013177,-1.7423088622790406,1.761906170796167
1.7682168614772444,-0.21688837328762806,-0.030895536882209917,-1.745335125519679,1.7590309266864488
1.770703805023626,-0.1879069965095181,-0.021313925163154224,-1.738747342682334,1.7490013277376226
1.7731907485700074,-0.168495277868489,-0.016518424843304125,-1.7416993313610938,1.7499085912946895
1.7756776921163888,-0.13949964169223905,-0.016509046966378893,-1.7685565057070143,1.774126492824738
1.7781646356627703,-0.12007373883967981,-0.016497399245825495,-1.7618582299402643,1.7660221655882626
1.780651579209152,-0.12458281681754152,-0.016483492705293035,-1.7599119345575556,1.764392983769794
1.7831385227555334,-0.11471968657669662,-0.016467338358166383,-1.7627178233599103,1.766523677880248
1.7856254663019149,-0.10963799887876269,-0.011660543887102914,-1.751122486730429,1.7545901010249785
1.7881124098482963,-0.10454938785023421,-0.0212167335657516,-1.7586449514355174,1.7618776318157547
1.7905993533946778,-0.10903069754441935,-0.016405498453919698,-1.766131807574551,1.7695701159075599
1.7930862969410595,-0.11350515869869537,-0.02116886612398794,-1.7735832583811373,1.7773376483814334
1.795573240487441,-0.13233801861675604,-0.040295250856063,-1.795364716899373,1.8006864038749577
1.7980601840338224,-0.15116410464463814,-0.040265840356598304,-1.8027459661367136,1.8095206389690146
1.8005471275802039,-0.16998345405296333,-0.030657452203542324,-1.8100924188261533,1.8183148293734237
1.8030340711265853,-0.19837291071609692,-0.04977732388526057,-1.79346226097757,1.8050862791650522
1.8055210146729668,-0.2171788985490748,-0.07847185303476056,-1.7720093083196318,1.7869923039747873
1.8080079582193485,-0.23597826135084748,-0.08801063063269199,-1.7505221664527042,1.7685472756408867
1.81049490176573,-0.25477103624119785,-0.09275887753061474,-1.743366247447062,1.7643237693251779
1.8129818453121114,-0.26398045366024653,-0.11187021788837548,-1.7457533499176972,1.769139730013976
1.8154687888584928,-0.2731833572897611,-0.1118258393302125,-1.7289532557006737,1.7539707880805686
1.8179557324048743,-0.2967449940916943,-0.10699096267116293,-1.7216965862951437,1.7503553333172477
1.8204426759512558,-0.31072338442484615,-0.09736559875287476,-1.7335603497350487,1.7638765738062403
1.8229296194976374,-0.3055417585677796,-0.09731496836533182,-1.7406027306249001,1.7698937355546223
1.825416563044019,-0.3147189766401457,-0.09247387236391758,-1.733247123339618,1.7640139007083986
1.8279035065904004,-0.3191014621959514,-0.08763072487238066,-1.721070535341605,1.7525948404403944
1.8303904501367818,-0.31390084870738383,-0.08757394000146457,-1.72801518385719,1.7584764466513603
1.8328773936831633,-0.31827078620493054,-0.08272672188782959,-1.7301392527093356,1.7611138059851297
1.8353643372295447,-0.31305769811280826,-0.0730890812954752,-1.7418081520800417,1.7712263477051138
1.8378512807759264,-0.30305002441250556,-0.0634494322953012,-1.7486568720227957,1.775856414192196
1.8403382243223079,-0.2978246083610318,-0.06338459226496518,-1.7554740156624842,1.7816863145762123
1.8428251678686893,-0.2973814865294686,-0.058529361966880966,-1.762259782590652,1.7881333775977617
1.8453121114150708,-0.28735548548216416,-0.05367215543089854,-1.7307071456201761,1.755221096957881
1.8477990549614522,-0.27253504501840636,-0.06317819331354446,-1.7134887404305434,1.736176977861358
1.8502859985078337,-0.26249700821100386,-0.06789387301508087,-1.7010279593147164,1.7225011975853906
1.8527729420542154,-0.252453008124527,-0.058242398562193376,-1.683748194340085,1.7035646979920946
1.8552598856005968,-0.2424030810960801,-0.06295420052972567,-1.671226450626607,1.6898876691553248
1.8577468291469783,-0.24671247337542407,-0.053298869634310186,-1.668251329742155,1.6872374797904957
1.8602337726933598,-0.2414392046010626,-0.048430029781114214,-1.674823029699441,1.692829152074895
1.8627207162397412,-0.23137171428412684,-0.0531360948996471,-1.6765765383123146,1.6933000925917603
1.8652076597861227,-0.23087524852664987,-0.048263462303022475,-1.673512053114587,1.6900518731966536
1.8676946033325044,-0.22558463345857893,-0.052965755851875684,-1.6608413680757543,1.676928098654604
1.8701815468788858,-0.20113469515919968,-0.05287777614957179,-1.6625066968401576,1.6754640377655619
1.8726684904252673,-0.20540950282067932,-0.05278793706550822,-1.6641430262396053,1.6776029452556949
1.8751554339716487,-0.21446707577889634,-0.043119442492807636,-1.6609621494934945,1.6753061436537775
1.8776423775180302,-0.2187306432785669,-0.03823751291069888,-1.6721178761667606,1.6867967848852123
1.8801293210644117,-0.21820024115248116,-0.04293056214220403,-1.6880335956434767,1.7026190996302992
1.8826162646107933,-0.21766430850072316,-0.04283339071340464,-1.6895558904051544,1.7040573808877033
1.8851032081571748,-0.22669968769020765,-0.04273441241580578,-1.6766849559496642,1.6924808477236275
1.8875901517035563,-0.23094120443236288,-0.04742204102497993,-1.6685746007883218,1.6851480315614864
1.8900770952499377,-0.22560049102484986,-0.05210788365982211,-1.6556482132398411,1.6717600961544803
1.8925640387963192,-0.2298311963120513,-0.05679195074336896,-1.642694391310263,1.6596664025368657
1.8950509823427006,-0.23405654916119084,-0.05189744604175006,-1.6345017327291185,1.6519902322366777
1.8975379258890823,-0.24306498834469759,-0.051789589906254374,-1.6262820283059458,1.645161385935303
1.9000248694354638,-0.2520681459381927,-0.06604519935134068,-1.6371890851696111,1.6577962538118443
1.9025118129818452,-0.25148925064037797,-0.06593386481234909,-1.6432810802811115,1.6637207778129746
1.9049987565282267,-0.24611674105383252,-0.06582080659067957,-1.6254045936338262,1.6452495013866895
1.9074857000746082,-0.25510426568458244,-0.07049443833026237,-1.6266554480944784,1.6480459942069023
1.9099726436209896,-0.2545098430979223,-0.0703779636971249,-1.6230918197518953,1.6444316262324201
1.9124595871673713,-0.24433350840235768,-0.07983660294178163,-1.6099254976798534,1.6303167957722855
1.9149465307137528,-0.2389405066085497,-0.09408196301631921,-1.6015218839343035,1.6219791386401476
1.9174334742601342,-0.22875406606640025,-0.09874884421490071,-1.5930927669881285,1.6124590913277712
1.9199204178065157,-0.22813943166774192,-0.10820246673617095,-1.5894267416502625,1.6093578660951835
1.9224073613528971,-0.23230823496312047,-0.09850082419877015,-1.5953124024223548,1.615144324734512
1.9248943048992788,-0.23168370412230466,-0.0983743467271605,-1.6059615368553999,1.6255667653802428
1.9273812484456603,-0.22147747057451128,-0.10303464118590222,-1.6165859321876805,1.6349368438577385
1.9298681919920417,-0.22084318228922245,-0.09811650778111192,-1.6319741819827147,1.649769162919753
1.9323551355384232,-0.22020406725236547,-0.08840835998222829,-1.6329728628843867,1.6501230985190352
1.9348420790848047,-0.21477175670807802,-0.09306382120159595,-1.6291589711377092,1.6458878259269665
1.9373290226311861,-0.2141230917989344,-0.10250609491155505,-1.610955889383094,1.6283534860323254
1.9398159661775678,-0.2086813003233639,-0.08800477128496675,-1.5975174198568336,1.613491441446035
1.9423029097239493,-0.2080232232977423,-0.08786708696072543,-1.593632154505686,1.6095520278253141
1.9447898532703307,-0.19778368507319616,-0.09730464867649324,-1.584935071663958,1.6001892894672258
1.9472767968167122,-0.19711633317895227,-0.08758704654982896,-1.5857915692540558,1.6003940891688142
1.9497637403630936,-0.1868675885172688,-0.07786790388279297,-1.581836624940161,1.5947382274515898
1.952250683909475,-0.18619109848803916,-0.08730084395871307,-1.5778588293287914,1.5912030190402828
1.9547376274558568,-0.19508689714466698,-0.0871554568389703,-1.5738583693647072,1.5882963004155362
1.9572245710022382,-0.19440140519368043,-0.07264334916759063,-1.569835431648693,1.5834936832773285
1.9597115145486197,-0.19371146319747945,-0.06770654749145333,-1.5514249924741126,1.5649370002720944
1.9621984580950012,-0.19301710501146052,-0.07234506173676802,-1.537780851027529,1.5515345167193844
1.9646854016413826,-0.19710676774457558,-0.05304007856836046,-1.5336915961831217,1.547214994765751
1.967172345187764,-0.18682687183710017,-0.02894522115518372,-1.5200037998595661,1.5317159193060828
1.9696592887341458,-0.1573890476227468,-0.014425709326492342,-1.5110828568613623,1.5193257760274668
1.9721462322805272,-0.15188895857050494,-0.009481552931132065,-1.5212941616341862,1.5288872037543777
1.9746331758269087,-0.1655382348780136,-0.009324358478059569,-1.5075422684187476,1.5166323028132755
1.9771201193732901,-0.16960649007278067,-0.02353094241751119,-1.4889809742561653,1.4987943182514083
1.9796070629196716,-0.17845896749617696,-0.013794087976854996,-1.5230713023839986,1.5335527614296824
1.982094006466053,-0.1825188938187382,-0.004055821527674031,-1.5331989827027055,1.544030024594629
1.9845809500124347,-0.20572831888353244,-0.02304657274195243,-1.5337294078278507,1.5476372902401143
1.9870678935588162,-0.2193568559402,-0.018093914826346147,-1.5390279700018876,1.5546870786270284
1.9895548371051976,-0.20425092480868107,-0.013139874092415571,-1.5299412378496235,1.5435709532927875
1.992041780651579,-0.2130829950429085,-0.008184460229977653,-1.5112577962196259,1.5262278580868298
1.9945287241979606,-0.22191108300079865,0.0015607204117285,-1.497343036221018,1.5136984946568348
1.997015667744342,-0.2211584149298465,0.011307254863191396,-1.4834087352993048,1.4998467836646203
1.9995026112907237,-0.22040183028709448,0.011478326855013599,-1.4790318804762954,1.4954076441714943
2.001989554837105,-0.21006455517630873,0.01643913673987729,-1.4698474417853333,1.4848733497106956
2.0044764983834864,-0.20930023555076838,0.011824464969184767,-1.4654324054721926,1.4803508170637902
2.006963441929868,-0.20853209736918848,0.007211108616576478,-1.4705753540709594,1.48530451683202
2.0094503854762498,-0.19818336651726948,-0.011766151825114868,-1.4661228531205754,1.4795037375874744
2.011937329022631,-0.19261928540893708,-0.011588502639094056,-1.452075081045436,1.4648407843509734
2.0144242725690127,-0.18705148310320996,-0.016197969931404543,-1.4236438125516475,1.435970868986415
2.016911216115394,-0.191056798546069,-0.03038296650584682,-1.4095596451873558,1.4227734247817088
2.0193981596617756,-0.1998468606482663,-0.03498988854359375,-1.3954575462156154,1.410129364030608
2.0218851032081573,-0.20863329824595928,-0.04438395544686946,-1.395702902416902,1.411908063739655
2.0243720467545385,-0.21262774010038105,-0.0633535799560363,-1.4055074868838933,1.422910934542327
2.02685899030092,-0.21183021821787068,-0.07274515818862781,-1.420083072300578,1.4376368914384354
2.0293459338473014,-0.21581757116986505,-0.07255869952204552,-1.4202762209792414,1.4384111139660543
2.031832877393683,-0.21980142749103643,-0.08673622991380503,-1.420452318061507,1.4399724403588654
2.0343198209400644,-0.21899341563993913,-0.1009125487374245,-1.4301883449537822,1.4503724213552769
2.036806764486446,-0.22297037395964098,-0.09114564870420638,-1.4303308627236255,1.4504722313099012
2.0392937080328277,-0.2221555274352467,-0.0909543623475475,-1.4304568519414858,1.4504594374426427
2.041780651579209,-0.22133731093579367,-0.10512710225724531,-1.4401432927567956,1.4608403802310774
2.0442675951255906,-0.21572735261239856,-0.10493345775911456,-1.435448341653771,1.4553560604810767
2.046754538671972,-0.2053256838589172,-0.10473864803991972,-1.4211605746134826,1.4397312942633032
2.0492414822183536,-0.2092859492725817,-0.1093310856238694,-1.4116453738306163,1.4312569847179786
2.0517284257647352,-0.1988777601693611,-0.09955716641160972,-1.4021145077896708,1.4196439996802586
2.0542153693111165,-0.19325476098992456,-0.0945705128442258,-1.397356551184851,1.4138232971924438
2.056702312857498,-0.18762857949467993,-0.10394794070004165,-1.383006464996292,1.3995415465217569
2.0591892564038794,-0.18199924668537565,-0.10853584581331255,-1.3734296296912643,1.3896807918850784
2.061676199950261,-0.17636679348451767,-0.10354583395696837,-1.3590494086988336,1.374351585606283
2.0641631434966428,-0.17551965405541514,-0.10334312416286329,-1.3398659716501662,1.355259300745624
2.066650087043024,-0.17945785916128493,-0.09356251551859618,-1.3350331010172773,1.3502860616686847
2.0691370305894057,-0.17860463284468514,-0.08378082369086925,-1.3541277721893188,1.3684227653420242
2.071623974135787,-0.17296000570849623,-0.08357486432388006,-1.3588429269082223,1.3723534608583687
2.0741109176821686,-0.17210081491566737,-0.07379103311737589,-1.3443903297121835,1.3573684708607312
2.07659786122855,-0.1856038975483349,-0.06879454899066006,-1.3299237612932302,1.3445738014732749
2.0790848047749315,-0.1895272673653825,-0.07816222752003066,-1.3202317919329332,1.3360546034187097
2.081571748321313,-0.179082551325629,-0.06358685105590967,-1.3296797981021875,1.3431910561411498
2.0840586918676944,-0.17821179622820527,-0.053798848410284705,-1.3343259292563214,1.3472488433436867
2.086545635414076,-0.18212662886855918,-0.058375035091027705,-1.3341703509974057,1.3478086953071067
2.0890325789604574,-0.18125027263977572,-0.06295020998152667,-1.3244248251506594,1.3382509135973215
2.091519522506839,-0.1803711608135869,-0.05794757526250338,-1.3433967429658367,1.3566895319649455
2.0940064660532207,-0.18427772657919683,-0.0529439463728969,-1.3527790421077448,1.3662988248317718
2.096493409599602,-0.18339319308210938,-0.0479393320879371,-1.3238414664201432,1.3373434379557574
2.0989803531459836,-0.18729439666608222,-0.04772214448001666,-1.3092566157287546,1.3234460623409612
2.101467296692365,-0.1864045603104011,-0.05708079559833479,-1.3090246528708551,1.323461529155387
2.1039542402387466,-0.18551211687183106,-0.05207327754696767,-1.2992037236155252,1.3134141339262333
2.106441183785128,-0.1846170958031504,-0.04227640564887869,-1.27979398986513,1.2937323614381324
2.1089281273315095,-0.17414271983261137,-0.04205539852399154,-1.2651608230130922,1.2777817699055172
2.111415070877891,-0.1732426315262211,-0.03704505484695675,-1.2744579973016474,1.2867122958738173
2.1139020144242724,-0.17712845676408712,-0.0320337865502176,-1.2789552532968322,1.291559984519471
2.116388957970654,-0.1714350147011397,-0.022233198902096074,-1.2930179609728487,1.3045227965801838
2.1188759015170353,-0.17052754432941913,-0.022008510428614514,-1.2927042632652128,1.3040890806115835
2.121362845063417,-0.17440607459505358,-0.016994519710323175,-1.2828027225535443,1.2947158443251652
2.1238497886097987,-0.17349382771836508,-0.011979638585380314,-1.2728903040585458,1.2847152782477769
2.12633673215618,-0.17736763911553494,-0.021329085508869028,-1.2342367459576415,1.2470984541591617
2.1288236757025616,-0.18602753747653494,-0.03067765899027375,-1.2147262390709646,1.229271003216214
2.131310619248943,-0.18510834144460592,-0.025660157515291715,-1.214358940531783,1.228654214254587
2.1337975627953245,-0.1746100795379395,-0.020641799467671085,-1.2139813937068809,1.2266481109217957
2.1362845063417057,-0.17368639346979436,-0.025199399886977503,-1.2088053514373183,1.2214795744074916
2.1387714498880874,-0.1775489082654914,-0.024967757187304596,-1.1988309693963615,1.2121644677637815
2.141258393434469,-0.1670440389028484,-0.015158476399414589,-1.2032120160490045,1.2148467581981022
2.1437453369808503,-0.16611383015574238,-0.01971358245194832,-1.1884298228458814,1.2001449386351606
2.146232280527232,-0.16996990678923612,-0.02905627700731994,-1.16406135062811,1.1767637249990361
2.1487192240736133,-0.15467028020002,-0.043186568344490084,-1.1492603663837357,1.1604255103206775
2.151206167619995,-0.14894539822091923,-0.042950851437049575,-1.1536038299651281,1.1639722092045703
2.1536931111663766,-0.15279528867540398,-0.037925941156304877,-1.157938280806361,1.168591391124709
2.156180054712758,-0.15664317265865912,-0.0376886523493658,-1.1574754678047228,1.168634663454
2.1586669982591395,-0.15091227117804468,-0.023085379917232807,-1.1570039459990777,1.1670328099138754
2.161153941805521,-0.1451794184341662,-0.018058148619448655,-1.1565238666076283,1.1657403717387091
2.1636408853519025,-0.15380985185977308,-0.022606966589683974,-1.1512469770266343,1.1616962372240327
2.166127828898284,-0.15286158223677876,-0.02236663197632982,-1.122019814188512,1.132605576969105
2.1686147724446654,-0.1519114435007845,-0.026913959504959895,-1.1167265610058887,1.1273329853857579
2.171101715991047,-0.13659425289716792,-0.031460553915796385,-1.1305789633625452,1.139235071780689
2.1735886595374283,-0.13564045746529962,-0.03121801992461526,-1.134846750034061,1.1433503594840386
2.17607560308381,-0.1346848742727611,-0.04055157550396027,-1.1438952791709909,1.1525106747199358
2.178562546630191,-0.12893912693862802,-0.045096018679982475,-1.1529362951335909,1.1610000215300822
2.181049490176573,-0.13276845227394307,-0.04485135741522406,-1.1380279284906418,1.146624032630534
2.1835364337229546,-0.1318076670784411,-0.05418280960858324,-1.1231123425026492,1.1321176492924794
2.186023377269336,-0.1308452013435269,-0.05393676989216045,-1.112978086636316,1.1219402226472062
2.1885103208157175,-0.12988108165056678,-0.05369005279528993,-1.0884716932431004,1.097507332153815
2.1909972643620987,-0.12412693117075063,-0.053442666182010434,-1.0591701140815477,1.0677569686843673
2.1934842079084804,-0.12315958294619317,-0.04840621457134642,-1.058592316995826,1.066831354096419
2.195971151454862,-0.12219065996792894,-0.05294591573884588,-1.0532196228287294,1.06160510609563
2.1984580950012433,-0.11643178513671493,-0.062273374154039995,-1.0622057884283898,1.0703809932399904
2.200945038547625,-0.11545979122382233,-0.06681179094138257,-1.0663973435612952,1.0747083665594266
2.2034319820940063,-0.11927470426936115,-0.06177277052080932,-1.0657944307549574,1.0742253482787696
2.205918925640388,-0.12308814690245018,-0.05673312724836377,-1.0747624019765976,1.0832744621460269
2.208405869186769,-0.12211174166140859,-0.051692868814599446,-1.0741477854289787,1.0823016654703277
2.210892812733151,-0.1259223209545688,-0.061017212846117275,-1.0639507220728586,1.0731126083396145
2.2133797562795325,-0.1249431038179668,-0.0559757470617912,-1.0585365623056688,1.067353604570058
2.2158666998259138,-0.12875092247772324,-0.05093368903837181,-1.0531170427183518,1.062180091313036
2.2183536433722955,-0.13255739910773812,-0.04589104636671015,-1.0572691093365858,1.0665343040672517
2.2208405869186767,-0.13157415579051324,-0.040847826612677274,-1.0709929010182702,1.0798176223059595
2.2233275304650584,-0.13058962115766487,-0.040592440637448046,-1.0703465394916645,1.079047315919366
2.22581447401144,-0.13918062706950068,-0.03554808931623121,-1.045753355916938,1.0555733015840407
2.2283014175578213,-0.13819358537272425,-0.03050318346012304,-1.02115550416657,1.0309153577908579
2.230788361104203,-0.13241692442376657,-0.030246133855149626,-1.006129927621286,1.0152568649077176
2.233275304650584,-0.1410042824480568,-0.02998854462162104,-1.0054651658098255,1.015746877983976
2.235762248196966,-0.14001366769617102,-0.03451882649536531,-1.0047961444471465,1.0150914581554717
2.238249191743347,-0.13902191156873323,-0.02947177690583258,-1.0089114019960697,1.0188708920211071
2.240736135289729,-0.14281744205381808,-0.029212613179203206,-1.0082342664242656,1.0187180839249053
2.2432230788361105,-0.132246670445606,-0.02895293933524279,-0.9979764684846852,1.007116917834897
2.2457100223824917,-0.13125163782866578,-0.02390435936853752,-1.0068685616366277,1.0156686030599444
2.2481969659288734,-0.13983236859348924,-0.028432090529722398,-1.0109686622793372,1.0209892806436454
2.2506839094752547,-0.13404687043640318,-0.023382526802035564,-1.0007000962355903,1.0099089011585953
2.2531708530216363,-0.13783718416417057,-0.013544078745045152,-0.9904282053915594,1.000065278590605
2.255657796568018,-0.14162652724859148,-0.01807036685401142,-0.9609995078523266,0.9715475621250605
2.2581447401143993,-0.12626131042799915,-0.013019381716127931,-0.9315677477458504,0.9401754578011181
2.260631683660781,-0.1252603808712046,0.00639727282544067,-0.9164982653393885,0.9250406253163752
2.263118627207162,-0.11468174581028351,0.006660766390309547,-0.9014259804372813,0.9087161640679199
2.265605570753544,-0.10410223562639925,0.0021363018265221356,-0.9055046355443022,0.9114716036389329
2.268092514299925,-0.10788708392787066,0.0024006786871186847,-0.9095807460602892,0.9159598898097069
2.2705794578463068,-0.09730589434697329,0.00745388990983864,-0.9088660368029462,0.9140905154323322
2.2730664013926885,-0.08672390030549582,0.002930718496818585,-0.9129374420071823,0.9170520143447276
2.2755533449390697,-0.09050633513186057,0.0031963673974115814,-0.91700668540261,0.9214677826905405
2.2780402884854514,-0.08949960881887192,-0.015691186976166893,-0.9114970868535437,0.916014919458165
2.2805272320318326,-0.08370374454709101,-0.02500153166291419,-0.8868319656787147,0.8911241938059304
2.2830141755782143,-0.07790716872383807,-0.024734673598305612,-0.8765302705334879,0.8803332585890918
2.285501119124596,-0.07689830766282152,-0.029255829653387355,-0.8662269163233454,0.8701254644320933
2.287988062670977,-0.07588878094345702,-0.04335341003317428,-0.8654988340080187,0.869900486782154
2.290475006217359,-0.07009020805143862,-0.06223901827667344,-0.8743461473587573,0.8793563089338927
2.29296194976374,-0.06429101501931161,-0.0667590479365372,-0.8879805762780997,0.8928043508746988
2.295448893310122,-0.06806803110611037,-0.06649031246188386,-0.8824602268384147,0.8875755012739185
2.2979358368565035,-0.06705606887543653,-0.07579802859672347,-0.8817272377657748,0.8875160727165678
2.3004227804028847,-0.07083195739853376,-0.08510539645807214,-0.8857817306347666,0.8926753995834743
2.3029097239492664,-0.06503050905112778,-0.08962401945783283,-0.870681809868028,0.8776948478863776
2.3053966674956476,-0.05922855271650196,-0.08456550098246929,-0.8651580158607608,0.8712965843049288
2.3078836110420293,-0.05821451386358262,-0.07950665435393889,-0.8548452585740431,0.860506045195182
2.3103705545884106,-0.066776817867222,-0.07923588954845107,-0.8493204640187653,0.8556183262401859
2.3128574981347922,-0.07055027672690412,-0.06938800323551053,-0.8485837510130256,0.8543339037066191
2.315344441681174,-0.0695349123089028,-0.05475140534043499,-0.8622120444629502,0.866742424272367
2.317831385227555,-0.06851914970562456,-0.04969131240369906,-0.851898235518588,0.8560926959649098
2.320318328773937,-0.07229141391526689,-0.04463092433876836,-0.8367960546203488,0.8410978569473251
2.322805272320318,-0.07127491988085316,-0.029993441033651536,-0.826482425014305,0.8300921151092736
2.3252922158666998,-0.07025809241208203,-0.020144078952463396,-0.8161690594315036,0.8194351207017753
2.3277791594130814,-0.06924095290405419,-0.02465965121354108,-0.7914908634079403,0.794896342182603
2.3302661029594627,-0.0682235226575631,-0.019598147667590382,-0.7668131618467662,0.7700915280778269
2.3327530465058444,-0.08157103284001332,-0.014536381382038055,-0.7565012790960406,0.7610251803036586
2.3352399900522256,-0.08055308464165256,-0.014262762078548263,-0.7318249090656685,0.7363830004531395
2.3377269335986073,-0.07953490904118116,0.00037631714822961015,-0.7358797949145917,0.7401655327927169
2.3402138771449885,-0.08330493028230096,0.010227236666610295,-0.7590892427224016,0.7637151210995125
2.34270082069137,-0.08228636255339133,0.015289990151589716,-0.7583577347703017,0.7629621767473451
2.345187764237752,-0.0956328398703119,0.01556457130362121,-0.7528389959471511,0.7590483843341218
2.347674707784133,-0.10419076959201967,0.025416183809536808,-0.742533137303905,0.7502380681237105
2.350161651330515,-0.09838336562368794,0.04484482142066959,-0.7322286726549514,0.7401683414587035
2.352648594876896,-0.08778745505732749,0.035543251351290106,-0.7267141152576002,0.7328597173379773
2.3551355384232777,-0.08197986489053422,0.03581869396609916,-0.7164127678509473,0.7219770986844131
2.3576224819696594,-0.09053742202648973,0.045671143092726574,-0.7252667558588328,0.7323214767112834
2.3601094255160406,-0.09430653335208378,0.0459469793029732,-0.7293341709443499,0.7368399962319078
2.3625963690624223,-0.09807562226136435,0.04143459979561781,-0.7334035241347046,0.7410913458915716
2.3650833126088036,-0.1018447087336587,0.0417108051151609,-0.7231097126179389,0.7314368000331929
2.3675702561551852,-0.09603700601327608,0.04198718587056893,-0.7176064562662443,0.7252206949448705
2.3700571997015665,-0.09022934053138643,0.03268692937589979,-0.7121054577921075,0.7185429369648421
2.372544143247948,-0.09399853862478141,0.018598432931526965,-0.7066068226700803,0.7130742098933388
2.37503108679433,-0.09776781325464179,0.014086900503835764,-0.6963222524960653,0.7032934418829693
2.377518030340711,-0.10153718392842359,0.014363922803331874,-0.6908286582685026,0.698398422881577
2.3800049738870928,-0.10530667005925076,0.009852687245575531,-0.6949145471070448,0.7029173479050835
2.382491917433474,-0.10428788764562141,0.0005531879121072336,-0.6654843923697005,0.6736065216534957
2.3849788609798557,-0.10326925923236496,-0.008746177769871188,-0.6504223299418683,0.6586275448347056
2.3874658045262374,-0.10225080394972563,-0.018045415668145992,-0.6593052685878789,0.6674311208826994
2.3899527480726186,-0.09165573419308182,-0.04170974158608498,-0.663402889950996,0.6710021390047757
2.3924396916190003,-1.1536632192948297,-1.50189494747365,-24.441926183709654,24.51518677935602
2.3949266351653815,-1.0185701042743898,-0.9940462783803823,-24.857832965155346,24.898543587616672
2.397413578711763,-0.8020743815181065,-0.4622554881199745,-23.281767352733077,23.300165117796322
2.3999005222581444,-0.5472716995679603,0.07432380428535756,-19.986668435030843,19.99429782395195
2.402387465804526,-0.249373673668858,0.572595963236727,-15.355608576446507,15.368304009202564
2.404874409350908,0.03415883786433471,1.0134073697621608,-9.872216610545868,9.924153471648363
2.407361352897289,0.27938380005297103,1.3728160015946171,-4.034486580297389,4.27080332590556
2.4098482964436707,0.5006664045748962,1.6125146265313481,1.6595874718886492,2.367509418417854
2.412335239990052,0.6692762133190951,1.7468684489182622,6.750318730722526,7.004732899539012
2.4148221835364336,0.7660595949090889,1.7519354465639676,10.86900004455842,11.035908982974194
2.4173091270828153,0.7862281280231935,1.6229272105834762,13.73790392539451,13.855758790608222
2.4197960706291965,0.7345701980742103,1.398150961999943,15.23732019535594,15.318953822772693
2.4222830141755782,0.6302394005295975,1.1015487119005085,15.328941533572257,15.381386797241207
2.4247699577219595,0.4636589110287031,0.7379088581163695,14.11811271933867,14.144984829423299
2.427256901268341,0.2635591318670437,0.3407502184256854,11.810735002234393,11.818588554491281
2.429743844814723,0.058670465433723396,-0.07077359932927418,8.655805262277765,8.65629342526879
2.432230788361104,-0.15579550903061445,-0.45835537399961535,4.9837232364918425,5.007180762410836
2.4347177319074857,-0.34153158230922676,-0.7980530943727175,1.120100259131977,1.4170946170457484
2.437204675453867,-0.4889609650136312,-1.0850783624918705,-2.5950871250265877,2.8549877520812346
2.4396916190002487,-0.5980836743026059,-1.285912360453513,-5.860169597215707,6.0293334945386565
2.44217856254663,-0.6545345172806486,-1.39576669025093,-8.459669097877025,8.598987227197243
2.4446655060930116,-0.6583135109199141,-1.4098529538523947,-10.221203196779134,10.338958207672281
2.4471524496393933,-0.6046322687790299,-1.3329595598418227,-11.053792319581914,11.150277396238657
2.4496393931857745,-0.5030676142844044,-1.1890285300593915,-10.967013361114928,11.042746394475893
2.452126336732156,-0.3727731774099884,-0.9636946597578353,-10.04705766877931,10.100051239415533
2.4546132802785374,-0.21853737807574647,-0.6952651806883365,-8.408847009342992,8.440370861735307
2.457100223824919,-0.04993703942912797,-0.4028937112961195,-6.25349440878702,6.266658549118456
2.459587167371301,0.10908580551456071,-0.0770034500792729,-3.7773244892156637,3.7796837885089336
2.462074110917682,0.24416593047322627,0.22494475800419345,-1.2245459053863197,1.268751283804601
2.4645610544640637,0.35051491589828476,0.4885856979042593,1.1797863017805437,1.3241874521127233
2.467047998010445,0.4185559390134729,0.7234961711972754,3.2920199483622916,3.3964733363057382
2.4695349415568266,0.45307738709595013,0.9057341562420018,4.9445608343850385,5.047208666720207
2.472021885103208,0.4445024375545169,1.006569228101795,6.027275600271439,6.126892784240702
2.4745088286495895,0.39761947785128315,1.0403665917476417,6.50185693680096,6.5965602794955265
2.4769957721959712,0.312428492220448,1.0071262422142877,6.387458375147167,6.473912211695916
2.4794827157423525,0.21287148158992908,0.911636577881493,5.722387060315512,5.798457483320213
2.481969659288734,0.0989484303783087,0.7730512071146793,4.5880457677445,4.653768680071455
2.4844566028351154,-0.029340676903768736,0.5817933183820618,3.1280865165863716,3.1818657413355207
2.486943546381497,-0.15763064569273144,0.35701652009838547,1.4765845199019783,1.5272884666947577
2.4894304899278787,-0.257191071372183,0.12745122734360326,-0.21801979873841582,0.3604492962774397
2.49191743347426,-0.3280219691557412,-0.11169096801974687,-1.7977092085745223,1.8308008311063313
2.4944043770206417,-0.37491175748569816,-0.3316796508626143,-3.147562108182794,3.1871174188544535
2.496891320567023,-0.3930720480720469,-0.5037844060312242,-4.167022105552231,4.215729781532106
2.4993782641134046,-0.3777144525332673,-0.6519472548707523,-4.817782051289424,4.876343642988314
2.501865207659786,-0.3240505823964106,-0.7474377821784333,-5.061534795454745,5.126675970234356
2.5043521512061675,-0.25602246901907166,-0.7902559926488992,-4.907857220766021,4.977661553177887
2.506839094752549,-0.17363012706605174,-0.7756134876320175,-4.414210242599085,4.485195176253575
2.5093260382989304,-0.07208516779071039,-0.7178754817344812,-3.61411275918364,3.685424333070062
2.511812981845312,0.024670377722744274,-0.6218303828979579,-2.608121314689778,2.681338927620143
2.5142999253916933,0.1070596884419639,-0.48268979239911847,-1.50636925938481,1.5854335552760122
2.516786868938075,0.18465955670666634,-0.3148189247715405,-0.3854711197510543,0.5308465799452259
2.5192738124844567,0.25268156498634536,-0.14694820448539003,0.6444397550293335,0.7076329175128133
2.521760756030838,0.2728184725988944,0.025710767255518796,1.5115372428776723,1.5361757058195837
2.5242476995772196,0.2881658953980288,0.1840043726702234,2.158360432217984,2.1852727399106304
2.526734643123601,0.2939354161247148,0.323144203962924,2.551390428616024,2.588515660497479
2.5292215866699825,0.24224298772736202,0.4479186600025078,2.666685144817297,2.714870614351772
2.5317085302163638,0.1809726296508049,0.5295973164399475,2.5425517372708892,2.603419625600594
2.5341954737627455,0.12448953818766845,0.5777569755128944,2.183778539721718,2.262341591895686
2.536682417309127,0.05364008647842966,0.5876092295220827,1.6430379196560398,1.7457764664826354
2.5391693608555084,-0.017210529004564212,0.544788864151776,0.996944261697978,1.1362169554028516
2.54165630440189,-0.07369711169921933,0.46366108503214765,0.2790163211255372,0.5461345745330766
2.5441432479482713,-0.12060807823513231,0.37774471109866603,-0.4341315163648556,0.5879690032644879
2.546630191494653,-0.167520248472804,0.2726745281076077,-1.089826881143992,1.1358420060867345
2.5491171350410347,-0.185703215620867,0.14845053180022205,-1.6401858063681587,1.6573269816470333
2.551604078587416,-0.19431060600191252,0.024226331222969577,-2.0229591146995585,2.0324141080191747
2.5540910221337976,-0.18855402924790265,-0.09042127119452958,-2.2573004847133475,2.2669658370864716
2.556577965680179,-0.1588566915815388,-0.20028068295963042,-2.3240563678900363,2.3380730958541984
2.5590649092265605,-0.12437221905858586,-0.29098669827462054,-2.194496408538466,2.2171955697535
2.561551852772942,-0.0755238177242401,-0.3433857079976761,-1.9308699135230114,1.9626197325129164
2.5640387963193234,-0.017099903496124003,-0.3814197328459845,-1.5427537526553436,1.5892962469709744
2.566525739865705,0.02216909119505961,-0.38593516363021907,-1.0876088284211143,1.154266166354298
2.5690126834120863,0.07101357385060325,-0.3617204077388805,-0.5845888162158008,0.691106840575615
2.571499626958468,0.11506832217715035,-0.30877546921648724,-0.09115461747021492,0.34189497428986515
2.5739865705048492,0.13517971064904982,-0.25104236868546304,0.33044446359089186,0.4364508776073672
2.576473514051231,0.14092453375040148,-0.17415590018217797,0.6706315597914028,0.7070620133830431
2.5789604575976126,0.13709118273273924,-0.07332766435996918,0.9198298044801838,0.9328760946415139
2.581447401143994,0.13325645225550808,0.017923511588811003,1.0540971215686756,1.0626378856575585
2.5839343446903755,0.1054783138234281,0.10917443037814101,1.0830102587334505,1.0935977100640437
2.5864212882367568,0.0585451589504139,0.19084828146422028,1.006569157532475,1.0261735092419857
2.5889082317831384,0.02118739583911855,0.24857985100637503,0.8199853567245334,0.857097913491484
2.59139517532952,-0.011383390462958887,0.28236913514827133,0.556777622151154,0.6243902870730038
2.5938821188759014,-0.05832082478236955,0.31136974333819323,0.2504647201731931,0.40383785325452604
2.596369062422283,-0.08610609533548685,0.3116396551649445,-0.07501138897068493,0.3319039662320426
2.5988560059686643,-0.10910442345521554,0.29754407680312367,-0.3861319378836807,0.4995339090711709
2.601342949515046,-0.11773901378645324,0.26908300448965106,-0.6541665619727208,0.7170788167808291
2.603829893061427,-0.11679828084874089,0.2166796278440497,-0.8647501060900318,0.8991021329718768
2.606316836607809,-0.1158590423957877,0.14991074979027896,-1.013094221213768,1.0306582613380069
2.6088037801541906,-0.09576769617343595,0.08792997991607798,-1.0991989611286463,1.1068610974935857
2.611290723700572,-0.07088946308387667,0.016372104590113068,-1.0991223625050477,1.1015277252723634
2.6137776672469535,-0.03643595066235972,-0.06476287983494888,-1.0176528814233947,1.0203622867268878
2.6162646107933347,0.002804427000742016,-0.13153296038178963,-0.8835209900549419,0.8932626289872787
2.6187515543397164,0.032466449259844876,-0.17914973733141082,-0.6967267401391002,0.7201228014292512
2.621238497886098,0.06212691215612054,-0.21719002090274353,-0.4812121995080574,0.5315980054036799
2.6237254414324793,0.09178580517515289,-0.255230621291767,-0.25613103216604927,0.37305550487169903
2.626212384978861,0.1166547145671617,-0.2645411221091356,-0.04542530493040253,0.29266668079152197
2.6286993285252422,0.14152203330767654,-0.2546983335050852,0.12217451256662137,0.31595306379697957
2.631186272071624,0.14723413785526407,-0.2400674689273843,0.2658219844008478,0.38726167945975254
2.633673215618005,0.13857942135446022,-0.206283321879146,0.37115185190959465,0.4466662759649021
2.636160159164387,0.13471148699498647,-0.15334589580168334,0.4190104536125272,0.4660814400125765
2.6386471027107685,0.12126511480846014,-0.0956204040745483,0.4189745484527876,0.446529015850153
2.6411340462571498,0.10781710151197804,-0.04268365673432495,0.3758324925537444,0.39331473960407104
2.6436209898035314,0.08957903394544975,0.024617956126898655,0.3039494491788677,0.31782969455764043
2.6461079333499127,0.056974095712055695,0.0823424145568028,0.1889601621681365,0.21385103157071583
2.6485948768962944,0.043521100381202604,0.13527811854748073,0.05959500574163101,0.15409678856316897
2.651081820442676,0.07795045828522917,0.18821346811352546,-0.06978085534529832,0.21533683219300817
2.6535687639890573,0.07407090015204698,0.22199484669042802,-0.21353267576408186,0.3168034308927377
2.656055707535439,0.05103602983934408,0.2222570410564093,-0.2950460466062417,0.37290084239497956
2.65854265108182,0.05194146788910081,0.203365257933942,-0.34783983483763414,0.4062608705264215
2.661029594628202,0.03369157516022803,0.18926151070846098,-0.4197981168933129,0.46172015401062777
2.663516538174583,0.029805165719017812,0.17515739286582255,-0.4438832890302482,0.47812219615847273
2.666003481720965,0.0402822304717807,0.13232248131257762,-0.43924900678157996,0.46051230940236937
2.6684904252673465,0.03639234048498163,0.08469878950092813,-0.40589531191090344,0.4162322568232152
2.6709773688137277,0.051654310070997855,0.04665152426463015,-0.35339905233531077,0.3601880379143926
2.6734643123601094,0.06212611378014088,0.008603875857982501,-0.28176026884526983,0.28865642170747097
2.6759512559064906,0.06780774284576674,-0.029444158801966047,-0.21013261502774228,0.2227567381153494
2.6784381994528723,0.08306439854348346,-0.05312737281519064,-0.11457411410329854,0.15116031116067005
2.680925142999254,0.08874245898785627,-0.07681097918155944,-0.023815225333414958,0.11975940676089973
2.6834120865456352,0.08005351233533675,-0.1004949809180058,0.052567205782771964,0.1388204493248115
2.685899030092017,0.0713627601043888,-0.10981417105863356,0.12893835082781813,0.1837849123546568
2.688385973638398,0.057881790612819395,-0.11434535921721256,0.16699094533959702,0.21050211087889814
2.69087291718478,0.049187402219773246,-0.09972333838411762,0.1954553718179728,0.22487095661313172
2.6933598607311615,0.04049118340367219,-0.07552491812948858,0.21911999663760184,0.23528094295619953
2.6958468042775428,0.0317931260432881,-0.06090371464235078,0.2188311700467196,0.22936247797941495
2.6983337478239244,0.018304818776913923,-0.041494520847817906,0.18501204940807803,0.19048968496226446
2.7008206913703057,0.00960306028344271,-0.012508936289975292,0.13202780915863954,0.13296629138674299
2.7033076349166874,0.0008994393602977935,0.016476229547771393,0.06945522088645717,0.07138839429249172
2.7057945784630686,-0.007806051795513302,0.045460973844243746,0.002082653329351203,0.04617328266856828
2.7082815220094503,0.0026401923733653243,0.06486848715913629,-0.05572471766529219,0.08555778983213588
2.710768465555832,0.00829614762036801,0.06512196007365656,-0.11354373238411064,0.1311559183296293
2.713255409102213,0.009161806379198723,0.0749518097529438,-0.16658602068644335,0.1829005597845877
2.715742352648595,0.024390774443324714,0.07999282350073633,-0.18612119536508764,0.20404622283613638
2.718229296194976,0.034829431122033405,0.07545659528274751,-0.18172609531158024,0.1998278277946852
2.720716239741358,0.04047776908398837,0.07091992904694289,-0.18691957555659044,0.20397797393908987
2.7232031832877395,0.060489394357037596,0.061594418801615536,-0.18254805414621345,0.20193224440331192
2.7256901268341207,0.07571068648425494,0.04748006189660536,-0.14466954534645105,0.17004629274515654
2.7281770703805024,0.09093004168783125,0.02857685570291313,-0.09722609616790479,0.13615367398372516
2.7306640139268836,0.1109358562672863,0.009673200932999837,-0.045006139882785234,0.12010781676974662
2.7331509574732653,0.13093971995867637,-0.00923090499991508,-0.0023749159480601634,0.13128617633145692
2.7356379010196465,0.14615322257498353,-0.023347061341234987,0.04024435323531783,0.15338010858534787
2.7381248445660282,0.15657635732626546,-0.0326752706356932,0.08285163907896376,0.1801339032018932
2.74061178811241,0.1669975208194293,-0.03721553540706646,0.12065851012595274,0.20936008239701517
2.743098731658791,0.17262830309711497,-0.036967858158230005,0.14887653536984047,0.23093587064534554
2.745585675205173,0.16868029427810105,-0.04150904801181987,0.148352074292319,0.2284390086903462
2.748072618751554,0.15515348787742433,-0.03647389746809715,0.13823871338529514,0.21098078555988245
2.7505595622979357,0.14641308744680182,-0.036227618928428296,0.1329016362667037,0.20102755401012934
2.7530465058443174,0.13767068333222998,-0.031193408171891868,0.12276401039786755,0.18707551419549573
2.7555334493906987,0.12892626927536954,-0.01179446095690384,0.11261421364463153,0.17158978213555648
2.7580203929370803,0.1201798390929939,0.002815607056896763,0.10724062431499348,0.1610952291999559
2.7605073364834616,0.10664298335649702,0.017425196832002054,0.10664321783743702,0.15181942989792566
2.7629942800298433,0.09310409935261754,0.036822709351442384,0.09645676011889748,0.13902586742357487
2.7654812235762245,0.07956318112228322,0.04664293233750261,0.09104643742614549,0.12959674646892613
2.767968167122606,0.07559702942136726,0.05167426681414167,0.06647020990002694,0.11315224042089406
2.770455110668988,0.07162883179857948,0.06149351714603979,0.03230486135870336,0.09977848597380362
2.772942054215369,0.05329337255620881,0.08567748771822625,0.031645999296241456,0.10574632254399864
2.775428997761751,0.04932106595303698,0.10028415969384152,0.04055158515461699,0.11888612741104777
2.777915941308132,0.05971190639944113,0.10531353085785078,0.03986798412695158,0.12745943553127
2.7804028848545137,0.06052387177749663,0.10076559901542348,0.0631139983592135,0.133417471827204
2.7828898284008954,0.056545359964202735,0.09142876531220745,0.11986641382376284,0.16101103696009642
2.7853767719472766,0.05256476890940032,0.0964566408748957,0.11914554719290038,0.1620573969779316
2.7878637154936583,0.05815889995586432,0.08233040032681815,0.10883541185303258,0.1483438550640693
2.7903506590400395,0.05417413459691245,0.06341525151444172,0.10808960169227078,0.13652726093333167
2.792837602586421,0.04539887099962514,0.05407640230420574,0.10254288777864495,0.12450043617670857
2.7953245461328025,0.036621507403070686,0.03516023734028195,0.09698365488208971,0.10946783275732831
2.797811489679184,0.037418845438403125,0.011455157888281775,0.10577709483232134,0.11278379505653491
2.800298433225566,0.04300247684739811,-0.002673628125730243,0.13371159323613213,0.14048185458667095
2.802785376771947,0.029430380161925007,-0.016802929357471186,0.15684511619463493,0.16046456364436396
2.8052723203183287,0.03500977714904385,-0.04050955444292459,0.17996605014552358,0.18776178445618558
2.80775926386471,0.04058704980297656,-0.05463989207651432,0.20786278193971697,0.21872302698518223
2.8102462074110917,0.04137379014957798,-0.0591939442142797,0.21659327891795144,0.22831636388006463
2.8127331509574733,0.04694680024611986,-0.0637485194332994,0.2013691221124283,0.21637328652959192
2.8152200945038546,0.05251767225919268,-0.0587268130098626,0.18134390956560864,0.19771838053746796
2.8177070380502363,0.06287480506605947,-0.04891723016170291,0.16609443308647798,0.18421046990088946
2.8201939815966175,0.06844138765286689,-0.04389657940742353,0.1604090815693855,0.17983939133976184
2.822680925142999,0.07400581903630121,-0.02451124932437221,0.15949943767219033,0.17753234413035904
2.825167868689381,0.09872170826337723,-0.00991485503302414,0.14900027781472858,0.17901218623778534
2.827654812235762,0.10428182460651758,0.00946940828728815,0.13848839541948976,0.17361855978679472
2.8301417557821438,0.10983977725084493,0.014487925554629744,0.1471173909491199,0.1841689533365163
2.832628699328525,0.12976077212989334,0.024294308268753895,0.14136842874083477,0.19342467278673584
2.8351156428749067,0.14010278868319492,0.024523344706373962,0.15954872333299086,0.21374279157338352
2.837602586421288,0.13607741969981602,0.024751839764869388,0.17292784317446142,0.22143567162694625
2.8400895299676696,0.14162667795875505,0.03934500168098509,0.16714056706842406,0.22258057917721394
2.8425764735140513,0.1663273663459094,0.03478400550733918,0.17091730409264372,0.24101337031998496
2.8450634170604325,0.1718722546116604,0.020645656198328588,0.18425804379324262,0.25281879227554965
2.847550360606814,0.16304974245659576,0.020871968688176867,0.1975859694644111,0.257023487100447
2.8500373041531954,0.16859024625002772,0.030674538008099272,0.20132426478741472,0.26437673499165615
2.852524247699577,0.169340149225085,0.026111345926867813,0.20983813043061517,0.2709057576137917
2.855011191245959,0.16529944796286244,0.026336004114824174,0.2135507508447656,0.27133266628978947
2.85749813479234,0.16604494575157025,0.04092531762038387,0.22682732746453915,0.28407119198658015
2.8599850783387217,0.16678823598474635,0.041148864948134634,0.23530264218352848,0.2913397984621615
2.862472021885103,0.1579525088016558,0.04137185450407577,0.2198230739541991,0.27382989103550553
2.8649589654314846,0.15390297100894013,0.046382688072144074,0.21869584195037106,0.2714136133736813
2.867445908977866,0.14985121619757846,0.051392960814161004,0.22713253583905768,0.27692203280674527
2.8699328525242476,0.14100883802391173,0.05161426791040613,0.24992155230231816,0.29156184139557995
2.8724197960706292,0.15131785013128107,0.06620022116113411,0.24875565851222703,0.2985949408345487
2.8749067396170105,0.14725942638419698,0.07120880250214556,0.25236526849642793,0.3007395234352586
2.877393683163392,0.1336219672743354,0.07142841380943299,0.2607503767303019,0.3015752101923988
2.8798806267097734,0.12477067999845182,0.08122426361787127,0.2691225747368975,0.3075582283414939
2.882367570256155,0.13028236849720987,0.09101954387898381,0.27269345440564585,0.3156260017566124
2.8848545138025368,0.11663820689245075,0.09602584988276952,0.2858282212719754,0.3233004906094261
2.887341457348918,0.1125686125338452,0.09145477693734261,0.2893732579922599,0.3236858835252305
2.8898284008952997,0.11328517959240403,0.09645993697043798,0.28332856086563574,0.3200205067770132
2.892315344441681,0.10921109898213255,0.09667611868562087,0.29163614315268305,0.32607510800116846
2.8948022879880626,0.10513477164104557,0.08731491744503961,0.29514238858943287,0.3252479739502226
2.897289231534444,0.11063300189031344,0.08274154191001193,0.2938472945497743,0.3247030279796143
2.8997761750808255,0.10655217419184237,0.07816758747846508,0.29253926208289904,0.321002737398327
2.902263118627207,0.1024690929917983,0.07838145620676684,0.2912182892710309,0.3185147715595007
2.9047500621735884,0.10317215947817893,0.069017936887799,0.29946118118872,0.3241681186399773
2.90723700571997,0.10866137158059175,0.059653834933719896,0.30769112997932524,0.3317223314219725
2.9097239492663514,0.10457151732939429,0.059865955774353274,0.3159081347752508,0.33810809590207486
2.912210892812733,0.10526780473827024,0.04092387829463684,0.314535388415047,0.3341984217414758
2.9146978363591147,0.11075023192119182,0.03634642456113468,0.31314969736361675,0.33413980518325076
2.917184779905496,0.10186518377187459,0.03655678677511398,0.31175106178870315,0.3300024830976015
2.9196717234518776,0.10734307844790747,0.0319781571553035,0.300762675559227,0.32094131244710106
2.922158666998259,0.1128187042845974,0.022610534578471064,0.2945497494858067,0.3162259496507697
2.9246456105446406,0.10392684967754251,0.008453917938749722,0.2931122847566101,0.31110620419344537
2.927132554091022,0.0998211263245794,0.0038735161085110548,0.29166187957630285,0.3082951724982607
2.9296194976374035,0.11007833934275402,0.004080924696157506,0.28062172916437333,0.3014671617573581
2.932106441183785,0.10596806734619557,0.013864545967918307,0.2839338523160002,0.3033807664025335
2.9345933847301664,0.1114323255318288,0.014070765605626256,0.3015982515566016,0.3218332719905745
2.937080328276548,0.12647111255413834,0.004699582589477114,0.3144613164604664,0.3389733734930318
2.9395672718229293,0.1319308138452462,-0.0046721974426437995,0.3416766634928692,0.36629293119910383
2.942054215369311,0.1421766381381151,-0.00925617215614949,0.35930227956304606,0.3865203762474135
2.9445411589156927,0.14284337430224814,-0.009052342519803247,0.34818455522565195,0.3764553877750099
2.947028102462074,0.13393102122628353,-0.004060709485460112,0.3514191245228222,0.3760976055342912
2.9495150460084556,0.12980478781772586,0.0009303226915857721,0.3546407819746875,0.3776509402614181
2.952001989554837,0.1400414797214905,0.01070915641347181,0.3434843224214337,0.37108999154246164
2.9544889331012185,0.15506428935872263,0.0156989841381594,0.33710336426380927,0.3713893780593009
2.9569758766476,0.15093119924686904,0.02068820830126583,0.34986312289893107,0.38159197270567313
2.9594628201939814,0.14679582184319673,0.03525363467538334,0.36739839411702846,0.39720701412263143
2.961949763740363,0.14744655970080656,0.045030052448147284,0.3801323773419387,0.41020582381862947
2.9644367072867444,0.14809500878870896,0.04522905746439232,0.3832766756294337,0.4133749016919087
2.966923650833126,0.1535295717728392,0.040639052226083994,0.38161969898582093,0.4133478639458711
2.9694105943795073,0.1541734414142567,0.05041364921259017,0.38952666436624916,0.42195024388752506
2.971897537925889,0.14523821385016022,0.06018763767750901,0.3878439657901982,0.41849687249900974
2.9743844814722706,0.1410890985545883,0.060384210211102296,0.38136001418352095,0.41108131433065676
2.976871425018652,0.1417260950959942,0.05100336606058509,0.40359364069706416,0.4307846981866693
2.9793583685650336,0.14714920309794755,0.05119871777067342,0.4258144336190455,0.45342268199995306
2.981845312111415,0.14299321227796025,0.06575866794136509,0.419291981537393,0.44785826658502803
2.9843322556577965,0.1436233323300613,0.06116439262631923,0.4127567131818015,0.4412899826549224
2.986819199204178,0.1442511597214361,0.046992697778122317,0.43493905757828166,0.4606394409215618
2.9893061427505594,0.14966509761405988,0.05676240596698223,0.4379549909224476,0.46628980929124725
2.991793086296941,0.15028833926290608,0.061743096615068715,0.4313813295465607,0.46096490796955303
2.9942800298433223,0.13654407797663803,0.04756955912144534,0.4295832933943693,0.4532647726760283
2.996766973389704,0.13237433035956392,0.047760616104219444,0.4373492960584713,0.4594327443180753
2.9992539169360852,0.137779096466756,0.043162653673057605,0.435525734817757,0.4588341310145129
3.001740860482467,-4.85591149663704,-4.807300085597783,0.9460485824321196,6.898189508594415
3.0042278040288486,-4.137039221253749,-4.1127923972094145,0.8436430697588424,5.894225008420319
3.00671474757523,-3.3511315918167233,-3.3273056635578357,0.7124944132890345,4.775844869066019
3.0092016911216115,-2.541284237942311,-2.4747819017898705,0.5909098512791893,3.596087525600498
3.0116886346679927,-1.721862369272956,-1.6174703555992238,0.48367779902281427,2.411423766829072
3.0141755782143744,-0.9263848086805602,-0.7601594288202871,0.3812214621299628,1.2575217589238803
3.016662521760756,-0.17879357234484305,0.08278566808744037,0.27875244980676683,0.3413554403049533
3.0191494653071373,0.506546130246415,0.849115691476801,0.18105917817404205,1.0051710628449286
3.021636408853519,1.10569228301589,1.529253834239491,0.11687208022648221,1.8907225596034816
3.0241233523999003,1.623433289858974,2.1232000959232,0.06703755602628192,2.6735759439126827
3.026610295946282,2.0358271347997867,2.621377669450309,0.04113242582640808,3.319322955835151
3.029097239492663,2.3380854151940644,3.004632941117841,0.024791493545420096,3.807240094575841
3.031584183039045,2.5397849384086064,3.2442354905974176,0.013226370007991761,4.120163393444812
3.0340711265854265,2.6552909151804167,3.373704140739894,0.030379086224396445,4.2934103417172915
3.036558070131808,2.655872926413335,3.402615697809688,0.05230764026381962,4.316733797382717
3.0390450136781895,2.5750497962246537,3.3357585647659445,0.07901204705730258,4.214784639697047
3.0415319572245707,2.4271867354996965,3.1683443379423313,0.12485753175539749,3.993147968206657
3.0440189007709524,2.2266489551725663,2.905161420327934,0.1659020932030515,3.664075866062554
3.046505844317334,1.9782248595854979,2.5653634248877557,0.21651095706284273,3.2467429974302195
3.0489927878637153,1.6914912564497309,2.1728923679223078,0.26231892932887746,2.766119146729792
3.051479731410097,1.3760249535242184,1.746901862425919,0.3081144295282776,2.2450045192275243
3.0539666749564782,1.0509795652570402,1.2873919081271512,0.36347428075839083,1.7011906196755184
3.05645361850286,0.7355087061437705,0.8183045213705116,0.41882169308361306,1.1772879669418734
3.0589405620492416,0.4296123774462453,0.34921650855424513,0.4741566834555133,0.7289331417677235
3.061427505595623,0.13807898379409878,-0.09114171062720233,0.5438444790313799,0.5684535465230002
3.0639144491420045,-0.11036105353474646,-0.49319332974651875,0.5895778706882453,0.7765444534919059
3.0664013926883857,-0.334861346418482,-0.847361542361537,0.6113568761069885,1.0972287522489634
3.0688883362347674,-0.5306334900872239,-1.139281138695366,0.6474887397706652,1.4137804221020187
3.0713752797811487,-0.6737354664435109,-1.383317328878545,0.6692430599159156,1.6779072037407627
3.0738622233275303,-0.7641672739453533,-1.569893306425659,0.6814082582577896,1.87425554035491
3.076349166873912,-0.8162941209658446,-1.6942206681572567,0.6935611600661709,2.004431801555482
3.0788361104202933,-0.8396928125121487,-1.7419342042389658,0.6961249775624907,2.0552393475380377
3.081323053966675,-0.8152097336241718,-1.7273991247440386,0.6986765364805141,2.0338691080279654
3.083809997513056,-0.7715753024998027,-1.664980639731524,0.6964274528224372,1.962778687257737
