Time (s),Acceleration x (m/s^2),Acceleration y (m/s^2),Acceleration z (m/s^2),Absolute acceleration (m/s^2)
0.0,-0.3836352808175166,-0.1729166414688339,-3.0681847333361354,3.0969071267091186
0.002486943546381497,0.10100681278770224,-0.41272544046204507,-2.030535456465188,2.074516547390357
0.004973887092762994,0.5473426719558514,-0.7147844787036552,-2.161258275744199,2.3412684993422297
0.007460830639144491,0.8931230445426536,-1.0695169895059218,-3.38373916032916,3.659402419614443
0.009947774185525988,1.1191943082595497,-1.4481925928713304,-5.5016539963175966,5.798107827635266
0.012434717731907486,1.2255564540722736,-1.793350488851046,-8.309101863106422,8.58832162703861
0.014921661278288981,1.207421069599411,-2.1002023139892727,-11.542721000179583,11.794198721701497
0.01740860482467048,1.0695765490734543,-2.363959704798888,-14.867323597137732,15.092037981076285
0.019895548371051976,0.8263880933409242,-2.56068068447925,-18.00997108665774,18.209861652163326
0.022382491917433474,0.5209513231437386,-2.6760000828371266,-20.731243724561484,20.909730583907567
0.02486943546381497,0.17241984259589715,-2.7003411329654545,-22.782144959923816,22.942268846203685
0.02735637901019647,-0.17611072761327062,-2.6337038745627046,-24.01902311475074,24.163627262358553
0.029843322556577963,-0.48154476682054814,-2.5000303638928942,-24.408359787290483,24.54078370159881
0.032330266102959464,-0.7438822842715186,-2.3136858505424622,-23.916636575657023,24.039800501666164
0.03481720964934096,-0.9152392560345046,-2.074670374099027,-22.639621967469278,22.75289877986689
0.03730415319572246,-0.990827288086382,-1.8117143940332645,-20.749698903318365,20.85219538414925
0.03979109674210395,-0.989800003031203,-1.5583367730964186,-18.409673516992807,18.50200520340029
0.04227804028848545,-0.897792200256324,-1.3193259540771822,-15.835024378633314,15.915233233599002
0.04476498383486695,-0.7243806957760259,-1.1090471863632718,-13.289114091403219,13.354971598184882
0.04725192738124844,-0.5030843222313903,-0.9514425259405033,-10.949113998510594,11.001883205516394
0.04973887092762994,-0.2578451056479809,-0.8273583988684257,-8.996983846284884,9.038624029629505
0.05222581447401144,0.0017601378845902849,-0.7655252643653472,-7.595529767566184,7.634009724807208
0.05471275802039294,0.2326357690096741,-0.7755199683230267,-6.807001425250707,6.854984976326033
0.05719970156677443,0.4060513583068328,-0.8286121300245153,-6.67928327204725,6.742722061293703
0.059686645113155926,0.5363721062138458,-0.9248017886276081,-7.183645307303941,7.262762097557859
0.062173588659537427,0.6188095998627792,-1.0640889832420548,-8.229108286960065,8.320663067547816
0.06466053220591893,0.605479796478553,-1.2273201396473987,-9.710327756739975,9.806293165740183
0.06714747575230041,0.5442667196681337,-1.3809764736123786,-11.464498422261206,11.560192314872573
0.06963441929868192,0.4447471664519177,-1.5394232340580865,-13.333603392189417,13.429542187127229
0.07212136284506342,0.30213272386542706,-1.6882952499320547,-15.159625774908887,15.256338966772315
0.07460830639144492,0.13557699552194152,-1.8036505434885979,-16.77497187187287,16.872202514990967
0.0770952499378264,-0.02618960834830386,-1.890277556850418,-18.021624790875737,18.120507587830556
0.0795821934842079,-0.17837869414017504,-1.9338111188045728,-18.827758899168934,18.927650397420447
0.0820691370305894,-0.3114134649516235,-1.9629816879656432,-19.140702176967515,19.243615961684817
0.0845560805769709,-0.410928720583555,-1.9490588830482727,-18.960455040683314,19.06479866908547
0.0870430241233524,-0.46255926086000476,-1.8920427426319,-18.33490193959559,18.43806974561978
0.0895299676697339,-0.4710934989092507,-1.8254521284801757,-17.335869339240453,17.43807817121212
0.0920169112161154,-0.42695463792148547,-1.7205566591338242,-16.06391412472213,16.161433800457793
0.09450385476249688,-0.3540847043518143,-1.6012983895972672,-14.610016374141729,14.701772374889776
0.09699079830887838,-0.2524837080763517,-1.4916193748142783,-13.132193811712892,13.219046512156455
0.09947774185525989,-0.13172846563427965,-1.3963080563858719,-11.75015693470627,11.833563139106172
0.10196468540164137,0.003392609733231078,-1.310576069210041,-10.559674223401444,10.640692686444606
0.10445162894802287,0.12414908816129056,-1.23921185476213,-9.642148947718605,9.722247443213183
0.10693857249440437,0.22575255636454944,-1.1917922577736442,-9.083772780490982,9.1644018315427
0.10942551604078588,0.29383779439515684,-1.1587405096298213,-8.903699747651252,8.983590007029326
0.11191245958716736,0.3284047922444634,-1.1592102615718805,-9.068411438183654,9.148098389844897
0.11439940313354886,0.3246651365619154,-1.1740479382117837,-9.5539662472792,9.631306612618472
0.11688634667993036,0.30177243057707104,-1.208041980695441,-10.326845763045595,10.401642920265612
0.11937329022631185,0.25493826089662064,-1.2659808301002786,-11.26734031337348,11.341104827856128
0.12186023377269335,0.1745858107857804,-1.3334993141531313,-12.298835855576078,12.372148723183793
0.12434717731907485,0.07508028009031248,-1.3962322605106428,-13.330353136536683,13.403485230287027
0.12683412086545634,-0.01963632472426724,-1.458968110039656,-14.256547692699929,14.331019700132613
0.12932106441183785,-0.10477561049442174,-1.5312837068554308,-15.005593883266208,15.083887281100704
0.13180800795821934,-0.1803375873974995,-1.5700834584770424,-15.510454470261074,15.590762700588234
0.13429495150460083,-0.23195705567034608,-1.6040978221546687,-15.747187845089135,15.830377725349436
0.13678189505098234,-0.2644224288513418,-1.6285384318218719,-15.701429205283166,15.787873059197038
0.13926883859736383,-0.26815691053806245,-1.6194633080556966,-15.382755764456466,15.470091933913212
0.14175578214374532,-0.2575257209496338,-1.605602907880522,-14.839051962255173,14.927884757501785
0.14424272569012683,-0.21816366040314383,-1.5869572683219224,-14.127779044427829,14.21830402974892
0.14672966923650832,-0.16922435247755452,-1.5539496196870881,-13.30639825617619,13.397896508555581
0.14921661278288983,-0.11070780749011366,-1.492214788884311,-12.451524455427961,12.541109299377185
0.15170355632927132,-0.04740243909776676,-1.4400600392659157,-11.63019569290642,11.719107123122564
0.1541904998756528,0.015903339023307206,-1.3974854075415015,-10.885508002161004,10.974857759697608
0.15667744342203432,0.06484430653722528,-1.3453373170583744,-10.289287836082247,10.377069984080777
0.1591643869684158,0.10899725969073526,-1.3027694176444893,-9.903784840330914,9.98969682831958
0.1616513305147973,0.13399697811025185,-1.2649933424435735,-9.724211013485776,9.807060883943125
0.1641382740611788,0.1446318546848177,-1.241585934476829,-9.740989950199308,9.820862447665387
0.1666252176075603,0.1313250723240727,-1.2325472300405638,-9.949333647829972,10.02624850004942
0.1691121611539418,0.103653427200596,-1.2283004587053985,-10.33487729647298,10.408129264328867
0.1715991047003233,0.07598211878912475,-1.2336340599170321,-10.835372052389502,10.905636789746234
0.1740860482467048,0.03394592662452278,-1.2485480697141962,-11.383780667881151,11.452095306219997
0.1765729917930863,-0.012878353174626267,-1.2682541207278746,-11.951373121164597,12.018483841484304
0.1790599353394678,-0.03576031122616796,-1.2975406521414476,-12.485477373199128,12.552770044117198
0.18154687888584928,-0.06821878132954451,-1.322042489768052,-12.938209787600616,13.005757288787246
0.1840338224322308,-0.10546537073905615,-1.3417596692919744,-13.237744710711148,13.305988387959934
0.18652076597861228,-0.11398126680434417,-1.371057436267884,-13.384082537997399,13.454607226026878
0.18900770952499377,-0.112920093415533,-1.3859938095966298,-13.391588874198646,13.46359470436102
0.19149465307137528,-0.10228186119838545,-1.391357228008843,-13.241110500115603,13.314403621316815
0.19398159661775677,-0.08685498411570469,-1.4015129367829244,-12.942224615766436,13.018178071649901
0.19646854016413826,-0.06185106950623509,-1.3973073578614783,-12.547604050339649,12.62531824593871
0.19895548371051977,-0.017693321404813278,-1.3883173330146166,-12.090768019022045,12.170226347959902
0.20144242725690126,0.02167623289529408,-1.3745428972767115,-11.590870526311084,11.672108532447485
0.20392937080328274,0.041892372725370275,-1.3511956822659559,-11.095795995889713,11.177842972822123
0.20641631434966426,0.06689710396328052,-1.3278525294648764,-10.653428850696626,10.736070689008162
0.20890325789604575,0.10147881918988977,-1.3188786835789639,-10.268557883035564,10.353406199410655
0.21139020144242726,0.12169549104860322,-1.2859669526921933,-9.984279111012787,10.067489764711176
0.21387714498880875,0.12275870544865464,-1.2530593879537886,-9.824534938685511,9.904883355747046
0.21636408853519024,0.10945685492464824,-1.2488864437337468,-9.78453734941351,9.864525801806181
0.21885103208157175,0.09615513863672331,-1.2303525244971194,-9.878651939054485,9.95543958236941
0.22133797562795324,0.07806514244884932,-1.2070344711314176,-10.073360269471987,10.145718974007796
0.22382491917433472,0.050398452210240086,-1.1932975277427635,-10.311201885129266,10.380143703706395
0.22631186272071624,0.02752026703677357,-1.1795649217333102,-10.601753976167556,10.667207607470012
0.22879880626709773,0.014218979389285402,-1.1658366870427184,-10.906709698710959,10.968851070745071
0.2312857498134792,-0.008659034887198658,-1.1712664707880789,-11.192550611382263,11.253671814693682
0.23377269335986073,-0.03153698003985783,-1.1767006934194635,-11.41618146533449,11.476707644287652
0.23625963690624222,-0.04483806032977855,-1.172562581922362,-11.582391044087052,11.641679249933254
0.2387465804526237,-0.043773883352097975,-1.1875825897388603,-11.672026113713619,11.732368139447688
0.24123352399900522,-0.03313286335614374,-1.2026071370013338,-11.665933439436206,11.72780306476693
0.2437204675453867,-0.027280221245263303,-1.2080594503755102,-11.57847860885994,11.641362409183042
0.24620741109176822,-0.021427564654775133,-1.2039395630597967,-11.414450402082839,11.477787573989891
0.2486943546381497,-0.0012096945924223723,-1.2046127181049138,-11.1882144049697,11.25287673599745
0.2511812981845312,0.01900816799930316,-1.2052905451710418,-10.904559395863512,10.970984560496136
0.2536682417309127,0.03443760880583324,-1.1963962704880906,-10.592216168820377,10.659624447041177
0.2561551852772942,0.035501810179761284,-1.1970835400972266,-10.284703920321,10.354197415017925
0.2586421288236757,0.04614277770351716,-1.2025639833267787,-10.010753442622839,10.082830643173274
0.26112907237005717,0.07114890366610616,-1.1888956161119029,-9.779941913791967,9.85219766294038
0.2636160159164387,0.07700135378203399,-1.1704436808376828,-9.592269704336559,9.663721110381347
0.2661029594628202,0.08285373027742304,-1.1663618230962949,-9.47646760376223,9.548335084618286
0.26858990300920166,0.07434081212456312,-1.1574964618035635,-9.437324384041574,9.508334036257917
0.2710768465555832,0.06582779820615348,-1.1438476290420745,-9.450898396286744,9.520094600077103
0.2735637901019647,0.05731467743266605,-1.134992163419919,-9.507613200625295,9.575291168208839
0.27605073364834615,0.04880143870346443,-1.1309300967888185,-9.617045969513478,9.6834372845585
0.27853767719472766,0.040288070906983386,-1.126873057563817,-9.76004345452618,9.824963829488635
0.2810246207411092,0.026986159600595028,-1.1228210773632905,-9.912664002951587,9.976089567560699
0.28351156428749064,0.02804930693266461,-1.1283509943286494,-10.07011957438588,10.133176746334364
0.28599850783387215,0.03390069511929528,-1.12430922656123,-10.198891707523254,10.260731579953102
0.28848545138025367,0.034963506366384456,-1.1298494186060664,-10.2941923599929,10.35606964538372
0.2909723949266352,0.04560293947136651,-1.1449716016075384,-10.356021891750672,10.419224012324301
0.29345933847301664,0.05145377329996137,-1.1409453866681627,-10.350861838509863,10.413680649322117
0.29594628201939815,0.05730439998948056,-1.146501224613619,-10.2835009615392,10.34737362224233
0.29843322556577967,0.06794321166776163,-1.156850742906233,-10.153939617773402,10.219853701632069
0.30092016911216113,0.08337019713303961,-1.1576287622459618,-10.014850599650279,10.081879163839679
0.30340711265854264,0.09879694185413312,-1.163200523132316,-9.842292245455754,9.911282103627839
0.30589405620492416,0.10464662797063029,-1.1735660559809746,-9.631476505723558,9.70327511126018
0.3083809997513056,0.11049605089463577,-1.1743601811232272,-9.45422978307248,9.527528116117306
0.31086794329768713,0.12113360270939588,-1.1703713320475972,-9.286610412668647,9.360853345783704
0.31335488684406865,0.122194062208547,-1.1615995387977214,-9.133407148547226,9.207788606310837
0.3158418303904501,0.12325422477911618,-1.1576216379327366,-9.00898555032478,9.083892343400853
0.3183287739368316,0.12910248247983408,-1.153649255925174,-8.92771117655231,9.002866260731421
0.32081571748321314,0.13495042072101132,-1.1448940191213497,-8.880007568107386,8.954525578762789
0.3233026610295946,0.13600962490535268,-1.136144360381456,-8.856298264789427,8.92991274204881
0.3257896045759761,0.11791487378752175,-1.1274003091180878,-8.861372015274402,8.933579874134903
0.3282765481223576,0.09981976935714365,-1.1234502979363437,-8.890440760507083,8.961698581986203
0.3307634916687391,0.09608951027649548,-1.1242943559926775,-8.953081650296436,9.0239094648482
0.3332504352151206,0.09714727859944738,-1.115567302353754,-9.015776203465759,9.085050828190207
0.3357373787615021,0.07905104641227978,-1.1116343758787521,-9.078524760971609,9.14667108237466
0.3382243223078836,0.07531962563856331,-1.1029187986954172,-9.126962452694642,9.193668828896321
0.3407112658542651,0.07637619831278863,-1.1085742127229943,-9.15630121403517,9.223482099019058
0.3431982094006466,0.0678555431430603,-1.1046586298670427,-9.171329785907194,9.237865830652849
0.34568515294702806,0.06891126207379061,-1.0911720785033179,-9.148106488169981,9.213211035564287
0.3481720964934096,0.06996653712183132,-1.0824797968366582,-9.105785269426873,9.170168111860752
0.3506590400397911,0.071021356939168,-1.0785818129786255,-9.030001253894424,9.094465647071553
0.3531459835861726,0.07207571017249081,-1.0699013482673405,-8.935119984560677,8.999236242121702
0.35563292713255407,0.07312958546339032,-1.0564384305482597,-8.82593019661693,8.889232471330912
0.3581198706789356,0.06460616480793024,-1.0477698941737033,-8.712009027412911,8.775026894624997
0.3606068142253171,0.06565905011934225,-1.043895766721148,-8.598145209810486,8.66153165044312
0.36309375777169856,0.0714998267047866,-1.035239268992762,-8.479550668857728,8.542810551276963
0.36558070131808007,0.07255167654680117,-1.0361656382571423,-8.370590941705146,8.434790791064756
0.3680676448644616,0.06402618494412282,-1.0323096917254246,-8.26168954771734,8.32618020672449
0.37055458841084304,0.05071174383220145,-1.0236714564336515,-8.17678882831122,8.240773657519947
0.37304153195722456,0.04697355178339535,-1.0246161692423321,-8.125465913747403,8.189947565418896
0.3755284755036061,0.04802319408530065,-1.0207786469531968,-8.08377910984352,8.14811511762004
0.37801541904998753,0.049072256022199334,-1.0217357228322048,-8.070882351093822,8.135446754716073
0.38050236259636905,0.054909129515885224,-1.0083338100856811,-8.086775957499746,8.149582656299772
0.38298930614275056,0.060745399844616244,-1.004514951664587,-8.097941424603677,8.160232570707297
0.385476249689132,0.0570042489636291,-1.0007023671391053,-8.10437906996804,8.166126059627892
0.38796319323551354,0.04847406878658922,-0.987319275940421,-8.130031226529432,8.18990578897779
0.39045013678189505,0.049520057865483746,-0.9739425106415651,-8.155744596109077,8.213841133545754
0.3929370803282765,0.06014220478926069,-0.9605720970351395,-8.176731089251394,8.233179649705798
0.395424023874658,0.07076369150434791,-0.9567848674141759,-8.16426059865642,8.220437695483238
0.39791096742103954,0.07659610327579214,-0.94821563732956,-8.13748704897937,8.192903961979557
0.400397910967421,0.07763942868746487,-0.9348644321521467,-8.115564363622532,8.169601234300856
0.4028848545138025,0.07389365632195521,-0.9406732937130031,-8.069762431527138,8.124739517008303
0.40537179806018403,0.0893007913623386,-0.9369118271780383,-7.990504753652788,8.04574077517986
0.4078587416065655,0.0903419991470703,-0.9187916541726344,-7.925675669535044,7.979265291945553
0.410345685152947,0.09138247821706735,-0.910254816101594,-7.860910274272744,7.913963920042094
0.4128326286993285,0.09721062047216555,-0.9065129343050322,-7.777055258366923,7.830313154433067
0.41531957224571003,0.09824960785101433,-0.9171428399408361,-7.6980529409191725,7.753116989668861
0.4178065157920915,0.08971102561253563,-0.9229909441015023,-7.6286920264628275,7.684848885022226
0.420293459338473,0.09553687893769325,-0.9240572710169186,-7.54981920163798,7.60675877840082
0.4227804028848545,0.09178513980470382,-0.9155534414524635,-7.475799975030563,7.532214009354181
0.425267346431236,0.0928210067548706,-0.9118446893102341,-7.420999853925547,7.477386930517991
0.4277542899776175,0.08906766172873126,-0.9081426350662172,-7.366265521060187,7.422568546045968
0.430241233523999,0.08531349662876886,-0.9092357056918439,-7.325962481103863,7.382663085618457
0.43272817707038047,0.08634690335868467,-0.9007587147317953,-7.290514220809852,7.346456265010743
0.435215120616762,0.0873794671829845,-0.8922884921865011,-7.274286242213991,7.329328363379375
0.4377020641631435,0.0836227733678172,-0.8886134645899575,-7.262913626106853,7.31755020467676
0.44018900770952496,0.0894420204624351,-0.889733655009425,-7.256396661912174,7.311287052694004
0.4426759512559065,0.0952603904165964,-0.881283876404503,-7.235582024440371,7.289676470543633
0.445162894802288,0.09628946850265219,-0.8776293615096522,-7.200470000446746,7.254396817466075
0.44764983834866945,0.0973176466360719,-0.8691933263104685,-7.1750028919475675,7.228114156701276
0.45013678189505096,0.09355651009440857,-0.8607641966058988,-7.154392579692438,7.206594272407589
0.4526237254414325,0.08979445079876369,-0.8619188013673433,-7.129062539761705,7.181538815558848
0.45511066898781394,0.09081986067337688,-0.8630803561368192,-7.084647843562353,7.137604010838278
0.45759761253419545,0.10142113164584066,-0.8546720763079452,-7.040302384386438,7.092715154830498
0.46008455608057697,0.10244463904575607,-0.8462707904069289,-7.015180054164899,7.066782885239805
0.4625714996269584,0.1082555814486964,-0.8426649234907471,-6.975762306940121,7.0273083899259055
0.46505844317333994,0.1092771408326757,-0.8438544971468906,-6.922049418627617,6.974152282520546
0.46754538671972146,0.11508611246117717,-0.8354743228524923,-6.873195277051202,6.924743711785022
0.4700323302661029,0.12089408164118487,-0.8271012285365922,-6.829200155376618,6.880166174113721
0.47251927381248443,0.12191263368433891,-0.8283120419783363,-6.780487518748352,6.83198174185502
0.47500621735886595,0.12293016054777894,-0.8247415742051829,-6.707904024285858,6.759533037690188
0.4774931609052474,0.13831186083436198,-0.8211782493754907,-6.644968764243906,6.696945106977662
0.4799801044516289,0.15369251323038446,-0.8271988948173576,-6.601258812883891,6.654659819621689
0.48246704799801043,0.1547068964276742,-0.8236499177862173,-6.576774436431132,6.629954403958262
0.48495399154439195,0.15572020904568817,-0.8248965486286939,-6.542785479790011,6.596419099329253
0.4874409350907734,0.16152084306923176,-0.8261504042589567,-6.4945038030638695,6.548831431729946
0.4899278786371549,0.1673203838486803,-0.8321999080803923,-6.4558716848717825,6.511438551456162
0.49241482218353644,0.16833041674082527,-0.8382566767041628,-6.422100982501336,6.478764574722859
0.4949017657299179,0.1741277370700337,-0.8347439232693246,-6.388403551827073,6.44506150686314
0.4973887092762994,0.17992393020659636,-0.8456036840051446,-6.369144860588365,6.427551980826234
0.4998756528226809,0.18571898484819938,-0.8564707684262327,-6.359536761823559,6.419637181608238
0.5023625963690624,0.18672448637952277,-0.8577683892151815,-6.335637493866681,6.396165655847242
0.5048495399154439,0.18294042351308926,-0.8494965655427031,-6.316600923508236,6.376092756562525
0.5073364834618254,0.1983088015707376,-0.8508089297080943,-6.307215706148211,6.367430579090292
0.5098234270082069,0.19452238271822286,-0.852128693935946,-6.269174865871067,6.3298116691791755
0.5123103705545884,0.18115796233262793,-0.8582442802588055,-6.226420668489448,6.287902336463731
0.5147973141009698,0.19173435240102665,-0.8547904972748372,-6.183741765095776,6.245485655536472
0.5172842576473514,0.19752112175508418,-0.8609209766711152,-6.121984788738903,6.18537769866661
0.5197712011937329,0.20809506579784542,-0.8670589300594207,-6.069880404225785,6.135025905911838
0.5222581447401143,0.20909096333989818,-0.8540507622573572,-6.0274288549935005,6.091224863479515
0.5247450882864959,0.21487401312303794,-0.8649921210929077,-5.956323156465716,6.022637939916206
0.5272320318328774,0.21586739729705756,-0.8711526044355624,-5.899659179057629,5.9675358417415145
0.5297189753792588,0.20249429802153662,-0.8677438266024531,-5.85264875852468,5.920091281390717
0.5322059189256404,0.1986967207082566,-0.864342611717607,-5.796138519201936,5.86359874744405
0.5346928624720219,0.19489784753705441,-0.8705257837508991,-5.7444939072044665,5.813347620868627
0.5371798060184033,0.19588607065917552,-0.8671397465960746,-5.707291963862152,5.776113247986962
0.5396667495647849,0.1968729755959402,-0.8398193073128364,-5.674956115756062,5.740137833990796
0.5421536931111663,0.19307014787959698,-0.841236919290814,-5.65227499795801,5.717794005464115
0.5446406366575478,0.18926597969417858,-0.837873775999467,-5.629672034106097,5.69482759064517
0.5471275802039294,0.1806720565944807,-0.8153646840348863,-5.621512662964658,5.6832091796693
0.5496145237503108,0.16728836746722986,-0.8120168863618953,-5.613431901898325,5.674325910526868
0.5521014672966923,0.15869170785162667,-0.7990999793061655,-5.600641573432053,5.659587429232227
0.5545884108430739,0.15488206665832682,-0.7861907856010233,-5.5927187085690555,5.649830701809979
0.5570753543894553,0.1462826261696728,-0.7732893211842611,-5.536991093663378,5.5926420726061385
0.5595622979358368,0.1568353919227372,-0.7603956018387019,-5.510073403230097,5.564504265470456
0.5620492414822184,0.15302152962361704,-0.7475096431921449,-5.478447033927392,5.531326075973232
0.5645361850285998,0.13962943155391627,-0.7394198640376257,-5.418170187562094,5.47017424721335
0.5670231285749813,0.13102429664910342,-0.7409146830130573,-5.367550307610937,5.420029357720399
0.5695100721213628,0.12241771057686923,-0.7376289053199381,-5.336164416132428,5.388295943415164
0.5719970156677443,0.13296327562017252,-0.7343509492858207,-5.280917097163169,5.333388785424414
0.5744839592141259,0.12435375423216077,-0.7262924264424089,-5.225750579723581,5.277445752102107
0.5769709027605073,0.115742748723906,-0.7182417548067805,-5.180241881370554,5.231077666383441
0.5794578463068888,0.11191865145994706,-0.7101989489204286,-5.139602808195434,5.189645976133891
0.5819447898532704,0.10809304817884113,-0.7117408298101875,-5.084679954822073,5.135389893557537
0.5844317333996518,0.10905433127464614,-0.7085022017460294,-5.0346271409283645,5.085404474102454
0.5869186769460333,0.11001408651590605,-0.710059885444188,-4.989444571400616,5.04091710616511
0.5894056204924149,0.1205491096474487,-0.7068370881843444,-4.934767239652006,4.986589863485104
0.5918925640387963,0.12629417982812108,-0.6988338237315013,-4.884960557503598,4.936310219325312
0.5943795075851778,0.1272492861935276,-0.695626912335995,-4.84960153194041,4.900890143698555
0.5968664511315593,0.12341441789532592,-0.678062754171008,-4.814325151828454,4.863406921558845
0.5993533946779408,0.12915477406240083,-0.6700833791372744,-4.803073631077115,4.851310028869259
0.6018403382243223,0.1444703438792284,-0.6669003970584177,-4.791905148871919,4.840246148249329
0.6043272817707038,0.15020750326579757,-0.6493602076419114,-4.7760314961572945,4.822313534559172
0.6068142253170853,0.1511546447606612,-0.6366164370025538,-4.750664462353784,4.795512594954341
0.6093011688634667,0.15688856423992303,-0.6334575011390648,-4.734957851958107,4.779718431786369
0.6117881124098483,0.16262084763622564,-0.6207297992935077,-4.709758241377616,4.753269792052756
0.6142750559562298,0.17313988754055165,-0.6175869571153956,-4.665489012131976,4.709371379768303
0.6167619995026112,0.18365726992121034,-0.619240583497684,-4.635669174094014,4.680450574965079
0.6192489430489928,0.18938458076470177,-0.6161138838580738,-4.610722105722715,4.655558094741618
0.6217358865953743,0.19032180939626753,-0.6177836767406331,-4.5762827806244,4.621714308632504
0.6242228301417557,0.1960457518004427,-0.6242499738939893,-4.537139784153057,4.584076721396588
0.6267097736881373,0.20176799401973267,-0.6211475769510826,-4.512446910088794,4.559463976404777
0.6291967172345188,0.19791171879547598,-0.6372069172729953,-4.487839127433531,4.537168912172048
0.6316836607809002,0.19405372216964756,-0.6341207795818407,-4.4585282102926715,4.507575824338505
0.6341706043272818,0.20455920352416035,-0.6310427882889775,-4.419725931233369,4.469232235587522
0.6366575478736632,0.19112092573735495,-0.6375497610107219,-4.371432464603794,4.421811698683191
0.6391444914200447,0.17768089487174055,-0.6344880952871894,-4.3328015964930096,4.38261512319254
0.6416314349664263,0.17860431036954671,-0.621857801785521,-4.2990450948472105,4.347458493517099
0.6441183785128077,0.174737548451402,-0.6188125042999868,-4.265374726070322,4.313569714298854
0.6466053220591892,0.17565740528063734,-0.6157754065489667,-4.23179065834341,4.279963440425984
0.6490922656055708,0.17178706376040243,-0.6079581154172469,-4.203081461623826,4.2502961824351715
0.6515792091519522,0.16791491677609294,-0.6193026575576992,-4.179247301003745,4.228219389279728
0.6540661526983337,0.17840616387528052,-0.621078622946091,-4.150711533389073,4.200711088446618
0.6565530962447153,0.18410718138514104,-0.6037092146858938,-4.107897514139324,4.156101810207045
0.6590400397910967,0.170652748975196,-0.6007132656099801,-4.069959016988793,4.117589730434661
0.6615269833374782,0.16198487289974206,-0.5977255751948207,-4.036896200842756,4.0841211904972905
0.6640139268838597,0.17246875279496832,-0.589957749404372,-4.0087092230581,4.055557329369663
0.6665008704302412,0.16858555511669782,-0.5869866040105345,-3.966244626161483,4.012987764401565
0.6689878139766227,0.16470047954687983,-0.5888121479917388,-3.9142909677315885,3.9617546331960933
0.6714747575230042,0.16560191915008204,-0.5858575835330955,-3.8720020137580082,3.9195730250061036
0.6739617010693857,0.16650146037373292,-0.5781229193078028,-3.820224302117314,3.8673068878255936
0.6764486446157671,0.1673990930093021,-0.5751849704773089,-3.7589579824163764,3.8063926912728165
0.6789355881621487,0.16829480687223053,-0.5626785354492863,-3.71693362263259,3.763047412846687
0.6814225317085302,0.1835538017631103,-0.5549688324012418,-3.6893629659494707,3.7353823763569323
0.6839094752549116,0.18444564762417737,-0.5520558693978779,-3.6570925440375834,3.703121893149
0.6863964188012932,0.18054714098486668,-0.5443628477115823,-3.6344877102573836,3.6794604354576816
0.6888833623476747,0.1910118850401803,-0.531889775103862,-3.6311254130964663,3.674842042689947
0.6913703058940561,0.20626306308843068,-0.5242134658255284,-3.627852179567828,3.671328866465448
0.6938572494404377,0.20714705181273452,-0.5261223306559555,-3.605514535131533,3.6495821227825958
0.6963441929868192,0.2032406478437555,-0.5280395702626501,-3.5736894236165,3.618202405223835
0.6988311365332006,0.21848585779901064,-0.5299651918030146,-3.5563189972594547,3.602222089884169
0.7013180800795822,0.22894065511905226,-0.527110798963609,-3.543826583501742,3.590120676507132
0.7038050236259636,0.2250282232317723,-0.5290532052416097,-3.5170587015908996,3.563739174752206
0.7062919671723452,0.22111376219327272,-0.5453692239840855,-3.4903806924634857,3.5396435222522267
0.7087789107187267,0.2315624720865429,-0.5569052484663373,-3.444639072260742,3.49704203183112
0.7112658542651081,0.2420091330998323,-0.5540844784546253,-3.3941991788131105,3.447631954722496
0.7137527978114897,0.24766533208939256,-0.5560605334876385,-3.343849541757516,3.3988043767674325
0.7162397413578712,0.25810786590003265,-0.5628334196736047,-3.317532302459428,3.3748217296033145
0.7187266849042526,0.27333672476380466,-0.5744031429717724,-3.300882374169328,3.361618119873552
0.7212136284506342,0.28377509230024256,-0.5764044992317077,-3.2699578619448086,3.3324757866546055
0.7237005719970157,0.27984615215723385,-0.5832027040763474,-3.2151820792524397,3.2796089806050377
0.7261875155433971,0.2807035079331356,-0.5852209563788113,-3.174862371210253,3.2405291393964797
0.7286744590897787,0.28634714997389676,-0.587247664825147,-3.1394220481818618,3.2066844725902106
0.7311614026361601,0.2967770686545485,-0.5988596412739629,-3.099284418979982,3.170532038658189
0.7336483461825416,0.29762804441851526,-0.596114874194186,-3.059238000827806,3.1309539347887014
0.7361352897289232,0.29847687434035425,-0.598166981790325,-3.033648116039128,3.106430922226967
0.7386222332753046,0.3041119522041251,-0.6002275655183604,-3.0273032787376266,3.1011807995241245
0.7411091768216861,0.30495646186301084,-0.5975082266875713,-3.006684774935529,3.080611604928548
0.7435961203680677,0.30579879716143377,-0.6043741797420683,-2.986157922299789,3.062012441254619
0.7460830639144491,0.3066389486540504,-0.6160370256985632,-2.970511230308965,3.049174647548886
0.7485700074608306,0.3026885036059955,-0.6277083654279036,-2.940591190292899,3.022038164992563
0.7510569510072121,0.30831266259468715,-0.6202345896944204,-2.9107631152771773,2.99203769318298
0.7535438945535936,0.30914620630694634,-0.6127693156796514,-2.881027106780712,2.9616506885717846
0.7560308380999751,0.30040072210174046,-0.6196777570998249,-2.8609600714180523,2.94267457370534
0.7585177816463566,0.2916530073307384,-0.6218063042842781,-2.831408494337678,2.913516538230098
0.7610047251927381,0.2829030527369918,-0.6143665573788852,-2.8019492790665588,2.8824295596831333
0.7634916687391196,0.27893925241611484,-0.6021469230260523,-2.7725825209485215,2.850894922461623
0.7659786122855011,0.28455000049621604,-0.6043010176853363,-2.724154700504526,2.804847100117729
0.7684655558318826,0.2805816745365781,-0.5920984244696936,-2.6710311199570196,2.7502206937124325
0.770952499378264,0.26224586209040135,-0.5846927595520519,-2.622788676668417,2.699936843282857
0.7734394429246456,0.2534845706659834,-0.5629304123999992,-2.5842158631420684,2.656937467101109
0.7759263864710271,0.2542977912035248,-0.5411765955807946,-2.5648895736639172,2.6336662657415957
0.7784133300174085,0.25032030471599687,-0.5290081181991977,-2.5600214910223347,2.626065474920605
0.7809002735637901,0.24634050553157116,-0.5216365792571724,-2.5552464898295124,2.6195558763406286
0.7833872171101716,0.24714678801261136,-0.514273577615159,-2.545776249803856,2.6089337978422202
0.785874160656553,0.23358552995435355,-0.49734230867209916,-2.5220340458102086,2.5811949364635676
0.7883611042029346,0.22002193242889811,-0.4804195809673413,-2.4888083611423095,2.5442837269098844
0.790848047749316,0.21603279322295021,-0.4635053962591065,-2.4508876775630846,2.5036688735013644
0.7933349912956975,0.2072528935568122,-0.4609649661264017,-2.4274256852668596,2.4794833976812325
0.7958219348420791,0.19847062796743697,-0.46322148540687014,-2.394480443036908,2.4469371317617794
0.7983088783884605,0.19447439102741937,-0.4606981487987105,-2.3520520247311545,2.404623005818993
0.800795821934842,0.19047577070461197,-0.44860655418134954,-2.328870922603855,2.379321044716267
0.8032827654812236,0.191263161643616,-0.4317351059361121,-2.2914183842210676,2.339567269869765
0.805769709027605,0.1872597485644587,-0.42923741826690076,-2.254059688829276,2.3021937484664474
0.8082566525739865,0.18325392618470815,-0.4171714753568154,-2.226371710833398,2.2725195348143266
0.8107435961203681,0.19361089589940195,-0.424267697774777,-2.1844124998764496,2.23363968177559
0.8132305396667495,0.1991770358984737,-0.41221885946809245,-2.14254733064573,2.1909141799229883
0.815717483213131,0.19516393437011803,-0.3858133641300183,-2.110353072991586,2.1541891759790217
0.8182044267595125,0.20072519614165418,-0.3833584385595201,-2.0782529819680633,2.122825888724755
0.820691370305894,0.20149560283601498,-0.3809120662554113,-2.051035521076738,2.095815160957603
0.8231783138522755,0.21184035603604823,-0.3688974405417391,-2.0287007489871147,2.072821359168369
0.825665257398657,0.21260583412069278,-0.37125657784942767,-1.996883512897698,2.042198925516629
0.8281522009450385,0.20379202878865388,-0.34968225131042185,-1.9603722717799066,2.001716341503669
0.8306391444914201,0.21891775501957933,-0.34248168704714965,-1.9431090963798319,1.9851679147768637
0.8331260880378015,0.23404098798835649,-0.3496548844854228,-1.9163636194153266,1.9620100010248906
0.835613031584183,0.22521970290910553,-0.34725982631578534,-1.8801358920231408,1.9251556492982551
0.8380999751305646,0.2259727148791606,-0.34487331833766266,-1.8535795771201435,1.8988834936056451
0.840586918676946,0.2410884191136805,-0.35207216621758874,-1.827117916202079,1.8762831118364058
0.8430738622233275,0.24662479094589151,-0.3544911588880608,-1.8055393592282982,1.8564644211407442
0.845560805769709,0.2521586289913794,-0.35691869843076907,-1.7744787413815146,1.8274982175310734
0.8480477493160905,0.26247832858582465,-0.36414318679576674,-1.7626665262338328,1.8189250716212124
0.850534692862472,0.26800707514461686,-0.3665878158409619,-1.7509491426628188,1.8088773643457092
0.8530216364088535,0.27353326408495926,-0.3594641806137884,-1.7345382280175983,1.7923888551761709
0.855508579955235,0.27426848422454275,-0.36192589263288344,-1.7277990314412257,1.78647783256501
0.8579955235016165,0.2797895343833414,-0.36918454668540024,-1.711577977349366,1.773154980707862
0.860482467047998,0.28051960014165844,-0.37645173742900173,-1.690663505276131,1.7546367842803035
0.8629694105943795,0.2812470770825466,-0.3693622527516758,-1.6698440532747085,1.7331784542805095
0.8654563541407609,0.2819719575107903,-0.3718581069752993,-1.6299660413179726,1.6954574404553784
0.8679432976871425,0.2874826370937622,-0.37436249105140096,-1.594971517785055,1.6633483351006655
0.870430241233524,0.28341389826009333,-0.36729859580379287,-1.5744373196198573,1.641366677381438
0.8729171847799054,0.28413094340302736,-0.3554548218899587,-1.5587866690130063,1.6238517182601928
0.875404128326287,0.2800569583572149,-0.36277318312181706,-1.538442786685387,1.6052546496493725
0.8778910718726685,0.27119193564113275,-0.3701000633021154,-1.5134056985311215,1.5814284464241453
0.8803780154190499,0.27190107777762107,-0.36785865274832696,-1.4884638322996029,1.5571688298198325
0.8828649589654315,0.26781916741130585,-0.36562575493373206,-1.4588288076369462,1.5276095015072342
0.885351902511813,0.2637346005119491,-0.3634013665660101,-1.443654259330584,1.5118710636865098
0.8878388460581944,0.2548589664528025,-0.36118548422832975,-1.4285749974679938,1.4954044838067466
0.890325789604576,0.2411922579717728,-0.35897810437982036,-1.4183794439625839,1.4828483509062078
0.8928127331509574,0.23709967781227326,-0.35677922335603895,-1.393914002673391,1.4582537221917784
0.8952996766973389,0.23779281548126252,-0.35458883736944813,-1.3599670926107308,1.4254084185473324
0.8977866202437205,0.21932964724947057,-0.35719534583020396,-1.3452691479387653,1.4090575182160692
0.9002735637901019,0.21522898927662493,-0.35502193806538296,-1.3163013582124368,1.3802222139802864
0.9027605073364834,0.2254908345257367,-0.362433819881963,-1.2826405414269928,1.3518029252673904
0.905247450882865,0.22617315940395055,-0.36506577704386967,-1.2394983041768342,1.3117863262211025
0.9077343944292464,0.22206436028620502,-0.36770620847558844,-1.1772978482988474,1.253216126400355
0.9102213379756279,0.2275296402342054,-0.3703551096610931,-1.1439232140391429,1.223720950239404
0.9127082815220094,0.22341537911383436,-0.37301247596465004,-1.1154323904073493,1.1971809205043782
0.9151952250683909,0.22887518340005863,-0.37567830263131174,-1.0726717683043443,1.1593717087981414
0.9176821686147724,0.22954383637246567,-0.36877577814678686,-1.0300065604469104,1.117854848326934
0.9201691121611539,0.23020973463891958,-0.371458510800438,-1.0161671880892857,1.1061526573298492
0.9226560557075354,0.2404496781748442,-0.3741496888420279,-1.0072116345416102,1.1010355644351162
0.9251429992539169,0.25068685372187915,-0.3672725004041051,-0.9887746883368536,1.0841625212474835
0.9276299428002984,0.2561328513896596,-0.3508269401431292,-0.9656447498743095,1.058845296750666
0.9301168863466799,0.26636447129665897,-0.34875501920091967,-0.9473986214615735,1.0440997284427729
0.9326038298930613,0.27659330364853296,-0.34669152204109954,-0.9388247006768484,1.0383114588982236
0.9350907734394429,0.2820309386992679,-0.35421324961367073,-0.9159809637703482,1.0217776678784494
0.9375777169858244,0.2874657733920265,-0.3617433894727191,-0.8980210154719579,1.0099191031604333
0.9400646605322058,0.302474608039048,-0.36449353237849147,-0.8945216524708002,1.0121834865246604
0.9425516040785874,0.31269222639998606,-0.3672520756182234,-0.8767524434964074,1.000672455238873
0.9450385476249689,0.322907025564935,-0.37001901304572016,-0.8686553924077032,0.9978703362328711
0.9475254911713503,0.323542192712454,-0.37279433840219633,-0.8462884684695204,0.9797241147764
0.9500124347177319,0.33375133499259046,-0.3755780453167965,-0.8383820760822847,0.9774115444526752
0.9524993782641133,0.3439576396833437,-0.3831585306274352,-0.8353593916992192,0.9812964031265995
0.9549863218104948,0.34937269743305577,-0.39074738442038504,-0.8037015737904039,0.9595212451301918
0.9574732653568764,0.35478490558093945,-0.3935561966714398,-0.7817158292522421,0.9443719854326926
0.9599602089032578,0.36977106483696964,-0.39158496056674785,-0.7550369270825197,0.927442819256768
0.9624471524496394,0.19321822986809178,1.817831858160666,10.050242625835153,10.215146733505646
0.9649340959960209,0.8881519319543958,1.3409460731836766,10.627397487071567,10.748419771000577
0.9674210395424023,1.5112567112163375,0.7443418713302621,10.361698189586729,10.497748855859372
0.9699079830887839,1.9859181088022537,0.09505690633295183,9.344124422975781,9.553301407490649
0.9723949266351654,2.283405699114814,-0.5494479746087477,7.651290668232212,8.003629398799584
0.9748818701815468,2.3893542665695287,-1.1508655374701644,5.426849054188782,6.040214892986853
0.9773688137279284,2.3133406122352693,-1.6277929182374955,2.8719125508744128,4.031021740545587
0.9798557572743098,2.040999520631444,-1.9514996893147742,0.17801732302599405,2.8294381505717325
0.9823427008206913,1.6297918261344078,-2.1076206329618854,-2.448935253313511,3.6187801817660734
0.9848296443670729,1.1276015565324409,-2.100944144615426,-4.831774220680856,5.388088129264807
0.9873165879134543,0.5823127396664904,-1.9362586196080458,-6.798117023594945,7.092431221751519
0.9898035314598358,0.05138621007085209,-1.642294469770458,-8.247407155044948,8.409488477256549
0.9922904750062174,-0.4220824076278388,-1.2477821068305501,-9.064722896726954,9.159929854502233
0.9947774185525988,-0.7949974887497341,-0.8006055556951828,-9.23091059541587,9.2996075553482
0.9972643620989803,-1.0386286185225244,-0.34386043784905285,-8.760335419804479,8.828389778176577
0.9997513056453619,-1.1242453821203244,0.07935762532445212,-7.696092957185977,7.778179228943211
1.0022382491917432,-2.2393718080223275,1.2208279637139539,-0.5650381685391004,2.6123696414284803
1.0047251927381249,-1.5636383455527703,0.7102909424650985,-0.5640105594236076,1.8076465389484453
1.0072121362845063,-0.8735426314812523,0.2236877324866855,-0.5630775393653931,1.0630941849234299
1.0096990798308878,-0.18344988064805723,-0.23898165732280408,-0.5526622538881831,0.6294455164025773
1.0121860233772693,0.4635442722392576,-0.6489867980446227,-0.5375530571741116,0.9617798322065546
1.0146729669236507,1.0387094024888597,-1.0063276805840735,-0.5273267054267858,1.5393784712619418
1.0171599104700322,1.551622312026391,-1.3157926990695215,-0.5171947435937554,2.099126634794526
1.0196468540164139,1.9783409795904245,-1.5486514242904406,-0.483215102049968,2.558447009483052
1.0221337975627953,2.2997117872953563,-1.7096922501824698,-0.44454133976554644,2.8998860146081165
1.0246207411091768,2.5253115372326724,-1.813280377226165,-0.4203270144268014,3.137173709817621
1.0271076846555582,2.655140224909205,-1.87378100580725,-0.38663005255721217,3.2726606407012815
1.0295946282019397,2.698774652528174,-1.8624637063341796,-0.3482387993259177,3.2974878231612275
1.0320815717483214,2.6562148157082377,-1.7984820823247145,-0.3099415986296936,3.222743977139996
1.0345685152947028,2.527460710124335,-1.7009897372034026,-0.2765267930968367,3.059066981057121
1.0370554588410843,2.3173007348280557,-1.5747750643411327,-0.22884070748943586,2.8110793778030407
1.0395424023874658,2.059253708849493,-1.4246264570167364,-0.15730647194951075,2.508950319468214
1.0420293459338472,1.7676848379942323,-1.2457555017768984,-0.10023124856539845,2.1648701485010795
1.0445162894802287,1.4425941181638766,-1.0573158016789486,-0.03846135832883668,1.7889867999304827
1.0470032330266104,1.0887699486372566,-0.859307346408517,0.02800326573608558,1.3873043283789996
1.0494901765729918,0.7349427453524568,-0.661306932202328,0.08000907856893491,0.9919017845424569
1.0519771201193733,0.40984292430449487,-0.46810295188732765,0.12234455295179458,0.6340818447212191
1.0544640636657547,0.10868207830407839,-0.2940606048426413,0.17416337286458194,0.358631166956361
1.0569510072121362,-0.17332819978039038,-0.1343914770780854,0.22588880359821673,0.31484835324545407
1.0594379507585177,-0.40745749378039975,0.010904442163643502,0.24879049839119283,0.47753243678984036
1.0619248943048993,-0.6032826140318714,0.13703876040639917,0.2668105482302021,0.6737339258889606
1.0644118378512808,-0.7560151608514923,0.24401148858057597,0.289525835361669,0.8455328138744755
1.0668987813976623,-0.8656551378179356,0.3318226377022957,0.2977828233267097,0.9737246481376162
1.0693857249440437,-0.9226257418106782,0.38610700891183614,0.2963699934804538,1.043145270237158
1.0718726684904252,-0.9221385729707547,0.42601822667611966,0.3044410383472762,1.0604317154115928
1.0743596120368066,-0.8833472479819369,0.44676789894447433,0.3076308284135276,1.0366005222046315
1.0768465555831883,-0.8158285768283364,0.43877923042922307,0.30593944532645345,0.975552368677596
1.0793334991295698,-0.7004289495130662,0.4068406358863821,0.29457856860878984,0.8619144675708934
1.0818204426759512,-0.5610903858626769,0.37489414343535143,0.29270189557639803,0.7355558711367004
1.0843073862223327,-0.4169665023239867,0.3285745547146104,0.28594430149031247,0.6029812979031658
1.0867943297687142,-0.2584804953623243,0.26309347808423,0.293459486036852,0.4713266538593199
1.0892812733150956,-0.0760555613832713,0.18323932862529313,0.30088232683900884,0.36040432097358216
1.0917682168614773,0.09200107006435354,0.09858892481898929,0.32736652593653837,0.3540519951839117
1.0942551604078588,0.25526620269488476,0.02350748854602358,0.33460494669574636,0.4215138273049541
1.0967421039542402,0.41373983364219735,-0.061158581476473906,0.3321744868520433,0.5340982229383524
1.0992290475006217,0.5626335567801557,-0.15062086985178968,0.34401725526343974,0.6764547564833802
1.1017159910470031,0.6923705627227471,-0.22572575114484117,0.36055653870310955,0.8126069950821757
1.1042029345933846,0.7837972355039026,-0.28168480980464095,0.3817924317378072,0.916214985355787
1.1066898781397663,0.856067185780746,-0.3376516468055102,0.3933598201219475,1.0007954882229486
1.1091768216861477,0.8948152010290684,-0.39362624976488947,0.41441241399639317,1.0617784690654548
1.1116637652325292,0.9191948920277564,-0.44003179958447625,0.42579669807929754,1.104468226012276
1.1141507087789106,4.592334796374626,0.46165876704908637,1.1601384795133267,4.759053371294963
1.116637652325292,2.6534628902052457,1.1430750525855653,1.1234560226267991,3.0999418253116136
1.1191245958716736,0.8247211389743166,1.738292362673021,1.062740346780842,2.198008721519164
1.1216115394180552,-0.855583233012952,2.228157096782219,1.0115103777321046,2.59226926857794
1.1240984829644367,-2.382661824631982,2.6126692677372914,0.9649778157923645,3.6652831074978263
1.1265854265108182,-2.2433791887980834,4.67790332691046,1.7659017500818415,5.480322865634324
1.1290723700571996,-4.61322302289603,5.790237461096439,1.637784654618459,7.582282973469549
1.131559313603581,-6.671823773272137,6.576952518293105,1.504788477180517,9.488620829737929
1.1340462571499625,-8.376085811992082,7.0859325448103,1.3477597125443417,11.053764508176137
1.1365332006963442,-9.697278721019895,7.326754360464449,1.1906404864641953,12.212132034159218
1.1390201442427257,-10.640190905500283,7.313783188461004,1.0430077158238191,12.953491889393137
1.1415070877891071,-11.185668753913603,7.07574946203426,0.900073108632018,13.266331351305821
1.1439940313354886,-11.348077477920095,6.631806807845319,0.7762019872601886,13.166708529715674
1.14648097488187,-11.18008951567998,6.034627675864288,0.6666060618752621,12.7222441576419
1.1489679184282517,-10.696070078728303,5.312942499525868,0.5617086403960059,11.956119342371528
1.1514548619746332,-9.919961185178298,4.4954817123307,0.47587504841033557,10.90144223500007
1.1539418055210147,-8.918800482962896,3.620552554484752,0.39474019264716986,9.633754339528092
1.1564287490673961,-7.735683603350371,2.7360390728989925,0.32788099749525124,8.211833934517443
1.1589156926137776,-6.418494580867276,1.8563064913068095,0.28966279171732445,6.687813619352431
1.161402636160159,-5.010329046655737,0.9957200335041101,0.2705088885234801,5.115469734017964
1.1638895797065407,-3.5638594384357836,0.1877985366311048,0.2656310054884301,3.5786760426679303
1.1663765232529222,-2.1173929839036925,-0.5387275654299803,0.28939447450771105,2.203935026246076
1.1688634667993036,-0.7331789272932289,-1.1838582586576232,0.3274342085898798,1.4304841407626965
1.171350410345685,0.5696291171075178,-1.7332283190081217,0.34144310517209675,1.856109137668896
1.1738373538920666,1.757512325113097,-2.167684119057129,0.3553633058810419,2.8131809561604153
1.176324297438448,2.7921634692812667,-2.5063792578829727,0.4027137600047439,3.77363116852084
1.1788112409848297,3.6687941454755624,-2.744525317903178,0.45955257800345173,4.604743019370019
1.1812981845312112,4.3921927562638015,-2.867757074835978,0.5306682912705032,5.272285717201598
1.1837851280775926,4.919263671074399,-2.904804934224334,0.6112726255650749,5.745493973037621
1.186272071623974,5.264372099243306,-2.8652456882724433,0.6917889043276926,6.03339194331067
1.1887590151703555,5.456248460131253,-2.744290919166633,0.7674288553160835,6.155544407741436
1.191245958716737,5.46616233331913,-2.5563058223181203,0.8477694172409951,6.093631355458213
1.1937329022631187,5.318055734975204,-2.3156555930823117,0.9280223198395046,5.874112958753546
1.1962198458095001,5.045447487972437,-2.0462822334000927,0.9938224871905099,5.534572654565281
1.1987067893558816,4.667491205286918,-1.7433973252357995,1.0403816509911898,5.089921646232801
1.201193732902263,4.198552096638434,-1.4309428704215121,1.0916419638333732,4.568054222948665
1.2036806764486445,3.6673605817719337,-1.099342047493675,1.152391965995573,3.9982613493133865
1.206167619995026,3.0787050638951925,-0.7677484548577731,1.165170955555329,3.380160634653347
1.2086545635414077,2.47089276952206,-0.4648924975073525,1.177863104595275,2.77647215110864
1.2111415070877891,1.8582889086295495,-0.17162054718126463,1.2000453595888878,2.218738412977344
1.2136284506341706,1.2648354978992558,0.10249060451117531,1.2029874413955994,1.7485685416690577
1.216115394180552,0.7096861507570554,0.3287105527299583,1.1962662983809125,1.4292508935433175
1.2186023377269335,0.1976292707322419,0.5214045225680097,1.1942472831693038,1.3180085652839268
1.221089281273315,-0.27612354522207283,0.680572529206851,1.1921421360377558,1.4002235722389762
1.2235762248196966,-0.6828418768461146,0.7918493779160318,1.1899510015124033,1.5840712900880132
1.226063168366078,-1.017737320417171,0.8648118906150701,1.2020392350042268,1.7968269760910989
1.2285501119124596,-1.2712330688276867,0.8946716793103944,1.1900997563197517,1.957755949814346
1.231037055458841,-1.4529059281868029,0.8814287593760324,1.1732863260232875,2.065055228522654
1.2335239990052225,-1.5675443012187729,0.8490251628343017,1.18511791554916,2.140687585138207
1.236010942551604,-1.6103597839426271,0.7926725018318166,1.182499044110818,2.149393476826208
1.2384978860979856,-1.5957175855940338,0.7027939852404974,1.165429861703684,2.0972507625972967
1.240984829644367,-1.5188293020627794,0.5889664352585755,1.1722177457798733,2.006942538835368
1.2434717731907485,-1.40363694909587,0.4703434807694076,1.1837092348369467,1.8954121523847298
1.24595871673713,-1.2549289290944596,0.34692513741909803,1.1759624649363847,1.7544490266151038
1.2484456602835114,-1.0583400311137106,0.22349982421740533,1.1777080095423074,1.5990722149493701
1.250932603829893,-0.8473890773472915,0.10964436353729878,1.174580813110257,1.4524910400376816
1.2534195473762746,-0.6220760666819953,-0.009006438807519501,1.1665810309259168,1.3221085622575444
1.255906490922656,-0.391977804580561,-0.13245256700064845,1.163285625779789,1.2346755561420713
1.2583934344690375,-0.16188269312073722,-0.22717518194228514,1.1694831580012561,1.2022917393341452
1.260880378015419,0.04905565572346604,-0.31232788101539155,1.1755969788128997,1.217367413401575
1.2633673215618004,0.2456256466442721,-0.3974874549221754,1.1864156502473673,1.2751118893108198
1.2658542651081819,0.4182504744376161,-0.46828867772369165,1.206727735181385,1.36030127983013
1.2683412086545636,0.5765069472454007,-0.4960011134810318,1.2173797807291518,1.4354061778203382
1.270828152200945,0.7108182599928314,-0.5237203760214295,1.2423139647216566,1.5241028895523114
1.2733150957473265,0.8163960109901196,-0.5418696426107319,1.2623768359359957,1.5980364302015888
1.275802039293708,0.8980286052527015,-0.5360836871570296,1.272780153934093,1.6473646881417854
1.2782889828400894,0.9413508345793618,-0.530304510094008,1.292677695698222,1.6847492074920147
1.280775926386471,0.9655163140756513,-0.5149552885767896,1.3124928191025038,1.7088118978328406
1.2832628699328525,0.9753134489507352,-0.4756707964043527,1.3178604795094042,1.7071189981102333
1.285749813479234,0.9659538378376934,-0.43160463058254406,1.3279344563271387,1.6978690450899083
1.2882367570256155,0.9326490794341042,-0.3971219847621046,1.3570801264420957,1.693873267318063
1.290723700571997,0.884975982462952,-0.3482808259970156,1.395720850932495,1.6889401164698405
1.2932106441183784,0.8277229523913698,-0.29465794454972327,1.4103379750632836,1.661626249824959
1.29569758766476,0.7561015881102577,-0.24583013064944348,1.4152968780857336,1.6233260047806786
1.2981845312111415,0.6749002952155464,-0.18743215789115908,1.4297513433495297,1.5921087042358486
1.300671474757523,0.6176378992893343,-0.1194640097985844,1.4393363317351504,1.5708078495247269
1.3031584183039044,0.5603723861342944,-0.075444493105985,1.4440520148518896,1.5508047279653436
1.305645361850286,0.4839501449376579,-0.04100838131335438,1.4486869683921064,1.5279343449612728
1.3081323053966674,1.446608312021176,2.1912982728130665,1.9272932941964225,3.2571341959914366
1.310619248943049,0.46038321810661836,3.3653612280606797,1.9126136954438984,3.898166242074324
1.3131061924894305,-0.4205001097307568,4.304785872152409,1.8643350655141262,4.709962524678101
1.315593136035812,-1.1960416687661688,5.033514238348594,1.8207648063414146,5.484702885398121
1.3180800795821934,-1.8470878429292668,5.52760432673471,1.7819030940347274,6.094368033599867
1.3205670231285749,-2.3544850160858326,5.772690944065031,1.728596492153751,6.469590888097128
1.3230539666749563,-2.7325983952799486,5.811869736965176,1.6656335815865946,6.6347011279670465
1.325540910221338,-2.971851170890317,5.654717528845625,1.602591347263373,6.586048036514732
1.3280278537677195,-3.0722433398724576,5.306022739823295,1.5634119847917214,6.327465012870713
1.330514797314101,-3.052928512399534,4.808881016603383,1.5289420606078457,5.897743039363973
1.3330017408604824,-2.9139066852997426,4.196811199276377,1.4896049484948728,5.321935673755045
1.3354886844068639,-2.6839082752596624,3.4937553213171504,1.4597660395385956,4.6411859223079395
1.3379756279532453,-2.382086892261639,2.7428090295061587,1.4346371122395087,3.9058319188669843
1.340462571499627,-2.0084425329435796,1.9679143573673166,1.4142183491092526,3.147465943426003
1.3429495150460085,-1.5917056138018024,1.1738597251665523,1.4128751433060378,2.4305739211034756
1.34543645859239,-1.1558181479489944,0.41331758639599014,1.4162424687466872,1.8741637464837915
1.3479234021387714,-0.7103569384738537,-0.28977002535122764,1.4195321066639917,1.6135814356517328
1.3504103456851528,-0.26968719172227273,-0.9354030930613926,1.4275326456015236,1.7278771895438494
1.3528972892315343,0.14703748270253836,-1.4804859698162642,1.4498210780881777,2.077363686649757
1.355384232777916,0.5302402819009288,-1.9345954451998226,1.467243977390817,2.485280503751619
1.3578711763242974,0.870344403035938,-2.2833662921735907,1.4702247240716044,2.851810257258007
1.360358119870679,1.152984640013192,-2.5220100903196006,1.5018591358656428,3.1536469903531255
1.3628450634170604,1.3829494000820666,-2.6505268225202396,1.5382053846680082,3.36212987338506
1.3653320069634418,1.5458734772732385,-2.692858488240127,1.5601100463332545,3.474932373743942
1.3678189505098233,1.665698892242303,-2.653793473643733,1.5963037305530845,3.5164411271268285
1.370305894056205,1.7232720358243587,-2.523754954916155,1.6372098210855324,3.466909514275934
1.3727928376025864,1.7329581221588994,-2.3266849314667044,1.6636748956716678,3.344311705262961
1.3752797811489679,1.6947571554865841,-2.0721601927262636,1.6852759525929502,3.163258559899965
1.3777667246953493,1.6134575434303504,-1.7649691247882213,1.6924363774629176,2.9296249158668424
1.3802536682417308,1.5034245003156939,-1.4338421303311797,1.7043099764251348,2.6871659752617427
1.3827406117881123,1.3502928206079357,-1.102721208697035,1.7161085396245968,2.4462856099131294
1.385227555334494,4.7166345791074615,0.3249380177411214,2.5227072122963135,5.358757145754749
1.3877144988808754,2.4422342286059378,1.5227478465471824,2.5152026734710713,3.822239333188667
1.3902014424272569,0.27317575808918226,2.5242271182687217,2.469316456282777,3.541732810458709
1.3926883859736383,-1.713926374645701,3.3389526568660877,2.408990773158602,4.459751675560259
1.3951753295200198,-3.471188131662342,3.962136076352623,2.3150722072200622,5.753888133911818
1.3976622730664012,-4.945937071643046,4.384200587434848,2.21150297204348,6.969523204845092
1.400149216612783,-6.138173189732672,4.62429982075421,2.1078600718110696,7.968964363185203
1.4026361601591644,-7.023954464413778,4.696799003644468,1.9802016880245192,8.67853996499694
1.4051231037055458,-7.5841272774286255,4.6064865568109425,1.862046842585774,9.066748226475715
1.4076100472519273,-7.837845237021507,4.401246530853532,1.7533957347059284,9.158448863608724
1.4100969907983087,-7.79468514473577,4.085867346500651,1.6542485641422582,8.954773408117678
1.4125839343446904,-7.49774262529672,3.6747142311322074,1.5598171278727468,8.49427446154656
1.4150708778910719,-6.9613828834479925,3.191729218779438,1.4892552400128318,7.8016580433827505
1.4175578214374533,-6.219124737154037,2.660854343483161,1.4377746986070372,6.915551635080822
1.4200447649838348,-5.318852214281306,2.1060316392944793,1.4101641088661587,5.891869054638675
1.4225317085302163,-4.308449342636043,1.5512031402732647,1.3824816565994702,4.783327550073128
1.4250186520765977,-3.226223343324359,1.005945670527273,1.3643043513737014,3.6444162929392117
1.4275055956229794,-2.1009046307532397,0.484624457493378,1.3604207999453992,2.5493932386442935
1.4299925391693609,-0.989954039191881,0.006393131936461849,1.38040801289638,1.698698370493364
1.4324794827157423,0.06832121043080996,-0.42395988533194906,1.4051125813864314,1.4692689129413483
1.4349664262621238,4.440168657986586,0.44333868978824187,2.219832854882535,4.98390457461271
1.4374533698085052,3.496885526023088,1.473437287888261,2.263549556388096,4.418470597126796
1.4399403133548867,2.5823299258182626,2.3072056774563596,2.2880422131018943,4.150513589039268
1.4424272569012684,1.7539627030832439,2.9494322793305807,2.3124646446941934,4.137998147308056
1.4449142004476498,0.9926302504625197,3.414482320995038,2.2985098314656813,4.234046738035061
1.4474011439940313,0.3174861872205741,3.697567416658063,2.255754787389212,4.342951984610996
1.4498880875404128,-0.2523158673201136,3.827418003774839,2.22729535014377,4.435497317020193
1.4523750310867942,-0.711987503740527,3.808822503203472,2.1844013080624594,4.448107928215863
1.4548619746331757,-1.0758939258455422,3.6465693358061304,2.1222844665336495,4.3542056700852925
1.4573489181795574,-1.35840033738288,3.388542552331445,2.069675454636471,4.196549605698413
1.4598358617259388,-1.5307763121604032,3.0586841869299035,2.0026324653701355,3.9635037359135814
1.4623228052723203,-1.6121754571323952,2.656994257153214,1.935520918734709,3.6612797508500847
1.4648097488187017,-1.6313281858371274,2.2026263938368205,1.8731294285229128,3.3198506798848384
1.4672966923650832,-1.5786576851939609,1.74346464774057,1.8106698023151022,2.968224081493666
1.4697836359114647,-1.4924711752691828,1.2842974397429572,1.762507461395928,2.6425977132768446
1.4722705794578463,-1.372768649510527,0.8299131907238837,1.7382194241477489,2.365302609752288
1.4747575230042278,-1.2147616979897642,0.39946553152577735,1.70907548280341,2.1345157998243667
1.4772444665506093,-1.0376039273244277,0.01689649631147283,1.6798642532457615,1.974550913731935
1.4797314100969907,-0.8604489440767753,-0.32737070399767676,1.6697395617214124,1.9067181666875643
1.4822183536433722,-0.6832967414725993,-0.6237592451991472,1.669124814952819,1.9083887656265859
1.4847052971897536,-0.5013589093624021,-0.8483270931298299,1.6588666134144647,1.9294709259370404
1.4871922407361353,-0.31942384418253233,-1.010651036869523,1.653330381210651,1.9639115204081738
1.4896791842825168,-0.1614335555960943,-1.134673075459973,1.6716699461485192,2.026826137068097
1.4921661278288982,-0.022599633289897114,-1.2012395780615845,1.7186739264517987,2.096980527518473
1.4946530713752797,0.11623154306424754,-1.2247157370786552,1.7608237141541698,2.148008044812425
1.4971400149216612,0.23590636728593894,-1.2051015349566474,1.7837543149379984,2.165571744306996
1.4996269584680426,0.3412132498500129,-1.151973760784086,1.8066195580902376,2.169641503816334
1.5021139020144243,0.43694060128475487,-1.074909203652268,1.83899646661457,2.174455078719335
1.5046008455608058,0.5039348155701113,-0.9691194426946612,1.876096853906116,2.170917363187489
1.5070877891071872,0.5709263199421503,-0.8441812670091147,1.9131325337073193,2.167642720999286
1.5095747326535687,0.6379151217678254,-0.7096714656972616,1.9596805300638973,2.1796598522972515
1.5120616761999501,0.6761708085447776,-0.5608016179038433,2.015741060718292,2.198844569504032
1.5145486197463316,0.7144238076666497,-0.4263021260203397,2.0430071171827358,2.2059041140697135
1.5170355632927133,0.7430973200166944,-0.29659616588036686,2.055844127820274,2.2060503145948487
1.5195225068390947,0.7574029498502846,-0.17168371996330745,2.0877711345975465,2.2275373933115192
1.5220094503854762,0.7717059147556352,-0.04677636743361635,2.1100579366345125,2.247234421099279
1.5244963939318577,0.7716410124504348,0.058972295936971175,2.122704753285417,2.2593766957734407
1.5269833374782391,0.7619966539847265,0.13598548101131192,2.1305002075322594,2.266751438959463
1.5294702810246208,0.7523496537797244,0.2034168185677978,2.1238677126985923,2.2623488821714184
1.5319572245710023,0.7379116163463242,0.25647792277657455,2.126749505647682,2.2656914922785254
1.5344441681173837,0.7186825495660837,0.28080360116024483,2.124780596972885,2.260541495913715
1.5369311116637652,0.6850856547300749,0.2907590811559615,2.103595997555213,2.2313671411316216
1.5394180552101466,0.6514861497807711,0.2959211868730187,2.0823495418005704,2.2018590251043673
1.541904998756528,0.6274608493899554,0.2867131291315732,2.0706182577520416,2.182514949609666
1.5443919423029098,0.5794909383959457,0.2535581187436011,2.039671947163084,2.135500671811614
1.5468788858492912,0.5267300382096136,0.2251865930751129,2.0086644452582716,2.088752352122625
1.5493658293956727,0.48354336697032907,0.1968101662411441,1.9919611842049143,2.059237186109437
1.5518527729420541,0.43077731962386806,0.1588520490273555,1.9847739831472646,2.03718699111318
1.5543397164884356,0.3780087110862137,0.11131225885069229,1.9775262581625386,2.016405491549216
1.556826660034817,0.334814356321374,0.07334442639967653,1.9510646189357637,1.9809425043008568
1.5593136035811987,0.29640586038021965,0.04016016575134351,1.9245429019579756,1.9476484935577414
1.5618005471275802,0.2532064250408558,-0.007394118988395704,1.902749733997993,1.9195376310213401
1.5642874906739617,0.214792865409845,-0.04058799052105577,1.8952621453787346,1.9078265014699616
1.5667744342203431,0.18116519000013875,-0.06899823812139605,1.9068687633317953,1.9166976974740106
1.5692613777667246,0.1523234073713915,-0.09741324775493077,1.9088393920707203,1.9173835260563579
1.571748321313106,0.1378443327703207,-0.11625619543756827,1.9203278692314747,1.9287756967573002
1.5742352648594877,0.12336276488824316,-0.14946908043901042,1.950911226023882,1.960513705535914
1.5767222084058692,0.10887871242330427,-0.16353306219708008,1.9622824606642917,1.972092820300611
1.5792091519522506,0.12791100736143735,-0.1728133333648798,1.978383814737989,1.9900322088876192
1.581696095498632,0.12299881864797202,-0.18688668328760683,2.004003916749057,2.0164540758779013
1.5841830390450136,0.12287257503890991,-0.19138788472157442,2.0056241688343626,2.0184784612988613
1.586669982591395,0.13710909205376764,-0.1815285170766603,2.0071868131650143,2.0200372295033047
1.5891569261377767,0.1609199752956082,-0.1764621763775054,2.008692075496283,2.0228390920442956
1.5916438696841582,0.18951683041168055,-0.16661203874034003,2.019716988405029,2.035419591561991
1.5941308132305396,0.21811126309315776,-0.1471896836154185,2.0211081647224374,2.038164747894193
1.596617756776921,0.25149168571544933,-0.1325603037482188,2.027231040693347,2.047067657520007
1.5991047003233025,0.2848697040566758,-0.10357026865625052,2.0380858427683775,2.060502718108315
1.601591643869684,0.3182453272582977,-0.08894998107462726,2.048884394239826,2.0753600768094236
1.6040785874160657,0.3468301611842277,-0.06954581055004772,2.0452617119166545,2.075625990082121
1.6065655309624471,0.38498942502206857,-0.04535773992543257,2.055948442643208,2.0921754660536958
1.6090524745088286,0.41835791807970707,-0.030750962019846728,2.0809448134898343,2.1228048158215995
1.61153941805521,0.43735884302720207,-0.025725459706865905,2.0915206317481863,2.136914389927578
1.6140263616015915,0.45635741917773665,-0.011127602594506847,2.09725293141093,2.146358724884963
1.616513305147973,0.47535365592481826,-0.010899390189523128,2.0981419399639414,2.1513436487793496
1.6190002486943547,0.4847707560622904,-0.0010987888117015565,2.0846110783816547,2.140235323832775
1.6214871922407361,0.48939713238559185,0.01827421860120948,2.0806025910052197,2.1374636001462943
1.6239741357871176,0.4892327944102057,0.008912422532348696,2.0813283023738034,2.1380728847876145
1.626461079333499,0.4938545583322868,0.028276679854238207,2.077211633821525,2.135298589680761
1.6289480228798805,0.4936856271064834,0.028482974375448222,2.068252813433773,2.126548019330274
1.631434966426262,0.4791492037268791,0.019108129730994072,2.0544520694019583,2.109673525814814
1.6339219099726436,0.4646105078282463,0.01930577617898832,2.050174839979867,2.1022493932606494
1.636408853519025,0.45006954912323616,-0.004442892563643941,2.0410561435962444,2.090093902114041
1.6388957970654066,0.4259495307223784,-0.01383063299325693,2.031884612053358,2.076097147493545
1.641382740611788,0.41140407569626913,-0.008857428186888061,2.0130836672802124,2.0547110792040657
1.6438696841581695,0.3968563872315073,-0.023042084482157943,1.9942303445702203,2.0334651698390083
1.646356627704551,0.3775180718725605,-0.03723097171186307,1.9944784859359839,2.0302340925879654
1.6488435712509326,0.37733115612302326,-0.04663566968854749,2.0090399168626156,2.0446992626339413
1.651330514797314,0.3579884233593491,-0.06083296820472395,2.0235496562641266,2.055871973797633
1.6538174583436955,0.3434319001586631,-0.06545764047057556,2.018854319799231,2.048902861854261
1.656304401890077,0.33844999985312707,-0.07008647631728548,2.0188961530699583,2.048268096086016
1.6587913454364585,0.32867752252961857,-0.06993105563473989,2.0236753851328,2.0513852224169855
1.6612782889828401,0.31411447827159644,-0.07935657161391418,2.0188270351348505,2.0446583990264786
1.6637652325292216,0.31870289379939987,-0.08399779754394476,2.0235049455124585,2.0501705853469177
1.666252176075603,0.3137123593449279,-0.07427791005451434,2.0281325388227094,2.053595443937115
1.6687391196219845,0.30393128841693273,-0.08371571567854375,2.0470752542624107,2.0712072918334035
1.671226063168366,0.3037249011991324,-0.08358077780550888,2.0563913044995816,2.080379715159828
1.6737130067147474,3.157404780213944,1.0418248938652432,2.539709654184673,4.183865339988134
1.6761999502611291,1.2705632697360687,1.640502170472789,2.5201962552976918,3.2645011194583544
1.6786868938075106,-0.41037899002740497,2.090734930947358,2.486268475854775,3.274311286510278
1.681173837353892,-1.8758451820794568,2.4212536118152457,2.4331381418959275,3.911703646419019
1.6836607809002735,-3.092316472788217,2.6368466329794793,2.36559388611351,4.702277721248522
1.686147724446655,-4.083734868333365,2.742302414321398,2.30757795448847,5.433417803047718
1.6886346679930364,-4.840523551620375,2.7376209723801215,2.244725366442238,5.997001651905413
1.691121611539418,-5.353105705523039,2.6371675336336273,2.172247948035529,6.35051607687904
1.6936085550857995,-5.669365352727561,2.4696725344985753,2.1045111386046127,6.532224204884214
1.696095498632181,-5.779725676045385,2.2351359914473226,2.0271499575538714,6.519999903451851
1.6985824421785625,-5.712917084819793,1.971865147492133,1.9449530375546251,6.348898809731733
1.701069385724944,-5.488093181723118,1.670283212419379,1.8770742212205453,6.035927469158033
1.7035563292713254,-5.143561182678962,1.3447554125940617,1.833090544501756,5.62359402019781
1.706043272817707,-4.6936862869796725,1.0192237809986833,1.803425430039976,5.130482565806958
1.7085302163640885,-4.162410500529068,0.6984767373113274,1.788079107086138,4.583749319135776
1.71101715991047,-3.5736758292019406,0.3920911045069069,1.7822634015351637,4.012649648163582
1.7135041034568514,-2.951424278844346,0.10964370553670966,1.7811901392420868,3.448994828649201
1.715991047003233,-2.3052326453133114,-0.1392886366716275,1.7992247592990642,2.927577259065732
1.7184779905496144,-1.6829849510003947,-0.3451290992143803,1.8172138775077293,2.50076362677983
1.720964934095996,-1.0798927817461061,-0.5126660691728135,1.8447345295390702,2.198190256329552
1.7234518776423775,-0.5007445300045706,-0.6466879336523323,1.8817869443667137,2.0518461131015733
1.725938821188759,0.020940991875383008,-0.7519830797827547,1.9140061409424947,2.0565350920871404
1.7284257647351404,0.49952900477435774,-0.8046094747964605,1.9653343647156838,2.1816197649167686
1.7309127082815219,0.9158659063569441,-0.8237207158332862,2.002253021222619,2.3508175890772627
1.7333996518279033,1.2603749009543392,-0.8188935934172217,2.0151855325278847,2.5139817697837676
1.735886595374285,1.5378444028838296,-0.7853396881362331,2.0137089338998573,2.652686846145081
1.7383735389206665,1.7578512298083337,-0.7326357905642897,2.016977067166012,2.7739849742253546
1.740860482467048,1.9060301828139332,-0.6655702879802252,2.0393553707478675,2.869652451820249
1.7433474260134294,1.9871696762922968,-0.5937199710085326,2.0664788630553472,2.92774343442258
1.7458343695598109,2.0204233346200837,-0.5075080170179138,2.083982562404592,2.9466350569456687
1.7483213131061923,2.029733185517944,-0.4165112166839222,2.106231906935771,2.9545746299274005
1.750808256652574,1.9624268036048362,-0.33030636070783315,2.1284387214059377,2.9138415609313575
1.7532952001989555,1.8568114266086668,-0.253681836496503,2.1410264271459107,2.8453641787809754
1.755782143745337,1.7368290823189116,-0.17706082152176927,2.139206848696932,2.761183032183592
1.7582690872917184,1.5881145719848861,-0.10044329992227663,2.127768617126926,2.6569900335304695
1.7607560308380998,1.4250331167996162,-0.028617659183186372,2.1210771700265463,2.555485612481623
1.7632429743844813,1.2523731313370356,0.024050906543350514,2.109555928263,2.453414583936041
1.765729917930863,1.0797114335125526,0.07192762300057698,2.093205119218281,2.3563654287333833
1.7682168614772444,0.9070480346217509,0.1102241026238846,2.0672365668242865,2.260166479073142
1.770703805023626,0.7343829459806532,0.13894036114226083,2.0316504981994967,2.16476938312972
1.7731907485700074,0.5712929855659831,0.16286481757817084,2.0199659635669622,2.1055078052884704
1.7756776921163888,0.4177781647335532,0.17720908428650928,2.0130295764847546,2.0635478502530997
1.7781646356627703,0.28820370481947566,0.18676158023573564,2.001264757006151,2.0305176411345727
1.780651579209152,0.17299281057724003,0.19152232104683087,1.9846717316757507,2.001381821263349
1.7831385227555334,0.07693389673996531,0.19627972563380558,1.977615936845921,1.9888210952293943
1.7856254663019149,2.69747386706376e-05,0.17230338964109881,1.946578775508888,1.9541897011475449
1.7881124098482963,-0.05772794397771963,0.138746941888781,1.9298677003007176,1.9357098362263296
1.7905993533946778,-0.10111925126306465,0.10997560784900973,1.93705974377092,1.942812442886761
1.7930862969410595,-0.12535853231343486,0.09077780632561394,1.925059501777107,1.9312714612729596
1.795573240487441,-0.1208689689877922,0.06199993949307103,1.9034440065280407,1.9082851951814843
1.7980601840338224,-0.12116937301147668,0.033218829419814355,1.9105207099783144,1.914647458630455
1.8005471275802039,-0.11189452289064106,-0.0003539118146438369,1.9175594174183388,1.9208213422482205
1.8030340711265853,-0.0738907937954203,-0.03871826883859031,1.9101951439158888,1.912015805789643
1.8055210146729668,-0.04546540072438232,-0.07229741966784609,1.9219469375545968,1.9238435618129532
1.8080079582193485,-0.007464718817351668,-0.09630294566686448,1.924084603063008,1.9265076016240557
1.81049490176573,0.04968807015976917,-0.12510004150968923,1.926185171537445,1.930882761783497
1.8129818453121114,0.10205096121318002,-0.1539002886176104,1.9378256738758148,1.9466042329794142
1.8154687888584928,0.1400471593238587,-0.1587616551592128,1.949429527492696,1.960891111878467
1.8179557324048743,0.18761869272844878,-0.154049335894213,1.9514201495968981,1.9664619426786172
1.8204426759512558,0.24955397639548504,-0.1541285256110645,1.9485861671487807,1.9705382108310956
1.8229296194976374,0.2971226020641049,-0.14463399920514908,1.9552930135362923,1.9830208277189765
1.825416563044019,0.3446897913685657,-0.13035414488200958,1.9571757020088514,1.9915672180208897
1.8279035065904004,0.39225555599431006,-0.11607735087614168,1.9542344555565707,1.9965897625399451
1.8303904501367818,0.4302431009977573,-0.10659200545111336,1.9416810936254034,1.9916316052233654
1.8328773936831633,0.45865243808723877,-0.09710969025899807,1.92909264539482,1.9852432559819846
1.8353643372295447,0.4822719823023434,-0.08763039030138575,1.9116809298523796,1.9735220616399158
1.8378512807759264,0.49152493873224873,-0.06857728396853524,1.908599782352682,1.9720681373798794
1.8403382243223079,0.4959881257575773,-0.05431556628162504,1.905484214770084,1.969727010113577
1.8428251678686893,0.5052383617687644,-0.05921043229126255,1.916699658659252,1.9830555360350846
1.8453121114150708,0.5049104485641271,-0.0688966571556886,1.9183043187672881,1.9848357034872397
1.8477990549614522,0.49979280123231146,-0.0642206127424032,1.9150868195146211,1.9802713595725403
1.8502859985078337,0.4946738348706741,-0.05475909087042741,1.911835785069667,1.9755548157445708
1.8527729420542154,0.4799767546239737,-0.05487728670879699,1.908551436025057,1.9687452312397329
1.8552598856005968,0.4700667822465097,-0.05499837885476566,1.8956571860738878,1.9538433326553617
1.8577468291469783,0.4553671228986206,-0.04075714261511276,1.8827300619281697,1.9374449275732113
1.8602337726933598,0.4406661917088253,-0.03130717656870985,1.8793470900341767,1.9305730539505082
1.8627207162397412,0.42117559717188036,-0.026648466043137642,1.8855084899284158,1.9321597475332306
1.8652076597861227,0.4064721577500036,-0.03156939971631667,1.8772724642733136,1.9210330937136904
1.8676946033325044,0.40613269191152,-0.026916349694689146,1.8594276353772896,1.9034545921888872
1.8701815468788858,0.38663838824774144,-0.01747770471640342,1.8511278352304945,1.8911554605040015
1.8726684904252673,0.3527776619178691,-0.012830256870110635,1.8380080722983267,1.8716010173307243
1.8751554339716487,0.33328094468768843,-0.012973991634093185,1.834433774682192,1.8645084570056512
1.8776423775180302,0.3281482484058068,-0.022697297837255714,1.8595587735146353,1.8884266658825188
1.8801293210644117,0.3134375683235584,-0.0276349510576126,1.894229673073239,1.9201856301169666
1.8826162646107933,0.29872572293839683,-0.04694055014577625,1.9049278673789596,1.9287795759780344
1.8851032081571748,0.2840127241107476,-0.056672064099998476,1.8964419767162273,1.9184282945571651
1.8875901517035563,0.2740869870245325,-0.06161788187092743,1.8927142343485297,1.913449140355705
1.8900770952499377,0.2545833135852752,-0.061777989119449206,1.8841680499917155,1.9022929385626401
1.8925640387963192,0.2446553289431722,-0.06672917817767221,1.8612268330529895,1.8784233647601971
1.8950509823427006,0.24430304496927624,-0.07168303144741817,1.8430444125495917,1.8605470005912297
1.8975379258890823,0.2391612635754573,-0.07663953468151252,1.8439862138634346,1.8610096413478392
1.9000248694354638,0.23880680327653414,-0.0768102703432012,1.8448988388160723,1.8618754610301531
1.9025118129818452,0.2384512726274124,-0.07219522424681779,1.836205695548359,1.8530306301262032
1.9049987565282267,0.23809468350397145,-0.06758278555782615,1.817906998517329,1.834677728233189
1.9074857000746082,0.24252545110270496,-0.05818453683191471,1.8043681718133735,1.8215236847793252
1.9099726436209896,0.27089720058097055,-0.04400046397598478,1.8003778325556166,1.8211759042086977
1.9124595871673713,0.2753259106113415,-0.03460735956848371,1.791570984248172,1.812933704797346
1.9149465307137528,0.2797536096702842,-0.034793612898509796,1.7875246466599073,1.809617926535519
1.9174334742601342,0.2841803096315566,-0.0349824033252264,1.7978158392198331,1.820473567145211
1.9199204178065157,0.2886060223674143,-0.03038531355913543,1.8128679677328083,1.8359485210262596
1.9224073613528971,0.29781916306855716,-0.03536753962305106,1.8183160343374851,1.8428836961345776
1.9248943048992788,0.29266613032190114,-0.03556385764900538,1.8285254607454613,1.8521402788133723
1.9273812484456603,0.2923005492742746,-0.035762657081401805,1.824342845074253,1.8479570869263129
1.9298681919920417,0.29193402846800576,-0.035963924075484766,1.8201336083286908,1.8437476055523665
1.9323551355384232,0.29156657976243594,-0.05053285477861058,1.806321154554217,1.8303990693934808
1.9348420790848047,0.29598661833356354,-0.060315822127161134,1.8068477106777001,1.8319237774025041
1.9373290226311861,0.3099825593533775,-0.06052440904968437,1.812136680020135,1.8394541957516857
1.9398159661775678,0.3144008013879328,-0.06073540846691561,1.7934578522546962,1.8218198927361193
1.9423029097239493,0.3140297596001316,-0.07052561333086826,1.7891186631694307,1.8178377658502374
1.9447898532703307,0.3136578491477945,-0.08510660666391523,1.779965708336297,1.809392799721222
1.9472767968167122,0.32286188850362585,-0.08532476155881064,1.765999196233289,1.797296101114065
1.9497637403630936,0.31769987289236057,-0.07596846774121468,1.7520077382806587,1.7821996331281407
1.952250683909475,0.3173254274154077,-0.07619132492907665,1.7427799455177846,1.7730714828730938
1.9547376274558568,0.3217385638864403,-0.07162810962953925,1.743104428600354,1.7739953039923688
1.9572245710022382,0.32136248747166674,-0.05270200170145056,1.7386161845163262,1.7688520532818521
1.9597115145486197,0.33535082325198007,-0.052931810917873356,1.7293154198253378,1.762326238954783
1.9621984580950012,0.3397615664179262,-0.05795231388017985,1.724779147335635,1.7588801834640897
1.9646854016413826,0.3345947287537221,-0.06297509386179323,1.7250075728200773,1.7582862739734089
1.967172345187764,0.3342155319962863,-0.05842333084728013,1.7012704817321707,1.7347721923722619
1.9696592887341458,0.32904718127239274,-0.0490854148136024,1.6870869022892716,1.7195765878048992
1.9721462322805272,0.3238780916608255,-0.04932654240982037,1.6824570390636504,1.7140571210840063
1.9746331758269087,0.31391987159046253,-0.059146700355538595,1.6586506763001392,1.6891317544624012
1.9771201193732901,0.30874933944149874,-0.05939226212060422,1.6491868409993744,1.6788897616969556
1.9796070629196716,0.3035781036232327,-0.0548516178079228,1.6540657365089535,1.6825878359445403
1.982094006466053,0.29840617585495643,-0.05510156087221407,1.6589223558020016,1.6864476897842389
1.9845809500124347,0.29323356784531873,-0.05535367483878062,1.6637569013964582,1.690306771439373
1.9870678935588162,0.29763709793259285,-0.06997315654568403,1.668569575391552,1.6963515297912302
1.9895548371051976,0.2924631645218483,-0.079806379620325,1.67814898278551,1.705311634058209
1.992041780651579,0.2825001826080368,-0.07527652436224885,1.6877069215120626,1.712841954534439
1.9945287241979606,0.2916901804553461,-0.0755371910244027,1.6828783824379014,1.7096399266157587
1.997015667744342,0.28172594315155175,-0.07101155996938724,1.6780287759226438,1.702995220638732
1.9995026112907237,0.27176109561548323,-0.06648802155227074,1.6683698986131965,1.6916657083178908
2.001989554837105,0.30967968267482093,-0.10027378940183507,1.7544584197693736,1.7843992505608797
2.0044764983834864,0.2709832296126312,-0.10054280081120348,1.7830656322379825,1.8063398944812379
2.006963441929868,0.2562282177529699,-0.08644865619095965,1.7924989612394233,1.8127820596460287
2.0094503854762498,0.24147264207773567,-0.06277974602227054,1.7731817983495954,1.7906490508698036
2.011937329022631,0.21235130419508697,-0.04868967077876141,1.7586331645834266,1.7720762872987765
2.0144242725690127,0.18801782894067298,-0.03939001436400824,1.73927645062681,1.7498528077916025
2.016911216115394,0.1780490344944905,-0.03009236071309518,1.695958240076413,1.7055443004920137
2.0193981596617756,0.1776565290602402,-0.020796697112922313,1.6574091492810457,1.667033122960986
2.0218851032081573,0.191628727466566,-0.006714607561568275,1.6140525675736308,1.6254022105424217
2.0243720467545385,0.21996564120576345,-0.016576499330786643,1.5611002871517643,1.576608312228008
2.02685899030092,0.24351366847256573,-0.016863536559755588,1.5320713263174186,1.55139480291842
2.0293459338473014,0.26706122404658317,-0.017152513301925243,1.5173890730294541,1.5408067708350124
2.031832877393683,0.2906083193701079,-0.012655013681273974,1.5122653181043724,1.539986927541825
2.0343198209400644,0.31894336918845334,-0.02252463845478303,1.5071234485734237,1.540666518532369
2.036806764486446,0.34727798158865075,-0.04197297180931381,1.5163288676022164,1.556154542962431
2.0392937080328277,0.37082376463976896,-0.04705798468189748,1.5350933646056477,1.5799482132020088
2.041780651579209,0.38000392307229747,-0.05693327792379499,1.5394751152456818,1.5867035041702624
2.0442675951255906,0.3939720815199735,-0.06681043581609858,1.5438395212728455,1.5947156808644876
2.046754538671972,0.39836304135543965,-0.08626625263220777,1.5481867740006239,1.6009426180383912
2.0492414822183536,0.39796521721335054,-0.08657029611440681,1.571670677545459,1.6235822889330886
2.0517284257647352,0.39277862038848976,-0.09166457055975297,1.585561002340187,1.6360565791781798
2.0542153693111165,0.3828032621557712,-0.10154906369507666,1.585069534936597,1.6337980231468536
2.056702312857498,0.3728275570902376,-0.1066469566378978,1.5941384813236041,1.6406253253935608
2.0591892564038794,0.3532747097854969,-0.10216983385734624,1.5984028204407474,1.640162574843543
2.061676199950261,0.3337215380955987,-0.09290608649445398,1.5834975307385957,1.6209460311040083
2.0641631434966428,0.323744859853473,-0.0836441057215116,1.568576413418847,1.6038201381194306
2.066650087043024,0.32334468622999646,-0.07917228274205046,1.5440628492682045,1.5795411102462664
2.0691370305894057,0.31336741509305843,-0.06991379882987525,1.5099570252188101,1.5437154187597428
2.071623974135787,0.31296667085100416,-0.05586864193061336,1.4949895476274762,1.5284185257088903
2.0741109176821686,0.3029888513273291,-0.06097881662262461,1.4800069891486665,1.511932983975894
2.07659786122855,0.30258758088537474,-0.0756675042732331,1.4650095352168506,1.497844368946686
2.0790848047749315,0.3165512739045876,-0.07599267631994966,1.4499973707632794,1.486092854126319
2.081571748321313,0.32093792481927985,-0.07631953079388465,1.4397590835343346,1.4770687326551637
2.0840586918676944,0.33011275460270384,-0.08622486243690952,1.4342948574489416,1.4743170947113544
2.086545635414076,0.3488641775636264,-0.09134344942038419,1.428816472596643,1.473623545042177
2.0890325789604574,0.3580385913850926,-0.10125208654825402,1.432900918516916,1.4804217845729026
2.091519522506839,0.35284760368662904,-0.1207391653351495,1.4609135875566661,1.5077625435660993
2.0940064660532207,0.35723324198488876,-0.12586265740479474,1.4841242416651932,1.531692450332741
2.096493409599602,0.37119551716990573,-0.126199357654043,1.488167852236077,1.538946375371236
2.0989803531459836,0.36600402018451667,-0.13132606101065925,1.4921982133865805,1.542031447515227
2.101467296692365,0.35602397182872564,-0.13645435247235937,1.4722734888308073,1.5208425575119173
2.1039542402387466,0.3460437862359971,-0.1367958170677075,1.4427590683231886,1.4899708476304365
2.106441183785128,0.33606347419326876,-0.13235044317640954,1.4180203410941932,1.4632966159506875
2.1089281273315095,0.3212946431406648,-0.11832981588865055,1.4028458892079225,1.4440252012713268
2.111415070877891,0.3017373038118504,-0.11388753692694342,1.406812697521242,1.4433079149945534
2.1139020144242724,0.286968273554025,-0.10944678812265174,1.4155557337602023,1.448491430709318
2.116388957970654,0.2674107564057977,-0.10979596129877711,1.4242867717604408,1.4533260040234681
2.1188759015170353,0.2526415696593889,-0.11014664166836186,1.4282175848248713,1.4545671228904382
2.121362845063417,0.23787232061815278,-0.10092201115476618,1.4273483490422834,1.4505487936520853
2.1238497886097987,0.22310301987757297,-0.10606407495413128,1.402525626684076,1.4241147000785885
2.12633673215618,0.21791048464527496,-0.09684240176973358,1.3776916093666909,1.3981765269872943
2.1288236757025616,0.20314111217825304,-0.09719899685880184,1.3720000848467713,1.3903590145235591
2.131310619248943,0.19794852626697612,-0.10234544558719172,1.3710860170976975,1.3890770589008143
2.1337975627953245,0.21669794735229686,-0.10270493003090264,1.3701611761907593,1.390988120646541
2.1362845063417057,0.21150535268142956,-0.0982774389369796,1.369225734973229,1.388946392964785
2.1387714498880874,0.21110117259674166,-0.08906296108284995,1.3778566723870878,1.396776619846632
2.141258393434469,0.22506222412923327,-0.07984988859660058,1.381688950225282,1.4021745128954273
2.1437453369808503,0.23902330767795688,-0.08500342027725205,1.3615691264113892,1.3850011585081132
2.146232280527232,0.243407626931626,-0.08058152839159582,1.3366509848809187,1.3610203932893663
2.1487192240736133,0.24779199882928693,-0.07137260515853106,1.32129990569695,1.346227456355611
2.151206167619995,0.25217643363818,-0.062165042827149186,1.2867856384861494,1.31273558862643
2.1536931111663766,0.26134934491441497,-0.05295883035638038,1.2666271754841354,1.2943927222735874
2.156180054712758,0.26573393622145625,-0.05333076337589482,1.2656130884480845,1.2943087671931701
2.1586669982591395,0.2653302177314337,-0.0537040242641833,1.2837435452568222,1.3119762713754135
2.161153941805521,0.26013819958425133,-0.04450179542977084,1.287499889987501,1.3142709992224724
2.1636408853519025,0.24536948856702234,-0.04008927591273537,1.291247499359507,1.3149651860657867
2.166127828898284,0.24975451467631327,-0.04525485814247965,1.2997749428892753,1.3243263275905661
2.1686147724446654,0.25892807799289064,-0.04563332129706321,1.2891403696076829,1.3156781681467267
2.171101715991047,0.25373657524396864,-0.04601305786566279,1.2928627678242695,1.3183298477759342
2.1735886595374283,0.23896841972483407,-0.05118246036727747,1.3061538987196286,1.3288203629593875
2.17607560308381,0.2337772346579723,-0.046776308069436556,1.300283506305007,1.3219595361469196
2.178562546630191,0.23816302995063166,-0.05673660683190729,1.2896169639053525,1.3126509760719043
2.181049490176573,0.23297220219457782,-0.06190973266133648,1.2933080475955023,1.3155814562271997
2.1835364337229546,0.23256997118928724,-0.04793046491432973,1.2922033063160647,1.3138399848611928
2.186023377269336,0.23695634673857946,-0.05310601950053773,1.2815144983955964,1.3043189675708171
2.1885103208157175,0.23655453197068965,-0.058282772515417136,1.2612417849086999,1.2845566426466524
2.1909972643620987,0.24572974658020863,-0.05388390672456955,1.2409621329951133,1.2662044065971565
2.1934842079084804,0.25490519362473574,-0.05427462152462148,1.2350409125381248,1.2622394574412212
2.195971151454862,0.2640808827668166,-0.04987809974006474,1.2339014762415257,1.2628299135463956
2.1984580950012433,0.2780452269533886,-0.050271137506018526,1.2231787729096446,1.255389439972495
2.200945038547625,0.2824330258140222,-0.06503053098693412,1.2124497673680317,1.2466081270478309
2.2034319820940063,0.2916094988637632,-0.07500265645467241,1.206503020540426,1.2435075540084202
2.205918925640388,0.29599784897950365,-0.07061069685095855,1.2005502861272888,1.2385158806533674
2.208405869186769,0.30038648896223885,-0.0662198517482695,1.1993801238859252,1.2381961852183365
2.210892812733151,0.3095638315759045,-0.06183011078729095,1.1982042863481155,1.23909089264788
2.2133797562795325,0.30916467626590294,-0.06222986695811805,1.1922345254596394,1.2332390348550426
2.2158666998259138,0.3087658390416915,-0.07220751327989472,1.176682592579187,1.2186599985279172
2.2183536433722955,0.31315573255468565,-0.08218623283982707,1.1802790617194727,1.2238789781811201
2.2208405869186767,0.30796915613710163,-0.08737761207438899,1.164716859819622,1.2079094385638776
2.2233275304650584,0.3027829256845498,-0.08778164076926842,1.1443613497519483,1.18699031813589
2.22581447401144,0.3071738570542559,-0.08818671205931983,1.1335778937974954,1.1777654757836076
2.2283014175578213,0.292411539502346,-0.09338121910820085,1.127578240363766,1.168613387163656
2.230788361104203,0.2872264020898826,-0.0889999418270766,1.1119973306243676,1.151936655818557
2.233275304650584,0.28204164727640324,-0.08940808007769174,1.1012005250805341,1.140256064232596
2.235762248196966,0.2816456874431471,-0.09939402710982392,1.099976376997665,1.1398032706714525
2.238249191743347,0.2908269349319088,-0.09980415960029632,1.0987482290840713,1.1409596168448704
2.240736135289729,0.2904317854432692,-0.09063846753573968,1.0879394234509903,1.1296805490455546
2.2432230788361105,0.2948254578801406,-0.09105055421254171,1.0867037215335387,1.1296624418079448
2.2457100223824917,0.3040079611444373,-0.1010404096742934,1.0758876576054508,1.1225703793589472
2.2481969659288734,0.30361409413688134,-0.11103121735237531,1.065068185262561,1.1130497242458641
2.2506839094752547,0.2984322689989739,-0.10186935406588793,1.0781874674610066,1.123355419921788
2.2531708530216363,0.29803930115187616,-0.10228522986536781,1.0817268267117033,1.1266865672881172
2.255657796568018,0.3072236026555779,-0.10270202826710362,1.0804748114857325,1.1279893026505077
2.2581447401143993,0.30204316560714783,-0.10311973945621089,1.0744315663307429,1.120833147833984
2.260631683660781,0.29207480530458974,-0.10832675696626559,1.0683856385107617,1.1128747686710263
2.263118627207162,0.29647214364510743,-0.10395786107769345,1.067125574685095,1.11241177671956
2.265605570753544,0.310446785882714,-0.10437825202084072,1.0514979043059878,1.101326413521313
2.268092514299925,0.3148451272686734,-0.10479951677279864,1.0598099960631906,1.1105438400333862
2.2705794578463068,0.3096671762935018,-0.10522164565891323,1.0729083781957218,1.121649563273367
2.2730664013926885,0.30448974804615825,-0.10085622571211017,1.0716395783348869,1.1186140401335392
2.2755533449390697,0.30410125425292456,-0.1060684572744055,1.0751573500660747,1.122359754208907
2.2780402884854514,0.294136493316289,-0.11606992743434841,1.0451546065218071,1.0919416908831587
2.2805272320318326,0.2841722801975708,-0.12128381998791715,1.0247271166701157,1.0702940313122358
2.2830141755782143,0.28857383313551,-0.1264985287196967,1.0186634223060889,1.0662794675333116
2.285501119124596,0.27861074044294976,-0.13171404412159804,1.0078100480121357,1.0538755272722005
2.287988062670977,0.26864822027230295,-0.1321419533927939,1.0065323410011295,1.0501146202120764
2.290475006217359,0.2586862807716124,-0.132570650400607,1.0004652279517128,1.0418369553570088
2.29296194976374,0.24872493004533414,-0.1330001257195188,0.9896088448905189,1.0290183623983642
2.295448893310122,0.248340982794787,-0.12864196663111827,0.9883285371915811,1.0271393755189473
2.2979358368565035,0.2527460437164244,-0.13386137372561002,0.9822592296929393,1.0230506460126882
2.3004227804028847,0.25236331414229496,-0.13429312769863744,0.9618242499382958,1.0034080796173261
2.3029097239492664,0.24240439868050456,-0.13951402587466744,0.9653309580592548,1.0050313002603517
2.3053966674956476,0.23723451517599314,-0.13994725232412542,0.9640490670873394,1.0026245819726496
2.3078836110420293,0.23685367146818392,-0.14038120110553054,0.9675555160003171,1.0059673055593952
2.3103705545884106,0.24126187535177157,-0.13602745966387708,0.9614852265576701,1.0005821321458401
2.3128574981347922,0.240882327935932,-0.13646282543214783,0.9458383298626014,0.9855234877333132
2.315344441681174,0.23092663360511778,-0.14647569255000104,0.9397685696818794,0.9787477730131089
2.317831385227555,0.22576000997982615,-0.13733563194186038,0.9289108659219529,0.9657660455487311
2.320318328773937,0.22538246467427758,-0.12819624776215788,0.9180537511519482,0.953967621739392
2.322805272320318,0.22979400525719673,-0.1334227408718478,0.9167741606423156,0.9545060367830699
2.3252922158666998,0.22462942929073093,-0.1386498922367938,0.9202838190831795,0.9573946316890837
2.3277791594130814,0.2242539542131129,-0.12951248284959105,0.9142176439042586,0.9501879917258145
2.3302661029594627,0.2238791841354031,-0.11558731033107916,0.9081525685166572,0.9424560483662401
2.3327530465058444,0.20913991648196373,-0.11602797896933748,0.9020887190703419,0.9332556207405139
2.3352399900522256,0.19918977187313702,-0.11646926983683858,0.8816610111334651,0.9113549224029477
2.3377269335986073,0.20839396756260586,-0.11212277067319754,0.8612347795748523,0.8931544698254963
2.3402138771449885,0.2128104941950788,-0.11256527920543125,0.8551753586418052,0.8884166491856681
2.34270082069137,0.2124393589702014,-0.10343157658541058,0.8539060653582435,0.8859933073845483
2.345187764237752,0.21206897236119138,-0.09908686391323895,0.8574270227666041,0.8888040025837503
2.347674707784133,0.21648774479438815,-0.10910793899501403,0.8561615466463124,0.88982249912761
2.350161651330515,0.21133047336787558,-0.10476437310058895,0.859686565435414,0.8914578698038332
2.352648594876896,0.2013855684138559,-0.10520977072914528,0.8536369903474998,0.8833579989516078
2.3551355384232777,0.19622984353758843,-0.1104441231247626,0.8332245386136758,0.8631148171451798
2.3576224819696594,0.21501691893757946,-0.1108906149169897,0.8176029434432781,0.8526450475040537
2.3601094255160406,0.21943957492108235,-0.10654923740204802,0.8163491307815036,0.8520166491097576
2.3625963690624223,0.21907462495086272,-0.1069967885427725,0.8294632193091847,0.8645526220205364
2.3650833126088036,0.22828728576225843,-0.11223325968731501,0.823426503841107,0.8618251543374259
2.3675702561551852,0.23271235412088898,-0.11747023888940467,0.8221811184117591,0.8625172973674388
2.3700571997015665,0.227561433385029,-0.1227077175489133,0.8353039864704943,0.8743993022205659
2.372544143247948,0.2271997401461291,-0.12315728377118784,0.8532184175611182,0.8914982369774289
2.37503108679433,0.24120408762714507,-0.10445371904667766,0.8376173006811243,0.8778910716661029
2.377518030340711,0.25999767572149035,-0.10011583809464009,0.8220195740081522,0.8679505472493887
2.3800049738870928,0.2644268976335554,-0.10056682577714815,0.81121375517335,0.8591292261478747
2.382491917433474,0.25928016312079183,-0.10101827030216404,0.790834747901922,0.838361790882601
2.3849788609798557,0.2637110918529847,-0.09189335658286302,0.770459471895899,0.8195094427671143
2.3874658045262374,0.2585660768887187,-0.0827688828391393,0.7644532495528171,0.8112310859649818
2.3899527480726186,0.2582103344799591,-0.07843324399601137,0.7680277893641527,0.8140583737248684
2.3924396916190003,0.26743227418915194,-0.08367483500385786,0.7668179925559269,0.816413702113338
2.3949266351653815,0.2670782889281883,-0.0937052441977575,0.7512471630496336,0.802797474583156
2.397413578711763,0.2715135948020585,-0.0845824466568188,0.7308922174232038,0.784268612105953
2.3999005222581444,0.2759497945853333,-0.08503685400879712,0.7105416683094585,0.7669739357210189
2.402387465804526,0.27081008768300285,-0.09985686130506277,0.6997724310367932,0.756961657932367
2.404874409350908,0.27524809337258194,-0.1051004437002292,0.6937962103479549,0.7537644178816153
2.407361352897289,0.27968701096027515,-0.10555599629585632,0.6830363070407408,0.7455906981647216
2.4098482964436707,0.26976163638245587,-0.10601191421852496,0.6866464412102697,0.7453141630525645
2.412335239990052,0.2694139920883971,-0.11604499594009887,0.6902615090850244,0.7500075273889454
2.4148221835364336,0.27385568055581744,-0.12607842667611635,0.6795164062691104,0.7433944106829842
2.4173091270828153,0.27350990089236715,-0.12653539166698557,0.668776447664305,0.7335399158743557
2.4197960706291965,0.2779534654371114,-0.12220428613887968,0.6532533342670312,0.7203693047529207
2.4222830141755782,0.28239797651827725,-0.1274503119833641,0.647312379731007,0.7176388479724977
2.4247699577219595,0.28205503641411056,-0.1326966545151711,0.6557420904455551,0.7260586304617489
2.427256901268341,0.27213624735281183,-0.12836649907370967,0.6737541655357848,0.7378894028135471
2.429743844814723,0.27179522811402945,-0.12882504762458602,0.6630414802611977,0.7280745452685421
2.432230788361104,0.2714551775053561,-0.13886069551735458,0.6523345557424669,0.7200767867177427
2.4347177319074857,0.27111610092476424,-0.13453141820423964,0.6559987025163476,0.72245203326437
2.437204675453867,0.2755664070402315,-0.13499082104475768,0.6453036006140191,0.7145460820834566
2.4396916190002487,0.27522929450843137,-0.1354504928213065,0.634614559326959,0.7048642702470412
2.44217856254663,0.2701047685762368,-0.135910425660986,0.6382968873243868,0.7062939516794504
2.4446655060930116,0.2649812377603522,-0.136370611715241,0.641985472731653,0.7077834042297695
2.4471524496393933,0.26943551384725495,-0.13683104315981476,0.6265267997321029,0.6955961912466802
2.4496393931857745,0.2547371820103387,-0.1372917121947026,0.6110745784501574,0.6761303029475598
2.452126336732156,0.24482826389579093,-0.13775261104410452,0.6099941150688473,0.6715723945118065
2.4546132802785374,0.25407397445848756,-0.13342532863606937,0.6041318919082297,0.668828263188236
2.457100223824919,0.25374389871975667,-0.13867506720400735,0.5743343906679375,0.6430215647281583
2.459587167371301,0.24383804157202182,-0.1439250124038387,0.5589089322712528,0.6265385816417981
2.462074110917682,0.24829842445844186,-0.14917515655612634,0.567432417099857,0.6370909533950985
2.4645610544640637,0.24797143888850381,-0.14963708868510572,0.5711745183535974,0.6404072323381843
2.467047998010445,0.24285708960203822,-0.14531080115925743,0.5653469252149002,0.6322277601888892
2.4695349415568266,0.23295538128793603,-0.13619628637095493,0.5691033428491838,0.6298382752217926
2.472021885103208,0.23741993186535804,-0.1414471500176635,0.5776554592021448,0.6403603281287118
2.4745088286495895,0.24667393928058656,-0.15148657789877973,0.5766381549611417,0.6452191700195177
2.4769957721959712,0.2511406014288541,-0.14237254587652703,0.5564747135165522,0.6269016272819358
2.4794827157423525,0.24603151947464053,-0.13325865971964523,0.5315304342434768,0.6006779349138235
2.481969659288734,0.2361351011719477,-0.13851012190024292,0.5161706159006414,0.5842747167159927
2.4844566028351154,0.221451350903341,-0.12939650503124556,0.5103953466699558,0.5712158665807175
2.486943546381497,0.23071069292211122,-0.12507141495229268,0.49983950415696654,0.5645438978349261
2.4894304899278787,0.23518271158662496,-0.13990005420625629,0.49407998195387925,0.564799045292834
2.49191743347426,0.21571379784469635,-0.13557518883608077,0.5074820763588033,0.5678478072811092
2.4944043770206417,0.2106111824366591,-0.14082723139254272,0.5113154531731858,0.5706425079879318
2.496891320567023,0.215086466168822,-0.16523298116859708,0.5007917941867,0.5695230874333259
2.4993782641134046,0.20040923319468773,-0.17048520427745206,0.5094300071387483,0.573365501055472
2.501865207659786,0.19530990746025556,-0.18052591001972162,0.5180765626330839,0.5823563246761332
2.5043521512061675,0.2045768962586978,-0.2001434944380711,0.5075779306618262,0.58270445385604
2.506839094752549,0.1994797835897265,-0.20060753035624046,0.511453017129492,0.5844824668264177
2.5093260382989304,0.18959537996427422,-0.19149481718369366,0.5057598874863984,0.5730704467186108
2.511812981845312,0.17971209252167542,-0.19195896099370247,0.4857102198542744,0.5523215517931458
2.5142999253916933,0.18419513499060147,-0.20199995460143327,0.46566930502688564,0.5399812321344231
2.516786868938075,0.19346770444687122,-0.1880989676029725,0.46000243318940903,0.5333040528792395
2.5192738124844567,0.1979529979150142,-0.17898641278153482,0.454344473997228,0.5269254467149611
2.521760756030838,0.19765101900889814,-0.17466228302149656,0.4486955064593996,0.5204810236141124
2.5242476995772196,0.19735017461142101,-0.1559729579489768,0.4382672056580663,0.5053244488304929
2.526734643123601,0.1970504682338926,-0.15164885041616527,0.43263645603040146,0.4989995630762479
2.5292215866699825,0.2063287099769805,-0.1425363400950661,0.43659173808804397,0.5034883221835442
2.5317085302163638,0.21560809660884284,-0.13821222660242904,0.42619111181625335,0.49722060968634785
2.5341954737627455,0.22010022816671082,-0.1290996962966009,0.42058826647930836,0.491940374357485
2.536682417309127,0.2198051079568848,-0.12956395216030714,0.4149948741368732,0.48715690361855224
2.5391693608555084,0.2195111425547671,-0.12523977727717295,0.4094110095666128,0.48113149790102944
2.54165630440189,0.21442993184393455,-0.12570397135513023,0.40383674694463245,0.47420017109641466
2.5441432479482713,0.20456147897709842,-0.12616812416387857,0.41742577312749596,0.4816721606107389
2.546630191494653,0.20427099701674167,-0.13142063213641686,0.4166593378483263,0.48228935981374793
2.5491171350410347,0.20877008569297062,-0.13188468176744905,0.38717230352224163,0.4592177158819882
2.551604078587416,0.20369353804415224,-0.14192547617584106,0.37206037180970597,0.4472838232038583
2.5540910221337976,0.2034065669794407,-0.1471777985811702,0.36174680725012287,0.4403365626895168
2.556577965680179,0.16960194883349988,1.1069200277353928,21.252823770270474,21.282306148042874
2.5590649092265605,0.4661983387962171,0.8574592937279766,21.984732859178358,22.00638671433667
2.561551852772942,0.7292770873190253,0.5265957922812925,21.0502877664124,21.069498409960033
2.5640387963193234,0.9444729871850575,0.1670019666484861,18.57877545042025,18.60351622993688
2.566525739865705,1.0734788145251921,-0.19259175654165794,14.833558162022321,14.87359728162697
2.5690126834120863,1.1354481852630196,-0.5234549506824853,10.149824201252951,10.226542865658521
2.571499626958468,1.1112274887088254,-0.8112223991506964,4.934587917359119,5.1227986713019025
2.5739865705048492,1.0008167274033126,-1.0319520787047127,-0.38598272772255626,1.4884696438602296
2.576473514051231,0.8425231303990381,-1.1521251594845408,-5.419238595883845,5.604050728490222
2.5789604575976126,0.6363467001351749,-1.190895248176018,-9.801260969532668,9.893830663993882
2.581447401143994,0.40622945560190366,-1.1530507415261984,-13.235168778145674,13.291510108679704
2.5839343446903755,0.16653660909813295,-1.0385916329840532,-15.495907001592093,15.531565948875382
2.5864212882367568,-0.058789820487171296,-0.8618831259816795,-16.454188686733453,16.47685115865504
2.5889082317831384,-0.24580781431555854,-0.6277136173327014,-16.114802173985108,16.128896272641803
2.59139517532952,-0.38972896688028913,-0.37439032711506304,-14.539996644190257,14.550036398501787
2.5938821188759014,-0.47139966276409073,-0.13064366878818578,-11.906942958462711,11.916986868597837
2.596369062422283,-0.49560830320160076,0.10831476740861978,-8.459849624982777,8.475046628565673
2.5988560059686643,-0.44798967619649344,0.313754567971805,-4.490809185714989,4.523992022694551
2.601342949515046,-0.35727419968548024,0.4665221260164216,-0.33500981308678845,0.6764017465147671
2.603829893061427,-0.2186734684132482,0.5714058512370821,3.6579951099343813,3.7088072148494993
2.606316836607809,-0.046552690455832324,0.6188289433454797,7.215266652928058,7.241905086851554
2.6088037801541906,0.1399345227403903,0.5896377953907308,10.092596304818688,10.110774182645345
2.611290723700572,0.3312113663197056,0.5125628336031447,12.103236393798527,12.118611836004147
2.6137776672469535,0.5081242287359092,0.39239246758953117,13.141842103930331,13.157514049587235
2.6162646107933347,0.6467310950725667,0.22433830029431023,13.160529458546797,13.178320242412944
2.6187515543397164,0.7374551603245851,0.04670756452267488,12.197605740173593,12.21996757372084
2.621238497886098,0.7898732327183567,-0.14528813682474961,10.358415877248708,10.389503734659566
2.6237254414324793,0.8039853137900694,-0.33249518426745794,7.824919250766921,7.873138301425546
2.626212384978861,0.7654261950654878,-0.4861831517064523,4.831747677672572,4.916099768901151
2.6286993285252422,0.6741958779818572,-0.59677522634543,1.60395616770567,1.8393901545317746
2.631186272071624,0.5686015904895884,-0.6834250153318933,-1.595093043400623,1.8261159156509614
2.633673215618005,0.4438549306070134,-0.7365557059131769,-4.502037720478635,4.583433772178876
2.636160159164387,0.2903790929829744,-0.7370136787177124,-6.925341678730165,6.9704997344104225
2.6386471027107685,0.14648130542034976,-0.6847989276768827,-8.6974107505222,8.725557867980946
2.6411340462571498,0.02652677907145584,-0.5942766567046935,-9.712900011948234,9.731099375549302
2.6436209898035314,-0.06469608160092288,-0.48460047305712894,-9.94307899278801,9.955091313407625
2.6461079333499127,-0.11761046886250415,-0.35577037073057527,-9.41188965990477,9.419345611521967
2.6485948768962944,-0.14658159162928874,-0.22215155370398776,-8.176792803962812,8.18112327463385
2.651081820442676,-0.14203264226433832,-0.09810922597793859,-6.367075265988768,6.3694148973399844
2.6535687639890573,-0.09438681317923814,0.016356618386336397,-4.135965904167254,4.137075098412067
2.656055707535439,-0.027586120076186105,0.11166917866538739,-1.6750008038005877,1.6789457085377344
2.65854265108182,0.06315784121617196,0.1782516541141943,0.8099187392940301,0.8317036307250105
2.661029594628202,0.16347986153972038,0.2161040506068086,3.1320450420279364,3.143745023234151
2.663516538174583,0.2685915383288544,0.21564956735511265,5.133360840682895,5.144904243134065
2.666003481720965,0.36412766232933663,0.17688821019008305,6.684579290912373,6.696826016096897
2.6684904252673465,0.44529983087965563,0.11418519488211842,7.656413547820916,7.670201992996494
2.6709773688137277,0.5073196412704988,0.03711733385981786,8.029710042332587,8.045806005542794
2.6734643123601094,0.5358218841042964,-0.049526963790083034,7.794892011466008,7.813443509877314
2.6759512559064906,0.5451717698577172,-0.14574769232257356,6.971113111616013,6.9939168327491466
2.6784381994528723,0.5114272823975492,-0.24675644269378383,5.658929855080254,5.687348566063984
2.680925142999254,0.46331884206662843,-0.3238227892798409,3.9780523668934116,4.018012715512136
2.6834120865456352,0.40563485255908005,-0.39131193636101225,2.0864979981139022,2.1612816941071222
2.685899030092017,0.32879850756093076,-0.4540122815984686,0.1422840992581591,0.5783427835792959
2.688385973638398,0.24717501731283853,-0.4879818027528846,-1.720513996295984,1.8053781156455657
2.69087291718478,0.1607643820476653,-0.4788552842469911,-3.367820955708061,3.4054905020411956
2.6933598607311615,0.07435500527184957,-0.4457863337671131,-4.665561446673437,4.687399890650257
2.6958468042775428,0.007100500406218568,-0.4079285590210091,-5.556274590546143,5.5712335664482495
2.6983337478239244,-0.040999132456192466,-0.3509167444956076,-6.001653122495336,6.012043221167623
2.7008206913703057,-0.06515548994832698,-0.2843276913008119,-5.9586013749007725,5.965736988744998
2.7033076349166874,-0.07494537871028473,-0.212949797247604,-5.455849730477291,5.460518355200993
2.7057945784630686,-0.056003588826684436,-0.13678305684797865,-4.570012605671238,4.572402128268703
2.7082815220094503,-0.017906927029638586,-0.07498107791663378,-3.368127610816215,3.36900970951758
2.710768465555832,0.029767799902937653,-0.022755451688007966,-1.955539583333601,1.9558985133378317
2.713255409102213,0.0822321884677385,0.015105423941436324,-0.44717016781106445,0.4549191858262517
2.715742352648595,0.14427464175661164,0.043389957694544457,1.0324821840016618,1.0434161782163311
2.718229296194976,0.21110675617535335,0.038156138350907476,2.36849582647276,2.378191420684133
2.720716239741358,0.2587865148032743,0.004192374590648029,3.4698911300520834,3.47953049859645
2.7232031832877395,0.30167912723709006,-0.020194101685277577,4.25526527131146,4.265993509932101
2.7256901268341207,0.3397845930675954,-0.044580091800362265,4.676734249547351,4.689273312055959
2.7281770703805024,0.35873770187987847,-0.09290760706040713,4.743874903384631,4.758326771162557
2.7306640139268836,0.34896164653465345,-0.15081143223002647,4.451898860972687,4.468100467444007
2.7331509574732653,0.3200332331293735,-0.1991379487749052,3.8199597665495055,3.8385114056110954
2.7356379010196465,0.286317671037454,-0.24746395810388355,2.9342489103264437,2.958552498614935
2.7381248445660282,0.24781495962715083,-0.2957894550065632,1.8618039687233559,1.9013725762885412
2.74061178811241,0.19973669490238988,-0.3249608210126045,0.6888162309339076,0.7873767093848476
2.743098731658791,0.1564480861043993,-0.33976645427460284,-0.49373461103597727,0.6194280533128227
2.745585675205173,0.11794913246976368,-0.3354179463258502,-1.5900804623645106,1.6293474378907515
2.748072618751554,0.08423983319147854,-0.3167036953616158,-2.5379720519760527,2.559042734454305
2.7505595622979357,0.06489699405974703,-0.3171425195203885,-3.2176992694533197,3.233941803150786
2.7530465058443174,0.04555540421993798,-0.28406197719637616,-3.6148968779270865,3.626326783370378
2.7555334493906987,0.050157079336842325,-0.24140407993016622,-3.734353254307708,3.7424839198549806
2.7580203929370803,0.04997159850887389,-0.2131108392836616,-3.5664915660427754,3.57320241256103
2.7605073364834616,0.05936417067449362,-0.1800286369573434,-3.135253804317875,3.140979279201679
2.7629942800298433,0.08791160140924781,-0.14694587127461922,-2.5028891873756756,2.5087398874791833
2.7654812235762245,0.1356138896056498,-0.11865094058024628,-1.707704917349698,1.7171852717441092
2.767968167122606,0.17374061419204911,-0.09993224324038996,-0.8215270201076272,0.8456233789494024
2.770455110668988,0.21665698393754151,-0.0812129676816391,0.07903007467329104,0.2445026533832241
2.772942054215369,0.2595745942880541,-0.07685831895353878,0.9317171467885288,0.9702489437314161
2.775428997761751,0.2881282340071507,-0.08207988884577677,1.6790733788673737,1.7055915100064591
2.777915941308132,0.30231790177776974,-0.10166607581006826,2.2636379530542055,2.2859984442718604
2.7804028848545137,0.3165088062024013,-0.12604006835860115,2.647103664291384,2.668936442244435
2.7828898284008954,0.33070094588139,-0.15041345834529762,2.8007401136802095,2.824204756818399
2.7853767719472766,0.3305291094131153,-0.17957464428611125,2.7389125317248073,2.7646226508294225
2.7878637154936583,0.3207816986363612,-0.19915841143720892,2.47119774513053,2.499876650269856
2.7903506590400395,0.3062471153492481,-0.21874156167774306,2.0023841768056787,2.037443878487628
2.792837602586421,0.2821369546687932,-0.24311249358801357,1.399509492347498,1.4482167534244017
2.7953245461328025,0.2484512149920325,-0.25790599248853585,0.7200345502391272,0.8041724073422167
2.797811489679184,0.2147667013165202,-0.2583336503619238,-0.007310211429990332,0.33602745437664355
2.800298433225566,0.19544862192020485,-0.2587606724935294,-0.7202755317983893,0.7899076472267269
2.802785376771947,0.1761317651194314,-0.2543986509089544,-1.3566121504730955,1.3914516157882095
2.8052723203183287,0.16160453247225548,-0.24524758097562627,-1.863647614168575,1.8866491011012605
2.80775926386471,0.1470785188567617,-0.2313074580824952,-2.1934978733847412,2.2105583347690843
2.8102462074110917,0.14691893239313136,-0.22215508428067476,-2.3844701388505456,2.399299042895077
2.8127331509574733,0.16591417452196378,-0.21779045500219496,-2.388680361991181,2.404319876256004
2.8152200945038546,0.1801222267232101,-0.19905995241942387,-2.215705334535592,2.231909274748064
2.8177070380502363,0.1943314903601464,-0.17554037864815486,-1.9182174785538457,1.9360107044412247
2.8201939815966175,0.22290717339829969,-0.17117374578672395,-1.4914283767289156,1.517678049558379
2.822680925142999,0.24190725720251705,-0.1620180327519556,-0.9544916288006444,0.9979094314989541
2.825167868689381,0.25612014302157815,-0.16243844504478355,-0.38881007812550017,0.49310957498503144
2.827654812235762,0.27991103870709166,-0.1532813649456073,0.14815544808932302,0.3518457094071484
2.8301417557821438,0.29891473215125497,-0.14412359467834746,0.6372513487499152,0.7184781897341429
2.832628699328525,0.31313122116984193,-0.15411874312921858,1.0545356189939685,1.110787612634404
2.8351156428749067,0.3129836969008334,-0.15453638600301156,1.3521242369108464,1.3964527350276927
2.837602586421288,0.31762577036715434,-0.16453013222934088,1.5108636000675677,1.5526316731349594
2.8400895299676696,0.30790382599248967,-0.174523170837674,1.5403305255101127,1.5804686744881435
2.8425764735140513,0.2886062647655556,-0.198880707480785,1.435736619882391,1.4778994395902914
2.8450634170604325,0.2740982942793865,-0.2136607212707009,1.2258123126313158,1.2741258197443925
2.847550360606814,0.25959150880964577,-0.21886320794280767,0.9057692095238039,0.9673193454896174
2.8500373041531954,0.23550909927580144,-0.23364177653553053,0.5187029490942638,0.6157156527029863
2.852524247699577,0.2066394665225778,-0.24841961618724717,0.10292076612270051,0.33912366318297277
2.855011191245959,0.18255941467954562,-0.26319672269880323,-0.3176353150041358,0.4511015939511914
2.85749813479234,0.1728457478410338,-0.27318468857259015,-0.7094464636890674,0.7796279955582358
2.8599850783387217,0.16792165678508175,-0.27359510633289563,-1.048570656404646,1.0966094959007173
2.862472021885103,0.15821033225492365,-0.2740047784868396,-1.3062774667297425,1.3440498309034932
2.8649589654314846,0.1532885782404484,-0.264836894282221,-1.4634132753090352,1.4950633375020432
2.867445908977866,0.15794479537685957,-0.25566825627003853,-1.5391316897730185,1.5681961529459085
2.8699328525242476,0.16739057762458254,-0.24649886038264102,-1.5094906882908976,1.5386173766353868
2.8724197960706292,0.16726071226949657,-0.24211710589467383,-1.3744902660530993,1.4056387623818687
2.8749067396170105,0.17192040648563667,-0.2281577788215685,-1.1676492419103255,1.202088744784151
2.877393683163392,0.18136965745263256,-0.21419768180233545,-0.8937560152072486,0.9367899520453448
2.8798806267097734,0.19082005899654253,-0.21460202081837743,-0.5815410023045331,0.6485801874989215
2.882367570256155,0.1954832049103986,-0.20064037199036866,-0.2501578133346367,0.3755651392859052
2.8848545138025368,0.2001474955950584,-0.1866779413439148,0.07645153783909286,0.2841698636649183
2.887341457348918,0.20002452477818422,-0.1966567415673759,0.35040302034274085,0.4488495975067276
2.8898284008952997,0.19511428947541165,-0.20184634884784902,0.5621198294581777,0.6283233539912336
2.892315344441681,0.19020518999057512,-0.19745835599617978,0.7068135633824078,0.7581248116460784
2.8948022879880626,0.180508819955011,-0.20743477576729807,0.770119013268328,0.8177382924117979
2.897289231534444,0.16602517628871938,-0.21741039437588272,0.7472477765081571,0.7957454858437853
2.8997761750808255,0.1515426592006005,-0.22259680469950416,0.657353466696005,0.7103718006771343
2.902263118627207,0.14184966886838413,-0.21820559963803277,0.49085927710646615,0.5555878348136739
2.9047500621735884,0.12736939547791126,-0.20902517875427984,0.2812840305008759,0.37287423358618504
2.90723700571997,0.11767864246557469,-0.22857436155528665,0.057358145926329485,0.2634092985394661
2.9097239492663514,0.10798900327636263,-0.23375751444547133,-0.2000719911653821,0.3260874147176302
2.912210892812733,0.10787728128596552,-0.22457463373447428,-0.4814295757910845,0.5420753733393615
2.9146978363591147,0.11255506987915576,-0.2249677323559296,-0.7101001568714658,0.7533401337681082
2.917184779905496,0.10765715577032864,-0.215783193383134,-0.9004489467997736,0.9321806453300784
2.9196717234518776,0.11233714888655566,-0.2113862231540553,-1.0381107384322554,1.0653533102251378
2.922158666998259,0.12659504584439618,-0.2117768180682571,-1.1039319216875594,1.1311681634594604
2.9246456105446406,0.1312772299501348,-0.19780136126660963,-1.1122777101075094,1.137330556181583
2.927132554091022,0.13117210108284305,-0.17903665583443118,-1.0631481076520721,1.086068203677396
2.9296194976374035,0.14543326905399,-0.1794247148406094,-0.9421779086974862,0.970073850632483
2.932106441183785,0.1692723270451959,-0.18460032481416722,-0.7924627478390409,0.8311002390430381
2.9345933847301664,0.17874725492878685,-0.17540986898649447,-0.6187910334829461,0.6675489093701886
2.937080328276548,0.193011662432105,-0.17100695717418946,-0.4163743677663039,0.48975963019584334
2.9395672718229293,0.21206554597369365,-0.17617998925565193,-0.2283083863989699,0.3579607572113789
2.942054215369311,0.21196688534323327,-0.1765637518508063,-0.05459309557570258,0.2812207763204602
2.9445411589156927,0.21186929018616663,-0.18173504820394237,0.10955990146326045,0.29986596318741926
2.947028102462074,0.21177275683988572,-0.18690547162124282,0.2162665645901587,0.35574229833006066
2.9495150460084556,0.2068888782949212,-0.19207501875207988,0.2798920964794913,0.39753667310378726
2.952001989554837,0.19721765083581422,-0.20682049290935112,0.3052248928049135,0.4181288716128498
2.9544889331012185,0.19712428068200294,-0.22635348746794648,0.27311133228028517,0.4058123743101129
2.9569758766476,0.20182036074587906,-0.2267319825444778,0.1931282131850942,0.359774035539272
2.9594628201939814,0.2065174839142957,-0.22710958816136761,0.08442914008504587,0.3183653811151861
2.961949763740363,0.20642724304882043,-0.2274863010828212,-0.06735110604869199,0.31448115259751724
2.9644367072867444,0.19676123098599185,-0.23265052141642562,-0.24784732467376536,0.3927716174603257
2.966923650833126,0.2014614604594508,-0.2282370360116226,-0.42354070231509233,0.521599071294598
2.9694105943795073,0.21095112093613166,-0.21903424502224045,-0.5848544424458328,0.6591897259251689
2.971897537925889,0.21565340185871495,-0.22419575858621155,-0.707846538923107,0.7731861681165183
2.9743844814722706,0.22035670260680873,-0.22456796030218573,-0.8068822125092083,0.8660523945130484
2.976871425018652,0.22984942253627738,-0.2249392503936103,-0.8628078610652352,0.9207963013196055
2.9793583685650336,0.24413155765919647,-0.22530962578689673,-0.8804118993928505,0.9410046532881035
2.981845312111415,0.23926108736284823,-0.22567908343176768,-0.8644827426307451,0.9249363918297465
2.9843322556577965,0.24396842753498904,-0.22125921698098416,-0.819808806252734,0.8834946030069828
2.986819199204178,0.2534651707984852,-0.20726162011069293,-0.7416016994251748,0.8106633410788487
2.9893061427505594,0.25817450643344436,-0.20762830644233743,-0.6442266449269951,0.724424985379548
2.991793086296941,0.24851962369779912,-0.21757086969894024,-0.5372604625460049,0.6306725706098182
2.9942800298433223,0.24844253506974923,-0.22751250030670533,-0.4159147624365058,0.5352295961924258
2.996766973389704,0.25315483308396525,-0.21829958207474176,-0.2945547683594736,0.445538537739532
2.9992539169360852,0.24829130361309448,-0.2138741287185253,-0.20191091436031527,0.38491392768100346
3.001740860482467,0.2051215225477514,-0.1280448776100105,-0.41571060746208666,0.48092165562695066
3.0042278040288486,0.1858947288435796,-0.12840594212126133,-0.41880630383577433,0.47586096321978294
3.00671474757523,0.16666890167003123,-0.12876605967151944,-0.4362529746182986,0.48443356486781314
3.0092016911216115,0.14744403677778184,-0.13870203410997428,-0.4488970219263724,0.4924292177988004
3.0116886346679927,0.13300853321775452,-0.14863705602831656,-0.46631526811233925,0.50718258409392
3.0141755782143744,0.12336238670076172,-0.16335952600296721,-0.4789309225590763,0.520844930638391
3.016662521760756,0.1185055929180846,-0.18286944131385585,-0.477167194959323,0.524569671316077
3.0191494653071373,0.11843814754173998,-0.18801318598352346,-0.47060090859493897,0.520424603633587
3.021636408853519,0.10879483626381192,-0.19315596730060047,-0.46880888705373636,0.5185820250279248
3.0241233523999003,0.11351767132015744,-0.20787458925734548,-0.4574259376259455,0.5151083332405298
3.026610295946282,0.11345303504536319,-0.2321690492293702,-0.4556056911460047,0.5237848836933945
3.029097239492663,0.11338932635738908,-0.2420973280147387,-0.45855976214688887,0.5307968641805166
3.031584183039045,0.12769175079689987,-0.2520246329980682,-0.45192295881904165,0.5329690043212136
3.0340711265854265,0.1324182873244112,-0.26195096162712783,-0.44527210625063596,0.533310564043302
3.036558070131808,0.14672254476587188,-0.26708790805350535,-0.4338188198631201,0.5301530196447072
3.0390450136781895,0.15145090536762118,-0.2818006797342041,-0.42235152201080517,0.5298394171635168
3.0415319572245707,0.14660336464041357,-0.2917240642285508,-0.41565863533829805,0.528552341121681
3.0440189007709524,0.17527554796124367,-0.29685805908106166,-0.42331698609882906,0.5459336000598293
3.046505844317334,0.18958341760487674,-0.29720266186052857,-0.42138457758982106,0.5493962656209821
3.0489927878637153,0.18952696903317834,-0.2975462734803789,-0.41943823663529045,0.5480717938415419
3.051479731410097,0.18947140765320025,-0.29310048823777235,-0.43184319366201684,0.555243959386787
3.0539666749564782,0.1846283255752662,-0.2934421104152021,-0.449022662775711,0.5672893815821375
3.05645361850286,0.18936292817574418,-0.28899433103834626,-0.4613998583606165,0.5764250785963343
3.0589405620492416,0.19888680753482157,-0.28454555111829505,-0.4833400116790951,0.5950963785493533
3.061427505595623,0.2131999590383281,-0.28488417169065405,-0.5004779343462449,0.614077663314095
3.0639144491420045,0.20836036145615955,-0.27085657721401546,-0.4984484382498007,0.6043411050391151
3.0664013926883857,0.2035216234269005,-0.26640478205437024,-0.48682835214975384,0.5910959343123605
3.0688883362347674,0.2082605469346741,-0.27152878400077585,-0.4895597150357407,0.5973014737436575
3.0713752797811487,0.20342351402816317,-0.27186337090601764,-0.5114309528829253,0.6138830817563603
3.0738622233275303,0.18901052002400953,-0.2721969439288361,-0.5237116686890779,0.6197500019241976
3.076349166873912,0.1889635768274005,-0.26774109761208775,-0.5311902889570099,0.6241439351625249
3.0788361104202933,0.19370587308859277,-0.2632842331640375,-0.5434436437707326,0.6341699666939458
3.081323053966675,0.18887219412506218,-0.258826348497454,-0.5556833535122383,0.641441948862676
3.083809997513056,0.1744625352030288,-0.24479063490933983,-0.5631210388204959,0.6383298015062905
3.086296941059438,0.16484210153773204,-0.2451191069637786,-0.560968320589442,0.6339887631047062
3.0887838846058195,0.1695876950124543,-0.23586974604665967,-0.5492252232864026,0.6213234820073612
3.091270828152201,0.16475729425692465,-0.23619616345165229,-0.5422569815907146,0.6139838985869378
3.0937577716985825,0.15513929781164792,-0.24130995389586873,-0.5209100071886628,0.594681369444184
