Time (s),Acceleration x (m/s^2),Acceleration y (m/s^2),Acceleration z (m/s^2),Absolute acceleration (m/s^2)
0.0,-0.2790549062612445,0.20279195757748836,-3.187301539517554,3.20591442845525
0.002486943546381497,0.004384781948417127,-0.1535368562969346,2.8198072514654786,2.823987558041214
0.004973887092762994,0.23515179276376008,-0.5481727425283602,9.779806662761876,9.797979795972875
0.007460830639144491,0.3988809077329431,-0.9475969032747238,17.036685939349727,17.067680383276645
0.009947774185525988,0.5003605216912089,-1.3278673473371523,23.910492309622747,23.95256217677599
0.012434717731907486,0.5348022228392169,-1.645888470237547,29.783522245145136,29.83375872398699
0.014921661278288981,0.4974175993838626,-1.8825066841008382,34.22003154364835,34.27538204793857
0.01740860482467048,0.38820664285878625,-2.0233568043731807,36.90877448917633,36.966232042882545
0.019895548371051976,0.21674615144487944,-2.0588620498213954,37.706099481957274,37.762889587233914
0.022382491917433474,0.016554939931415436,-1.9698688325714808,36.664679458314495,36.717562242944744
0.02486943546381497,-0.19321338684625475,-1.794684404592427,33.99999306741321,34.04787441396438
0.02735637901019647,-0.39819362736588215,-1.562039211211289,30.052017444686978,30.095220171283128
0.029843322556577963,-0.5744437734571911,-1.2767216811516935,25.24692098526429,25.285707882836995
0.032330266102959464,-0.7075986235829357,-0.9818274696973424,20.06833292403553,20.10479214869622
0.03481720964934096,-0.8168117994402632,-0.7060870221680213,15.023824512399923,15.062570941840166
0.03730415319572246,-0.8685644861949054,-0.44950036395811077,10.534775741887206,10.580073476858875
0.03979109674210395,-0.8437030789653546,-0.24558634370009003,6.917221730865489,6.972811772278479
0.04227804028848545,-0.7757464093851724,-0.13744061666241913,4.477620790936456,4.546400814073584
0.04476498383486695,-0.6790596957981092,-0.09154438498336459,3.359625520674377,3.428787844712178
0.04725192738124844,-0.5488545432579159,-0.11268607735794278,3.5392944022948365,3.5833705261667737
0.04973887092762994,-0.389919363450024,-0.22480773575612112,4.906494658089073,4.927095032359907
0.05222581447401144,-0.23098458465229366,-0.3848137556566331,7.269690653733301,7.283531952690732
0.05471275802039294,-0.09120382849263292,-0.5783389524526839,10.346367091637175,10.362919766029671
0.05719970156677443,0.029422896691814415,-0.7910181415295101,13.815701447456226,13.838359075133242
0.059686645113155926,0.1261071792532977,-0.9989093316232127,17.342505986682507,17.371707940544642
0.062173588659537427,0.17969539759302616,-1.1780705314608269,20.59159297459464,20.62604765446807
0.06466053220591893,0.19497594672385532,-1.3189249597207087,23.28044711277027,23.31859336322988
0.06714747575230041,0.1815256249892274,-1.4214726417116779,25.222321168957997,25.26299707425327
0.06963441929868192,0.12976761746179769,-1.4617715861302782,26.25919833058215,26.30017324599608
0.07212136284506342,0.054067125826434664,-1.4398218182633507,26.36713707777873,26.406475111245275
0.07460830639144492,-0.055152664822716246,-1.3652001700265477,25.613175553501723,25.649592106994135
0.0770952499378264,-0.16916134281798295,-1.2474834733231637,24.09308232034825,24.12594964496104
0.0795821934842079,-0.26880530312110656,-1.1010369633638977,21.974451990430428,22.00366058103541
0.0820691370305894,-0.36844976392461365,-0.9354374720256851,19.53501245192716,19.560866800567787
0.0845560805769709,-0.4585179268078825,-0.7746270411324012,16.961511929620123,16.985381146171065
0.0870430241233524,-0.5150677833775819,-0.6186056958918118,14.49337108449238,14.515707809861121
0.0895299676697339,-0.5572529551112355,-0.49610388141846906,12.350856963912886,12.373371313436532
0.0920169112161154,-0.570708240232036,-0.40233321956910295,10.691987371742881,10.714764293839917
0.09450385476249688,-0.5362800336305407,-0.35644734878583906,9.650838094887824,9.672296879266334
0.09699079830887838,-0.4874871667082289,-0.3440810842518909,9.251351643520715,9.270574025502338
0.09947774185525989,-0.42432964761170094,-0.3795996610550958,9.474374897556014,9.491466232988186
0.10196468540164137,-0.3563842911153033,-0.4438494910233066,10.272024316599783,10.287783808695274
0.10445162894802287,-0.2836511053396974,-0.5416190025676033,11.51501350341561,11.53123345862647
0.10693857249440437,-0.21091850171261556,-0.672908220759874,13.069267657038905,13.088279076305414
0.10942551604078588,-0.1477632949686784,-0.7850447341291611,14.771981556164725,14.793565098433668
0.11191245958716736,-0.09418549318827729,-0.9019705843095518,16.455561575738695,16.48053180619529
0.11439940313354886,-0.05976191107864154,-0.9997437797115292,17.96199089690739,17.98989094162807
0.11688634667993036,-0.04449255669241153,-1.078364345326114,19.166771523609242,19.197134679089736
0.11937329022631185,-0.048377438068081646,-1.1330439028024668,19.96934747592342,20.001524128834806
0.12186023377269335,-0.07141656322982265,-1.1542056704473511,20.321835209981142,20.35471142897451
0.12434717731907485,-0.11839834350761413,-1.137061269865225,20.21944681131453,20.251739576015442
0.12683412086545634,-0.17016917361519335,-1.0863991292780248,19.681336381564876,19.712032426415448
0.12932106441183785,-0.23151746485300334,-1.0165844835246394,18.803272474995584,18.83215601352117
0.13180800795821934,-0.2880780152251985,-0.937194164099445,17.704965661958337,17.732093247420114
0.13429495150460083,-0.3302740260410372,-0.8482281958314646,16.439088865796702,16.46427085364068
0.13678189505098234,-0.3676823118756415,-0.7592634101650919,15.125352655804413,15.148860160782109
0.13926883859736383,-0.3955144773276311,-0.6750882351986358,13.931351633933907,13.953305492799629
0.14175578214374532,-0.4185589336205163,-0.6004910990040995,12.92891233517642,12.949616029503488
0.14424272569012683,-0.42723888200095805,-0.5642024462282249,12.156342470715842,12.176925709223699
0.14672966923650832,-0.4119775236995338,-0.5470686882872826,11.704622187683986,11.724640300928733
0.14921661278288983,-0.38714007653212595,-0.544301446530616,11.564175162900327,11.58344891221062
0.15170355632927132,-0.3479381450169383,-0.5654775522401225,11.725425072588314,11.74420788932689
0.1541904998756528,-0.3039485436165116,-0.6153854333484898,12.154853575763573,12.17421658247448
0.15667744342203432,-0.26474808677661266,-0.6605062911964925,12.785423507583126,12.805210438662117
0.1591643869684158,-0.23033678228544396,-0.7152053602981052,13.56446291253825,13.585257739413649
0.1616513305147973,-0.19113783127346862,-0.7746942618556134,14.39141580128041,14.413519127376192
0.1641382740611788,-0.15672804813511937,-0.8246078103997245,15.18487979709539,15.208060894613757
0.1666252176075603,-0.13668424724737954,-0.8649460303906218,15.882606135893287,15.906727881209546
0.1691121611539418,-0.12142962968836474,-0.8909205429362075,16.38882722967498,16.413474419906592
0.1715991047003233,-0.11575260647934377,-0.907319775752534,16.69396674952995,16.719005762179457
0.1740860482467048,-0.11965318530332159,-0.9093553498820426,16.783659962540305,16.808702679721918
0.1765729917930863,-0.13791977714549963,-0.8874504830133776,16.64354213509113,16.66775584856229
0.1790599353394678,-0.165763986332167,-0.8463936027621348,16.31192096938406,16.33470616636225
0.18154687888584928,-0.19360901385086143,-0.800549943350032,15.817527360263137,15.838956293099459
0.1840338224322308,-0.226243270631439,-0.7547079323231829,15.227399428408273,15.24776912970898
0.18652076597861228,-0.24930155430373718,-0.7088675938718958,14.598998487122103,14.618324163788866
0.18900770952499377,-0.27714908240052816,-0.6534521455098723,13.95147862239839,13.969522793266282
0.19149465307137528,-0.2810554425526764,-0.6171920312768289,13.3470895493575,13.364307599117446
0.19398159661775677,-0.2897510622155332,-0.5952988719333283,12.848080982353903,12.865128112619171
0.19646854016413826,-0.29844754558284325,-0.5638306749212183,12.473607005083572,12.489909834931414
0.19895548371051977,-0.2832028835475223,-0.5467294808475178,12.247610103777474,12.263077519637127
0.20144242725690126,-0.27274750350618304,-0.5583605236401779,12.18445595723095,12.20029199030619
0.20392937080328274,-0.26708141291366516,-0.584358617266346,12.274568226833175,12.291372284243932
0.20641631434966426,-0.2518394092438163,-0.5912049623725082,12.49400536319818,12.510520229439182
0.20890325789604575,-0.22223309659089668,-0.6172068093699368,12.79009539619438,12.806907200355035
0.21139020144242726,-0.1974160956303599,-0.6527873754264006,13.148473581419406,13.166148335546508
0.21387714498880875,-0.19175362369682136,-0.6835814743484994,13.51167954374534,13.530319182382195
0.21636408853519024,-0.17651526822140734,-0.7239543398233712,13.831829713832667,13.851887263421133
0.21885103208157175,-0.16127784317690935,-0.7547523822541558,14.09934774804278,14.120455680375796
0.22133797562795324,-0.1604065658354451,-0.7711872219626401,14.299868898545743,14.321547071223744
0.22382491917433472,-0.16432463684643117,-0.7828356891887909,14.404663206670362,14.42685538848107
0.22631186272071624,-0.168243660158306,-0.7753325975277789,14.413731132777672,14.435549581986026
0.22879880626709773,-0.17695204633869077,-0.7582547771326396,14.322284733009475,14.34343411833945
0.2312857498134792,-0.1904498026133019,-0.7411790581122362,14.115959255958806,14.136687138059918
0.23377269335986073,-0.19916012954548956,-0.71452865724955,13.82827398250447,13.84815429197846
0.23625963690624222,-0.21744824427827464,-0.687880404563717,13.492748192598782,13.51202120257366
0.2387465804526237,-0.23573734733107748,-0.6516575167470613,13.128535955297483,13.146812767572163
0.24123352399900522,-0.24445063920113225,-0.6298020336880761,12.778733355313154,12.796578952315203
0.2437204675453867,-0.24837653032427764,-0.6127371719865864,12.472071266443686,12.48958363669503
0.24620741109176822,-0.24751502779356166,-0.5956745515157977,12.20855014160231,12.225579267270936
0.2486943546381497,-0.2562313486403461,-0.5929794053827719,12.021689255972706,12.039032006203978
0.2511812981845312,-0.26016028995135076,-0.5807097400842292,11.906700657195378,11.92369186614419
0.2536682417309127,-0.2401482454700717,-0.5780191919514115,11.863584795241557,11.88008508218494
0.2561551852772942,-0.2345024487607012,-0.5992729939465042,11.906707329044998,11.924084826068718
0.2586421288236757,-0.22885769684079882,-0.6253175557403177,12.021703496610328,12.040130931652417
0.26112907237005717,-0.21363719002489973,-0.6369992869540275,12.160689711683975,12.179235739749771
0.2636160159164387,-0.1984177418853142,-0.6391066137603003,12.314089613550083,12.332259722961929
0.2661029594628202,-0.18798776265042194,-0.6507931722422238,12.47711524377969,12.495490224817228
0.26858990300920166,-0.18234725920453693,-0.6624821785100576,12.616248222979825,12.63494568186284
0.2710768465555832,-0.171919431767456,-0.6741736552632958,12.712335380667724,12.731360384461935
0.2735637901019647,-0.15670428717557006,-0.6810792218292963,12.774953965223212,12.79405619628111
0.27605073364834615,-0.14627863888173048,-0.6688336908425323,12.78016240071607,12.79848768155347
0.27853767719472766,-0.15021930031448738,-0.6470138914863535,12.732749530061628,12.750062878638987
0.2810246207411092,-0.1637378749170173,-0.6443502661722396,12.632715791770133,12.650197849553068
0.28351156428749064,-0.15810394950636708,-0.6416892240550012,12.475273219938304,12.49276606005362
0.28599850783387215,-0.1572595473983186,-0.6246655775557928,12.293941074123815,12.310805204496562
0.28848545138025367,-0.1803582885635059,-0.6028561556429355,12.107873402813501,12.124213912464953
0.2909723949266352,-0.18909295310384988,-0.5858377872299423,11.917070640094776,11.93296001413182
0.29345933847301664,-0.18346354765867606,-0.568822091214157,11.731110025569258,11.74632537761424
0.29594628201939815,-0.18741209544364595,-0.5613858963982152,11.573934007664874,11.589056296005076
0.29843322556577967,-0.19615019972719294,-0.5443756116068181,11.45033142038553,11.464942622797265
0.30092016911216113,-0.1905242537913326,-0.5321564688503782,11.3507258866233,11.364790721869117
0.30340711265854264,-0.18011107081434646,-0.5390937000824292,11.270329431431595,11.284652742033831
0.30589405620492416,-0.18406427058940533,-0.5364569073164072,11.242661305259347,11.256957799240917
0.3083809997513056,-0.18323024632132168,-0.5433997257111796,11.234203110896118,11.248829989022768
0.31086794329768713,-0.17282060114986086,-0.5551337737659572,11.235378466550127,11.250411981504309
0.31335488684406865,-0.17677735811055517,-0.5572938632808282,11.274918215801266,11.2900667605377
0.3158418303904501,-0.1759469103298945,-0.5642452259188637,11.338457571147938,11.353851772986507
0.3183287739368316,-0.17032926418926592,-0.5664110766822827,11.406843340561768,11.422167419633892
0.32081571748321314,-0.16950123268420775,-0.5685798404745555,11.44655712083918,11.461923207887482
0.3233026610295946,-0.16388601550241544,-0.5803283454593862,11.462387734117135,11.478239071471714
0.3257896045759761,-0.1630604255861211,-0.5825029998181406,11.449547194662332,11.465514790448335
0.3282765481223576,-0.16702446921010133,-0.5703154216322619,11.412824322144807,11.428285779661207
0.3307634916687391,-0.16620134598155922,-0.5724960521641416,11.347431128349118,11.363079152667034
0.3332504352151206,-0.1701678687618831,-0.5698912994114242,11.267733237088667,11.283419051816539
0.3357373787615021,-0.16934723710403066,-0.5577127812706895,11.183307867596637,11.1984863662263
0.3382243223078836,-0.1685278604946015,-0.5503257288573824,11.079790221237303,11.094728991472982
0.3407112658542651,-0.1772865517130977,-0.5477301632632523,10.961969111381432,10.977076370876143
0.3431982094006466,-0.18125810690993605,-0.5403492988762939,10.834633350117675,10.849613435399386
0.34568515294702806,-0.18523093548914837,-0.5377599633022467,10.712148554885877,10.727237432793991
0.3481720964934096,-0.17962823686608298,-0.5447505807626638,10.599303535188566,10.6148129955163
0.3506590400397911,-0.17402682370948092,-0.5421675588132957,10.515252309185277,10.530658199895496
0.3531459835861726,-0.18279191198042993,-0.5443761281874724,10.445630070482263,10.4614026698808
0.35563292713255407,-0.19155829769006627,-0.5465879062723076,10.390437221328504,10.406567088673665
0.3581198706789356,-0.19074918014165876,-0.5488029137098995,10.364039372608598,10.380312230602817
0.3606068142253171,-0.18515296857112234,-0.5653863810375976,10.347283310632614,10.364372402231103
0.36309375777169856,-0.17955807218597764,-0.5771847154845258,10.335381030332226,10.353042274579357
0.36558070131808007,-0.17396449684493182,-0.56983272753373,10.318756121972527,10.335942186771197
0.3680676448644616,-0.17794905501871178,-0.5672724541640104,10.302197384426375,10.319337907594505
0.37055458841084304,-0.16756973590715163,-0.5695039156855115,10.290493615206602,10.307602687869812
0.37304153195722456,-0.1619801585640852,-0.5717387290206277,10.274068400498297,10.291239198665446
0.3755284755036061,-0.1563919254128744,-0.5644001077036553,10.252922131753595,10.269635736271901
0.37801541904998753,-0.1555934454884934,-0.5666416851226419,10.22705519904435,10.243922596539749
0.38050236259636905,-0.15479632115618053,-0.554521464714361,10.191679587735171,10.207927741463013
0.38298930614275056,-0.15400055807227597,-0.542404676409288,10.146795685117427,10.162449590546311
0.385476249689132,-0.15320616186381203,-0.5446565500687668,10.082827070441757,10.098689252472271
0.38796319323551354,-0.15241313812841595,-0.5373350889221791,10.0045625315131,10.020141227019556
0.39045013678189505,-0.15640989575452624,-0.5252287160509881,9.926367661363937,9.941484004323815
0.3929370803282765,-0.1604080369603607,-0.5131258544665371,9.862608051607229,9.877249944213785
0.395424023874658,-0.15961916393444742,-0.5058149271097236,9.784553662547237,9.798919195158653
0.39791096742103954,-0.1588316854761554,-0.4937191468897395,9.701781679618529,9.715634506263523
0.400397910967421,-0.14846880039404142,-0.4768385332853158,9.623869286817174,9.636818874569503
0.4028848545138025,-0.1524725307088814,-0.4695383156647108,9.550816860053917,9.563567158586181
0.40537179806018403,-0.1469008652082699,-0.462241706722903,9.482624773788617,9.495020793031612
0.4078587416065655,-0.14611901921215448,-0.4597371290437757,9.44323541762567,9.455548854947384
0.410345685152947,-0.15012699804930996,-0.46202460181855853,9.403918743182958,9.416458600589536
0.4128326286993285,-0.14934800037756352,-0.4547389342048924,9.374251927171722,9.386463205999442
0.41531957224571003,-0.15335883810558248,-0.4474569518890297,9.339870128226528,9.351839961695084
0.4178065157920915,-0.1621595164709126,-0.44017867384333975,9.315138923422781,9.32694302203861
0.420293459338473,-0.16617323403989515,-0.43769252228694544,9.276116661786455,9.287923805181084
0.4227804028848545,-0.16061159266851877,-0.44478691936511616,9.23238051409295,9.24448383871923
0.425267346431236,-0.15983980746327442,-0.4470966738677222,9.21266126290035,9.224888711782821
0.4277542899776175,-0.16385788353888614,-0.4446218044711281,9.188228849418715,9.200439519082737
0.430241233523999,-0.15351221269791732,-0.4469391364175901,9.14471842330906,9.156920641390164
0.43272817707038047,-0.14795641327444092,-0.4444718815930915,9.10128395595897,9.113331772779485
0.435215120616762,-0.1471904902902081,-0.4372200584489323,9.062714207273876,9.074448480357676
0.4377020641631435,-0.16079125537644717,-0.44433729864207194,8.952395079187164,8.964857339446324
0.44018900770952496,-0.16481669689097167,-0.44667000719110117,8.923555831474976,8.936247943983492
0.4426759512559065,-0.15926681976185675,-0.4537950089603324,8.894793959680458,8.907786224152572
0.445162894802288,-0.15850683884673522,-0.4465587088157794,8.846956200967748,8.8596373018438
0.44764983834866945,-0.14817154904991248,-0.42974952814832035,8.794408114194757,8.806148621497718
0.45013678189505096,-0.14741456848635415,-0.4225210982328025,8.741938450025065,8.75338465951774
0.4526237254414325,-0.13229388535661502,-0.4105082270246503,8.684759150922673,8.695462045578301
0.45511066898781394,-0.13632832767332648,-0.41286454564397745,8.627658964428067,8.638607628110677
0.45759761253419545,-0.14036428689394087,-0.42480166853156653,8.58500344315307,8.59665299460043
0.46008455608057697,-0.12524815444410003,-0.4175891934486162,8.537639314892933,8.548763238380285
0.4625714996269584,-0.12449875824099982,-0.41516915460147663,8.475990112504109,8.487065084880843
0.46505844317333994,-0.13332769960738772,-0.4271183761570212,8.419209787180511,8.431091259338244
0.46754538671972146,-0.1230045632324327,-0.4247064556408273,8.367298675245427,8.37897325552498
0.4700323302661029,-0.11747137029665744,-0.42229862038224075,8.315468708107588,8.327013599312336
0.47251927381248443,-0.12151652866718698,-0.42468329099068924,8.282873832178174,8.294644120404923
0.47500621735886595,-0.12077483289768381,-0.4366488879960615,8.240783959061348,8.253227797145337
0.4774931609052474,-0.12003469079078405,-0.43425341192659195,8.18919941867451,8.201583473426462
0.4799801044516289,-0.12408451011678517,-0.431862089792991,8.142485749282658,8.154874371044746
0.48246704799801043,-0.12334748865264694,-0.43426334188508564,8.100643277571875,8.113212727614908
0.48495399154439195,-0.11782363078349334,-0.42230357181064493,8.049307118644732,8.06123860241091
0.4874409350907734,-0.10751294086192803,-0.41992481297951834,7.998054402578247,8.009792138851665
0.4899278786371549,-0.10199222984859946,-0.42233867879872067,7.951673854497509,7.963534985347788
0.49241482218353644,-0.11083830867151973,-0.41517997595345246,7.900588987930615,7.912266799047689
0.4949017657299179,-0.11968597162444339,-0.4080255276490612,7.863953734687093,7.875441441869532
0.4973887092762994,-0.11895841628868903,-0.41045215700925874,7.822614798369171,7.834278802906099
0.4998756528226809,-0.12302085681433206,-0.4128830737946507,7.776572494211244,7.7884970515215795
0.5023625963690624,-0.12708489403733808,-0.4009530843634579,7.735403942434998,7.746830842272985
0.5048495399154439,-0.12636212876076208,-0.3986042215541108,7.694321051643661,7.705675126735653
0.5073364834618254,-0.13042937171563124,-0.3962596948803494,7.653324132099101,7.664685501556033
0.5098234270082069,-0.1344982236390198,-0.38913111709351167,7.6028366857568,7.613976521420455
0.5123103705545884,-0.1337802852349358,-0.391583714143263,7.562012632824318,7.5733262196273
0.5147973141009698,-0.12827556049458383,-0.37967548533364237,7.526063875233848,7.536726447714781
0.5172842576473514,-0.12756086001662909,-0.36298325312754276,7.4710486999586045,7.4809489566640135
0.5197712011937329,-0.1268477844055877,-0.3462954365840121,7.420909425493283,7.430067805288359
0.5222581447401143,-0.12613633755303033,-0.33440045467836654,7.375646352045552,7.384300450969154
0.5247450882864959,-0.12542652331722354,-0.33208672630199665,7.325682971493182,7.33427872427566
0.5272320318328774,-0.12950674884339786,-0.3345658636215476,7.261442774020939,7.270299682645669
0.5297189753792588,-0.13358861460276616,-0.32747267207872843,7.2164448779996935,7.225106293067105
0.5322059189256404,-0.1233069143924807,-0.32996078027293896,7.17632436689685,7.184964170444609
0.5346928624720219,-0.11781526521840341,-0.34203020343764035,7.121927919155558,7.131109477664012
0.5371798060184033,-0.11232526745131499,-0.34452734344017566,7.072409438073995,7.081687038823735
0.5396667495647849,-0.11162532806906211,-0.35181742530502946,7.027769211958112,7.037455208465708
0.5421536931111663,-0.11571545069558054,-0.3447468507292708,6.9927959307197565,7.0022450246551795
0.5446406366575478,-0.12938404224148203,-0.3376808445667563,6.967489879232662,6.9768677642896195
0.5471275802039294,-0.12868908966182957,-0.3449846315857643,6.937486130688477,6.9472504698854305
0.5496145237503108,-0.12320740312016348,-0.3475046132266426,6.897996563195019,6.9078430863944575
0.5521014672966923,-0.13209259938690338,-0.3548176107656995,6.849021456452745,6.859478034272896
0.5545884108430739,-0.11703745535493831,-0.3573468321119151,6.804926298392168,6.815307509637823
0.5570753543894553,-0.10677239436771785,-0.3598806950489677,6.760922961928525,6.771336186898441
0.5595622979358368,-0.10608582313328219,-0.3576308106335073,6.7218001248805646,6.732143114746494
0.5620492414822184,-0.0958241317242301,-0.3553855964762467,6.663616043404999,6.673774041749389
0.5645361850285998,-0.09514093674175073,-0.3579334701011794,6.605524601798199,6.615899291239553
0.5670231285749813,-0.09445943483121833,-0.3604860423048022,6.557102875969813,6.567683830512611
0.5695100721213628,-0.08899122592435094,-0.3582549237965904,6.513562730119556,6.524014520823704
0.5719970156677443,-0.08831311987980722,-0.356028531839474,6.470116026695306,6.480505915553672
0.5744839592141259,-0.08763671656128386,-0.3538068802887553,6.41718622306999,6.427529737324331
0.5769709027605073,-0.0917504224390509,-0.3563783862325889,6.369138791460713,6.3797611741413265
0.5794578463068888,-0.08628903066805382,-0.3589546600309048,6.316397185722937,6.32717691016935
0.5819447898532704,-0.08082935097069932,-0.3567473119558975,6.254173261269715,6.264861148544887
0.5844317333996518,-0.0849481930352689,-0.3545447588325117,6.235139711592509,6.245789414044751
0.5869186769460333,-0.09385715655496107,-0.35713541739768395,6.206624355368039,6.21759927631591
0.5894056204924149,-0.08840263122786712,-0.3501540910189598,6.168627446026083,6.179189872510117
0.5918925640387963,-0.08294982996007683,-0.3479660028974929,6.140302848504833,6.150713786612041
0.5943795075851778,-0.07749875566253106,-0.34578276286479204,6.121650812686016,6.131898600652413
0.5968664511315593,-0.08162621785256785,-0.3483927873044741,6.083941166751885,6.09445489721476
0.5993533946779408,-0.08575541273202697,-0.33664247590995355,6.0367509636673145,6.046738322826437
0.6018403382243223,-0.09467474642942231,-0.3296854548483843,5.99923406125566,6.009031962677527
0.6043272817707038,-0.09880741507804774,-0.3275217369167973,5.942660282352802,5.952499023509444
0.6068142253170853,-0.09336501809721426,-0.3062093182216774,5.890971884531552,5.899663627488546
0.6093011688634667,-0.09271276815317037,-0.29447863130384055,5.834592300333923,5.842754541548798
0.6117881124098483,-0.10163907123721516,-0.2827528820523968,5.77831017047218,5.786116842865613
0.6142750559562298,-0.10577872002505956,-0.27103208290776637,5.736490940506528,5.743864190428681
0.6167619995026112,-0.10034331379868949,-0.2688930528615723,5.694769634280643,5.701997320415558
0.6192489430489928,-0.09490966176666732,-0.2667589975346649,5.6627232904432,5.669797462942589
0.6217358865953743,-0.09905457310318405,-0.2646299290988958,5.640352139203812,5.647425348072213
0.6242228301417557,-0.09362443702617551,-0.25292905299576995,5.589349182409345,5.5958522964744
0.6267097736881373,-0.09298446596137622,-0.2460215911785406,5.53844506658902,5.544686329257986
0.6291967172345188,-0.09713466233918683,-0.24869595886992935,5.50200522650737,5.508479493934819
0.6316836607809002,-0.09170981859466737,-0.24658695792141305,5.465664675201643,5.471992887457977
0.6341706043272818,-0.08628674373003198,-0.244483003375636,5.415058423902044,5.4212613915357
0.6366575478736632,-0.08565384339276866,-0.24238410686476142,5.369340305272337,5.375490856653987
0.6391444914200447,-0.09938792651626016,-0.2402902799307003,5.333298940205206,5.339634347421212
0.6416314349664263,-0.10833538207759363,-0.2382015340250332,5.282992527859814,5.2894694039425545
0.6441183785128077,-0.0933425990194332,-0.2361178805089299,5.227998088824446,5.23415977125649
0.6466053220591892,-0.08792840277345582,-0.2340393306530748,5.182681045193246,5.188707799492296
0.6490922656055708,-0.0873043921744136,-0.23675429895790545,5.1518300106039305,5.158006117980793
0.6515792091519522,-0.09625897266325889,-0.2394743931926051,5.121079983595879,5.127579738356053
0.6540661526983337,-0.09563853304495806,-0.23262281771534266,5.100007977491699,5.106206172375317
0.6565530962447153,-0.0902314786916183,-0.22577639007477224,5.069460583872593,5.075287904099621
0.6590400397910967,-0.0896146182612404,-0.2333003310490307,5.039014812420957,5.04520862839898
0.6615269833374782,-0.09378795373678556,-0.23125263476286628,5.003882461036461,5.010101161176211
0.6640139268838597,-0.08838627710586755,-0.22921011849226636,4.954486922475625,4.960573563347475
0.6665008704302412,-0.09256320356388326,-0.22717279278158742,4.9051936042726645,4.911323621981314
0.6689878139766227,-0.09195352502964371,-0.2107754581231891,4.8751563154573025,4.880576896705516
0.6714747575230042,-0.08655724334850656,-0.20396014148081942,4.840433233350699,4.845501602746084
0.6739617010693857,-0.07637436033144673,-0.19236164316456428,4.801024550048978,4.805483615084959
0.6764486446157671,-0.06140487775506537,-0.18076837667454937,4.747353649180206,4.751190843925582
0.6789355881621487,-0.06080241064284947,-0.17396875541964496,4.688997525825502,4.692617591302313
0.6814225317085302,-0.06499015406205755,-0.17675119271742856,4.645109979877662,4.648925836084191
0.6839094752549116,-0.05960289972529337,-0.1795388918332006,4.615691196118611,4.619566206611094
0.6863964188012932,-0.0637942625530184,-0.1823318625815129,4.58637614753907,4.590442329750201
0.6888833623476747,-0.07277584082981514,-0.18991851800581339,4.5619534185801625,4.566484901955249
0.6913703058940561,-0.06739402284502566,-0.18793365777685134,4.523269575250037,4.527673648179965
0.6938572494404377,-0.057225616775579136,-0.2003193080364003,4.470324795006193,4.475176685811934
0.6963441929868192,-0.06621264072506994,-0.21271026827222306,4.427061270075333,4.432662998810224
0.6988311365332006,-0.07520148288002437,-0.22031814452117748,4.3934791742498165,4.399642553935428
0.7013180800795822,-0.06982693471304274,-0.22314294604887142,4.355213469527933,4.361485175985392
0.7038050236259636,-0.05966580426406731,-0.2259730853496431,4.307475922715138,4.313811848965083
0.7062919671723452,-0.07344851282008907,-0.22402016818560666,4.264631912064404,4.271143297196605
0.7087789107187267,-0.0824446417901658,-0.222072606867882,4.226681604033809,4.233314392241477
0.7112658542651081,-0.07228898251013466,-0.23449562025657844,4.188836759926966,4.1960180283487
0.7137527978114897,-0.07171195616450393,-0.23734720055765735,4.160674349174138,4.168055582420313
0.7162397413578712,-0.07592516066147648,-0.2258389531666758,4.123040919449326,4.129919404327697
0.7187266849042526,-0.07535179055485003,-0.2239129033093925,4.080725033193661,4.087558155811569
0.7212136284506342,-0.07478025032528868,-0.23156905951833373,4.033726847693518,4.0410603307756245
0.7237005719970157,-0.07899894441941024,-0.23923062359371716,3.9964117283618066,4.004344993512949
0.7261875155433971,-0.07364266396856389,-0.24210920056439011,3.97356823213649,3.9816183396200375
0.7286744590897787,-0.06828821667166629,-0.24499320200813957,3.941254494199459,3.949452106003291
0.7311614026361601,-0.06772400687335484,-0.23351742612982385,3.90425906782046,3.9118225673043465
0.7336483461825416,-0.06716163224370297,-0.22683549428480676,3.8721589077557415,3.879378768981602
0.7361352897289232,-0.0666010937391856,-0.2345242210961569,3.8305889503264376,3.83833935736941
0.7386222332753046,-0.05646558564177334,-0.23264159785309246,3.7987029532626098,3.8062389050793413
0.7411091768216861,-0.060697125441770805,-0.22118763235474326,3.7621358492192263,3.7691211519031937
0.7435961203680677,-0.060142100712852364,-0.2241043489101635,3.7304645856202976,3.7376738562969645
0.7460830639144491,-0.059588915596466396,-0.22223814185397028,3.6893240914561805,3.696491969740451
0.7485700074608306,-0.05424916755968118,-0.2108006153901094,3.6435029071668783,3.649999083035948
0.7510569510072121,-0.05369966399678067,-0.20894539023249914,3.607366378001913,3.6138115633153065
0.7535438945535936,-0.05315200230742345,-0.20709566708161464,3.5665494274584058,3.5729523603285207
0.7560308380999751,-0.047817779857615095,-0.20525145318701066,3.5210521871644724,3.5273535694400704
0.7585177816463566,-0.04727380394068209,-0.20820115902703673,3.485239996879881,3.491773241636761
0.7610047251927381,-0.04673167185543303,-0.2063679850276139,3.4591129845748556,3.465578484820843
0.7634916687391196,-0.046191384187445894,-0.1997519381638302,3.428306066430811,3.434431097852985
0.7659786122855011,-0.04565294148879351,-0.20271823528027966,3.3976077700833116,3.40395614444608
0.7684655558318826,-0.040327940957769925,-0.20569007652859783,3.3574414113807016,3.363977940067127
0.770952499378264,-0.04458159304049247,-0.19909066196906267,3.312595514306828,3.3188723463741456
0.7734394429246456,-0.04883709154812971,-0.19249680485188225,3.2870122143022673,3.2930061309328527
0.7759263864710271,-0.04830603357881724,-0.19069691501567476,3.2567496117808723,3.26268552271154
0.7784133300174085,-0.03820001619738694,-0.18411419224688297,3.2265962252557685,3.232070617709176
0.7809002735637901,-0.03767265303697204,-0.1679602395610713,3.206128974738805,3.2107464667145487
0.7833872171101716,-0.037147137775613404,-0.16617707980453522,3.1809827618197346,3.1855370132352236
0.785874160656553,-0.03183506737849079,-0.16439950916997015,3.160734502870449,3.1651671784861577
0.7883611042029346,-0.03131324873859315,-0.14826232375902348,3.131019095843005,3.134683846056335
0.790848047749316,-0.035581682075201404,-0.14649594946515787,3.0870482435129887,3.0907270952132975
0.7933349912956975,-0.03985196425424714,-0.14952358552839717,3.038398856801072,3.0423367819316534
0.7958219348420791,-0.048912498749297206,-0.1381916244572574,2.9994362481336436,3.00301634431484
0.7983088783884605,-0.04360967239941377,-0.141230491872554,2.9653721148425474,2.9690536598126864
0.800795821934842,-0.0430970985732651,-0.13469817678090035,2.9218413458070627,2.925262006863857
0.8032827654812236,-0.047374777325425166,-0.1329598946607069,2.8736324413771683,2.8770968199297924
0.805769709027605,-0.05644270867767359,-0.12643884429818275,2.8255339000937134,2.8289245980211497
0.8082566525739865,-0.060724085978421494,-0.11513503102958911,2.7919110253305206,2.7949437674755138
0.8107435961203681,-0.06021890918401296,-0.10862526674130901,2.7488218920927663,2.7516263481887195
0.8132305396667495,-0.059715581538464346,-0.11169795990897935,2.701054993502905,2.704023014482917
0.815717483213131,-0.06400250625320442,-0.1147763089569378,2.6629756275210017,2.666216254296591
0.8182044267595125,-0.05392606990556559,-0.11786031885986059,2.6297954770244774,2.6329875287884685
0.820691370305894,-0.05342828892321322,-0.11616159118190161,2.5967262230910277,2.599872145897134
0.8231783138522755,-0.057720759779512965,-0.1144685340377074,2.5781331582815685,2.581318522233388
0.825665257398657,-0.05722667559514927,-0.11756955545187431,2.5692279600794885,2.5725531682791387
0.8281522009450385,-0.0663112460600564,-0.11588785339809249,2.550857094212721,2.5543490542630662
0.8306391444914201,-0.061032454269412784,-0.11900023904141577,2.5325974445384016,2.536126146990426
0.8331260880378015,-0.050967106528388095,-0.11254150685553466,2.5192374898025056,2.5222650072384583
0.835613031584183,-0.04090360578969798,-0.10130006450568096,2.477258480399585,2.4796661845391843
0.8380999751305646,-0.04041875829429259,-0.09006431956746219,2.4258141014606167,2.427821927680525
0.840586918676946,-0.04951256361047429,-0.08362267952695746,2.3888464396518634,2.3908223603446435
0.8430738622233275,-0.05381981131365077,-0.08676355178080586,2.3519903532940614,2.354205409049045
0.845560805769709,-0.04376369426764154,-0.08033332703474327,2.3152459088879063,2.3170525076032717
0.8480477493160905,-0.043286228546617345,-0.07390881582713327,2.288189977795823,2.289792476431873
0.850534692862472,-0.04759901027109992,-0.08185523192750743,2.2468806063612767,2.2488749196020468
0.8530216364088535,-0.04233682888927459,-0.08980736909447584,2.220048275676544,2.2222673369688146
0.855508579955235,-0.0418648937395546,-0.08818842431801555,2.217269851780231,2.2194178207640505
0.8579955235016165,-0.0509716074881455,-0.08657520778051486,2.1715077458157612,2.173830550321256
0.860482467047998,-0.04092654952754787,-0.08496772293500499,2.1067040302445568,2.10881397174944
0.8629694105943795,-0.03567173574224858,-0.092942779786517,2.056377582403039,2.05878595158775
0.8654563541407609,-0.03999556870409804,-0.09134676832969513,2.015740051301856,2.018205101574826
0.8679432976871425,-0.034744434352067366,-0.08496809507233838,1.9800030841907459,1.982129906515598
0.870430241233524,-0.029495138515753305,-0.0833835697542673,1.9683203431625111,1.9703065132634603
0.8729171847799054,-0.033824486993569824,-0.09617000202712545,1.9615382619914108,1.9641856120200454
0.875404128326287,-0.0333672689512563,-0.09938537821231153,1.9452916760184458,1.9481146097769309
0.8778910718726685,-0.01854667684382394,-0.10260650778546943,1.9339458387554407,1.9367546519632692
0.8803780154190499,-0.022881532978120178,-0.10583339349380028,1.9179239853641539,1.920978054368389
0.8828649589654315,-0.032006626426969054,-0.10427763467649287,1.8780725426198126,1.881237551339917
0.885351902511813,-0.0363451495526767,-0.09315083058516294,1.8335451621168604,1.8362695631787986
0.8878388460581944,-0.021531891366479428,-0.09160659698553886,1.81307230034973,1.8155127532607835
0.890325789604576,-0.01629727073174153,-0.09485653295446506,1.7879235722311657,1.7905122348136295
0.8928127331509574,-0.020641286559341332,-0.0885354308409676,1.7533106075402687,1.7556658770216633
0.8952996766973389,-0.020198727768683034,-0.07264329286794657,1.718810244284625,1.7204632203159542
0.8977866202437205,-0.024546399850271405,-0.07112213777293697,1.679634108781225,1.681318418268325
0.9002735637901019,-0.019319091662662324,-0.06481835432386385,1.6453590355811816,1.6467486154020474
0.9027605073364834,-0.023670415276288326,-0.05852034780355275,1.6159850508710063,1.6172175500856307
0.905247450882865,-0.02802356280947277,-0.052228120087992824,1.5771469691552094,1.578260326725577
0.9077343944292464,-0.027590129670694408,-0.04594167296679075,1.533633216501407,1.5345692214190552
0.9102213379756279,-0.031946921199290323,-0.05402621810424746,1.5045974272229818,1.5059059917613642
0.9127082815220094,-0.02672872610303545,-0.057328143836374856,1.4852512173195622,1.4865974974498164
0.9151952250683909,-0.026300752981656794,-0.0558474516944778,1.466017797761312,1.4673168883445378
0.9176821686147724,-0.025874597123790255,-0.05916094976467523,1.4564739910935494,1.4579046606295452
0.9201691121611539,-0.025450257108622587,-0.07205704272710767,1.4326777949164047,1.43471446533448
0.9226560557075354,-0.03460453812628439,-0.07059371525452685,1.3994176250520152,1.4016242848918512
0.9251429992539169,-0.029395422095118917,-0.059559371856191756,1.3710587022664225,1.3726665198352224
0.9276299428002984,-0.024188117466451664,-0.06289603023739954,1.3428126323508955,1.3445024139983297
0.9301168863466799,-0.03334783266217256,-0.06623848145588562,1.3194678260470294,1.3215502102992984
0.9326038298930613,-0.02335574287169595,-0.06000991980479098,1.2914474824484365,1.293051925145495
0.9350907734394429,-0.022942266419227697,-0.0585755560940715,1.2491747989649564,1.250757818975888
0.9375777169858244,-0.027318998357602875,-0.061935391088151714,1.2118033912478587,1.2136926214574744
0.9400646605322058,-0.02690913039024545,-0.06530102214671141,1.1936984699509896,1.1957860853660651
0.9425516040785874,-0.016924257511877094,-0.05909564322484773,1.1613412108513526,1.162966952910603
0.9450385476249689,-0.011729587969541821,-0.062472868115423186,1.1338852245790676,1.1356655075343376
0.9475254911713503,-0.016113523340815727,-0.06106748728517086,1.0969652968552044,1.0987819374845975
0.9500124347177319,-0.01092244857296043,-0.06924471103892049,1.064946631659291,1.0672513566035708
0.9524993782641133,-0.015309975147067778,-0.06306252303539273,1.0330408180297042,1.035077102860494
0.9549863218104948,-0.019699294593777172,-0.05688613341236515,0.9868826367078185,0.9887170641884755
0.9574732653568764,-0.024090405055863018,-0.06029234890403101,0.9647793033056384,0.966961539586262
0.9599602089032578,-0.018906498007072448,-0.06849276620054212,0.96194240190313,0.9645630613225122
0.9624471524496394,-0.013724378174091667,-0.071910578588811,0.9448530950127765,0.9476850009494009
0.9649340959960209,-0.018120850255384013,-0.07054578591362404,0.9135113667473114,0.9164104376864604
0.9674210395424023,-0.02251910564003423,-0.06918679125750371,0.8918592161827412,0.8948222078678143
0.9699079830887839,-0.017342335689088384,-0.06304519097994898,0.8703198175183307,0.8727726149908643
0.9723949266351654,-0.016955748337206145,-0.06169779131917297,0.8488931499631356,0.8513011775568464
0.9748818701815468,-0.016570938209943487,-0.06514459179072185,0.8180023844585165,0.8207595962354362
0.9773688137279284,-0.011399499905094035,-0.06380878518765742,0.7824359002835006,0.7851162001370644
0.9798557572743098,-0.001441431313095043,-0.05769037086198914,0.7517704784179653,0.7539821674517247
0.9823427008206913,-0.010638746898371743,-0.06594296136548294,0.7355828982261912,0.7386094077738655
0.9848296443670729,-0.015049427894742617,-0.06941294260609876,0.7195079208591739,0.7230050415178914
0.9873165879134543,-0.009885068789892815,-0.06331191037161643,0.6987571125007115,0.7016891155278215
0.9898035314598358,-0.004722474005152022,-0.05242826700951042,0.6685420377307096,0.6706112742531842
0.9922904750062174,-0.009138447934658234,-0.04155041478651489,0.6480162761307096,0.6494113044364858
0.9947774185525988,-0.013556181664199474,-0.03546675588881687,0.6276029857644279,0.6287504819680175
0.9972643620989803,-0.008398866252564807,-0.0293888857816218,0.5833601131427262,0.5841603111883826
0.9997513056453619,-0.008031709333200743,-0.03289360981090628,0.5583832496729553,0.5594089304225801
1.0022382491917432,-0.012454708551809968,-0.017250506680184685,0.5430955486552094,0.5435121661149238
1.0047251927381249,-0.007302651566451601,-0.006401591536628448,0.5087665485286212,0.5088592241434057
1.0072121362845063,-0.002152342610136637,-0.009923669486905595,0.46976141603953536,0.46987115233249444
1.0096990798308878,-0.006580585889366719,-0.008663125636435343,0.4452337196831593,0.4453666119045545
1.0121860233772693,-0.011010572302983856,-0.002619958292711999,0.43039500978586,0.430543797229115
1.0146729669236507,-0.005865492723520438,0.0034174309954306814,0.42045683511092946,0.4205116324562229
1.0171599104700322,-0.0102989579191749,0.014237447398554703,0.39626553290187694,0.3966549457761192
1.0196468540164139,-0.00994575538985032,0.020263286204847297,0.36739785876948794,0.368090621242241
1.0221337975627953,-0.009594285890693888,0.021494949421485998,0.3338537601336018,0.3346825605371889
1.0246207411091768,-0.014032950150946966,0.037086052415040704,0.3052099895086471,0.3077749773284673
1.0271076846555582,-0.00889653559280168,0.038306177426910004,0.2814664912267357,0.28420045260010757
1.0295946282019397,-0.003761846214311859,0.039520536659036765,0.2722000147232482,0.2750797562891441
1.0320815717483214,-0.00820568598793614,0.05030593907057712,0.2678336946193536,0.27264062199488615
1.0345685152947028,-0.007862842259079184,0.05150877377612684,0.2492138573670193,0.25460268020596405
1.0370554588410843,0.0020550910116168275,0.05270584988925542,0.2115520378550073,0.21802842643155776
1.0395424023874658,0.00239450328723001,0.04432036331917111,0.17400178605394245,0.17957352199224094
1.0420293459338472,0.002732203977891534,0.03592912333300324,0.1509282470989124,0.15516991530063204
1.0445162894802287,0.003068195878179414,0.041897342594650944,0.13275454801270214,0.1392428495848073
1.0470032330266104,-0.010962728153302015,0.03828300728175105,0.10990381431188467,0.1168957589281965
1.0494901765729918,-0.024995355311203116,0.034662926890150825,0.08237597665198315,0.09280133521180234
1.0519771201193733,-0.02466447276543582,0.031037104350869704,0.054959367511724366,0.06776555275781704
1.0544640636657547,-0.019546884262818254,0.017828736029881664,0.02286551123669156,0.03496821580982479
1.0569510072121362,-0.019219393525632733,0.004614631649770828,-0.004328859354487236,0.020234103292884806
1.0594379507585177,-0.009316787650168523,0.0009716010082536641,-0.012258609606149662,0.0154278984347693
1.0619248943048993,-0.004204273630267319,0.0021112440170236724,-0.024865832903747886,0.025306973624965323
1.0644118378512808,-0.003881848474620808,0.0032451606624590568,-0.05651581746604073,0.0567418490988787
1.0668987813976623,-0.0035611058475040203,0.004373354325709844,-0.08805502973885027,0.08823545752828132
1.0693857249440437,-0.003242042709509896,0.005495828462155128,-0.12427195423406978,0.12443566040557046
1.0718726684904252,0.0018637473229636825,-0.002964220039442189,-0.14122465700149256,0.14126805689792477
1.0743596120368066,0.0021794606963579932,-0.0018531742946734653,-0.14370162546779852,0.14373009937372494
1.0768465555831883,-0.002294899478599177,-0.0007478372674567524,-0.16043336511144446,0.1604515206072461
1.0793334991295698,-0.006770926747313388,0.005140198112537853,-0.17226634965317267,0.1724759760328457
1.0818204426759512,0.0031165920088729315,0.0014457257074722563,-0.18398907085588156,0.1840211440649732
1.0843073862223327,0.008214046689760002,0.0025339593742281785,-0.20996682855882653,0.21014271485869657
1.0867943297687142,0.008521440499613786,-0.010748710199889544,-0.23583450411025808,0.23623306933636748
1.0892812733150956,-0.0007496266545081731,-0.014460262372387955,-0.2568037869250226,0.2572116756817852
1.0917682168614773,-0.0004455382409953579,-0.008600693030195838,-0.2728747711593478,0.2730106429430733
1.0942551604078588,0.004645305693077417,-0.007535207949279421,-0.27925914906528604,0.27939941045121885
1.0967421039542402,0.00015769848277424892,-0.01605220619331371,-0.30468743754825667,0.3051100339094192
1.0992290475006217,0.000456853407684088,-0.005421263512363161,-0.3347945250370774,0.3348387265653554
1.1017159910470031,0.0007543704886809888,-0.00437279542905733,-0.35521530136179713,0.3552430164496565
1.1042029345933846,0.0010502530893720108,-0.0033299908325830074,-0.38031507767055217,0.38033110597748243
1.1066898781397663,0.010921311236294362,-0.0022928451820516393,-0.41009395654172565,0.4102457621599468
1.1091768216861477,0.006425531735990808,0.008315452774506848,-0.434975235299218,0.43510215988494627
1.1116637652325292,0.0019281279795743123,0.014129697757712112,-0.45974742260894175,0.45996854091534867
1.1141507087789106,0.00221750673949217,0.015149894519088214,-0.4844106251924849,0.4846525460981849
1.116637652325292,0.007293671489721709,0.011376047879879891,-0.5137533544626329,0.5139310472532022
1.1191245958716736,0.002791415765027172,0.012384969371434185,-0.5238337032760612,0.5239875267181626
1.1216115394180552,0.0030759530436557103,0.018176663953698213,-0.5242285890922513,0.5245526343669098
1.1240984829644367,0.0033588835440953035,0.02875113665559592,-0.5436685440074136,0.5444386059977677
1.1265854265108182,0.003640210826518997,0.02974318261384168,-0.5630000682649232,0.5637969358848717
1.1290723700571996,0.0039199384723542785,0.030729613635189335,-0.5726464700938809,0.5734837877244457
1.131559313603581,0.004198070084165395,0.02692203163368312,-0.5917614789851644,0.5923884431607573
1.1340462571499625,0.004474609285534226,0.023108845231964992,-0.6155568091627543,0.6160066770440437
1.1365332006963442,-3.884359936912052e-05,0.024078463120400073,-0.6488209828206699,0.6492676194324231
1.1390201442427257,-0.004553881584972608,0.025042487416196746,-0.6724005068755456,0.6728820889724819
1.1415070877891071,-0.004282097665042395,0.026000923624089012,-0.681507099523829,0.6820163569087628
1.1439940313354886,0.0007765118668828785,0.02695377731576798,-0.7048713035177414,0.705386889306193
1.14648097488187,0.0010451440970602466,0.03747786077025017,-0.7281280330349738,0.7290926654859983
1.1489679184282517,0.006100609413296154,0.04320796973143359,-0.7464890101967896,0.7477633238051387
1.1514548619746332,0.006366104942326478,0.03935570665002874,-0.764742765062687,0.7657812322418094
1.1539418055210147,0.00663003779188287,0.04507469064423386,-0.7924662323047311,0.793774788262421
1.1564287490673961,0.006892411769321538,0.06036492761666734,-0.8248711379209279,0.8271056909495483
1.1589156926137776,0.007153230701814506,0.061284406933793445,-0.8380155959095266,0.8402839319124811
1.161402636160159,0.007412498436227488,0.057409941269416453,-0.8462649481073665,0.8482424234172615
1.1638895797065407,0.007670218838997767,0.06310674668254057,-0.8544077309813307,0.8567694348507996
1.1663765232529222,0.012714799116322562,0.064009619374922,-0.8576556756229206,0.8601349634896254
1.1688634667993036,0.022546243173415692,0.060118565573614724,-0.8751625309849622,0.8775146897048897
1.171350410345685,0.01801094165344297,0.06579880153070894,-0.8877748207121208,0.8903920533071707
1.1738373538920666,0.018262511781151125,0.0714735269605673,-0.8954926829791532,0.89852608735748
1.176324297438448,0.013724150878369534,0.07235434496143256,-0.9031046605244821,0.9061023846195144
1.1788112409848297,-0.00039254039392666584,0.07801806865578564,-0.9297645072853111,0.9330321602882921
1.1812981845312112,0.004642861886135163,0.0884647045885183,-0.95631875186867,0.9604129920508564
1.1837851280775926,0.01446515177620089,0.07496383944541662,-0.9731907307490086,0.9761808317397429
1.186272071623974,0.01470912335237795,0.0758227064591459,-0.9851689915829542,0.9881919768451676
1.1887590151703555,0.010163183990360758,0.0766761024011684,-0.9874652766022027,0.9904898724789271
1.191245958716737,0.010404144404368432,0.07752403406584873,-0.9944449425298103,0.9975163987633223
1.1937329022631187,0.015432008686082077,0.07836650830924663,-1.0204733472933576,1.0235943088219963
1.1962198458095001,0.010881570984208833,0.06962672540822501,-1.0416086234568631,1.043989853369207
1.1987067893558816,0.011118045387164877,0.05609309566173826,-1.0578509213792149,1.0593954021879657
1.201193732902263,0.0017762260792041351,0.06649604603118275,-1.0692003926069962,1.0712676410065882
1.2036806764486445,0.0020097305043530467,0.07210516369481867,-1.0995992064704172,1.1019626166610772
1.206167619995026,0.0022417562022217785,0.06334364917249413,-1.1346823069135876,1.1364512224394407
1.2086545635414077,0.0024723073703787346,0.05936512296599261,-1.1505078324107583,1.1520410594102115
1.2111415070877891,0.007489791543909052,0.060169592355642454,-1.1566527458434521,1.1582409297243872
1.2136284506341706,0.0077174063140430516,0.0609686613609739,-1.1674824145729037,1.1690987658728165
1.216115394180552,0.003155155929586817,0.056973934060761344,-1.1925738037937492,1.1939381314232291
1.2186023377269335,0.003379851296797076,0.0625506278739949,-1.222350266567366,1.2239543204791306
1.221089281273315,0.008391496698004208,0.07769875031742046,-1.2424467537771058,1.2449021845064734
1.2235762248196966,0.013401693111796842,0.0784762923646336,-1.2528634274038097,1.2553903383281166
1.226063168366078,0.018410444853519836,0.07446006828955642,-1.2823308704810117,1.284622788073596
1.2285501119124596,0.013840949614208453,0.07043848910365913,-1.316484037284507,1.3184397494987568
1.231037055458841,0.009270018382335654,0.061623159235367986,-1.321804269928153,1.3232724114842165
1.2335239990052225,0.014274462162433221,0.06237929645166229,-1.3318105581237223,1.3333470289559473
1.236010942551604,0.014489075373401161,0.06791850529529508,-1.3321378594876254,1.333946825532036
1.2384978860979856,0.009913862410878993,0.05908718040482919,-1.341939955980445,1.3432767492266415
1.240984829644367,0.010125634326804911,0.04546213639716612,-1.3468518074167513,1.3476569019813924
1.2434717731907485,0.010335992227724744,0.04619699458601856,-1.3612387946233486,1.3620616913457846
1.24595871673713,0.015333343876223537,0.06129176305974804,-1.3755242829100247,1.3769745257369639
1.2484456602835114,0.015540887089238065,0.05722762672015724,-1.3944968486262272,1.3957571354859775
1.250932603829893,0.010958626339485522,0.0579466103681332,-1.403791455913046,1.4050296626188623
1.2534195473762746,0.011163372755336964,0.06344872225806064,-1.403408279939537,1.4048861738412495
1.255906490922656,0.011366727519123931,0.07373397069910048,-1.417289513537522,1.4192517275356673
1.2583934344690375,0.011568695148258978,0.06964875077365695,-1.435858527351968,1.4375932991500504
1.260880378015419,0.01176928017479384,0.06555828086053239,-1.4351734831163512,1.4367182503140763
1.2633673215618004,0.026333697106226572,0.07103937607214217,-1.448753383451498,1.4507330638743177
1.2658542651081819,0.04089674054255765,0.0765152382932901,-1.4813868120940583,1.483925204356433
1.2683412086545636,0.03151639845741594,0.07240906946213999,-1.494766723929665,1.4968513338603546
1.270828152200945,0.01734628872135302,0.06829768485117338,-1.4936817047526514,1.4953429381253054
1.2733150957473265,0.017540029218912956,0.07854630310597477,-1.5260159712601649,1.5281367474469425
1.275802039293708,0.017732414606308033,0.08400131968244118,-1.5486740780774912,1.5510519205833597
1.2782889828400894,0.013135046194101663,0.09423955001055928,-1.5520794040802617,1.5549932793407353
1.280775926386471,0.027689945228328017,0.1044725996113085,-1.5553857490682077,1.5591363267978724
1.2832628699328525,0.032666696445045273,0.10991207405731096,-1.563381703876395,1.5675809800758853
1.285749813479234,0.028065304515523914,0.11055798229285907,-1.580855860330244,1.5849656084302566
1.2882367570256155,0.028250984085169573,0.10641033331331373,-1.5934431979583064,1.5972421551716025
1.290723700571997,0.01885852989058623,0.11662274944606699,-1.6059323105488215,1.6102717459803704
1.2932106441183784,0.019041559923504314,0.12204162650650385,-1.6183233895421942,1.6230302932305392
1.29569758766476,0.03358848222752586,0.11787857032115312,-1.6258282240250228,1.6304419515933917
1.2981845312111415,0.04334568825736307,0.12328720336801702,-1.6284470073647572,1.6336824168118003
1.300671474757523,0.03873637612090308,0.12390232493254283,-1.6405451438443261,1.6456733156826326
1.3031584183039044,0.03412576054000471,0.11972394431045164,-1.6573344254139766,1.6620035463367584
1.305645361850286,0.03430224960818429,0.12032887748714005,-1.6692382416462195,1.67392114224645
1.3081323053966674,0.024900638149857324,0.12571713385614203,-1.6810451930110855,1.6859234207018274
1.310619248943049,0.020286140923332363,0.12152351289852525,-1.6975438809091727,1.7020090244510853
1.3131061924894305,0.020458762737866287,0.1221132340654103,-1.7187345043453242,1.7231884688953338
1.315593136035812,0.020630105094156748,0.12269790357455879,-1.7398288599226195,1.7442720082021124
1.3180800795821934,0.016011769504522433,0.11848912769133291,-1.7512503418363625,1.7553272657614862
1.3205670231285749,0.01618056745370855,0.11427531936903002,-1.7482107485086722,1.7520164041986792
1.3230539666749563,0.02113650379719212,0.11005648828765313,-1.7642291058246613,1.767784919113709
1.325540910221338,0.016514373440736585,0.10104424085362096,-1.7753636007201692,1.7783134082331802
1.3280278537677195,0.011890987902761996,0.10639220012134931,-1.781614437621032,1.7848279189265477
1.330514797314101,0.016843158712643413,0.10215835930858885,-1.8069238384370347,1.809887781130109
1.3330017408604824,0.021794084129337254,0.09791953492113148,-1.8225615894308884,1.8253202362026928
1.3354886844068639,0.017166962422492937,0.09846414019001948,-1.8237394943371736,1.826476289117213
1.3379756279532453,0.0173270084738828,0.09421537843062833,-1.8391881809969366,1.8416812774946432
1.340462571499627,0.01748582389446096,0.08996166296425212,-1.859331051546933,1.8615882504160757
1.3429495150460085,0.017643413625788584,0.09049140715686699,-1.874591508976076,1.876857296210557
1.34543645859239,0.017799782619591142,0.09101621777822189,-1.8945465704006423,1.896815091561851
1.3479234021387714,0.017954935837625308,0.09632450828279149,-1.909619640495702,1.9121317846800698
1.3504103456851528,0.032474088212483765,0.0968394822079226,-1.9102341247703283,1.9129628493926882
1.3528972892315343,0.03262682480371215,0.09256114977510377,-1.9011786395224544,1.9037101395750644
1.355384232777916,0.023201553922676643,0.0787011179287318,-1.8872418018718768,1.8890245622543576
1.3578711763242974,0.028140297171491913,0.0744130102577012,-1.8827890363948185,1.8844690838506855
1.360358119870679,0.037866252919455,0.0749084337919772,-1.902185768477226,1.9040367182280447
1.3628450634170604,0.02843740958415797,0.06582218896324843,-1.907124987785263,1.9084724168451348
1.3653320069634418,0.02379578879541977,0.05194268952650383,-1.9119721213061123,1.9128255736505193
1.3678189505098233,0.019152992270152658,0.06678876920036636,-1.9358810001387763,1.9371274670249528
1.370305894056205,0.02408583169504208,0.08163001858086227,-1.9501214229645623,1.95197775385051
1.3727928376025864,0.024229102163913607,0.07252443162550293,-1.9546936091660125,1.9561886279928948
1.3752797811489679,0.014794405419788825,0.07299084217642937,-1.9639629888598993,1.9653745594885619
1.3777667246953493,0.019723763135997774,0.078240857553868,-1.9731413796489363,1.9747905110937507
1.3802536682417308,0.015075163791057222,0.07390927847771378,-1.9822290032172631,1.9836636971029458
1.3827406117881123,0.020002225754461644,0.07436132562973352,-1.972072468722807,1.9735753134043328
1.385227555334494,0.029716550802186825,0.07480860645015053,-1.9857676292365003,1.987398419621527
1.3877144988808754,0.02985293407748657,0.0848279383795365,-2.01852630536904,2.020528500731812
1.3902014424272569,0.029988187332952276,0.09005412229602072,-2.036829898546028,2.0390402330344157
1.3926883859736383,0.030122315688190904,0.09048716907749599,-2.0502554408065983,2.0524723272743866
1.3951753295200198,0.03504372759062979,0.100492299601326,-2.0588031582738875,2.0615521360472897
1.3976622730664012,0.025598814893509236,0.10091591154092594,-2.0624732777895805,2.0650993540559215
1.400149216612783,0.016152792699500096,0.09654641920922069,-2.075631236868766,2.0779381981280096
1.4026361601591644,0.025859279438696592,0.10653744691772449,-2.0743352471704295,2.0772302827521174
1.4051231037055458,0.035564666985670956,0.12131219909343338,-2.068162344296045,2.0720224365461872
1.4076100472519273,0.03569215386246605,0.12650547688009706,-2.085843177822591,2.089980700388654
1.4100969907983087,0.04060695519940005,0.12690569473948976,-2.0986475581714483,2.1028731663100513
1.4125839343446904,0.031155462891183427,0.13687807381048867,-2.106575716367974,2.111247858198861
1.4150708778910719,0.02170289208116638,0.1229038020650397,-2.1144162874338495,2.1180964559368567
1.4175578214374533,0.026614457919006518,0.11850171399534526,-2.1221695037403823,2.1256421119736637
1.4200447649838348,0.03152495563867719,0.12846022420734604,-2.129835598322753,2.1339389700537974
1.4225317085302163,0.03164598712082667,0.1192605207797901,-2.1374148048739343,2.140973280639391
1.4250186520765977,0.036554364212959545,0.11484463167018566,-2.1353305510980025,2.138729079013743
1.4275055956229794,0.04146168880742784,0.12478937490982878,-2.1331598786259445,2.1372090509607626
1.4299925391693609,0.03200275616162018,0.11557593868164018,-2.130903023087729,2.134274974741658
1.4324794827157423,0.027331184780628792,0.1063579477261074,-2.1525022373484273,2.155301577157129
1.4349664262621238,0.03702378653431615,0.10671222017694504,-2.1692273383771514,2.1721660857925325
1.4374533698085052,0.032350146735303675,0.1070619609201704,-2.176290160365994,2.179162145774314
1.4399403133548867,0.03246388390446564,0.1121955848359999,-2.1928445547239868,2.195952867025496
1.4424272569012684,0.032576599966110176,0.11253629687668365,-2.2045255502272827,2.2076364181143986
1.4449142004476498,0.03268830016972324,0.11287251198808868,-2.2113333862162268,2.2144534481277796
1.4474011439940313,0.03758739308983705,0.12278104846878257,-2.222845109269013,2.2265507804187967
1.4498880875404128,0.032908674024336615,0.13268511136817773,-2.2342725565940746,2.2384508430506687
1.4523750310867942,0.033017358197452995,0.12821950244717728,-2.240827565985006,2.2447357455229393
1.4548619746331757,0.0331250475565078,0.1285378467403837,-2.237721975814516,2.241655390077497
1.4573489181795574,0.028443344053031727,0.12885175271206073,-2.234532834989327,2.2384255155450963
1.4598358617259388,0.028549059603570792,0.13873803881833568,-2.240837192983193,2.2453094703573053
1.4623228052723203,0.028653796167680712,0.13904310362410932,-2.2566352931902696,2.2610963869707494
1.4648097488187017,0.033545962349358804,0.13934376564650508,-2.26756216959879,2.272087192343213
1.4672966923650832,0.038437160115660896,0.13964003679208226,-2.2640412600662696,2.2686691214091828
1.4697836359114647,0.028962184796576973,0.1399319289971701,-2.2700148262353945,2.2745080928037096
1.4722705794578463,0.02427465496770509,0.14500785754789458,-2.271117903723315,2.2758719362558644
1.4747575230042278,0.02916297924700273,0.15486783443925356,-2.276927545279708,2.282374546816526
1.4772444665506093,0.024473549654031257,0.15035825841390826,-2.2826555942182747,2.287733184250715
1.4797314100969907,0.014994774812946421,0.1458443514853136,-2.302667507652945,2.307330290385945
1.4822183536433722,0.015091869991434637,0.1413261257343157,-2.3225983232887693,2.3269430181460637
1.4847052971897536,0.019976437178707118,0.14159199659010824,-2.318506272697192,2.32291168322796
1.4871922407361353,0.015283271725995418,0.1370651695486962,-2.319122024474124,2.323219189723394
1.4896791842825168,0.02016599222923221,0.13732246341479515,-2.329234231108966,2.3333658584908354
1.4921661278288982,0.029836200685177006,0.13757548705935685,-2.334477932298949,2.338718544395995
1.4946530713752797,0.02514028913190791,0.13303584938021906,-2.339641781505687,2.343555895882379
1.4971400149216612,0.015655069531506638,0.13328036926275377,-2.34951443266797,2.353343750357764
1.4996269584680426,0.015745757168367014,0.12873225233739571,-2.3449425235942467,2.348526210333029
1.5021139020144243,0.015835550727190895,0.12896831754185545,-2.3355031124801098,2.3391148710571463
1.5046008455608058,0.01592445553504651,0.13877698051926712,-2.34035006462112,2.3445151020153854
1.5070877891071872,0.016012476920615804,0.14379304365696655,-2.3403300192037495,2.3447979524060254
1.5095747326535687,0.01131121689375425,0.13922811600808238,-2.321078019182254,2.3252775281771836
1.5120616761999501,0.011397487426609842,0.13465901661155932,-2.3161131411555793,2.320052377880292
1.5145486197463316,0.0114828905316251,0.13966256453093795,-2.325435638916124,2.3296541373018362
1.5170355632927133,0.011567431542654494,0.13029675561188236,-2.3346805567251003,2.3383422230173454
1.5195225068390947,0.021227922435151703,0.1305036189272073,-2.343848149228501,2.347574485694944
1.5220094503854762,0.02609915858385392,0.13070636033128302,-2.34336186484963,2.3471493664318364
1.5244963939318577,0.016604338684529707,0.12611658902225198,-2.3475871690254184,2.351030968375903
1.5269833374782391,0.016685484675726614,0.12152272086205684,-2.366101124278659,2.3692785204355595
1.5294702810246208,0.01676579525426969,0.12171317173553708,-2.3797503736105927,2.3829198536174454
1.5319572245710023,0.021633679078257195,0.12189955090951576,-2.383746770377847,2.3869596104394435
1.5344441681173837,0.02650073816537868,0.11729346767314297,-2.3924557816069054,2.3954758845846076
1.5369311116637652,0.03136697785371412,0.1126833379782397,-2.4154544713866724,2.4182848726524058
1.5394180552101466,0.021867193520369255,0.10806917447807685,-2.424012677620471,2.426519025659926
1.541904998756528,0.01715500378446777,0.10823939316772391,-2.4085538518639282,2.411045772629945
1.5443919423029098,0.03159562394452842,0.10361720010251263,-2.426539092522276,2.428955902265078
1.5468788858492912,0.041247042736147765,0.08941420467901429,-2.4396614319539243,2.441647829048311
1.5493658293956727,0.031744055535008364,0.07999562959568296,-2.4287675161521403,2.4302918823326665
1.5518527729420541,0.027028684278620596,0.08014989093071767,-2.422588024661133,2.4240642095500626
1.5543397164884356,0.036677740942759995,0.08987700146208288,-2.4211232174452633,2.4230684608828086
1.556826660034817,0.03674921426010014,0.0948117640266144,-2.410008144844186,2.4121523653289167
1.5593136035811987,0.032031512884143964,0.09016578812129783,-2.403608277449912,2.4055121364463985
1.5618005471275802,0.04167825542815784,0.09030429654361738,-2.4067122795385156,2.408766476732697
1.5642874906739617,0.04174743062131259,0.09522730214909103,-2.424108815705015,2.4263377006131783
1.5667744342203431,0.046604253753855684,0.09535801117130704,-2.4414329375763764,2.443738917201532
1.5692613777667246,0.05624873015355769,0.10027324314352137,-2.4443196970870122,2.4470221544771413
1.571748321313106,0.051527251865274626,0.09560780101556787,-2.4519229697152323,2.4543272313848012
1.5742352648594877,0.046805034174262294,0.10051531099733557,-2.4594546146337883,2.4619526885000007
1.5767222084058692,0.046870485723240596,0.10541897939442446,-2.471703297946334,2.4743943090637917
1.5792091519522506,0.05172361183258323,0.1055304158500654,-2.4743040727598604,2.4770935882938554
1.581696095498632,0.0469992078595699,0.11042643998546309,-2.476834009061797,2.4797398316421067
1.5841830390450136,0.0470624890810768,0.11053025815733974,-2.4840817737924663,2.486984936571744
1.586669982591395,0.04712505749032925,0.11541869002016103,-2.46252880759722,2.4656825370058537
1.5891569261377767,0.051975321718654044,0.11072653864304938,-2.4600594078285933,2.463098473564059
1.5916438696841582,0.04245967379317461,0.1251842369938836,-2.46709703225158,2.4706358864945916
1.5941308132305396,0.04252013562105561,0.13963818485310187,-2.4644883322411193,2.468807308064952
1.596617756776921,0.047368309184702806,0.13493478201654208,-2.46659878265927,2.470740922624034
1.5991047003233025,0.04742739314320055,0.13980446149830472,-2.468640245326151,2.4730506072296925
1.601591643869684,0.047485796113441836,0.1494588330851605,-2.4801897922565193,2.4851427019857715
1.6040785874160657,0.042755120068445174,0.14953269993785723,-2.4677288658104217,2.4726248772906825
1.6065655309624471,0.05238898357942179,0.1543912851533351,-2.445622941773509,2.451051376014117
1.6090524745088286,0.0572337786515934,0.15924619856134203,-2.4473911094296223,2.4532342529179996
1.61153941805521,0.052501107247510115,0.1688858566460385,-2.4538800217505123,2.4602451016074753
1.6140263616015915,0.04776778128693093,0.18809867590510354,-2.450724735234047,2.4583967541254035
1.616513305147973,0.04303380604514162,0.1737890396463424,-2.4570791298205332,2.4635933895356104
1.6190002486943547,0.03829918679346078,0.16905259095616465,-2.4681550690434193,2.4742342352862954
1.6214871922407361,0.038352332119433896,0.1691009397305745,-2.464799206664397,2.4708907621281444
1.6239741357871176,0.03840484396577759,0.1643572925577157,-2.461377019870998,2.467157288379882
1.626461079333499,0.03366832427088662,0.16918687263947962,-2.4626771793882973,2.4687115351560696
1.6289480228798805,0.03850798824996593,0.1692244832678056,-2.468699952793738,2.474792768661675
1.631434966426262,0.03855863119178826,0.15968173438691613,-2.460291994550701,2.46577000606027
1.6339219099726436,0.02424345170076403,0.15971225255398913,-2.466183992487416,2.4714690435786175
1.636408853519025,0.024292874939011666,0.15016243777483185,-2.4720110047055606,2.476686760346709
1.6388957970654066,0.024341696180928962,0.14539751330830963,-2.472984896098268,2.4773750728098007
1.641382740611788,0.019601517336514496,0.13584068582232955,-2.4834711449853053,2.487260709974167
1.6438696841581695,0.01964915027156322,0.12628037195608233,-2.489104809904532,2.4923835130528444
1.646356627704551,0.024484600205988638,0.11671658503852589,-2.4994629661299115,2.5023064112784508
1.6488435712509326,0.019742662393394728,0.10236093508813582,-2.50018067246301,2.5023530783460766
1.651330514797314,0.005423342042835455,0.10236704873450897,-2.4960466011104128,2.498150728082749
1.6538174583436955,0.005468660959325411,0.1023697293743604,-2.496637827717416,2.498741665425701
1.656304401890077,0.010301817699974625,0.10236899037438718,-2.497166218081416,2.4992848293792442
1.6587913454364585,0.015134414136374064,0.09278803846945083,-2.5119972513887454,2.5137559272051195
1.6612782889828401,0.01517805213416945,0.08799209700450827,-2.521977583685908,2.5235577891175884
1.6637652325292216,0.015221140193572014,0.09276958269216706,-2.5223190810773755,2.52407040815994
1.666252176075603,0.02962889344924524,0.09754370229211817,-2.5273872230405754,2.5294423931713945
1.6687391196219845,0.029670897146754083,0.09273766257181659,-2.5323938758581175,2.5342650569110714
1.671226063168366,0.029712366408077173,0.09750509022809961,-2.5421277125343913,2.544170468772345
1.6737130067147474,0.03933011302836964,0.1070575953635009,-2.542223792868418,2.544780933507268
1.6761999502611291,0.04415893219460121,0.10224157812661616,-2.532682386690766,2.5351298632306833
1.6786868938075106,0.04898723236825464,0.10221066523528988,-2.53265737717863,2.5351923317965994
1.681173837353892,0.04902661536334385,0.09738806349198947,-2.5182070176865317,2.5205663307777484
1.6836607809002735,0.03470027966661027,0.10213899630698986,-2.5036967881864296,2.506019571182672
1.686147724446655,0.03473865032022705,0.1116750738153085,-2.4939153620593704,2.4966561495435142
1.6886346679930364,0.04914173243731301,0.10205429287645895,-2.474497799449674,2.477088885777564
1.691121611539418,0.04917911120182239,0.1020070868788836,-2.4598095804629025,2.462414912822207
1.6936085550857995,0.04442759835280996,0.11153346929439456,-2.4594277819184924,2.4623562984955605
1.696095498632181,0.0444640056218214,0.12105664695917806,-2.4589874640633678,2.4623669726484168
1.6985824421785625,0.04928833809215871,0.12578823003447903,-2.4632773004496062,2.466979342839618
1.701069385724944,0.05890060083939608,0.14009344196729767,-2.477085964648081,2.4817434052532508
1.7035563292713254,0.06372399229064724,0.14960708628701402,-2.486048516962102,2.4913611251984755
1.706043272817707,0.06375851750570632,0.14954077316764547,-2.485376824344188,2.49068776653785
1.7085302163640885,0.05900418153631737,0.14947132274791342,-2.4750711570706763,2.4802823231087943
1.71101715991047,0.05903779606668713,0.16855236181067879,-2.4647085920569776,2.471170533127137
1.7135041034568514,0.06385936613213189,0.1684766772983406,-2.459077802891594,2.465669493283809
1.715991047003233,0.05431528347834391,0.16360949267976288,-2.4533906565107646,2.4594397592884
1.7184779905496144,0.03998235976441089,0.17789283806722844,-2.4524358264746837,2.4592043294335078
1.720964934095996,0.030437406640834164,0.17780790373181965,-2.465790389642196,2.472380296799895
1.7234518776423775,0.030468832429110915,0.17293150982974392,-2.4790894062439257,2.485300372388104
1.725938821188759,0.02571143216069105,0.18241728315990002,-2.482756339799181,2.48958152823968
1.7284257647351404,0.025742017459684186,0.18232322064020812,-2.4815798637516036,2.488401701579739
1.7309127082815219,0.016195383339630887,0.17264933579174135,-2.4755602481829744,2.481626205933238
1.7333996518279033,0.011436744726831427,0.18691446537910883,-2.469486166448906,2.476576213804134
1.735886595374285,0.006677703257127465,0.1772345897227332,-2.458569485212994,2.464958540246765
1.7383735389206665,0.006706667197660332,0.15797493230797377,-2.4523872810434586,2.4574792847237465
1.740860482467048,0.0019468348452140738,0.15307752326145474,-2.4461514204864088,2.4509372269075866
1.7433474260134294,0.006763421088609722,0.14338876282740243,-2.4446505766625073,2.4488614748789534
1.7458343695598109,-0.0027855857554595076,0.13369706785177726,-2.438308212660555,2.4419724825165567
1.7483213131061923,-0.002758164176905331,0.13836766182110605,-2.4367014047748405,2.4406283931273003
1.750808256652574,0.016422497363590915,0.1286701383388067,-2.4541956325393794,2.4576211884045818
1.7532952001989555,0.006872370551669227,0.11896972089059021,-2.4668491488402893,2.4697258445219874
1.755782143745337,0.0021102835082401628,0.10926642300046474,-2.4650854164344373,2.467506781107105
1.7582690872917184,-0.002652162218411247,0.09956025819146186,-2.4728467212258867,2.474851548205104
1.7607560308380998,0.0021618448706984816,0.0898512399853888,-2.480556525776784,2.4821842390269793
1.7632429743844813,0.011763906303282057,0.08013938190260772,-2.4690614859041506,2.4703897124135
1.765729917930863,0.016577220276305593,0.07521310078211618,-2.481457500479852,2.4826524407272688
1.7682168614772444,0.01660179161682762,0.07507241014069654,-2.4938028217774413,2.4949877755520866
1.770703805023626,0.011837625141275065,0.06535211353206183,-2.5060977185533915,2.5069776231651146
1.7731907485700074,0.016649935616282474,0.05084062778881693,-2.5039772494799255,2.5045486730552953
1.7756776921163888,0.031038727836719016,0.045903176381609345,-2.5018068930231454,2.5024204751012102
1.7781646356627703,0.03585039330527806,0.04096296617671591,-2.4995869175555665,2.5001795882922244
1.780651579209152,0.03587334011519516,0.04080841399831847,-2.4973175913124237,2.4979086002219066
1.7831385227555334,0.0358959763485841,0.04543953334703499,-2.490210779066736,2.490883978929764
1.7856254663019149,0.04549511339665724,0.05485633772000398,-2.4830551520856385,2.4840776782198377
1.7881124098482963,0.050305546037752724,0.05469363064972921,-2.4854277848054807,2.486538420109145
1.7905993533946778,0.05511568232005204,0.06889344222729621,-2.4781753315850725,2.4797453536394243
1.7930862969410595,0.055137123639610874,0.08787897929746213,-2.456509656583929,2.458699353376843
1.795573240487441,0.06473508466213501,0.09728504538030824,-2.4443730437186737,2.4471646017584012
1.7980601840338224,0.07433276344008188,0.10668846059290393,-2.4417657601350893,2.4452255140809434
1.8005471275802039,0.07914176133443285,0.12087764172720483,-2.4343228628442297,2.4386066971167724
1.8030340711265853,0.07916208301460637,0.13985260224984586,-2.422044618639802,2.4273700831198544
1.8055210146729668,0.08397053977867064,0.15882495230190585,-2.414508100773382,2.421182724563495
1.8080079582193485,0.09356713627200997,0.16342949537841012,-2.41171357566871,2.419054852626236
1.81049490176573,0.09358666716691277,0.1728198582108944,-2.3945076962766265,2.402559525837277
1.8129818453121114,0.08881754040467049,0.18699605424378074,-2.386832745234699,2.3957935289817627
1.8154687888584928,0.08883656723454647,0.18680448363415358,-2.383900585058141,2.3928580923707927
1.8179557324048743,0.08885534893243885,0.19618717641560401,-2.3857114813776086,2.395413107086286
1.8204426759512558,0.07450868012110007,0.2007789360527168,-2.3731120863332684,2.3827556943331154
1.8229296194976374,0.06495017865285346,0.20536817928460493,-2.3413142618126184,2.351201200947481
1.825416563044019,0.06017984908608465,0.20516651620282023,-2.3142602894071285,2.3241160902015183
1.8279035065904004,0.05540929264606553,0.2049623635324016,-2.3158924504859772,2.325604782071595
1.8303904501367818,0.05542691718582027,0.20475573467072428,-2.317480589668371,2.3271685236610886
1.8328773936831633,0.04586751726415983,0.19975823968729456,-2.319024971264543,2.3280644322723245
1.8353643372295447,0.03630790402839479,0.19475829528447663,-2.3444678759511905,2.3528235545497536
1.8378512807759264,0.03632488861270311,0.19933272147698133,-2.37465595428284,2.38328427439848
1.8403382243223079,0.031553265536467534,0.18953951502915478,-2.3904358565704396,2.3981460382347763
1.8428251678686893,0.02678144258700399,0.1845323025797736,-2.3965962494787068,2.403839220783669
1.8453121114150708,0.017221020897607908,0.18431109747778773,-2.3883489927797186,2.3955120654102577
1.8477990549614522,0.017237214869330497,0.17929910642272961,-2.3752711559503012,2.3820911727786407
1.8502859985078337,0.012464818967781621,0.16470793942546624,-2.3717282115272393,2.37747319361878
1.8527729420542154,0.007692240926161387,0.15490281976891307,-2.368143615181264,2.3732168540330685
1.8552598856005968,0.017284695104552328,0.14030695412504945,-2.3597292256347906,2.3639599870504733
1.8577468291469783,0.012511765966403021,0.1352855657578207,-2.346485304657797,2.350415285341083
1.8602337726933598,0.012527071164375236,0.12068505467920376,-2.352354130345004,2.3554812171796407
1.8627207162397412,0.022119018376201338,0.11565904745368005,-2.343817140666486,2.3467733284477736
1.8652076597861227,0.01734559534366875,0.09147713743245234,-2.3352398065104865,2.337095182114284
1.8676946033325044,0.017360419677215466,0.08644656444067778,-2.331410791835646,2.333077511134741
1.8701815468788858,0.026951899012104263,0.08620213176953717,-2.322753550346645,2.324508822962373
1.8726684904252673,0.03175482768803406,0.06680183605881407,-2.328421955373015,2.3295964578968222
1.8751554339716487,0.03176920999124,0.05697611046075357,-2.3340510567010764,2.3349625040145967
1.8776423775180302,0.03178345351378675,0.06630177483521305,-2.3396411137731246,2.340796158259217
1.8801293210644117,0.04137436915349213,0.06604842246819764,-2.354769192363136,2.356058611714896
1.8826162646107933,0.046176751191977505,0.06579287319667193,-2.3554935346900567,2.356864609280893
1.8851032081571748,0.0414022005367648,0.0607467368849437,-2.351391205898244,2.3525400977299094
1.8875901517035563,0.04620433468214302,0.06527523666664514,-2.3472508674910824,2.3486128527288073
1.8900770952499377,0.051006351185655774,0.06501317574143473,-2.3334959706864637,2.334958630488177
1.8925640387963192,0.0558082542305145,0.06474897057792228,-2.3149151763348215,2.316492880208449
1.8950509823427006,0.05103324134428189,0.06448263431192869,-2.3010855482746475,2.3025544732597196
1.8975379258890823,0.05583492996128636,0.06421418006660806,-2.2872189400474436,2.2888013194764545
1.9000248694354638,0.055848114258490233,0.059155217631953416,-2.2685272048548466,2.26998546929399
1.9025118129818452,0.051072798358535065,0.058882566745853016,-2.259375808836076,2.260719936867993
1.9049987565282267,0.055874196329664505,0.04903103053142788,-2.259765007821999,2.2609873635974216
1.9074857000746082,0.05588710230284433,0.04875423534057166,-2.2505414440110556,2.2517631169549825
1.9099726436209896,0.04632311703418479,0.05326379091003952,-2.2460705824889633,2.247179548704594
1.9124595871673713,0.04633585786579986,0.06255971028313789,-2.2463526780218928,2.2477012886793917
1.9149465307137528,0.041560118881992514,0.08143040980954108,-2.2465995816934132,2.2484589913067694
1.9174334742601342,0.03678430743261518,0.09551069254354605,-2.232446337580493,2.2347912716493235
1.9199204178065157,0.04158523417205828,0.10958897480640717,-2.2326236192732765,2.2356983920996965
1.9224073613528971,0.03680928981699649,0.10930005962364575,-2.2375548734261432,2.240525214864508
1.9248943048992788,0.03203328499006264,0.11858597656862013,-2.2376635463165773,2.2410325548059467
1.9273812484456603,0.03204562697758706,0.12786993195767904,-2.232949890482198,2.2368376908286636
1.9298681919920417,0.03205791640922162,0.12757513209217386,-2.228202561396861,2.2320819382245736
1.9323551355384232,0.027281753898492633,0.14164360650044694,-2.2090566008655443,2.213761114299794
1.9348420790848047,0.017717143363041532,0.15571015813299605,-2.204242680184846,2.2098066303781474
1.9373290226311861,0.012940895344868308,0.15062118660447865,-2.2089726470144733,2.2141396441698515
1.9398159661775678,0.008164610408709416,0.1311651081154217,-2.213669945295612,2.217567490101515
1.9423029097239493,-0.0014001108971071208,0.13086075877234782,-2.2087580185677442,2.2126315741858846
1.9447898532703307,-0.0013880547594660175,0.1305545381423201,-2.1894487132854916,2.1933381139790247
1.9472767968167122,-0.006164427303663511,0.13024645905743792,-2.1940495053776754,2.19792069290705
1.9497637403630936,-0.0061524180700340825,0.129936534333428,-2.189041820556369,2.1929034286414515
1.952250683909475,-0.010928829896828862,0.13441318008979009,-2.1935795206416326,2.197720968567925
1.9547376274558568,-0.010916852357781615,0.13409960246837827,-2.1837208371518653,2.187861644542182
1.9572245710022382,-0.010904885004360931,0.1337842175551116,-2.183408034386357,2.1875300633378014
1.9597115145486197,-0.006104520764272259,0.12867863477824582,-2.1878529562969504,2.1916423099126967
1.9621984580950012,-0.0060925625430803265,0.11878286686914796,-2.1731138331253046,2.176366288220011
1.9646854016413826,0.003496203338215209,0.11846213650275939,-2.167921331204269,2.1711583082569246
1.967172345187764,0.0035081672993878543,0.12292805305524324,-2.153122083228025,2.1566312431080896
1.9696592887341458,0.008308542985279721,0.11781541924445227,-2.1287163347331894,2.131990323303131
1.9721462322805272,0.017897334062614734,0.11270105437195621,-2.118646347415863,2.1217172732580742
1.9746331758269087,0.022697737540264384,0.10279656776037749,-2.1229123659252664,2.1255209326259696
1.9771201193732901,0.03228656369104832,0.11204398863604714,-2.127149424501148,2.1303429188137804
1.9796070629196716,0.03229860616886493,0.12128971632416086,-2.131357766892453,2.135050426978068
1.982094006466053,0.03231067521175912,0.11616855345175692,-2.130749233072896,2.1341582431451624
1.9845809500124347,0.04189958104029878,0.11583412586941222,-2.125324065878397,2.128890674649397
1.9870678935588162,0.046700117255952245,0.11549804280735732,-2.119870911003945,2.1235285206854995
1.9895548371051976,0.04671228740353428,0.11516031679719063,-2.1143900103598448,2.1180389638221495
1.992041780651579,0.041936095010206675,0.11003255703110026,-2.1088816053889197,2.1121665240267524
1.9945287241979606,0.051525156866671695,0.10490317932265203,-2.0985575337431257,2.1018095159295873
1.997015667744342,0.06590266982399501,0.09977219614569366,-2.097783245882013,2.101188282785943
1.9995026112907237,0.0659150240747906,0.10421642659515173,-2.0969821751868842,2.1006046979435613
2.001989554837105,-0.005898616768700737,0.11344747978531267,-2.503168843426506,2.5057452749732194
2.0044764983834864,-0.039404972901233015,0.13225377145123884,-2.3969700521603574,2.400939241818928
2.006963441929868,-0.053757654183984815,0.1510585073470594,-2.2811683885950185,2.286796400021322
2.0094503854762498,-0.05374506053523809,0.16507329652707003,-2.1461872841749496,2.1531970610031252
2.011937329022631,-0.05373239853199452,0.16472134470496025,-2.0016037831341933,2.009088847390908
2.0144242725690127,-0.039354454847527975,0.16436787417554388,-1.871360139173163,1.8789769401627932
2.016911216115394,-0.020188032774874465,0.1640128972521171,-1.7602449922135222,1.7679847905864845
2.0193981596617756,-0.0010215323050123404,0.1492912162663158,-1.6826237883171764,1.6892340642413568
2.0218851032081573,0.022933453193421327,0.129779650130458,-1.6432851664020856,1.6485614453154267
2.0243720467545385,0.05167692701308191,0.11984342105618673,-1.6230757482786036,1.628314415279222
2.02685899030092,0.07563208578764069,0.10032892799178805,-1.626784171849616,1.6316288940727337
2.0293459338473014,0.09958733609323367,0.08560139310645054,-1.659199074506251,1.664387816842671
2.031832877393683,0.12833108448747865,0.07566082858700396,-1.7059554798437695,1.7124478174347941
2.0343198209400644,0.1379213175875969,0.07050724659869889,-1.767053620901045,1.7738297722181582
2.036806764486446,0.1379348452343771,0.05577544932414957,-1.852070536837406,1.8580371889976635
2.0392937080328277,0.1331600739296528,0.06498427212725177,-1.9322760397268102,1.937948723422574
2.041780651579209,0.11402020019562176,0.06461490386555546,-1.9933051510786264,1.997608849892989
2.0442675951255906,0.09009203381699171,0.05945575993698782,-2.063888521756658,2.0667093148737314
2.046754538671972,0.07574078788000271,0.07344886899847403,-2.1248727688906133,2.127490467024165
2.0492414822183536,0.0566012555301717,0.07786382316113816,-2.1810465256781626,2.1831698111364686
2.0517284257647352,0.032673439855084974,0.08227744107608181,-2.208468004858771,2.2102416292041176
2.0542153693111165,-0.005619462717221246,0.09626654137176471,-2.2119258385548513,2.2140268156947633
2.056702312857498,-0.015181819254239115,0.10546592605231142,-2.2105738683082574,2.2131403878744957
2.0591892564038794,-0.024744046647158457,0.11466401038019347,-2.194835515194839,2.1979679346800176
2.061676199950261,-0.04388294852497143,0.11428399963391289,-2.155134199743788,2.158608339798785
2.0641631434966428,-0.043868101973264295,0.113902712350058,-2.0866817452553565,2.0902485364744017
2.066650087043024,-0.03906471397957567,0.10873175708099714,-2.018208797720268,2.021513145658894
2.0691370305894057,-0.029472781589679253,0.10355954899630415,-1.959292389293669,1.9622486824526204
2.071623974135787,-0.019880705188883407,0.098386099921707,-1.90035593829273,1.9030049288693536
2.0741109176821686,-0.0007116752208162769,0.09799982497958348,-1.8461880724363233,1.8487874055671722
2.07659786122855,0.01845750457034634,0.08803552598727249,-1.7967890155613198,1.7990391045646108
2.0790848047749315,0.037626837061716434,0.07328161801945221,-1.7665242009014275,1.7684438715371333
2.081571748321313,0.06158472843134388,0.06331491944708212,-1.736240237881642,1.73848543894962
2.0840586918676944,0.08075437487692849,0.04855863533571769,-1.7059373486392833,1.7085378098274144
2.086545635414076,0.08555897257672007,0.03858958400789403,-1.6947693680216318,1.6973664025680275
2.0890325789604574,0.09994054093166893,0.028619373800816028,-1.6931597103804457,1.6963481320572318
2.091519522506839,0.10953387276070292,0.037801629628739786,-1.6963201928118075,1.700273163061052
2.0940064660532207,0.09997376086318949,0.04219434649848042,-1.7138278417944335,1.7172597319704814
2.096493409599602,0.09041382126109754,0.03700913267336059,-1.7408944732654899,1.7436335343249725
2.0989803531459836,0.0808540566755091,0.04618801631371028,-1.7775203058996034,1.779957625680258
2.101467296692365,0.07129446980784476,0.050577395672081416,-1.8141287511456454,1.816233492729228
2.1039542402387466,0.05694666001952542,0.05975408889780054,-1.8459316231853844,1.8477762393491302
2.106441183785128,0.0330222266522372,0.06892970415406063,-1.8729291389313456,1.874488018373537
2.1089281273315095,0.028251592270094217,0.07331584957874249,-1.8951215147042593,1.8967495674864971
2.111415070877891,0.02348114621429731,0.08727774656553722,-1.9172973695511466,1.9194264696937056
2.1139020144242724,0.004345681126531886,0.09166179324042734,-1.9250917086416752,1.927277576262804
2.116388957970654,-0.0004243804885543101,0.09604480762561263,-1.9232931498284689,1.9256898310339996
2.1188759015170353,-0.0051942460290096415,0.10521520439722343,-1.9214787136840599,1.924364223989084
2.121362845063417,-0.00517550963154878,0.0952309782836589,-1.9148602102175332,1.9172337754690074
2.1238497886097987,0.009208637867490488,0.09482256051076732,-1.8794958355521345,1.881908795040559
2.12633673215618,0.014016182369605668,0.08483634907520887,-1.853693028368534,1.8556862619836187
2.1288236757025616,0.014035529678176673,0.07484916186932278,-1.827875193535526,1.829460881316795
2.131310619248943,0.023631892217180206,0.06964941343885256,-1.7924657353111932,1.79397405761255
2.1337975627953245,0.033228465788979755,0.054871905021897316,-1.757041670622094,1.7582122992408795
2.1362845063417057,0.03803684949617325,0.059247067712870916,-1.707237999178508,1.708689147502027
2.1387714498880874,0.04284544906188026,0.05404449273584122,-1.6669969466365089,1.6684230158433537
2.141258393434469,0.047654266868779716,0.04405259453036248,-1.631530318111647,1.632820485893397
2.1437453369808503,0.047674901959085525,0.053213400790440346,-1.6247803380207646,1.6263504262979005
2.146232280527232,0.04769575999545994,0.052796502659743894,-1.6132283903144504,1.614796642159996
2.1487192240736133,0.05250524662036604,0.0523787178174433,-1.6016630848813964,1.6033792341410238
2.151206167619995,0.062103364135732586,0.07111367055623763,-1.6092382409449648,1.6120054894747105
2.1536931111663766,0.057336501541991436,0.0802709519385072,-1.5976468372566437,1.6006893254877241
2.156180054712758,0.038204661100572745,0.07985057292121667,-1.5956194984223284,1.5980729939120988
2.1586669982591395,0.03343826497447544,0.08900615771519416,-1.6223100417754974,1.6250938696953299
2.161153941805521,0.03346050874390638,0.10294931390222439,-1.6394114441723016,1.6429814515573362
2.1636408853519025,0.02390618464843053,0.09773803575526774,-1.6565007150366657,1.6595538099786724
2.166127828898284,0.019140504829142424,0.10689115736336685,-1.678366459835086,1.6818757540160194
2.1686147724446654,0.009586664805209977,0.1256202862253013,-1.7050088800748693,1.7096571707765198
2.171101715991047,0.004821473356669714,0.12519501321043736,-1.7124861600211858,1.7170631573131483
2.1735886595374283,0.009633335922846542,0.12955736568363552,-1.7247405165000451,1.7296264803190105
2.17607560308381,0.009657044641399715,0.12913054773953725,-1.7321953424512753,1.7370286875237868
2.178562546630191,0.009681004910805924,0.1287029734056011,-1.7300624334893797,1.7348700818766576
2.181049490176573,0.01928202542940638,0.11869784672013983,-1.7279187945425232,1.7320982465939814
2.1835364337229546,0.024094898273516407,0.1230571949353565,-1.6970342033274353,1.7016605785559447
2.186023377269336,0.03369643210053641,0.11305060875163697,-1.642197260152523,1.6464287810069025
2.1885103208157175,0.04329822558643959,0.10304330872370882,-1.6352342111584317,1.6390495981374702
2.1909972643620987,0.052900280706999925,0.09303530541681493,-1.6043192022227686,1.60788498045525
2.1934842079084804,0.06250259941748382,0.08781501268786585,-1.5781828482944444,1.5818593976830173
2.195971151454862,0.06731678033230948,0.0825940377244323,-1.5616137470640137,1.5652446514846308
2.1984580950012433,0.07213122868597643,0.07737239100559856,-1.5594004955637324,1.5629841031200817
2.200945038547625,0.07215754305181549,0.0721500829815569,-1.561966480205129,1.565296020175711
2.2034319820940063,0.06739572530289889,0.057350317432918185,-1.5501582800978202,1.5526821748363675
2.205918925640388,0.06742258393235528,0.05691512135343357,-1.5239760869699488,1.5265281685966454
2.208405869186769,0.06744971745179301,0.07084450510616858,-1.5025737051667303,1.5057543450863893
2.210892812733151,0.06268872435222983,0.06561965578279905,-1.4955281317271591,1.4982790822050776
2.2133797562795325,0.057928009744709796,0.06518260028947331,-1.4932627497419837,1.4958068275885328
2.2158666998259138,0.057955978719670065,0.07911015554204415,-1.4909893449538671,1.4942110088421925
2.2183536433722955,0.05319582638599718,0.07867191186443057,-1.4934965090763441,1.4965129094947762
2.2208405869186767,0.038859151152270455,0.08302149275416859,-1.5007844298315298,1.503581227174693
2.2233275304650584,0.03888797132831934,0.0921589083979617,-1.5224301009097339,1.5257126042827196
2.22581447401144,0.04370548196115598,0.08693055567160535,-1.534491692085325,1.5375733620682024
2.2283014175578213,0.04373487807715726,0.08649005798366716,-1.5321809857388793,1.535243251980026
2.230788361104203,0.038976161322686,0.08126061879103919,-1.5298633768559018,1.5325157033984016
2.233275304650584,0.03421773664377581,0.08081905480199003,-1.5323274531037079,1.5348387526562541
2.235762248196966,0.029459605645503206,0.06601176277297105,-1.5204197848692473,1.5221372288368193
2.238249191743347,0.029490173232610384,0.06078076931323162,-1.494140555140694,1.4956670654767186
2.240736135289729,0.03909784428919072,0.06033768108006754,-1.4822203661468603,1.4839631029802305
2.2432230788361105,0.04391741039743746,0.050317298059999516,-1.465505786231029,1.4670268500939927
2.2457100223824917,0.04394887307983064,0.03550803349058418,-1.4344201896935296,1.4355325159980796
2.2481969659288734,0.04876904047882491,0.039851913860334154,-1.412905773392131,1.414308777754127
2.2506839094752547,0.048801107434975455,0.04419533574461987,-1.3961743135769034,1.3977258277932754
2.2531708530216363,0.04883347872912713,0.038961502329010855,-1.3794375858109298,1.3808514621263244
2.255657796568018,0.04407775248085388,0.03851563337016284,-1.3626957682895338,1.363952366907243
2.2581447401143993,0.044110736750023305,0.03328093199263593,-1.3555258451595407,1.356651648149375
2.260631683660781,0.044144029614924696,0.042411021212250155,-1.3627163965572713,1.3640906742284193
2.263118627207162,0.034600825812897695,0.04675229745167142,-1.36511398532625,1.366352512127548
2.265605570753544,0.029846336662211703,0.05588157702470653,-1.3627187868989985,1.3641906196094447
2.268092514299925,0.025092160179258194,0.06501046625344165,-1.3603193793351025,1.3621030765032396
2.2705794578463068,0.02512670100043113,0.06456216810880466,-1.3579159366795892,1.3596820642129839
2.2730664013926885,0.025161557100882748,0.06411349881206752,-1.3459318256416495,1.3476928893337419
2.2755533449390697,0.010831519794530231,0.06366446791291258,-1.3435208321561998,1.3450720102408573
2.2780402884854514,0.010867010257501253,0.06321508493000172,-1.3363179182188727,1.3378564263131771
2.2805272320318326,0.025268029723453544,0.06276535935092031,-1.3243232550882453,1.3260505448994322
2.2830141755782143,0.02051575616327117,0.06231530063212043,-1.3075370133239925,1.3091818567930311
2.285501119124596,0.01576380405070088,0.057076514878553475,-1.3051129760672477,1.306455550858099
2.287988062670977,0.025377384518602386,0.05662581812486511,-1.3026861025163274,1.3041631710075603
2.290475006217359,0.02541448211678843,0.05617481641346833,-1.309833367769638,1.3112837058482436
2.29296194976374,0.030240307937018818,0.06530032571636424,-1.3026129229810817,1.3045991859111772
2.295448893310122,0.03027805644895698,0.06484874205227564,-1.2906017418436395,1.2925846108080992
2.2979358368565035,0.030316132062683798,0.06918528465065865,-1.2833767973463726,1.2855977891403154
2.3004227804028847,0.049508149128693724,0.06394475278759426,-1.2713614484924154,1.2739308933187654
2.3029097239492664,0.04954688213325453,0.06349236562947835,-1.2545558602200853,1.257138250326873
2.3053966674956476,0.044797542065574514,0.06303972902985899,-1.2425370034021537,1.2449413769470747
2.3078836110420293,0.04962533989439244,0.06737525545125589,-1.2448818482044874,1.2476910336280278
2.3103705545884106,0.05445346996643574,0.06692214736355284,-1.2472253474837949,1.2502059116822346
2.3128574981347922,0.049705126607988426,0.05689201052519932,-1.2447792600291017,1.2470696478831138
2.315344441681174,0.044957117406165925,0.051650063944108204,-1.2231785372798765,1.2250937129758852
2.317831385227555,0.0402094432870469,0.046407913315099414,-1.2159421631690908,1.217491617186765
2.320318328773937,0.04503891179694974,0.04116556762142842,-1.2230702976772925,1.2245913851541945
2.322805272320318,0.045080313860258014,0.03592303581442291,-1.2206210834726097,1.22198139454646
2.3252922158666998,0.035545247021629645,0.040257133454066896,-1.2133830824335963,1.2145709555706585
2.3277791594130814,0.03558732540694509,0.044591062787083136,-1.220510065687705,1.2218427235348694
2.3302661029594627,0.03562974319990664,0.04413642934844919,-1.2084833671263429,1.2098138499856683
2.3327530465058444,0.026095694563916805,0.043681645281674175,-1.1964567564512052,1.1975382421730947
2.3352399900522256,0.026138793563982188,0.048015122698130686,-1.2035840026503077,1.2048249416294605
2.3377269335986073,0.030970637643294996,0.047560063716075796,-1.1963464374740287,1.1976919213693935
2.3402138771449885,0.040591227545135,0.0375280737418624,-1.1795326185205433,1.1808273380246264
2.34270082069137,0.0502121606722582,0.037072774751151005,-1.162719505993154,1.1643935337007376
2.345187764237752,0.055045034407240845,0.0366173687654352,-1.155484059379516,1.1573738371798297
2.347674707784133,0.055089849432812255,0.03137346109419159,-1.153038027490247,1.1547795800109033
2.350161651330515,0.050346606411567296,0.04049467361609249,-1.141016351778811,1.1428442214033645
2.352648594876896,0.040815305985991146,0.03046219165396913,-1.1242075862629761,1.1253606227935649
2.3551355384232777,0.0360727554191097,0.02521804034196773,-1.1026118809228596,1.103489987808889
2.3576224819696594,0.04090735863357886,0.024762228180203127,-1.0953829983021226,1.0964262368733122
2.3601094255160406,0.040953906250773664,0.02909476363628194,-1.0929442803044598,1.094098225735917
2.3625963690624223,0.03621239883300298,0.03342725182496409,-1.0857190681151394,1.0868369766724983
2.3650833126088036,0.036259643563224864,0.037759701148747826,-1.0928611221225282,1.094114248618071
2.3675702561551852,0.03151883432320002,0.04688052329784842,-1.1047937820740366,1.1062370999434197
2.3700571997015665,0.0315667782560215,0.04642451664859415,-1.0927867737164405,1.094227869342171
2.372544143247948,0.03161507252395657,0.05075689946652906,-1.080782258600296,1.082435248021473
2.37503108679433,0.036452120910039354,0.059877680023564306,-1.0592035743140524,1.0615207513390914
2.377518030340711,0.0365011172165397,0.054633253277641014,-1.0472044776478437,1.0492637141955534
2.3800049738870928,0.03655046518686944,0.049388837396133756,-1.0447851113901514,1.0465902363137396
2.382491917433474,0.041388568544676985,0.06808645715426342,-1.051945617608819,1.0549589383764642
2.3849788609798557,0.04622702435325443,0.05805368416944612,-1.054320927689922,1.056929414195262
2.3874658045262374,0.046277429656197744,0.03844413983094919,-1.0471227789391442,1.0488496873032673
2.3899527480726186,0.03196297815713134,0.0427766554561253,-1.0351397145815966,1.0365161373219205
2.3924396916190003,0.02722568678222681,0.042320819165384105,-1.008795067160106,1.0100493934863561
2.3949266351653815,0.032065555836508386,0.032288235647786934,-0.9728773784569391,0.9739410267288249
2.397413578711763,0.03211737564450168,0.03183252616102683,-0.9561172061343335,0.9571859523656864
2.3999005222581444,0.0273811464721474,0.031376892007966894,-0.9489378805702842,0.9498512187260865
2.402387465804526,0.03701048184715061,0.02134453445849216,-0.9561279413819221,0.9570820263744588
2.404874409350908,0.041851768715268745,0.02567747799167508,-0.9633223141832445,0.9645728507603617
2.407361352897289,0.03232820064347419,0.025222117170755176,-0.9753095371475471,0.976171071586524
2.4098482964436707,0.03717019774186803,0.02955526644780626,-0.9920897444058294,0.9932256532783446
2.412335239990052,0.04201255021840711,0.038676933601216934,-0.9897210527655247,0.9913670974245341
2.4148221835364336,0.04206685490238127,0.03822191641535877,-0.9777804015542237,0.9794309821724958
2.4173091270828153,0.046909918564765674,0.037767029243064965,-0.961056326057184,0.9629414057003323
2.4197960706291965,0.04696493467607454,0.027735473122808774,-0.9443373608376664,0.9459112075836309
2.4222830141755782,0.04223190332827742,0.02728086898179294,-0.9372004430572609,0.9385480541441961
2.4247699577219595,0.027922421273903764,0.022038014471887024,-0.9157036859134582,0.9163943343818499
2.427256901268341,0.01840169852764828,0.03594893377428887,-0.8942124284443835,0.8951239107143839
2.429743844814723,0.042400155046102284,0.04028321451357586,-0.8870920089663983,0.889017852965575
2.432230788361104,0.04724535432154342,0.03982926752331073,-0.8751889418319809,0.877367755255112
2.4347177319074857,0.037725699671051105,0.025010293642905523,-0.8632917572735952,0.8644775308707027
2.437204675453867,0.042571610994355136,0.024556720241045493,-0.8466121781616351,0.8480374725112327
2.4396916190002487,0.052206281609823324,0.02410334477036047,-0.8538807498873613,0.8558147007950059
2.44217856254663,0.047476098176381876,0.018861771290850093,-0.8515787739568133,0.8531096966791967
2.4446655060930116,0.0427462705763757,0.018408813790183665,-0.8349179710769175,0.8362141750177084
2.4471524496393933,0.0475936053531113,0.02274447958212722,-0.8278404811556612,0.8295193336276172
2.4496393931857745,0.04765289242966331,0.0222919693065311,-0.8351348300991805,0.8367902452211448
2.452126336732156,0.38768917073391446,1.8222793419683816,-10.385723747194772,10.551505231307734
2.4546132802785374,0.8761663073002435,1.0844131965782755,-7.390702836985531,7.521044329319381
2.457100223824919,1.2784525392614017,0.2890864602390586,-4.036558670093897,4.244033196588793
2.459587167371301,1.556240639864935,-0.4631443901760348,-0.6010187588012901,1.7313610841617637
2.462074110917682,1.7143190122223766,-1.1100301043885774,2.642977788645874,3.340117976897142
2.4645610544640637,1.733534042825558,-1.6132634487557913,5.456010687966046,5.9477568763296205
2.467047998010445,1.6282509413900763,-1.9249603830275235,7.632178478838348,8.037836894165395
2.4695349415568266,1.4128349176132138,-2.021178883588099,9.046982558103377,9.377054974271841
2.472021885103208,1.1112279878148879,-1.9162841534181414,9.638173566485555,9.889457128439634
2.4745088286495895,0.7330069583355168,-1.63421820217199,9.391386178630157,9.56065388398953
2.4769957721959712,0.33084426538072453,-1.2180766528189806,8.349715909744008,8.444579588914431
2.4794827157423525,-0.05695286482334194,-0.7205319350019861,6.656814745476543,6.695938504329564
2.481969659288734,-0.43038443263074666,-0.19425647839755733,4.4802766887962235,4.5050910698254665
2.4844566028351154,-0.7511432118510688,0.3224424972453801,1.9876957433875972,2.1492137299535727
2.486943546381497,-0.9904987829523997,0.7721041588632636,-0.5719312299035746,1.37997753710093
2.4894304899278787,-1.1484511463425449,1.106844479999805,-3.0166450160008536,3.412358699053242
2.49191743347426,-1.2010582858454817,1.3218750640479864,-5.154909592470629,5.455546498518335
2.4944043770206417,-1.1626854118654584,1.4028307077270012,-6.85264977601078,7.090739052748111
2.496891320567023,-1.0429093315040285,1.3449230143631197,-7.980578785923889,8.160031589806511
2.4993782641134046,-0.8465184485600392,1.172094007171133,-8.490812697244634,8.613030715438653
2.501865207659786,-0.5974547801311237,0.8987089026918129,-8.378563214177396,8.447777899545283
2.5043521512061675,-0.319660343332392,0.5726517406747256,-7.677349266776462,7.705310150491689
2.506839094752549,-0.022711945335432415,0.20349933427354516,-6.454208607626249,6.457455889300945
2.5093260382989304,0.264659993389563,-0.1560758735086285,-4.852793441724643,4.86251054275856
2.511812981845312,0.5089366490347971,-0.46297824634270235,-3.0119675700382436,3.089549160036042
2.5142999253916933,0.6957528110564927,-0.7076309711751569,-1.061017986182625,1.4527810339009595
2.516786868938075,0.8490504954562059,-0.8660920250249118,0.8228842837333339,1.4656536712544008
2.5192738124844567,0.9400992816949503,-0.9144193849442539,2.48651023091179,2.8111710370296206
2.521760756030838,0.9353803458963905,-0.8669782545813722,3.8245148804657028,4.031563190167035
2.5242476995772196,0.8636241073312865,-0.7524990475787288,4.736341661537615,4.8728876192856685
2.526734643123601,0.743984178612815,-0.5805585643308437,5.18368324714122,5.26888344066716
2.5292215866699825,0.5908257690170718,-0.3463683953047645,5.16175113423839,5.206987701772678
2.5317085302163638,0.3993604745221068,-0.09781256752428469,4.6896988370993675,4.70768852725702
2.5341954737627455,0.18874190769065863,0.1363785052349069,3.8297755005819045,3.8368480539716705
2.536682417309127,-0.02187631893082309,0.34183961912431426,2.6729606901716956,2.6948194280389486
2.5391693608555084,-0.20855218949251586,0.49941716694220606,1.338964391978731,1.44420814475119
2.54165630440189,-0.36649730144217263,0.5995343480939721,-0.08602223042494828,0.7079276309313981
2.5441432479482713,-0.4861348489236905,0.6421911685923551,-1.4727123828818804,1.6785762869317857
2.546630191494653,-0.5674648327380497,0.6273876344168348,-2.730126497096247,2.858185135774203
2.5491171350410347,-0.5865452371008368,0.5551237515135394,-3.781650214030714,3.8669207434260517
2.551604078587416,-0.5625296761267857,0.4301879291157591,-4.517150350705888,4.572324199109524
2.5540910221337976,-0.4954181506654959,0.2765221897046315,-4.898319773248051,4.931068876663629
2.556577965680179,-0.3899990649029855,0.11806855572813602,-4.915581767006061,4.932441947210262
2.5590649092265605,-0.2558492263616011,-0.03559616035994484,-4.616820456474667,4.624041202301851
2.561551852772942,-0.10733384589992223,-0.19883716274063667,-4.011612738888811,4.017971321273635
2.5640387963193234,0.04118186560749082,-0.31898200914371344,-3.1478427373502056,3.1642312442836267
2.566525739865705,0.18969790723137253,-0.3864538872150831,-2.1260670107875868,2.1692147974119287
2.5690126834120863,0.3190606647453732,-0.42519480787593666,-1.0468421174356468,1.1740820888121761
2.571499626958468,0.41969333054814006,-0.4208395555181541,0.022794208407052707,0.594783993675193
2.5739865705048492,0.4868075003430564,-0.37817652784800515,0.9966506198537655,1.171883734275855
2.576473514051231,0.5108263664976708,-0.31157092924556906,1.7981125773498352,1.8950537885463377
2.5789604575976126,0.5013267346453769,-0.20665754420209437,2.3840843652747736,2.444973230158862
2.581447401143994,0.463097007083885,-0.09695519044510714,2.721047075338376,2.7618755100713406
2.5839343446903755,0.39134877945500596,0.003170927546044311,2.7994238165414362,2.8266477719344243
2.5864212882367568,0.3004472606665995,0.09850921854019523,2.6240029085340435,2.6429838982813694
2.5889082317831384,0.19518085297077487,0.1842712846325063,2.2139378816146547,2.230150760678501
2.59139517532952,0.08991476524521946,0.23651511460385688,1.6123242833697535,1.632058105334785
2.5938821188759014,-0.015351003608285785,0.2648175204442995,0.8814112753525745,0.9204617367195121
2.596369062422283,-0.11103964806222588,0.2643901041499568,0.08344801980086203,0.2986561612002891
2.5988560059686643,-0.18757436260389748,0.2448096776449158,-0.7241047236844409,0.7870473750905892
2.601342949515046,-0.2593203583368926,0.19171103621874863,-1.450267371577688,1.4856902835782753
2.603829893061427,-0.2927588131763308,0.11945939504997005,-2.0710979861561256,2.0950954961571746
2.606316836607809,-0.2926781316144048,0.051996775924811445,-2.543501015735278,2.5608126777408504
2.6088037801541906,-0.26865512147811166,-0.020253622645570957,-2.8148041013106218,2.827668281867904
2.611290723700572,-0.22547818728854652,-0.08771498890163487,-2.889795723043001,2.8999058007353553
2.6137776672469535,-0.1727241369014343,-0.14559891443700046,-2.7588991504549556,2.76813243789647
2.6162646107933347,-0.10560456822585873,-0.1843285875577676,-2.460421685596115,2.4695757174002257
2.6187515543397164,-0.028907885825621316,-0.19432719660286812,-2.023093823200014,2.0326109668779435
2.621238497886098,0.06215431236198421,-0.19474834986585332,-1.4756460573262231,1.4897386901141725
2.6237254414324793,0.13885160514342088,-0.17601523575116973,-0.8611740913227894,0.8898774899013214
2.626212384978861,0.20118399123324693,-0.14770465597719884,-0.24192724114608133,0.3475923671981824
2.6286993285252422,0.24436306601174018,-0.09545139569349415,0.3246335812374639,0.41738619890642664
2.631186272071624,0.2827540381267482,-0.03840906332444893,0.8145662877737188,0.8631010018531441
2.633673215618005,0.3019916962905668,0.004268732672894515,1.194351984436235,1.2319471861382123
2.636160159164387,0.287710829201913,0.04694720705106281,1.4256833745455317,1.4551819975334641
2.6386471027107685,0.2638534521085117,0.09920317120968258,1.5181371952913345,1.5440856378759165
2.6411340462571498,0.22084275700249356,0.11794099999237773,1.4621365712470276,1.483416649420411
2.6436209898035314,0.1730439524642317,0.1366795213352363,1.2528930309700197,1.27215032448611
2.6461079333499127,0.1300338437405527,0.15063033657934044,0.9430789435239788,0.9638444856584759
2.6485948768962944,0.06308200950263676,0.135851433752042,0.5662130653526081,0.5856894973886531
2.651081820442676,0.005707271572668038,0.11628483405137002,0.11750692699718002,0.16541648488430483
2.6535687639890573,-0.03251356484170331,0.09193054204137097,-0.3551555038187608,0.3682985044111553
2.656055707535439,-0.07552251778789776,0.06278856225370255,-0.7895250487531484,0.7956103674862287
2.65854265108182,-0.1041659754433173,0.02885889918766349,-1.152082948729463,1.157142388496574
2.661029594628202,-0.12802074591994372,0.00450676727116095,-1.4332524606176804,1.4389656834698215
2.663516538174583,-0.13272162074081273,-0.02942144234237931,-1.6043032273527462,1.6100526373929553
2.666003481720965,-0.11826860140242379,-0.0489837086489846,-1.6556585044983567,1.6605998763424106
2.6684904252673465,-0.09423849605433732,-0.06854523723941597,-1.6064719668888827,1.6106928708126285
2.6709773688137277,-0.06063130621784074,-0.08331762045537916,-1.4567436754275853,1.460383551355704
2.6734643123601094,-0.022235436746764647,-0.08851245067075819,-1.2304157069706037,1.233795639695259
2.6759512559064906,0.02573751413349279,-0.06976451365092418,-0.9322765244456779,0.935237416398229
2.6784381994528723,0.06413393158389469,-0.04143901511525794,-0.5862682034160205,0.5912197218384876
2.680925142999254,0.0833770073940901,-0.01790116081516624,-0.24985164204206534,0.26400382563826785
2.6834120865456352,0.11698556322460008,-0.003939349893493205,0.091338311963165,0.14847163942262076
2.685899030092017,0.1458059842007549,0.014811631756192156,0.3942059716851656,0.4205676135608606
2.688385973638398,0.15547305875646994,0.033563384927102646,0.6300208608106033,0.6497881638375627
2.69087291718478,0.16035199523593197,0.05231591370084132,0.7892061169465396,0.8070291272490315
2.6933598607311615,0.16044279201087164,0.05670401216618792,0.8573964750174135,0.874120100373097
2.6958468042775428,0.1509570441212909,0.06588129762225181,0.8441686871855296,0.860086708983908
2.6983337478239244,0.131894749916165,0.06069416077383405,0.7399458929668068,0.7540556549260359
2.7008206913703057,0.10804431105355405,0.04593100889551538,0.5543048457918758,0.5666013526259466
2.7033076349166874,0.08419412918038138,0.0359570558707647,0.3255527196453052,0.3381806241105346
2.7057945784630686,0.05076739597157043,0.016407095629467516,0.08241988250144772,0.09818125234626601
2.7082815220094503,0.02212931969268417,-0.0031420613285817467,-0.16551691031720672,0.16701924122809275
2.710768465555832,-0.0017201013625286476,-0.022690411175847913,-0.38473888625914476,0.3854112402459917
2.713255409102213,-0.035146078871986064,-0.03744954679605561,-0.584822902029277,0.5870737110050587
2.715742352648595,-0.04941819464149044,-0.061784674385737315,-0.7514037971064464,0.7555575227979413
2.718229296194976,-0.04932485372957207,-0.07175377361042079,-0.8605396037054742,0.8649334973096798
2.720716239741358,-0.044442864525547465,-0.07214524408897471,-0.917018773341356,0.9209253689156245
2.7232031832877395,-0.03956063210878813,-0.06774748547169196,-0.9064761436275734,0.9098646956369398
2.7256901268341207,-0.025101351608011413,-0.07292570408087062,-0.8145465515589496,0.8181896606684884
2.7281770703805024,-0.005853428123032023,-0.06852628302796537,-0.6939024799973783,0.6973024923467092
2.7306640139268836,0.013394733236244405,-0.06412602537760526,-0.5349671680251031,0.5389632982625054
2.7331509574732653,0.037431533990574195,-0.05014812094442345,-0.3377406607507236,0.34348902121535035
2.7356379010196465,0.06146856901018749,-0.04095777617583973,-0.13574182591259465,0.15453726963912465
2.7381248445660282,0.08071743315554891,-0.026978180948877384,0.04229887268240695,0.09503852320366385
2.74061178811241,0.0903897212774295,-0.017786138452950073,0.20116979507893618,0.2212598808771714
2.743098731658791,0.10963904481859033,-0.008593241947607577,0.3360824952890873,0.3536184491731764
2.745585675205173,0.10973498200917675,-0.008976294684386321,0.4326717212905429,0.4464607021310347
2.748072618751554,0.10983114427307716,-0.004570083344256126,0.49093743162669057,0.5030937563579163
2.7505595622979357,0.10992752974364606,-0.00016300792039114498,0.491725972162806,0.5038635927178893
2.7530465058443174,0.10523573322473845,-0.014908678397810515,0.449402512607886,0.4618002236651676
2.7555334493906987,0.0861789461908275,-0.02965347822989184,0.3783322232708972,0.38915473876440493
2.7580203929370803,0.07669918334957093,-0.039609000861778654,0.268938258457462,0.2824525173155519
2.7605073364834616,0.07200803947788437,-0.054352049730312935,0.13558578967148982,0.16285824946921307
2.7629942800298433,0.05774030270327757,-0.05951741170150138,0.007005198972867888,0.08321861369045754
2.7654812235762245,0.0243191644648848,-0.0646818902735915,-0.12159195422741043,0.13985625485646225
2.767968167122606,0.005263446076092415,-0.0746338856551465,-0.22626369000459867,0.23831319343896706
2.770455110668988,0.0005731455996148549,-0.07979658812437807,-0.3165868510861536,0.3264889864188628
2.772942054215369,-0.008905352191453053,-0.07059318799003345,-0.38298466632986283,0.38953813437460316
2.775428997761751,-0.013595242610410785,-0.061388892192912436,-0.4063035573661331,0.4111398879149086
2.777915941308132,-0.00870812429903689,-0.05218369774331766,-0.4009087684825072,0.4043844833634619
2.7804028848545137,0.0009675974522013187,-0.05255440832256841,-0.37158873674252746,0.3752880112032253
2.7828898284008954,0.01543192066518917,-0.05292421436107375,-0.3231318986280609,0.3278007635014431
2.7853767719472766,0.02031963339301346,-0.038927902999231545,-0.23638467343949188,0.24042874821917462
2.7878637154936583,0.029995943602887598,-0.02971908464985562,-0.14007751310200156,0.14630341862681923
2.7903506590400395,0.049249252613745464,-0.020509353154401833,-0.02942204572209306,0.060924372990597296
2.792837602586421,0.04934913849478839,-0.020875512345404523,0.09558169784822645,0.10957639093075935
2.7953245461328025,0.05902601915152483,-0.030817559444867637,0.18704965412690733,0.19854814533510454
2.797811489679184,0.08306829588056247,-0.026393475103273722,0.2689238100079212,0.2826959018056404
2.800298433225566,0.08316874008846281,-0.021968466563594635,0.3412041363532641,0.3518805415416358
2.802785376771947,0.0880577696590335,-0.03190774109874228,0.36558337803027463,0.3773903563041515
2.8052723203183287,0.09773538254718295,-0.03226927944901581,0.3564267169958004,0.3709899135909321
2.80775926386471,0.08825956009933783,-0.023053078986112308,0.33288773909131386,0.34516002265180595
2.8102462074110917,0.07399551021761275,-0.018624347072451197,0.2997548207598886,0.3093140061572267
2.8127331509574733,0.07409684411771522,-0.01898308113924374,0.23787432240375317,0.24986975194446567
2.8152200945038546,0.06940994644626763,-0.03849448860830851,0.16161142822638297,0.18004949334074857
2.8177070380502363,0.05993481512462884,-0.04842814704829168,0.09490812962894601,0.12224982846703394
2.8201939815966175,0.05045985138808218,-0.039207247338647555,0.028187595325853465,0.06984228931124252
2.822680925142999,0.040985053145318195,-0.04435061027115994,-0.01939658549302159,0.06342695595357678
2.825167868689381,0.041087224939462264,-0.04470462014364518,-0.06220964632830217,0.08692930007601589
2.827654812235762,0.04118955802632274,-0.04505767788488546,-0.09067480352904234,0.10931008197697197
2.8301417557821438,0.036503646976051796,-0.04540978113270455,-0.10479207953685332,0.119899726433093
2.832628699328525,0.03660629631387402,-0.03618412091359913,-0.11892670620800949,0.1295873179967674
2.8351156428749067,0.03670910059832744,-0.026957501564559117,-0.109136688291807,0.11825853748733904
2.837602586421288,0.04160046102292392,-0.03209513077207493,-0.0802104499168621,0.09588749685158043
2.8400895299676696,0.041703568814698055,-0.03244339300957888,-0.022571204710075676,0.057456250172808795
2.8425764735140513,0.04659522847650055,-0.01842547942020234,0.025473801037392718,0.05620968019775827
2.8450634170604325,0.04669863122460571,-0.013983404418285161,0.06392454813390991,0.08039058160942487
2.847550360606814,0.05637898487163051,-0.01911716584556089,0.1262998411652081,0.13962702404434113
2.8500373041531954,0.06605948062351674,-0.009884744971108805,0.18865764540656116,0.2001331315243441
2.852524247699577,0.07574011632182631,-0.0006513496553579579,0.24142113662558984,0.2530240199791495
2.855011191245959,0.08063248648290977,-0.000993784467212322,0.2845902977600723,0.2957942241882868
2.85749813479234,0.07115978229802211,-0.0013352407230589058,0.3229535155957066,0.33070299472505044
2.8599850783387217,0.08562922815685098,0.003112686911731277,0.3229919508814625,0.33416441143359593
2.862472021885103,0.08573359531951624,-0.011592016178704423,0.308647604733876,0.32054323906995275
2.8649589654314846,0.06668447828385748,-0.01671892811534681,0.28949726883049465,0.2975483336562853
2.867445908977866,0.07636590806679355,-0.017056450289862468,0.27032933204857734,0.281426050992417
2.8699328525242476,0.08125905923567966,-0.022181387442668843,0.2415669738225521,0.2558312949944456
2.8724197960706292,0.06221031631466867,-0.022516931061315137,0.22715219734519465,0.2365909051488273
2.8749067396170105,0.057526903667626916,-0.022851482622603392,0.19835456980015564,0.2077885229367599
2.877393683163392,0.0528436091310559,-0.02797344363159704,0.1360204655239734,0.14858172032913197
2.8798806267097734,0.052948833818891816,-0.023517602340307864,0.10718751912923352,0.12184342772467162
2.882367570256155,0.05784257552104777,-0.01906076363044562,0.0831252993306979,0.10304800649164425
2.8848545138025368,0.053159622062897594,-0.019391329091485332,0.07341060191213167,0.09268810891859788
2.887341457348918,0.04847677786788873,-0.01972089370029284,0.10677383644306104,0.11890989777794121
2.8898284008952997,0.04379404071545512,-0.02483785910231351,0.13054255655030467,0.1399149610215534
2.892315344441681,0.053476618342692905,-0.02037701368963818,0.14471675288475794,0.15562104601173274
2.8948022879880626,0.06794770188197308,-0.01112675916343564,0.16366162655688576,0.1775551265600859
2.897289231534444,0.05847686918135542,-0.001875497252646241,0.17301195925197987,0.1826367973969287
2.8997761750808255,0.058582941250014064,0.007376773606392106,0.16319093647036098,0.17354440221573256
2.902263118627207,0.06347751253177825,-0.007311961651851995,0.1868709873691241,0.19749335507994076
2.9047500621735884,0.06358377414743765,-0.021999684917386464,0.22968689511174034,0.23933857243948006
2.90723700571997,0.0636901271760918,-0.031897991388974756,0.2533314267488702,0.26315532662854474
2.9097239492663514,0.06858497269432517,-0.03221847629284014,0.29611180294293327,0.30565360874072495
2.912210892812733,0.06869150181538208,-0.05169155812478454,0.3388744049973855,0.3496089271820053
2.9146978363591147,0.07358651893145396,-0.05679841224387516,0.36246561469840444,0.3741956136041236
2.917184779905496,0.0736932151512969,-0.06190424723956456,0.3620970242738917,0.37466929521064274
2.9196717234518776,0.059434781581585994,-0.07658586840819614,0.34255703307111673,0.3560101254290031
2.922158666998259,0.05954163588952477,-0.08168966115137266,0.34215286415627233,0.3567730225139891
2.9246456105446406,0.06922537249826488,-0.07721562417901451,0.33215409458587786,0.34796658943789793
2.927132554091022,0.06454397254796052,-0.07752896618898353,0.3077723184907022,0.3238834126962149
2.9296194976374035,0.05986264373961003,-0.06826447598421037,0.2929495503940682,0.30669694141445397
2.932106441183785,0.07433499709299396,-0.06857576563668433,0.2733205787254356,0.2914317521827021
2.9345933847301664,0.07923061042333779,-0.06888602732333071,0.24888540234180567,0.27012352338751966
2.937080328276548,0.06497267482579672,-0.06440685656813105,0.23400923052568245,0.25125686382311735
2.9395672718229293,0.06508001127712704,-0.059926655562368314,0.22390365974082904,0.24074771184802288
2.942054215369311,0.06518740754985686,-0.05544542320362211,0.2137802869114953,0.2302728905652186
2.9445411589156927,0.055718054735832356,-0.05575156173632667,0.21800432270161885,0.23181592476828727
2.947028102462074,0.05582556384788806,-0.056056666790766485,0.25572938155178804,0.2676870562046018
2.9495150460084556,0.055933125976205145,-0.06593754398456975,0.28864823851323074,0.301320560010395
2.952001989554837,0.04646393221029488,-0.051875369078900224,0.30718408901128846,0.3149793889371338
2.9544889331012185,0.046571593560981284,-0.04738896434556095,0.31133693556211206,0.3183477889255096
2.9569758766476,0.04667930111676,-0.057266732160692335,0.3154719910909449,0.324007735907646
2.9594628201939814,0.03721024596578171,-0.04798984836407216,0.31958925900816126,0.3253074275577276
2.961949763740363,0.042106442438142766,-0.04828873198561068,0.3380539531290587,0.3440715468587291
2.9644367072867444,0.056579484941939207,-0.04858657551871959,0.36607767442962214,0.37359705185230224
2.966923650833126,0.04711054796336667,-0.03930657148274319,0.38450681436473566,0.3893711604421339
2.9694105943795073,0.03285324251214672,-0.053967542305698224,0.41249499138955414,0.4173055823824402
2.971897537925889,0.037749582918496505,-0.05905066395703429,0.43088859783243016,0.43655125204984213
2.9743844814722706,0.04264595363013668,-0.049767532353783395,0.44447604305685395,0.4492821357333128
2.976871425018652,0.04754235237643201,-0.04527176004021083,0.4484689302172189,0.4532484847153932
2.9793583685650336,0.0524387768872695,-0.05035174962522193,0.44765566953795677,0.4535203661151616
2.981845312111415,0.05733522489315401,-0.060219097102615304,0.4420362683505097,0.4497885394345287
2.9843322556577965,0.05744329080500743,-0.06050859185101132,0.42203392777090976,0.4302018799773455
2.986819199204178,0.052762972354899795,-0.06079703987596963,0.39243705929926165,0.4006083584011401
2.9893061427505594,0.052871073916468614,-0.0658728438880396,0.3819760914582595,0.3912036764457964
2.991793086296941,0.043402383262838296,-0.06615919666207448,0.3714974199863832,0.3798304085146482
2.9942800298433223,0.033933704769850914,-0.07123290427933959,0.36578945764049386,0.37420255249316997
2.996766973389704,0.03404184281461031,-0.07630556288525625,0.364852214271842,0.37429737408712416
2.9992539169360852,0.03893839181465075,-0.07658876865026576,0.3638972968239713,0.37390276874645995
3.001740860482467,0.04383494618897632,-0.07208252109007685,0.39644353921338116,0.4053207028244714
3.0042278040288486,0.03915469703786334,-0.06757522306558439,0.37629969275714714,0.3843188257704971
3.00671474757523,0.03447444874451944,-0.06306687414218004,0.3657150121082591,0.37271086422540484
3.0092016911216115,0.03458260237363131,-0.07292268387092316,0.36468950915976883,0.3735132023115975
3.0116886346679927,0.04426755899178114,-0.08756584522597333,0.37801159952704566,0.3905382995382469
3.0141755782143744,0.04916410638630164,-0.08784274456545571,0.3817392793034706,0.39478897463415646
3.016662521760756,0.03969543566694411,-0.0785417848735741,0.39981457818330135,0.40938519332262924
3.0191494653071373,0.03980356118785788,-0.07881657911991224,0.41308389637359966,0.4224152957346547
3.021636408853519,0.04948848070394485,-0.07909032037655006,0.42154724775617325,0.4317481564412923
3.0241233523999003,0.044808175370964376,-0.08893981502111448,0.4443582598854281,0.4553815174164086
3.026610295946282,0.040127852909699335,-0.07963464289295619,0.45757493082219014,0.46618315954650613
3.029097239492663,0.04981272104356027,-0.07511682037900869,0.4468320656549949,0.4558319194386517
3.031584183039045,0.05949756757681435,-0.07059794396840813,0.44086009974015283,0.45042386457982175
3.0340711265854265,0.06439398695718901,-0.05171280353366736,0.43965904889491547,0.44734872178283464
3.036558070131808,0.0692903802759749,-0.05676862549466177,0.4480173326375265,0.45688440987079704
3.0390450136781895,0.0646099386665655,-0.06661179645136528,0.46114656422415123,0.47039103870791876
3.0415319572245707,0.05992946654675202,-0.05251189638691356,0.47904676060765006,0.4856282931125527
3.0440189007709524,0.06003736501725443,-0.03362253851125496,0.48735272915420147,0.4921865935884523
3.046505844317334,0.06493363186183354,-0.02430893273766177,0.47648768092240346,0.48150577444971776
3.0489927878637153,0.06982986154738335,-0.02457107904201772,0.4656052472626939,0.47145327845669943
