Time (s),Acceleration x (m/s^2),Acceleration y (m/s^2),Acceleration z (m/s^2),Absolute acceleration (m/s^2)
0.0,-0.05901326366905202,-0.014447208075618612,-0.003188784407033296,0.06083958790169287
0.002486943546381497,-0.054564845759611624,-0.01957934325362043,-0.008013666250127116,0.058522576171779424
0.004973887092762994,-0.059693492080707955,-0.01513461661122939,-0.008050054899426229,0.06210614301856315
0.007460830639144491,-0.050457184382310505,-0.01068983199585416,-0.012874756462235126,0.05315975280089188
0.009947774185525988,-0.050797937615464694,-0.006244986616442905,-0.012910963766145755,0.05278374095490886
0.012434717731907486,-0.060715750127609436,-0.001800077684157575,-0.00815867628092981,0.06128789922883892
0.014921661278288981,-0.05626860366258113,-0.0021435057327470197,0.010958913162701478,0.05736591455446858
0.01740860482467048,-0.037456496563740616,-0.0024868646576576836,0.030076595130889672,0.04810171728038902
0.019895548371051976,-0.03300984709428412,0.011535058283910438,0.034829160188175834,0.04935360143104899
0.022382491917433474,-0.03335184695287374,0.02555705591045454,0.03000501217872298,0.05163147836178359
0.02486943546381497,-0.03369409115644928,0.034790727678610356,0.029969361585685306,0.05695479914036997
0.02735637901019647,-0.02924817471991714,0.044024479683104634,0.02514540228898987,0.058531203576297916
0.029843322556577963,-0.02001409597646331,0.058046718016071974,0.020321538127836547,0.06467573286846909
0.032330266102959464,-0.025145466538489147,0.06728063880606872,0.02028617293973234,0.07463583360646336
0.03481720964934096,-0.0254886714538628,0.07651464813989195,0.015462500599545237,0.0821173104603735
0.03730415319572246,-0.011466902409043134,0.09053715210159163,0.010638924941359207,0.09187846584174734
0.03979109674210395,-0.007022174330639008,0.09977134681148359,0.020180656438141042,0.10203377612918922
0.04227804028848545,-0.012154485541659099,0.11379404166828211,0.010568872357987757,0.11492831026733388
0.04476498383486695,-0.02207543104275933,0.13739364274749022,0.010533993131280894,0.13955394202400184
0.04725192738124844,-0.03199660583255193,0.1418397328794705,0.020076019264740452,0.14678330680851098
0.04973887092762994,-0.027552798266978762,0.15107433141502113,0.024829741302346164,0.15556068384388744
0.05222581447401144,-0.027897619942118035,0.15552063445970088,0.01521835310656705,0.1587341904331229
0.05471275802039294,-0.03781947249105666,0.15996704807690287,0.01997227510052646,0.1655858108130979
0.05719970156677443,-0.042953144263572995,0.17399038164718306,0.03909150778362225,0.18342783727846962
0.059686645113155926,-0.048087036888631696,0.17364862130570824,0.039057228411182976,0.18436831042580287
0.062173588659537427,-0.04843274535250397,0.15894176978595764,0.03902305076008794,0.17067810491008287
0.06466053220591893,-0.05356707460032378,0.15381184641967405,0.05335418528499147,0.1713889864247153
0.06714747575230041,-0.0682784262547616,0.15347045061343811,0.05332021255581765,0.1762332765692003
0.06963441929868192,12.400377464078947,11.080265558723314,0.8002772609920985,16.64878643619192
0.07212136284506342,12.529317785602762,10.218011821906991,0.6422261855739269,16.180359212288504
0.07460830639144492,12.260820420879854,9.14028006807623,0.4841752143262763,15.300551060471776
0.0770952499378264,11.66671142142088,7.909319543108072,0.3117591377721478,14.098463915820338
0.0795821934842079,10.770932805535487,6.568225879594703,0.15370837631533263,12.616584758629717
0.0820691370305894,9.616580204816707,5.174459920085642,0.019599737076360313,10.920349557131342
0.0845560805769709,8.265902864140962,3.7759057004860987,-0.11929719938877881,9.08828068669532
0.0870430241233524,6.776361625066505,2.396505240096,-0.23904041600273018,7.191623916749562
0.0895299676697339,5.191052119192817,1.0937193814536936,-0.3348415089714294,5.315577393442217
0.0920169112161154,3.572223591402737,-0.12287506610945531,-0.4114888811435531,3.5979442419457315
0.09450385476249688,1.9581832699799206,-1.2245476799845492,-0.4546173220886036,2.353863982673555
0.09699079830887838,0.42075720645218817,-2.177779634246434,-0.4690152346594676,2.267098597869677
0.09947774185525989,-1.0209009841737786,-2.9682057162550897,-0.4594710217111544,3.1723173884856903
0.10196468540164137,-2.333272476928142,-3.614979536616673,-0.4499266993820843,4.32604571595869
0.10445162894802287,-3.473261640198229,-4.098947479378887,-0.44995907385189504,5.391417255983873
0.10693857249440437,-4.44565687557222,-4.415321138554439,-0.43083772473992,6.280489388331716
0.10942551604078588,-5.207362551432917,-4.568888914800786,-0.40213945823018626,6.939242523627569
0.11191245958716736,-5.753590262723349,-4.593169628701419,-0.36865267718863315,7.371357605334883
0.11439940313354886,-6.103493620985819,-4.483374874281541,-0.339954187803734,7.58082142610937
0.11688634667993036,-6.252284221158754,-4.244293052211228,-0.29210197302403174,7.562433805187571
0.11937329022631185,-6.2047504648189005,-3.9094429830867234,-0.2442496456831389,7.337733346074434
0.12186023377269335,-5.980045963501592,-3.5027666808679747,-0.1868203986950654,6.932908913836898
0.12434717731907485,-5.5973243287398216,-3.0434177561989975,-0.1389678448979943,6.3727343693084855
0.12683412086545634,-5.075739172064217,-2.540973013087605,-0.08153837056992153,5.676823099405321
0.12932106441183785,-4.453597718284247,-2.009797658866357,-0.028897185233358158,4.886169697544872
0.13180800795821934,-3.759630385566397,-1.4738337075129733,0.009378904907160646,4.038204353092205
0.13429495150460083,-3.0034139787934673,-0.9522347696893845,0.042866706925986264,3.1510449281436914
0.13678189505098234,-2.2184673194473583,-0.4497892461011479,0.09071983453572763,2.2654221906175405
0.13926883859736383,-1.4335208256872691,0.03829126918214376,0.12420786824347729,1.4394011857395
0.14175578214374532,-0.6533628990683087,0.4689111488831532,0.12417719519454451,0.8137448735520535
0.14424272569012683,0.08369923561467812,0.8420703956026308,0.1337234456958747,0.8567205338508176
0.14672966923650832,0.7537235635302959,1.1625574152569027,0.16242342680978972,1.3949983238578654
0.14921661278288983,1.3519216831309206,1.4255838071168863,0.16718150907270335,1.971783731906023
0.15170355632927132,1.8687167895511543,1.6215727671283657,0.17193970950294535,2.480154015851974
0.1541904998756528,2.2849552712875285,1.7505242978728837,0.17669802851479588,2.8838477946155607
0.15667744342203432,2.600637130120417,1.8268036118880304,0.17666806319971684,3.1830388818741833
0.1591643869684158,2.8157623678327663,1.8408339051048896,0.17663821728728024,3.3687368906005903
0.1616513305147973,2.9303309862101545,1.7974035834105115,0.1861852978248475,3.442697241339478
0.1641382740611788,2.9443429870407876,1.7156662626478658,0.17657888529473453,3.412308082933939
0.1666252176075603,2.872163582076463,1.5956219453736238,0.15739578673919574,3.289393024320362
0.1691121611539418,2.70421596647009,1.4372706341393675,0.15257801915884173,3.066237257780549
0.1715991047003233,2.4788073685803966,1.2501891381321784,0.13818356634857842,2.77966788477346
0.1740860482467048,2.200726193526635,1.0631078798152247,0.11900083202257505,2.446948168846557
0.1765729917930863,1.8651840397901522,0.8664500550839662,0.09502981657206178,2.0588049607188728
0.1790599353394678,1.4961229257769877,0.6602156664692886,0.06627052038564507,1.6366613324567687
0.18154687888584928,1.1079080632552207,0.46355832977799283,0.03751134716957161,1.2015630249383393
0.1840338224322308,0.7196930673161437,0.26690124088975287,0.018329103947751335,0.7678087910299912
0.18652076597861228,0.33626634309287223,0.0798212089601198,0.02787740438204267,0.34673279131340934
0.18900770952499377,-0.037583704278621344,-0.07373974689979157,0.01348381232691942,0.08385641475173956
0.19149465307137528,-0.37791505637827216,-0.2225120441077233,-0.010486461881471953,0.43868139405858275
0.19398159661775677,-0.6847277113846695,-0.3521304702040453,-0.02966820790970459,0.7705375457073994
0.19646854016413826,-0.9580216674735244,-0.4530182160549381,-0.04884982870834165,1.0608568825205336
0.19895548371051977,-1.1738549062160488,-0.5347520858133468,-0.05845451726975348,1.2912443861324059
0.20144242725690126,-1.3561694423836288,-0.5973320769971446,-0.06805907987032178,1.4834531354301828
0.20392937080328274,-1.485811660861882,-0.6263929771688594,-0.05850990286733726,1.6135141344695922
0.20641631434966426,-1.5579931564943645,-0.6362999938185121,-0.04417219586306054,1.683499789338887
0.20890325789604575,-1.5775023307622467,-0.6414183344417781,-0.0298343618219441,1.703179724064289
0.21139020144242726,-1.5539159884639766,-0.6178059799775213,-0.025073207031564237,1.6724137627425848
0.21387714498880875,-1.492022531074632,-0.5654629279718926,-0.025100327821387936,1.5957786759452695
0.21636408853519024,-1.396610360066214,-0.5131195958986698,-0.01555051388310602,1.4879697698614456
0.21885103208157175,-1.2676794735873012,-0.45598757799523204,-0.010788974833134901,1.347238776542037
0.22133797562795324,-1.1148066764239837,-0.3844900651844698,-0.010815710329838524,1.1792978909567275
0.22382491917433472,-0.9427803700388807,-0.30820386167636826,-0.006053913393838428,0.9918977247429569
0.22631186272071624,-0.7516005525711341,-0.23670577168679996,-0.015657196970536802,0.7881485651779438
0.22879880626709773,-0.5604208354379427,-0.1604189861563028,-0.020471947445734884,0.5832879773701827
0.2312857498134792,-0.3596644101314158,-0.08892030931261141,-0.015709761169105718,0.37082624761391975
0.23377269335986073,-0.16848488806229056,-0.02699814206912121,-0.020524251094826695,0.17186419657261523
0.23625963690624222,0.0035409260025693334,0.039712727936005,-0.010973400297226377,0.041352804392906554
0.2387465804526237,0.16120143726052855,0.0968470931366956,0.008154388224523856,0.1882332512368741
0.24123352399900522,0.3044966475919508,0.1348281492811223,0.022493904827639355,0.3337706008439092
0.2437204675453867,0.4382149622008302,0.1680211087129173,0.04641035978822572,0.47161145826354306
0.24620741109176822,0.5336259630523381,0.20600278044927167,0.06553854345749066,0.5757509137421282
0.2486943546381497,0.6003064586775121,0.22004274693871562,0.07509005282425463,0.6437586277817335
0.2511812981845312,0.6430448542904817,0.23408302714702423,0.08464169483523953,0.6895402560636784
0.2536682417309127,0.6666295551087951,0.24333522011187902,0.0894050664731818,0.7152623707441352
0.2561551852772942,0.675848966353445,0.23343411822408644,0.08459176471776253,0.7200132495517997
0.2586421288236757,0.6467610733270175,0.21395653046973662,0.0845669998268388,0.686461113510063
0.26112907237005717,0.593731087898087,0.20884447578955,0.07496556213330052,0.6338394554699318
0.2636160159164387,0.5502778352199957,0.19894434323510257,0.07015266188881597,0.589326686660071
0.2661029594628202,0.47330568732461525,0.184256135132856,0.0653398960606939,0.5120916900371906
0.26858990300920166,0.38196825941144047,0.15999145048256969,0.041373651652188315,0.41618360668863286
0.2710768465555832,0.29063076336324156,0.13093869491821053,0.0221959455462315,0.31953691874128726
0.2735637901019647,0.19450479778513186,0.10188627406729589,0.007806778021050675,0.21971316525830017
0.27605073364834615,0.08880196128585721,0.0871994001914933,-0.0017938506482941818,0.12446984221938852
0.27853767719472766,-0.007324130920618732,0.06772446230378426,0.007759269771030475,0.06855984214872936
0.2810246207411092,-0.09387347689791492,0.038673059371556295,0.012524122946176774,0.10229706174485284
0.28351156428749064,-0.18042288134658463,0.014410403636891722,0.017289112462988143,0.18182131133654203
0.28599850783387215,-0.25739553568220314,-0.00027509930533220484,0.012477431943166195,0.2576979312618797
0.28848545138025367,-0.3200030346369254,-0.019748657148094484,0.012454291606761814,0.32085364422960905
0.2909723949266352,-0.382610586220391,-0.03443346098944655,0.017219691709666307,0.38454263964637125
0.29345933847301664,-0.4164877685556442,-0.039541105254411235,0.02198522918421375,0.4189378362758402
0.29594628201939815,-0.4503649996056704,-0.035071587695008954,0.02196250095948571,0.4522620927975941
0.29843322556577967,-0.48424227740775094,-0.03539011603090714,0.03151671724255323,0.4865555949811628
0.30092016911216113,-0.48460077675312996,-0.03570828470726095,0.03628266831533722,0.48726730492261894
0.30340711265854264,-0.48017091559324,-0.031237688175984157,0.036260354417422036,0.48255021981831847
0.30589405620492416,-0.48531790191467994,-0.026766727536400303,0.026661372464774402,0.4867861464786978
0.3083809997513056,-0.4617345071766987,-0.017506997254015833,0.021850932651307886,0.46258265567171125
0.31086794329768713,-0.4381511493189763,-0.003458495121482219,0.021829035206685887,0.4387082146667645
0.31335488684406865,-0.4097794230350502,0.00580197442107,0.03138408367755119,0.4110204364242743
0.3158418303904501,-0.3622541163738513,0.0150628168875655,0.02657406168532539,0.3635397007712412
0.3183287739368316,-0.3099404373021792,0.024324034464712874,0.021764179410592277,0.3116543162433709
0.32081571748321314,-0.27199199710312555,0.028797226011978427,0.026531243710271823,0.27479598542727196
0.3233026610295946,-0.2244667771729283,0.03327079702250302,0.0217216415160415,0.22795637674578234
0.3257896045759761,-0.1769415821459413,0.04253315298245308,0.016912179678090666,0.18276601001390186
0.3282765481223576,-0.13420481333212503,0.051795892730370774,0.02167966504321228,0.1454776762999481
0.3307634916687391,-0.09146806539670721,0.05627061509778031,0.016870484532933716,0.1087078762522514
0.3332504352151206,-0.05830814296172743,0.0655341288701008,0.012061444987242709,0.08854400057366113
0.3357373787615021,-0.025148237363828485,0.0652212262241263,0.01204094992239746,0.07093114032440055
0.3382243223078836,-0.0015651532167366144,0.07448552257175045,0.0024437895699822576,0.07454203434868786
0.3407112658542651,0.01244111151063293,0.0789618100755729,0.007211980720651212,0.08026058417396359
0.3431982094006466,0.02644736549419635,0.07865009085200247,0.021557120239730665,0.08573219561892753
0.34568515294702806,0.040453610773470816,0.07833877033061043,0.026325595028167115,0.09201355614859509
0.3481720964934096,0.054459849392216764,0.06845104397285873,0.035882615225627745,0.09454619343065919
0.3506590400397911,0.05410087343752307,0.048986913873642735,0.05022818100737503,0.0885973611620358
0.3531459835861726,0.04416508828200988,0.029523188761265473,0.054997082584259616,0.07646471598306576
0.35563292713255407,0.029440899302601797,0.029213483997424294,0.05018932012458599,0.06510884773655479
0.3581198706789356,0.019505115200852685,0.024115785053748784,0.040593297113478144,0.05108655770650691
0.3606068142253171,-7.471918906598596e-06,0.009441690675846104,0.030997417032565977,0.0324034788462403
0.36309375777169856,-0.014731650026110987,0.004344816203591506,0.016613276719333214,0.02262520505294805
0.36558070131808007,-0.01987901372644979,-0.010328449592948985,-0.0025591236719382238,0.022547753140806332
0.3680676448644616,-0.04896838418371707,-0.039366507990105326,0.01178744257199682,0.06392627318471851
0.37055458841084304,-0.07805774271354687,-0.034885323748126584,0.03092255567647939,0.09091865298227231
0.37304153195722456,-0.08320507062715088,-0.03040371807994191,0.011750585902362332,0.08936188292668495
0.3755284755036061,-0.09314078575472973,-0.04028689892462278,0.006943969913209003,0.10171754477044159
0.37801541904998753,-0.1126532893204637,-0.04059284766614857,0.026079514486205824,0.12255074031683147
0.38050236259636905,-0.13216577258311557,-0.026533158977179117,0.03084999319185222,0.1382878232084713
0.38298930614275056,-0.1325246201563327,-0.036415057420628116,0.021255406159559342,0.13907057073851295
0.385476249689132,-0.13767184653206255,-0.0367197177621863,0.011660963476101571,0.14296101940484818
0.38796319323551354,-0.15239585291647828,-0.03223554133752593,0.006855068584025403,0.15591862645866245
0.39045013678189505,-0.16233142722996075,-0.032539332810129995,0.006837721601963054,0.16570170452638802
0.3929370803282765,-0.1626901640289608,-0.02326588024943632,0.011608922644944286,0.16475484132652243
0.395424023874658,-0.16304886782629396,-0.013991988333980743,0.02116867182439286,0.1650115805141669
0.39791096742103954,-0.16340753648956435,7.074821108821183e-05,0.02594016260749754,0.1654536793879214
0.400397910967421,-0.15418936124115074,-0.000231281948510631,0.03550020173906354,0.15822350310496855
0.4028848545138025,-0.1401827432597526,0.004255536407857807,0.030695176038394223,0.14356707467235072
0.40537179806018403,-0.13096448703975333,0.013531205211977149,0.02110189224303305,0.13334196727328923
0.4078587416065655,-0.13132299375058049,0.02280732306770039,0.03066236704782277,0.13677018471181818
0.410345685152947,-0.1268930512757554,0.03208389189155936,0.03064618062050961,0.13442622871897306
0.4128326286993285,-0.1080978508144419,0.036572510272120606,0.011476526406438481,0.11469265240922534
0.41531957224571003,-0.09887940680330859,0.04106158343091204,0.025825841011361206,0.11013702732311258
0.4178065157920915,-0.09923771707276563,0.04076270994115294,0.025810091310795258,0.1103443873744036
0.420293459338473,-0.09001916616726574,0.040464295008990625,0.01621768070003249,0.10001911125036371
0.4227804028848545,-0.09516576850935493,0.04016634051254586,0.01620222253162673,0.10455797636292635
0.425267346431236,-0.10031231195434714,0.03508044500189822,0.01618691023256602,0.10749517949208054
0.4277542899776175,-0.08630518103250245,0.02999501366001045,0.03532535714803231,0.09796002233132285
0.430241233523999,-0.07708639015213875,0.029698451662086622,0.044887143416380226,0.09401683477918057
0.43272817707038047,-0.07744434043555976,0.024613954214620648,0.049660672414459484,0.0952347362690451
0.435215120616762,-0.08259062635966902,0.024318329797568428,0.0544343475154232,0.10186113545438033
0.4377020641631435,-0.09252524571689863,0.019234773601832345,0.049631362127774636,0.10674347622756399
0.44018900770952496,-0.09767138965425937,-0.00021351918949719106,0.04961692625786718,0.10955174721891513
0.4426759512559065,-0.102817459274896,-0.0005077235183530426,0.049602636627090746,0.1141582641567188
0.445162894802288,-0.10317504903651453,-0.005589854178257969,0.05437689659373213,0.11676122685458047
0.44764983834866945,-0.10353256003262362,-0.010671506048716584,0.05436289955140872,0.11742315306571001
0.45013678189505096,-0.11346679667221277,-0.015752677337417698,0.054349048850950155,0.12679384804221785
0.4526237254414325,-0.11382414343755892,-0.025621769580244536,0.04954694119883207,0.12675689365031653
0.45511066898781394,-0.13812342132952904,-0.030701974360042072,0.03516817329779087,0.14579948958238068
0.45759761253419545,-0.14805740153944769,-0.03099328990819039,0.020789551807755657,0.15268851834474567
0.46008455608057697,-0.14841448513659256,-0.031284117784303955,-0.007954133216653503,0.15188424427546895
0.4625714996269584,-0.15834828314630878,-0.021997649594997615,-0.027120865162075347,0.16215306562081194
0.46505844317333994,-0.1587051800265682,-0.027075900197020886,-0.00798022409857424,0.1611959134575313
0.46754538671972146,-0.14948517351171214,-0.027365254572273123,-0.012781453185921166,0.15250586809423397
0.4700323302661029,-0.1450534712921322,-0.02765411431218645,-0.03194774578295423,0.15108248751228967
0.47251927381248443,-0.14062166777207868,-0.023154074375551392,-0.027171875330406436,0.14508230566185729
0.47500621735886595,-0.15055497063215467,-0.013865133049468348,-0.003242245155586687,0.15122682715106253
0.4774931609052474,-0.15091136098556318,-0.018940901910297292,-0.008042888472392207,0.15230786156554693
0.4799801044516289,-0.1512676431827888,-0.028804572620539037,0.006310227907759369,0.15411496440701428
0.48246704799801043,-0.14683541160846925,-0.024302530210103424,0.011086684044679274,0.14924532032847168
0.48495399154439195,-0.14240306728295515,-0.024588386279442265,0.011074883236593891,0.14493403792803505
0.4874409350907734,-0.13318220458105667,-0.034450542476125,0.011063228777949519,0.13800990734350552
0.4899278786371549,-0.13832643447422738,-0.029946980533912537,0.011051720639102314,0.14196184222014033
0.49241482218353644,-0.14347054468681347,-0.020654505436826565,0.025405568747563834,0.14715926308241026
0.4949017657299179,-0.1390377262585511,-0.020938325497287913,0.03497115978487386,0.1448892156596803
0.4973887092762994,-0.13939318682581403,-0.016433229113937298,0.04932530035065774,0.14877330676989756
0.4998756528226809,-0.13496011741848857,-0.007139214654460435,0.06367958707982169,0.14939977071652846
0.5023625963690624,-0.13531532234278476,-0.0026330871352837626,0.05409200332223385,0.14575017815428665
0.5048495399154439,-0.1308819926187363,-0.0029148449403360033,0.04450456562709881,0.13827237133474599
0.5073364834618254,-0.12166012590207559,-0.007984486461682927,0.039705677258577765,0.12822433101844605
0.5098234270082069,-0.1268033331248603,0.0013116031817128615,0.03490693483642282,0.13152680218934407
0.5123103705545884,-0.12715799865172261,0.010608215620545813,0.025319934976586467,0.13008762418839867
0.5147973141009698,-0.12751252344393438,0.01990535243828484,0.025309887572475986,0.1315152352378371
0.5172842576473514,-0.13265530845784546,0.014837805249284575,0.03487679255276355,0.1379636980710155
0.5197712011937329,-0.1330095446839485,0.01455918890190766,0.05880905316263352,0.14615749618954949
0.5222581447401143,-0.13336363306875682,0.019069504955073313,0.07316465272160144,0.15330548278650086
0.5247450882864959,-0.12414076459293205,0.014003544998562933,0.06836678450631695,0.14241153720811292
0.5272320318328774,-0.119706146833788,0.004149713895200691,0.06356906171150634,0.13560164940768873
0.5297189753792588,-0.12963658404341893,0.008661626460528371,0.05877148424684897,0.14259998266467552
0.5322059189256404,-0.12041325058620356,0.017962477579987368,0.04918564869791986,0.13130586260857732
0.5346928624720219,-0.12076656398568592,0.012898655490155786,0.039599958287116266,0.12774621319907625
0.5371798060184033,-0.1306965218386421,0.003046968341244849,0.039591219553358314,0.13659549590858927
0.5396667495647849,-0.13583791177602306,0.01234943423615098,0.04437102907082924,0.14343373042080448
0.5421536931111663,-0.12661392474421113,0.01686403806638781,0.034785773448980706,0.13238403133868204
0.5446406366575478,-0.12217817160658923,0.011802377996453117,0.03477746917628366,0.1275785017383716
0.5471275802039294,-0.13689585990135916,0.01152966546382217,0.02519250285459762,0.1396712992848535
0.5496145237503108,-0.14203656727904923,-0.003107711344501496,-0.0035459322773832014,0.142114805526843
0.5521014672966923,-0.13760029130721013,-0.012956137687304192,-0.027495819742568983,0.1409174289253012
0.5545884108430739,-0.14274064282979776,-0.013227208792605527,-0.02750354638796182,0.14596676070880604
0.5570753543894553,-0.1478808127640568,-0.018286133177978225,-0.02272272562685629,0.1507296908716865
0.5595622979358368,-0.14823239534271748,-0.018556102767744775,-0.0035765509544525287,0.14943213742597872
0.5620492414822184,-0.14858379143431755,-0.014037116135170447,0.02514657416931776,0.15134904657394455
0.5645361850285998,-0.14893499858227466,-0.019094381822781337,0.029927826358871812,0.15310749168627608
0.5670231285749813,-0.14928601432520955,-0.014574285139245635,0.025132415427963295,0.1520866929276537
0.5695100721213628,-0.15442523951726922,-0.014842034643757884,0.02512555118657822,0.15715830844967071
0.5719970156677443,-0.15956426836720078,-0.005532418981980314,0.010753620198734382,0.1600218852117762
0.5744839592141259,-0.15512629175867565,-0.010587453370425326,0.005958638907493707,0.15560130443315245
0.5769709027605073,-0.15068811385186537,-0.015641926471459566,0.005952203830270619,0.15161466370509277
0.5794578463068888,-0.1462497321615775,-0.015907433596438203,-0.0036308951599117734,0.1471571065243555
0.5819447898532704,-0.1513879508385209,-0.02096078002602031,-0.00363704495160988,0.15287542004640794
0.5844317333996518,-0.15652596074744263,-0.01643675444767334,-0.003643052359024068,0.15742876203277995
0.5869186769460333,-0.14729854942808196,-0.011912162158806971,-0.013225724200113476,0.1483700847594699
0.5894056204924149,-0.14764773097799522,-0.026540615105837606,-0.003654640734094272,0.15005869888827494
0.5918925640387963,-0.15278509956819597,-0.04116849868107231,0.015493391213556862,0.15899112272392232
0.5943795075851778,-0.14834544272442285,-0.03664219828521498,0.02506475817299325,0.15484593367133884
0.5968664511315593,-0.1439055645693409,-0.022538519249241773,0.025059459951867424,0.14779977299390018
0.5993533946779408,-0.14904226922099562,-0.02279947687347228,0.02984270631503705,0.15370101262012975
0.6018403382243223,-0.14939034419126934,-0.018271456583821788,0.029837690422052532,0.15343275019695976
0.6043272817707038,-0.14494978694839633,-0.018531263736495163,0.025044412069359367,0.14826014652615482
0.6068142253170853,-0.13572059495604583,-0.023578897055490877,0.020251274369991634,0.1392341854401611
0.6093011688634667,-0.12649116899364904,-0.014260741991979575,0.015458277112946561,0.1282276995303368
0.6117881124098483,-0.1316267164767343,0.004634799392874367,0.01545382340381174,0.13261181890636664
0.6142750559562298,-0.14155042821475738,-0.00041109489239943287,0.010661106383530239,0.14195193523200975
0.6167619995026112,-0.13232028505174653,-0.01503321364458099,-0.0037082774903485216,0.13322314615187744
0.6192489430489928,-0.12308989771007339,-0.010501135707952525,-0.013289118482735063,0.12424973818677179
0.6217358865953743,-0.14258968354828572,-0.005968473138366015,-0.003716206862231175,0.14276291787241724
0.6242228301417557,-0.14293560679550393,-0.006223628039182305,0.005856843856673066,0.1431908651273902
0.6267097736881373,-0.1289160681998806,-0.0016897925612782139,0.010641630116731804,0.12936557629662443
0.6291967172345188,-0.12926148510674818,-0.006732175465547829,0.029791764958579492,0.132820943295281
0.6316836607809002,-0.13918345161489115,0.002591241041155712,0.048942038176978286,0.14756039724290834
0.6341706043272818,-0.1299515452171946,0.007126844860706694,0.05372723956302394,0.14080061183484865
0.6366575478736632,-0.1207193766053552,-0.0027021694728626144,0.04414736886507775,0.12856694670697788
0.6391444914200447,-0.13064055646678074,0.0018346191285130153,0.04893284574971268,0.13951610736564438
0.6416314349664263,-0.13577306560180252,-0.0032048047790120826,0.03935325003610046,0.1413975756687037
0.6441183785128077,-0.1313284980877633,-0.00824363340556955,0.015408581461631599,0.13248606071724228
0.6466053220591892,-0.14124886791966812,-0.003705058969769137,0.010617663002241429,0.1416958182805212
0.6490922656055708,-0.14638055920552284,-0.0039542903002627305,0.02498049438803207,0.14854941812397257
0.6515792091519522,-0.14672356933042313,0.0005854803673752684,0.03934346206423278,0.15190805308317196
0.6540661526983337,-0.15185470231595732,0.005125850828147982,0.04412975911307626,0.15821997535570081
0.6565530962447153,-0.152197148898359,-0.004698387772055224,0.03933938525380043,0.15726930473742418
0.6590400397910967,-0.15253930977072266,-0.009733621053646502,0.02976074352234903,0.1557198967991808
0.6615269833374782,-0.1576695856220951,-0.000403041286157535,0.020182236951050925,0.15895654551124938
0.6640139268838597,-0.15801116717656688,-0.005437067310111843,0.010603865248338451,0.15845987697723538
0.6665008704302412,-0.15835245511517754,-0.010470488091717467,0.005814031439358658,0.15880470434927602
0.6689878139766227,-0.15869344679469605,-0.005926495925994146,0.024966348506609393,0.16075463280196725
0.6714747575230042,-0.15903413956796375,-0.006170299718022854,0.03454199290558613,0.16285907841020827
0.6739617010693857,-0.15937453078392566,-0.015990301740762547,0.034540964330400215,0.16385667221456404
0.6764486446157671,-0.159714617787662,-0.016232887674117347,0.03454006911222507,0.16421109022102237
0.6789355881621487,-0.1648428012407333,-0.026051669768996533,0.029750903617749458,0.169519777267189
0.6814225317085302,-0.15560546519933788,-0.04065824368325499,0.024961870850740198,0.16275517987357063
0.6839094752549116,-0.1511562202784077,-0.04568739844263092,0.02974977713174276,0.16068786682478112
0.6863964188012932,-0.1610718704485175,-0.05071593968293309,0.034537815496518576,0.17236332175662683
0.6888833623476747,-0.16619879975466884,-0.05095546308754617,0.029749178977317214,0.17636188337671846
0.6913703058940561,-0.17132540883976227,-0.05598277430930443,0.03932588384506275,0.18448032923234275
0.6938572494404377,-0.1668748883821326,-0.07058627568924658,0.04411431648436981,0.18648250214728104
0.6963441929868192,-0.16242404233777225,-0.08040075629567545,0.044114476557604476,0.1865259718757966
0.6988311365332006,-0.16276127133880514,-0.07106100520540881,0.029749557083031064,0.18007202463254476
0.7013180800795822,-0.16788657269352358,-0.0665090380662785,0.010596364356677768,0.18089122801523277
0.7038050236259636,-0.16343473374580086,-0.06674485393307084,0.001020107991422492,0.17654129358714335
0.7062919671723452,-0.16377096175794115,-0.06698004854877704,-0.0085560190048799,0.17714530837685039
0.7087789107187267,-0.1593184473872818,-0.06242621766490819,-0.01334361366689052,0.17163173469825388
0.7112658542651081,-0.15965399456904206,-0.06266016700243071,-0.013342676353005345,0.17202825791969548
0.7137527978114897,-0.15998919727417715,-0.053316685689267285,-0.0037648041047315672,0.16868131481367668
0.7162397413578712,-0.16032405279066664,-0.04876098278373364,0.005813196072066873,0.16767596307709798
0.7187266849042526,-0.16544696172355522,-0.05378146071203771,0.010602920488432588,0.174291607895389
0.7212136284506342,-0.1609927113934313,-0.054012908627658174,0.005815965452018901,0.16991136770200954
0.7237005719970157,-0.1661149123599049,-0.0494553256535295,0.010605943868647216,0.17364469294850457
0.7261875155433971,-0.17123675525758925,-0.044897114241416514,0.029761258679837255,0.17950907981648873
0.7286744590897787,-0.16678143071801532,-0.0403382735312916,0.034551489581550854,0.17503436055854138
0.7311614026361601,-0.1623257426509267,-0.03577880267164568,0.034553442828899605,0.1697754689556812
0.7336483461825416,-0.15308128500213297,-0.026430297499175026,0.03455552135333484,0.15914309441442923
0.7361352897289232,-0.15820166831605625,-0.021869563820031246,0.02976932144235178,0.16245694253801518
0.7386222332753046,-0.1537448732513993,-0.017308197487948096,0.015406439380118542,0.15548124686194126
0.7411091768216861,-0.15407610702650265,-0.012746197685488347,0.024985698009997392,0.15660842064501715
0.7435961203680677,-0.1591953668959532,-0.01776037024435606,0.02498827368767209,0.16212035471909061
0.7460830639144491,-0.15952584347094195,-0.008408697762585682,0.02977937596866731,0.16249926820223293
0.7485700074608306,-0.1694327439614985,-0.003844792729537083,0.024993794483345155,0.17130944784258545
0.7510569510072121,-0.1793392589734123,0.005508152278788092,0.020208335460367266,0.18055826309736617
0.7535438945535936,-0.18445698243015513,0.0052849280763105355,0.005846191843890125,0.1846252604360679
0.7560308380999751,-0.17999750825261618,-0.004514464570622767,-0.013304233464241477,0.18054496945520548
0.7585177816463566,-0.18511444696071339,-0.004736411622928038,-0.00372411764353231,0.18521247560803092
0.7610047251927381,-0.18544258582969214,-0.004957718971906111,0.0058561189592349905,0.18560125469907754
0.7634916687391196,-0.18098192209329939,-0.005178385876742464,0.0010712659550140557,0.1810591599881649
0.7659786122855011,-0.17173245298289602,-0.010186814925442267,0.005863339514071697,0.17213420739674343
0.7684655558318826,-0.17684778900875686,-0.005617795433265016,0.015443935881608084,0.1776097273753074
0.770952499378264,-0.18675112075699657,-0.0154133432864767,0.02023624797934609,0.18847561642701338
0.7734394429246456,-0.1918656388114961,-0.025208247817344542,0.03939388864772653,0.1974835628029675
0.7759263864710271,-0.19219134039457958,-0.03500250832758045,0.05855164748186148,0.20393867297481288
0.7784133300174085,-0.18772822272644107,-0.030430914166458045,0.058555910753428364,0.19898924802410323
0.7809002735637901,-0.17847628302519725,-0.021070271293313958,0.05856029129348528,0.18901599840024655
0.7833872171101716,-0.17401232514756593,-0.016497385675982024,0.05377638532842255,0.18287797203708073
0.785874160656553,-0.16475953966704465,-0.007135450009541966,0.039415789081537866,0.16955891302746492
0.7883611042029346,-0.16508313375677702,-0.01692648023975618,0.03463211537460964,0.16952383372135335
0.790848047749316,-0.17019470130679504,-0.026716862438064037,0.03463696042479647,0.17572633871708743
0.7933349912956975,-0.16094062624438638,-0.022141386004711272,0.03464192044621761,0.16610896665245667
0.7958219348420791,-0.15647451905758847,-0.022353663590615636,0.02028178500932576,0.1593590668691008
0.7983088783884605,-0.16637318359211845,-0.03693050121455643,0.010710166923743714,0.17075891137527657
0.800795821934842,-0.16190619712955473,-0.03714147834129822,0.010715469035140757,0.166456983509177
0.8032827654812236,-0.15265036351239508,-0.03256340100658628,0.0011440775846303097,0.1560891331230389
0.805769709027605,-0.15775929322223753,-0.0375614785749554,0.015514815333785847,0.16290969512450212
0.8082566525739865,-0.16286777349702658,-0.05213571045848031,0.020308858556830955,0.17221060851402453
0.8107435961203681,-0.16318739821392397,-0.05234407947614361,0.015526206767219719,0.17207873979261093
0.8132305396667495,-0.16829497120967996,-0.05255179501789975,0.015532069436405394,0.17699190285164934
0.815717483213131,-0.16861368303850494,-0.052758856521233355,0.02032644607199252,0.17784047756108595
0.8182044267595125,-0.16414353089400446,-0.04817686011178157,0.015544126217744036,0.17177231571022825
0.820691370305894,-0.15488451196861436,-0.04838261188458315,0.010761916016093664,0.16262197888621177
0.8231783138522755,-0.15041343009428665,-0.053376111302512186,0.010768218286292708,0.159966133089377
0.825665257398657,-0.16030708910192593,-0.048792147875962755,0.010774629204105324,0.16791405285195338
0.8281522009450385,-0.17020027621988815,-0.0489959310456598,0.015569551583066499,0.17779523677774678
0.8306391444914201,-0.1705161819959175,-0.05398746029983981,0.025152984913569654,0.18061862263386327
0.8331260880378015,-0.1756200135784584,-0.05418992849456261,0.020371315401936485,0.1849160025815746
0.835613031584183,-0.18072336483390788,-0.04960333513495874,0.02995496245482876,0.18978599850639932
0.8380999751305646,-0.18103782962792642,-0.045016083054913114,0.034750312272990413,0.1897596577069723
0.840586918676946,-0.1861402117864399,-0.04521657509674748,0.034757364335664676,0.1946812561161003
0.8430738622233275,-0.19124210517383067,-0.0454164074705945,0.03476452143965325,0.19961153476135016
0.845560805769709,-0.19155510365393674,-0.04561557971532837,0.03477178305871398,0.19995803496163436
0.8480477493160905,-0.1870792044104322,-0.03623728473762711,0.04435595530451586,0.19565076104879414
0.850534692862472,-0.18739121126720215,-0.026858328733839087,0.03478661772352609,0.19247582875573468
0.8530216364088535,-0.18770271808684907,-0.012690307947797574,0.030005786382970356,0.19050905886456296
0.855508579955235,-0.18801372205200795,-0.003310028592692582,0.03480186406614827,0.1912362039772093
0.8579955235016165,-0.18832422034510066,-0.0035058935698097926,0.025232833631834595,0.1900394673519285
0.860482467047998,-0.19342261346871598,-0.003701095827906453,0.006087097858038959,0.193553760675759
0.8629694105943795,-0.19852049528473859,-0.003895634964767858,0.006095076121715337,0.1986522412982198
0.8654563541407609,-0.18925265301441951,-0.00887791390689241,0.010891557914414207,0.18977357577423024
0.8679432976871425,-0.18477269712125438,-0.018647932268861744,0.0013229294047913953,0.1857160335608558
0.870430241233524,-0.18029222146730467,-0.023628883033028014,-0.003457196678573027,0.1818668783585359
0.8729171847799054,-0.1805996265554521,-0.03818597579169225,-0.0034488208909095874,0.18462472268000849
0.875404128326287,-0.18569490956853368,-0.0335887902627281,0.010924862850647088,0.18902422833934512
0.8778910718726685,-0.2003664710100323,-0.02420253605520495,0.0252986440248808,0.20340232753342635
0.8803780154190499,-0.2006722914619668,-0.038757632747500104,0.03967252206902039,0.20819565716917238
0.8828649589654315,-0.1961891747490187,-0.038946853441991,0.049258093097503064,0.20599371208203224
0.885351902511813,-0.2060707313370443,-0.04871221441348439,0.0396901465816768,0.21543754055996034
0.8878388460581944,-0.19200973184877096,-0.05368850538264747,0.039699101873260645,0.2032884930939354
0.890325789604576,-0.18273659339199383,-0.05866412935975518,0.0397081517590383,0.1959869382233617
0.8928127331509574,-0.18303971647371092,-0.0636390860431213,0.04929410230463027,0.19995844468588875
0.8952996766973389,-0.17376548500019523,-0.06382497181909574,0.03493812969045251,0.18838456335732054
0.8977866202437205,-0.17406750944113136,-0.06401018972299877,0.015793846617986773,0.18613502578076255
0.9002735637901019,-0.17436898034531345,-0.06898314279848927,0.011014865786362904,0.1878418019646124
0.9027605073364834,-0.1698814915829071,-0.06916702413662357,0.011024379970489662,0.18375346354309444
0.905247450882865,-0.17018184698614874,-0.06935023679772456,0.011033985263265933,0.18410069314999167
0.9077343944292464,-0.17048164042754527,-0.06953278053012824,0.006255277755291999,0.18422248991617085
0.9102213379756279,-0.1755692724215111,-0.07450305841080285,-0.0033117431448008716,0.19075178314720787
0.9127082815220094,-0.17107953020256939,-0.0842610702047204,-0.012878674710329108,0.19113867706110957
0.9151952250683909,-0.16658921760823808,-0.07965320240391183,-0.032022324177782835,0.18740872264190495
0.9176821686147724,-0.17167513847754529,-0.08462147139152387,-0.00807025562182595,0.1915679399522594
0.9201691121611539,-0.18154888669016872,-0.08480066699650246,0.01109349715411767,0.20068437173980397
0.9226560557075354,-0.17705684616651196,-0.08019078901702414,0.011103723586620262,0.19468688218545396
0.9251429992539169,-0.17256422407090444,-0.08036864390017717,0.0254792463132123,0.19205916365598424
0.9276299428002984,-0.1680710176085573,-0.08054582814039568,0.049431661406776684,0.19281853266797866
0.9301168863466799,-0.17315403062720153,-0.08551074488101529,0.05901895165681381,0.20193474804307765
0.9326038298930613,-0.17823645369529312,-0.07610978067208052,0.054241116452280025,0.2012536480509518
0.9350907734394429,-0.18810668734427538,-0.07149654863440169,0.05425176846128643,0.20842057641088457
0.9375777169858244,-0.19318792214678726,-0.07167104861579876,0.039897293787367616,0.2098811723919915
0.9400646605322058,-0.1886917519979896,-0.05269126387078371,0.03511970841482004,0.1990335159703344
0.9425516040785874,-0.1889833840765821,-0.043287614185552936,0.01597699512278794,0.19453483331287438
0.9450385476249689,-0.19885121892300872,-0.03388329279204472,0.001622766571220069,0.20172386613621712
0.9475254911713503,-0.20393004379891122,-0.02447829957106107,0.006422232097753167,0.20549426994160658
0.9500124347177319,-0.19943145260908796,-0.02464944105225486,0.0016449711552279922,0.20095572936361134
0.9524993782641133,-0.19493224922188185,-0.02481991049225929,0.011232999717966763,0.1968268021032945
0.9549863218104948,-0.20000923750832844,-0.024989707796548633,0.03039791383648449,0.20384360119962106
0.9574732653568764,-0.19550880142036087,-0.020370429558495218,0.02083248631718959,0.19766800024126213
0.9599602089032578,-0.1957961481549526,-0.015750479020302244,0.011267136448980253,0.19675151228248558
0.9624471524496394,-0.20087127495107426,-0.015918259432372572,0.01606707355793091,0.2021405722178068
0.9649340959960209,-0.19636896908977736,-0.020873770732989794,0.020867087046397614,0.19857472560171724
0.9674210395424023,-0.19186603445677358,-0.02104020622800018,0.01130196631490854,0.19334683834722494
0.9699079830887839,-0.19215087162064426,-0.01641756587205112,0.01131372732467284,0.1931825415499897
0.9723949266351654,-0.2068002844735468,-0.016582656268586682,0.011325562792926291,0.20777297831969993
0.9748818701815468,-0.21666065698911458,-0.021535477388590962,0.006549068755449028,0.21782678296039007
0.9773688137279284,-0.20257837314440985,-0.021699222570583654,-0.012592562074043911,0.20412600555929206
0.9798557572743098,-0.19807225344344775,-0.017073891801860697,-0.012580507100741656,0.1992044289777184
0.9823427008206913,-0.19835389183134233,-0.022024695038801667,-0.007779976934667587,0.19972451436239874
0.9848296443670729,-0.20821168889751324,-0.026974825644362266,0.006597431093720019,0.21005540866432115
0.9873165879134543,-0.20849202863358707,-0.02234747698962858,0.020974909691362953,0.21073272780494087
0.9898035314598358,-0.20398331163660266,-0.022507859055374446,0.03535245820419597,0.20824406701409617
0.9922904750062174,-0.20426234182784814,-0.027455971869550844,0.040153269335899466,0.20997433109468291
0.9947774185525988,-0.20932911649200675,-0.027615008827592824,0.04974255239012493,0.2169230030267802
0.9972643620989803,-0.20481842295693226,-0.02777337329397289,0.03538988678612043,0.2097007170551059
0.9997513056453619,-0.2098838717968558,-0.02793106532094347,0.030614095105640615,0.21393598778498912
1.0022382491917432,-0.21016025034809965,-0.018511278328222858,0.035415176686710126,0.2139257651417233
1.0047251927381249,-0.20564755591228562,-0.009090819024853314,0.04021632422521293,0.2097401081753958
1.0072121362845063,-0.1963457857954844,0.00033031251267123807,0.040229133735847356,0.200424948315171
1.0096990798308878,-0.182254937308302,0.0097521161997971,0.030665201231842687,0.18507382448692425
1.0121860233772693,-0.18252862104721584,0.009597785303286699,0.0115245260452852,0.18314374050099164
1.0146729669236507,-0.18759002769153582,0.009444126363103322,0.006749124108401006,0.1879488246526273
1.0171599104700322,-0.18307394460505388,0.004502735950232761,0.011550591430129487,0.18349321509711916
1.0196468540164139,-0.18813398239863055,-0.0004379827317473328,0.025928927338339847,0.18991286537504098
1.0221337975627953,-0.19798173508653366,-0.0101664331279121,0.03551892119860334,0.20139939809624877
1.0246207411091768,-0.19346358672714786,-0.015105808730410342,0.03553216901576306,0.19727868582717487
1.0271076846555582,-0.1841563413058751,-0.02483291632065132,0.021180266793352942,0.18702629621952108
1.0295946282019397,-0.19400201277428675,-0.03934775604741825,0.016405230455482922,0.19863070873542985
1.0320815717483214,-0.20384698520645783,-0.04907352142686072,0.025995462643725986,0.21127604682276632
1.0345685152947028,-0.19932604600218368,-0.0540102126237354,0.026008946076522932,0.2081452400573629
1.0370554588410843,-0.19001599916831252,-0.06373463645140243,0.011657276752334411,0.20075875055599718
1.0395424023874658,-0.20464726199852612,-0.05909317980931039,0.006882470590285905,0.2131193894156396
1.0420293459338472,-0.2144894119484248,-0.06402785948767598,0.01168452690674826,0.22414683311969674
1.0445162894802287,-0.2051772364403055,-0.07375027236278964,0.011698235055991546,0.21834296354655422
1.0470032330266104,-0.20544115278512037,-0.07868361199856855,0.016500400992706332,0.22061151667068643
1.0494901765729918,-0.21049275505757048,-0.0740394752871727,0.016514217389222097,0.22374486185945075
1.0519771201193733,-0.21075523401806928,-0.0741830724099306,0.011739683557395963,0.22373805458217416
1.0544640636657547,-0.21101699039407695,-0.08390280691546081,0.006965202128323966,0.22719235304903085
1.0569510072121362,-0.2160664249192551,-0.08883346907903444,0.006979175732046983,0.23371947736528648
1.0594379507585177,-0.21153832505230447,-0.0937634624650654,0.01657000699757738,0.23197977280632015
1.0619248943048993,-0.2070094948598658,-0.09869278732553921,0.021372485271673014,0.23032581348799963
1.0644118378512808,-0.2072683350947342,-0.09404463727969192,0.026175013181369167,0.22910628068443845
1.0668987813976623,-0.2075264398756353,-0.08460741591556209,0.02618918671210757,0.22563579409306098
1.0693857249440437,-0.20778380664825097,-0.09432314011029241,0.02620340848902103,0.2296901906524223
1.0718726684904252,-0.1984636262243753,-0.09446139022543809,0.0310060811363293,0.22197329173773064
1.0743596120368066,-0.20350791266480728,-0.08981056987257352,0.026231993996105984,0.22398554972817994
1.0768465555831883,-0.20376305015444873,-0.09473588931172383,0.031034759651747734,0.22684229243809304
1.0793334991295698,-0.20401743948676382,-0.09008373556854732,0.026260764123287927,0.22456140087080473
1.0818204426759512,-0.19948267482168192,-0.08064251227806718,0.01669841003150374,0.21581332034448505
1.0843073862223327,-0.19973556028724948,-0.08077742972372759,0.016712906636989544,0.21609860814982115
1.0867943297687142,-0.19998769005784367,-0.08091168159519668,0.011939043277697792,0.21606553900986009
1.0892812733150956,-0.19545065831519864,-0.08104526823054359,0.00716522257208041,0.21170884665717857
1.0917682168614773,-0.19570126920943282,-0.08596659329591239,0.007179847137861017,0.21387097076978623
1.0942551604078588,-0.19595111693726203,-0.09088725382457774,0.011982916271746191,0.21633521077048332
1.0967421039542402,-0.19620019902333946,-0.08623044353724607,0.01678602594944678,0.21496971451021582
1.0992290475006217,-0.1964485130000323,-0.08636137276391942,0.02637757878663649,0.21620842173291427
1.1017159910470031,-0.19190765308719776,-0.09128004188138616,0.016815557476469678,0.21317447392347028
1.1042029345933846,-0.19694282679383446,-0.09140964463351953,0.012041977914618585,0.21745622407663748
1.1066898781397663,-0.20197722503535848,-0.08675018141251911,0.016845242714914832,0.22046350176438095
1.1091768216861477,-0.20222244205556822,-0.08209005593858532,0.02643694785001216,0.21984450315289208
1.1116637652325292,-0.19289007210642123,-0.07742926861928634,0.02645188265139531,0.20952702367938406
1.1141507087789106,-0.19313372604968104,-0.06319101322922638,0.040832063012524955,0.20727034920757073
1.116637652325292,-0.1933765948335745,-0.06331730679285519,0.055212278263864434,0.21083639258917178
1.1191245958716736,-0.1888302727350643,-0.06823134310007406,0.06480412437602645,0.21097858331731753
1.1216115394180552,-0.18907156400056263,-0.05399110598748047,0.07439600395979795,0.21023287384364148
1.1240984829644367,-0.19410046624445743,-0.05411541914304152,0.06004589970365792,0.2102593152670401
1.1265854265108182,-0.1991285737695132,-0.054239073059207055,0.04569582749882173,0.21138158526372283
1.1290723700571996,-0.20894428752789646,-0.044785261556334444,0.04092259327518022,0.2175731913255293
1.131559313603581,-0.20439399187907586,-0.04969600170455468,0.04093779300134237,0.21429535552014092
1.1340462571499625,-0.20463129775397393,-0.04981768069875958,0.036164619325257163,0.21369054499818158
1.1365332006963442,-0.2096562028113017,-0.045150299022650664,0.017026264894576926,0.21513755268513388
1.1390201442427257,-0.2194687047189015,-0.045270663808099965,0.002676342278535415,0.22410512747505415
1.1415070877891071,-0.22449199451320417,-0.031025162272641627,0.002691657405478054,0.226641702504523
1.1439940313354886,-0.2247260698805691,-0.031144214844458507,-0.006869807038677678,0.22697789066557314
1.14648097488187,-0.2249593318370583,-0.03126261207643033,-0.021219648446361816,0.22811033596618163
1.1489679184282517,-0.2299801814082098,-0.036168757810184804,-0.025992657569561928,0.23425345489365446
1.1514548619746332,-0.22063500302756606,-0.04107424925420533,-0.025977238441683426,0.22592413644811557
1.1539418055210147,-0.22086581102112673,-0.04597908694476205,-0.02596179509627028,0.2270898450369694
1.1564287490673961,-0.22588419980275648,-0.041306464784958585,-0.011581118285739933,0.229921765073059
1.1589156926137776,-0.22611336047582892,-0.04620999660721159,0.012376387956141599,0.2311185638388911
1.161402636160159,-0.23591850075518883,-0.05111287632949857,0.026757109634608867,0.24287035233072216
1.1638895797065407,-0.23135760180317405,-0.05122670119752426,0.04113785267672121,0.24050537987859666
1.1663765232529222,-0.22200746803439303,-0.05133987510502136,0.060307019689197716,0.23571176309771755
1.1688634667993036,-0.2126565005533015,-0.04187559199217583,0.05553419003658,0.22374181257710968
1.171350410345685,-0.2128815037949207,-0.027622255767485893,0.036396169645920295,0.21772965998358115
1.1738373538920666,-0.2226824755639807,-0.022945076987437307,0.026834974405248957,0.2254641375753418
1.176324297438448,-0.22769420371469257,-0.03263245957523786,0.026850603601108247,0.23158256138349728
1.1788112409848297,-0.21833987943208283,-0.02316558089892773,0.0172894432388766,0.2202450270410471
1.1812981845312112,-0.21856151715395195,-0.02327486149792879,0.022093509206856154,0.22090490964996326
1.1837851280775926,7.734755606952479,5.966909058354469,0.6685436357528616,9.791700495974183
1.186272071623974,7.63397919522486,5.487960738573,0.5057536161092351,9.415473336027897
1.1887590151703555,7.346455905068132,4.908456594533875,0.36690562729757303,8.84296218723546
1.191245958716737,6.881762545243502,4.257127045512291,0.19453882876154793,8.094419791847
1.1937329022631187,6.29735995770424,3.543548897494887,0.012595236390353648,7.225900626621827
1.1962198458095001,5.607613354509895,2.7916641664222106,-0.14061792396557315,6.265659562432667
1.1987067893558816,4.822099544388452,2.030203271547776,-0.26988905633836957,5.239008440776349
1.201193732902263,3.9982793692595977,1.2878966321177598,-0.37042975811926304,4.216886749174975
1.2036806764486445,3.14572963782871,0.5599558441291146,-0.43745162669911863,3.2249851825070452
1.206167619995026,2.27402715879,-0.1296770765063231,-0.4709546627887651,2.3259006766171733
1.2086545635414077,1.4310559673881502,-0.7618485172046026,-0.4996692870205628,1.6964680195499482
1.2111415070877891,0.6311812756146884,-1.3269816720290817,-0.50444188682334,1.5536189293934255
1.2136284506341706,-0.12559691451195293,-1.8107113317302914,-0.4948492695473803,1.8813096266598393
1.216115394180552,-0.8201249877035302,-2.2130374970265994,-0.4948334525034692,2.411431132008122
1.2186023377269335,-1.4332493286836767,-2.514806555362259,-0.48045241979879627,2.9341591941739833
1.221089281273315,-1.9362395155472878,-2.739960524071404,-0.4373409621806932,3.383441184982764
1.2235762248196966,-2.3626143695652813,-2.888499403893657,-0.38465269363815935,3.7514441432991448
1.226063168366078,-2.7075854854581185,-2.941269582294426,-0.33675282483936186,4.011918292018319
1.2285501119124596,-2.947210844677128,-2.9078478666680136,-0.2840645498503278,4.149978752614266
1.231037055458841,-3.100644058568648,-2.821753081017289,-0.23616467601774538,4.199054391451269
1.2335239990052225,-3.1630967218897275,-2.6590432095083574,-0.17389959076583672,4.13593190583822
1.236010942551604,-3.1537224460113285,-2.44844867283773,-0.1116345047603513,3.9941617934993077
1.2384978860979856,-3.072521229035591,-2.194757875107309,-0.06373462866640267,3.77642833059376
1.240984829644367,-2.919493069077157,-1.9075476237462416,-0.02062315654686131,3.4874923701472733
1.2434717731907485,-2.71857998086479,-1.601183129510877,0.0320651208564211,3.155232590248235
1.24595871673713,-2.469781962538432,-1.2852411998442648,0.08475339620072475,2.7854714183464298
1.2484456602835114,-2.1874642222115632,-0.9549334322352343,0.1374416687847404,2.3907713809092117
1.250932603829893,-1.8859919680105555,-0.6294134407811536,0.19012993790790134,1.9973172948044988
1.2534195473762746,-1.5701536014340165,-0.32783483958621007,0.21887618626888106,1.6188776356038583
1.255906490922656,-1.2591027339544447,-0.031044016198923607,0.22846881648903938,1.2800396188013943
1.2583934344690375,-0.9336857504948692,0.2513822219034987,0.23806144115151007,0.9958088932769384
1.260880378015419,-0.6274214725148594,0.4859250506354904,0.24286565623872036,0.8299184212849373
1.2633673215618004,-0.3498867048855987,0.6965264857484592,0.24288146105429043,0.8164320276230395
1.2658542651081819,-0.07713942924935774,0.8736097197448482,0.23810885490273748,0.9087575368384473
1.2683412086545636,0.1573015328946168,1.0075979451204247,0.2093942238082569,1.0410779664492764
1.270828152200945,0.3582245865960359,1.103279564325066,0.1854679869991287,1.1747123161441346
1.2733150957473265,0.5304181368912396,1.1606545764817011,0.17590695042334126,1.2881792193085286
1.275802039293708,0.673882185482691,1.1892997873471751,0.1471922901470748,1.374851539030198
1.2782889828400894,0.7790399274186159,1.1748499860701025,0.12805442540158118,1.4154764689482662
1.280775926386471,0.8411029610538728,1.136458785034626,0.09455133889571599,1.4170154257674628
1.2832628699328525,0.8792249013311144,1.0597609733760893,0.06583664322221772,1.3785732520988916
1.285749813479234,0.8790405399370018,0.9734869701060265,0.04191033769365582,1.3123054630018667
1.2882367570256155,0.850126685145852,0.8680599676668637,-0.0011695949778580683,1.2150081712545324
1.290723700571997,0.7972717418976975,0.7386915618147536,-0.020307525594713383,1.0870693857894669
1.2932106441183784,0.7300525184388633,0.5949585582602746,-0.01071505152061647,0.9418424380198425
1.29569758766476,0.6484690163609265,0.4512261660277268,-0.015487803321249771,0.7901626352466351
1.2981845312111415,0.5429444306007057,0.30749438417401453,-0.03462578167827424,0.6249323129553412
1.300671474757523,0.4278439726822849,0.1637632117494623,-0.03939856735027902,0.45980550409092913
1.3031584183039044,0.31274445079516405,0.029609454438587868,-0.0393829676571098,0.3166020047896105
1.305645361850286,0.1928574631535184,-0.09975529204149947,-0.04415578991735458,0.2215735840923306
1.3081323053966674,0.0777598179180169,-0.22433102865981924,-0.04414022816707508,0.24149401533962955
1.310619248943049,-0.03254848340581745,-0.3297525464308828,-0.05370149304258831,0.33567841158566253
1.3131061924894305,-0.13327903600669133,-0.416019846336511,-0.05847437525700094,0.4407437651815664
1.315593136035812,-0.2435854516895719,-0.5022865426462011,-0.04409366552208027,0.559973119477587
1.3180800795821934,-0.33952571239128804,-0.5693990230732826,-0.029712977790412154,0.6636081810080356
1.3205670231285749,-0.4115230100243904,-0.6077804819780588,-0.020120716052254295,0.7342704850853474
1.3230539666749563,-0.47873095643814556,-0.6222193236880917,-0.015316880976135039,0.7852227851163547
1.325540910221338,-0.5363611468951667,-0.6270807591778684,-0.0009362632682119454,0.8251753965180358
1.3280278537677195,-0.5844135799933272,-0.6175763861469143,0.008655926444934181,0.8503027403634071
1.330514797314101,-0.6085230443846381,-0.598494608941629,-0.0009055224617959823,0.853520305821877
1.3330017408604824,-0.6278431519783519,-0.5698354285943514,0.008686615911440043,0.8479238742147865
1.3354886844068639,-0.6327970947770261,-0.5172336361827004,0.027855534262876347,0.8177644699704756
1.3379756279532453,-0.6233848714390599,-0.4598428460326609,0.02787081201104158,0.7751392927394827
1.340462571499627,-0.6043948839584523,-0.4120282691561239,0.018309255138515113,0.7317073862977397
1.3429495150460085,-0.5854039376648585,-0.34984789000861394,0.0231128795904052,0.682367585381927
1.34543645859239,-0.5616236279423992,-0.2876669196142805,0.037493281391544286,0.6321226955687138
1.3479234021387714,-0.5186887435500424,-0.21590855240184137,0.056662056568384855,0.564681418447906
1.3504103456851528,-0.4853297031450948,-0.144149596087356,0.06146559118809769,0.5100020055913076
1.3528972892315343,-0.44239289219732625,-0.08196685839295492,0.05669228792108605,0.4534799361066079
1.355384232777916,-0.39945511611402496,-0.02457193708587546,0.04713054943944073,0.4029757543231168
1.3578711763242974,-0.35651637367757566,0.03761197338090483,0.042357181737269656,0.36098852625331285
1.360358119870679,-0.30878826036579193,0.08543125862656309,0.04237218416979793,0.3231781113899425
1.3628450634170604,-0.2658475816332636,0.12846272418614202,0.05196395941430687,0.29979636629484235
1.3653320069634418,-0.2324827396301442,0.16670636894810675,0.07592091014984348,0.2959784152126305
1.3678189505098233,-0.19432852324127498,0.19537378847466824,0.07114740585412349,0.284598744775606
1.370305894056205,-0.15617333464874172,0.21446498164243222,0.056797059170742514,0.2713139228580824
1.3727928376025864,-0.12759397937099293,0.21440314068148414,0.03765827278419742,0.2523233556666895
1.3752797811489679,-0.10859045630195996,0.21434187773791225,0.037673062662079815,0.24321510521022946
1.3777667246953493,-0.08958595771110472,0.21428119167070347,0.04247621821135006,0.2361065480590719
1.3802536682417308,-0.09452249912630101,0.20464427469239732,0.03770252884086389,0.2285503504404557
1.3827406117881123,-0.09945806288856379,0.18543112565034825,0.028140397242633952,0.21229340684645387
1.385227555334494,-0.09481584131617143,0.16143014670643963,0.018578226110614438,0.1881352877999583
1.3877144988808754,-0.0901726400250275,0.1278529333761802,0.009016014820399931,0.15671236742905403
1.3902014424272569,-0.09510526464746788,0.08948788780996253,0.00424216606986505,0.13065637910686817
1.3926883859736383,-0.10003690755106048,0.06070021879309362,0.013833485879203522,0.11782726664689706
1.3951753295200198,-0.10496756776053234,0.03191311850363121,0.018636360348734726,0.11128320332034233
1.3976622730664012,-0.11468564763750844,0.00312658575459146,0.013862385541745681,0.11556270611846868
1.400149216612783,-0.1291911462399371,-0.020870977326337137,0.0042999641641952024,0.13093677731316994
1.4026361601591644,-0.14369565932213985,-0.049656378578021965,-0.01483930771651032,0.15275602605139216
1.4051231037055458,-0.15819918597548654,-0.08322961920429472,-0.010036607468371983,0.17903878195986664
1.4076100472519273,-0.17270172530813155,-0.10722549045362051,0.009131257659900527,0.20348604766390319
1.4100969907983087,-0.19678008308568712,-0.1264323968612584,0.013933867140469403,0.23431112805153093
1.4125839343446904,-0.21606904848908431,-0.1408503396476748,0.023524833650780508,0.2589943429732405
1.4150708778910719,-0.22099181403649248,-0.15526772335913508,0.03311575326888949,0.272106782169858
1.4175578214374533,-0.23070199218493614,-0.169684549227076,0.033129818754709106,0.2882947109039883
1.4200447649838348,-0.24041117880689,-0.1888892218086724,0.028355432831304483,0.30705163015664794
1.4225317085302163,-0.2644845830731509,-0.2033049357055967,0.033157804864597296,0.3352378731424509
1.4250186520765977,-0.2741917842888191,-0.19377807888429022,0.037960127621184725,0.33789354790612547
1.4275055956229794,-0.27432118501832675,-0.1986158791603061,0.047550803830869626,0.3419962849936271
1.4299925391693609,-0.2840263978042484,-0.20345312783111025,0.04756462294447594,0.3525997209723363
1.4324794827157423,-0.28415380864390427,-0.1891362128791747,0.03800158437605994,0.343453074530137
1.4349664262621238,-0.2890686267940838,-0.17960715217507506,0.03801530082325044,0.3424391379584701
1.4374533698085052,-0.2891940449273417,-0.17007754367277794,0.038028965064137665,0.3376474028732524
1.4399403133548867,-0.2797416590539133,-0.16054738865180296,0.028465769879163716,0.3237918465124816
1.4424272569012684,-0.2798650818030052,-0.14143988175625521,0.02369092465269773,0.31446933725679205
1.4449142004476498,-0.27998750589939747,-0.12712023423699614,0.018916025490257837,0.30807527234846677
1.4474011439940313,-0.2801089307259835,-0.11280004406879307,0.014141071820070295,0.30229924400599456
1.4498880875404128,-0.2706525490425585,-0.10326771587217731,0.0045776597524707086,0.28972051776410424
1.4523750310867942,-0.26598357022804536,-0.09852325095247583,0.014167805322120586,0.28399791780424655
1.4548619746331757,-0.26131359039771934,-0.07941303733884597,0.03333470132395,0.27514073732961636
1.4573489181795574,-0.2566426090048067,-0.06030228630768475,0.03334792727411262,0.26573272049976754
1.4598358617259388,-0.25197062552021027,-0.050767805820106204,0.03336109589438152,0.259190140538
1.4623228052723203,-0.2425092361122292,-0.04123279056096507,0.04295101326841255,0.2497111574558988
1.4648097488187017,-0.23783524692784258,-0.046062451821652584,0.04296406556051835,0.2460350891205123
1.4672966923650832,-0.23316025417087755,-0.04610317765631544,0.03340025221880616,0.24000996638331057
1.4697836359114647,-0.23327266070359198,-0.03656656608495146,0.01904797601426189,0.2368883141423784
1.4722705794578463,-0.23338406276546536,-0.036606231734003014,0.014272446361081492,0.23666820589130294
1.4747575230042278,-0.22870605661385685,-0.03664536931290119,0.023862066035421847,0.23284918213173617
1.4772444665506093,-0.22402704516465266,-0.03668398017652752,0.019086414573880717,0.22781159449879462
1.4797314100969907,-0.22413543135168068,-0.02714525904394005,0.014310701398491332,0.2262263310277638
1.4822183536433722,-0.21466600484548531,-0.02239441724053215,0.014323329293308262,0.21630571264279988
1.4847052971897536,-0.21477237857679482,-0.03200826277612423,0.01433589440441807,0.21761714397963713
1.4871922407361353,-0.21487774557248857,-0.03204478042306036,0.009559992880582513,0.2174642659347831
1.4896791842825168,-0.23413571879936595,-0.022503971559935554,-0.009581182447053749,0.23540977594558363
1.4921661278288982,-0.2342390713985646,-0.027327854171555366,-0.004780405541517041,0.23587625243000832
1.4946530713752797,-0.23434141637306993,-0.03693962300516551,0.00959711311346112,0.2374290204579315
1.4971400149216612,-0.2344427534627483,-0.03697406949228954,0.014397759716578307,0.2377767481291473
1.4996269584680426,-0.2297546791053069,-0.04658480831120393,0.03356355035210434,0.2368203303105804
1.5021139020144243,-0.2202771930769422,-0.05140663090252984,0.028787257943010403,0.22802059054059753
1.5046008455608058,-0.22516390845330025,-0.051439538672328755,0.033587705219749964,0.2333943995701632
1.5070877891071872,-0.22526121176574787,-0.051471936351447756,0.04317648835307253,0.23506633724215725
1.5095747326535687,-0.2301459094857688,-0.05629222867517436,0.052765203516557335,0.2427346727692472
1.5120616761999501,-0.24460640478212975,-0.05632361042123524,0.04320023692573649,0.2546976694470563
1.5145486197463316,7.239573708725762,11.569888775381926,0.7614725060487348,13.669440154455854
1.5170355632927133,6.942599436037021,10.320085137270258,0.5460060582397386,12.449978585740721
1.5195225068390947,6.47324365322352,8.893111079279029,0.34490475042586866,11.004965576923006
1.5220094503854762,5.874601990245715,7.346427439815283,0.16295698543564008,9.40784245464241
1.5244963939318577,5.1849816737254,5.732706653961486,-0.004625640540149689,7.729681877916644
1.5269833374782391,4.43311312362538,4.104621156795895,-0.17220833794841006,6.044010466514349
1.5294702810246208,3.6381499532493793,2.5052665767518167,-0.31106068735030945,4.428233784945537
1.5319572245710023,2.838399389164342,0.9921037522200198,-0.4163942859056107,3.0354843351452825
1.5344441681173837,2.0530150446367714,-0.38219488173462013,-0.4977859407321308,2.14679634430461
1.5369311116637652,1.30115053291574,-1.61284092325265,-0.5696008622649131,2.149114630567273
1.5394180552101466,0.601959467231131,-2.6806807605190666,-0.6222622443345376,2.8170223358593596
1.541904998756528,-0.030192942525581357,-3.5617723784020012,-0.6366164741279192,3.618344182696951
1.5443919423029098,-0.5857298898017914,-4.227385358453411,-0.6222403587508349,4.312893406604418
1.5468788858492912,-1.0646513747038022,-4.720615332033716,-0.5934991086263555,4.8754418112239595
1.5493658293956727,-1.4621689940363207,-5.022308687343456,-0.5599695308541843,5.260711795334523
1.5518527729420541,-1.7734943446223714,-5.137253829188437,-0.5168632225700414,5.459286279978756
1.5543397164884356,-1.9986274266237274,-5.079815969019009,-0.4593917809065893,5.478145916084897
1.556826660034817,-2.1471450468613833,-4.888302334890861,-0.38276680299339105,5.352778903993196
1.5593136035811987,-2.2190472055341144,-4.57228973494154,-0.3252955158397377,5.092722365618018
1.5618005471275802,-2.2430643227810596,-4.15093178395326,-0.26303590328779336,4.725543367443057
1.5642874906739617,-2.2000427855567417,-3.662535709992742,-0.18162275581717324,4.276370296253931
1.5667744342203431,-2.1043478040763444,-3.1023131112478795,-0.10499809046690878,3.750153452826048
1.5692613777667246,-1.9703445885735427,-2.5037828124726333,-0.01879669771038195,3.1861480639793296
1.571748321313106,-1.8123983493004963,-1.905252041744889,0.04825100209936295,2.630038265562656
1.5742352648594877,-1.625720683246586,-1.3162976072241805,0.1057218151749364,2.0944651424465706
1.5767222084058692,-1.4198883973806846,-0.7369195104331632,0.1536157410914818,1.6070878077393367
1.5792091519522506,-1.2092667020103485,-0.19105976949924885,0.19193277942734355,1.2392207163902629
1.581696095498632,-0.9986440008210592,0.28776279080585,0.21588452644372857,1.061462855170211
1.5841830390450136,-0.7975971008370645,0.7139133789101635,0.23983619168630455,1.0969753172670782
1.586669982591395,-0.6013375991401391,1.0826035899570727,0.26378777474301884,1.2661838062585709
1.5891569261377767,-0.42423070611175434,1.3746798091256758,0.2685856619237885,1.4635076109870155
1.5916438696841582,-0.2614880188706405,1.5853536315526076,0.2590182561433334,1.6275173050095249
1.5941308132305396,-0.11789794119450953,1.7194134590119492,0.2638159769211885,1.743525576883867
1.596617756776921,0.01611633308137106,1.800801306555703,0.2494600006160752,1.8180691333918215
1.5991047003233025,0.1309779968220803,1.8151519626701638,0.21116192351186136,1.8320811229795753
1.601591643869684,0.19795662959300936,1.757677022479092,0.18722897177850406,1.7786708606214996
1.6040785874160657,0.24099424746462125,1.6571069043452558,0.1728727417064171,1.6834388924356147
1.6065655309624471,0.27445605984834087,1.5230184133470814,0.129786006347139,1.5529828149806673
1.6090524745088286,0.288765259535661,1.3554115479192945,0.09627599188049984,1.3891705820237663
1.61153941805521,0.2839218459403383,1.163863113134203,0.07713110124746692,1.200474142785364
1.6140263616015915,0.28386783505934654,0.9579499140611194,0.057986124111069515,1.0008053638047765
1.616513305147973,0.25987280634789234,0.7376719491257657,0.043629463418925596,0.7833245241177879
1.6190002486943547,0.22151356580536563,0.5126060233915424,0.014907505520422859,0.5586192162591079
1.6214871922407361,0.17357851609256206,0.2875405385987104,-0.004237733348887218,0.3358973369505459
1.6239741357871176,0.11127925321137319,0.0864175097658797,-0.01859465687198636,0.14211551447186804
1.626461079333499,0.058557793067294694,-0.10033987133337074,-0.028163265408172933,0.1195419358491433
1.6289480228798805,0.015414134946043323,-0.272731606287564,-0.03294355931337911,0.2751461479369896
1.631434966426262,-0.027728528525506446,-0.4163924867270419,-0.03293553894014423,0.4186123792032401
1.6339219099726436,-0.0852354080589825,-0.5313225142457871,-0.03292760795793903,0.5391223574452071
1.636408853519025,-0.1427412944623036,-0.6270984970810716,-0.04249657335315149,0.644541357038377
1.6388957970654066,-0.1858809785615299,-0.694143630191544,-0.03770041886658859,0.7195890765632863
1.641382740611788,-0.23859647776333737,-0.7276695118587551,-0.03769275811845141,0.7667150329192755
1.6438696841581695,-0.2817341796096742,-0.7468297569683635,-0.0328967848036541,0.798881112747184
1.646356627704551,8.820979450214434,9.519500754943016,0.8673305183238256,13.007030226476829
1.6488435712509326,8.619826417685639,8.571391114062866,0.6327061431228156,12.172529324869686
1.651330514797314,8.188831013918822,7.364708115654362,0.4124468861430781,11.021161074822976
1.6538174583436955,7.556723657940587,5.976066211228275,0.21612955370344622,9.636604785267853
1.656304401890077,6.780965188681463,4.462926239011772,0.015023725563713342,8.117846094703902
1.6587913454364585,5.875920815171261,2.89232584387033,-0.15735177534881295,6.551087985555418
1.6612782889828401,4.879897763023384,1.3408794773076393,-0.31057375598619963,5.070287566611268
1.6637652325292216,3.8503568711150082,-0.15789403905712618,-0.45900742661730654,3.880833206954683
1.666252176075603,2.811240155062767,-1.5417454636859194,-0.5643455609841599,3.255539309613073
1.6687391196219845,1.7769128238251743,-2.767579168323661,-0.6409533693487024,3.3507812310105973
1.671226063168366,0.795258909585456,-3.8114531379984005,-0.7031960619693933,3.9565258065634
1.6737130067147474,-0.11935637873357285,-4.639848551100206,-0.7414968324996742,4.700240214595221
1.6761999502611291,-0.9477794289061571,-5.238400199302097,-0.7558556812301038,5.3768429682066925
1.6786868938075106,-1.6756450320443,-5.602319680919679,-0.7558494150883668,5.896192026971658
1.681173837353892,-2.2885879792779735,-5.731606997591031,-0.7271128243970857,6.2143098388423486
1.6836607809002735,-2.7722430617544256,-5.645415764237274,-0.6744343127566275,6.325417961428935
1.686147724446655,-3.145763893880651,-5.372476402422071,-0.5930254771232217,6.253879786751771
1.6886346679930364,-3.4091504767998444,-4.9319425270703,-0.49725152773083536,6.0161136247265
1.691121611539418,-3.5480376017116737,-4.33817934978833,-0.41105448145054524,5.619371555682219
1.6936085550857995,-3.572002076434726,-3.629494098785856,-0.3344343385483466,5.103358950140154
1.696095498632181,-3.5145627254064724,-2.858559212235233,-0.24344908268514942,4.536824812193185
1.6985824421785625,-3.37093114651915,-2.039739901747999,-0.15725232740114237,3.9431515258519956
1.701069385724944,-3.1506841476431586,-1.187401378937333,-0.0902092829126957,3.3682147122230495
1.7035563292713254,-2.863398536666071,-0.35900448530082985,-0.013589529549813406,2.8858482419491316
1.706043272817707,-2.537804734773804,0.3975667443030395,0.05824172247821302,2.569417110212603
1.7085302163640885,-2.1882679532085043,1.0871007115375235,0.12528447292656253,2.446630497484492
1.71101715991047,-1.8004229833074192,1.6904438014629837,0.17796191491334667,2.476043943044193
1.7135041034568514,-1.4173654562684372,2.1740771891774706,0.23063925816180308,2.605519320314143
1.715991047003233,-1.0343069701033503,2.542789276339983,0.28810490575807535,2.7601761989039497
1.7184779905496144,-0.6608243328017217,2.7917916579675848,0.3072632275887326,2.8853422936193347
1.720964934095996,-0.3208595623308405,2.921084332396336,0.30247943338764394,2.954179808903479
1.7234518776423775,-0.009624256752991167,2.9306672979610084,0.3024839428531685,2.946251851648145
1.725938821188759,0.26330477589206563,2.8205405529951437,0.3024883524450299,2.848908145143088
1.7284257647351404,7.225634199227498,10.261726214971699,1.1883472762046292,12.606545273822894
1.7309127082815219,7.374066648539582,9.34714845214381,0.9441429160675536,11.943092102528505
1.7333996518279033,7.326175511051221,8.226669714013049,0.6903616487775395,11.037551422679263
1.735886595374285,7.101114398578185,6.967327645393232,0.4509454907305006,9.958555721366698
1.7383735389206665,6.722825326240203,5.612217874495057,0.23068284504451952,8.760512793948557
1.740860482467048,6.196096695859268,4.1900708195670955,0.005631694919353336,7.479862261660537
1.7433474260134294,5.549658925842752,2.758347318779207,-0.1954775399181834,6.20043591957977
1.7458343695598109,4.80745403126145,1.3792966136205345,-0.36306805301900624,5.0145679596711075
1.7483213131061923,3.9982124304902973,0.05291870241527796,-0.506716651211697,4.030541501213905
1.750808256652574,3.155452945208357,-1.1585371733492238,-0.6216349313603615,3.4184092293555937
1.7532952001989555,2.303117590438405,-2.216763788787517,-0.7030344903255052,3.273018457823548
1.755782143745337,1.4555715745458535,-3.1361263555392807,-0.7557037316047808,3.5390768932725063
1.7582690872917184,0.6367569125215846,-3.8783176487205213,-0.7700658487312655,4.004972978860569
1.7607560308380998,-0.13896118730037132,-4.433760863370258,-0.7604860518360912,4.500653801412296
1.7632429743844813,-0.8667943232423135,-4.821609614449923,-0.722175937765579,4.951847105681741
1.765729917930863,-1.51322367372038,-5.0322870969996565,-0.6934427332453019,5.300436032783317
1.7682168614772444,-2.0638840304476034,-5.075370119341395,-0.6407676151925941,5.516301503373409
1.770703805023626,-2.5379290083947805,-4.955647086477271,-0.5641505837634373,5.5962297646293075
1.7731907485700074,-2.911416592665403,-4.701848420011439,-0.48753365571182883,5.551703721044849
1.7756776921163888,-3.1891351883002725,-4.328339331587542,-0.40134002454603923,5.391305818994627
1.7781646356627703,-3.3710847970352287,-3.863850242810585,-0.30078128709111773,5.136537821367001
1.780651579209152,-3.4572654206214737,-3.322746365324811,-0.20979946009042116,4.7997232639349585
1.7831385227555334,-3.4620422707862697,-2.7241813140953237,-0.12360614036195017,4.407060130598658
1.7856254663019149,-3.3854153493111587,-2.111250720688888,-0.032624521399815976,3.9899224368848967
1.7881124098482963,-3.236961464633368,-1.4935313934303447,0.053568590024132945,3.5653085617545868
1.7905993533946778,-3.0310458285254436,-0.8853885439650266,0.13976159710252212,3.160804485005463
1.7930862969410595,-2.772456846134207,-0.3299178038602393,0.2020124831096357,2.7993163030126693
1.795573240487441,-2.4659829226214485,0.20161124512111117,0.24032124792483422,2.485854615826126
1.7980601840338224,-2.130777673124507,0.6804681813725915,0.2786299080325936,2.2540818671460587
1.8005471275802039,-1.776417906154946,1.0922877932484591,0.3121500599990181,2.108599265044191
1.8030340711265853,-1.4220572368793987,1.4274932724235216,0.3313048970734318,2.0419957792807315
1.8055210146729668,-1.0676956671981126,1.6956614238535774,0.34088282246958634,2.032595090211918
1.8080079582193485,-0.7133331990254388,1.887215439213581,0.336095432764127,2.045332859649715
1.81049490176573,-0.38291185089208174,1.987790106858104,0.32173113117782925,2.0497419143017783
1.8129818453121114,-0.0812200280614565,2.0213274417045306,0.28342470765371885,2.0427165453030147
1.8154687888584928,0.2013190741495895,1.9878274420688324,0.2451181787008032,2.0129754669612754
1.8179557324048743,0.45034024380838167,1.8920785095875563,0.2211767541909726,1.9574694322596495
1.8204426759512558,0.6562666722885648,1.7484458525381914,0.19244682075740904,1.8774409772971143
1.8229296194976374,0.828675164231115,1.566506275878139,0.1493515716773839,1.7784685356062855
1.825416563044019,0.9675657176222014,1.3558365845654818,0.11583302347388269,1.669698640860397
1.8279035065904004,1.0489963138328864,1.116436776917697,0.0775259661108052,1.5338952437212825
1.8303904501367818,1.0921205641031186,0.8674604645341875,0.03443039951649496,1.3951345585561443
1.8328773936831633,1.1065152730185739,0.6136960490539654,0.015276743544637483,1.2653980673847833
1.8353643372295447,1.0873920351904072,0.3647203354366586,-0.0038770184710728017,1.146933909407508
1.8378512807759264,1.0347508485365597,0.13968693528332077,-0.027819289912232037,1.0445073821314992
1.8403382243223079,0.9533801142818678,-0.07098095972635399,-0.04697326419605652,0.9571720986849825
1.8428251678686893,0.8480682336377796,-0.27686015791208973,-0.04218532809569808,0.8931130263584517
1.8453121114150708,0.7236036078025678,-0.4444318377099368,-0.042185901583994934,0.850236137721503
1.8477990549614522,0.5895630412815298,-0.5832728074382088,-0.0565517913491167,0.8312579940348066
1.8502859985078337,0.4459465319263471,-0.6981714720940237,-0.06612938415393188,0.8310744907838593
1.8527729420542154,0.30711928753652723,-0.7747626233925293,-0.07091868003916346,0.8364262301969706
1.8552598856005968,0.1539276926565724,-0.8226230696495362,-0.06613127572180133,0.8395092583853944
1.8577468291469783,0.0007369550602395747,-0.8465412158597014,-0.05655557455607152,0.8484286099993033
1.8602337726933598,-0.14287612081171053,-0.8465170636964334,-0.06134518985373383,0.860678777097254
1.8627207162397412,-0.2769115371718935,-0.817762211511869,-0.056558105040350526,0.8652247414639961
1.8652076597861227,-0.3965808929250175,-0.7698534676181257,-0.04698272345997978,0.8672705128969701
1.8676946033325044,-0.49709578698851997,-0.7123676403262065,-0.03740744845329225,0.869466039374425
1.8701815468788858,-0.5880330282529583,-0.6357279246649026,-0.04219748999821604,0.8670141086956071
1.8726684904252673,-0.669392618980706,-0.5590879355836975,-0.03262242818650485,0.8727714597085958
1.8751554339716487,-0.7363861581260467,-0.4632940614684209,0.000894543612195875,0.8700038858992631
1.8776423775180302,-0.7698600346944051,-0.37707672390690483,0.0008925855472039501,0.8572468287727834
1.8801293210644117,-0.7841794609454882,-0.3004359245638373,0.005678924177420441,0.8397805796260693
1.8826162646107933,-0.8080748591118841,-0.2190064551416926,0.029618769463521488,0.8377506053873998
1.8851032081571748,-0.8032390049536757,-0.13757672062300985,0.04398170148668079,0.8161217085717156
1.8875901517035563,-0.779248707445855,-0.06093512598887152,0.05834452689390268,0.7838020932951051
1.8900770952499377,-0.7552575822157179,0.0061299237809704366,0.0822840523355044,0.7597514440451196
1.8925640387963192,-0.7169004216599975,0.054041620387812905,0.09664666454319892,0.7254014675183311
1.8950509823427006,-0.6593888248275365,0.09716517213600673,0.09664396021295651,0.6734795824888108
1.8975379258890823,-0.6066648107004595,0.13071217405012492,0.08227593936432065,0.6260169288329317
1.9000248694354638,-0.5443631717097721,0.14989422115622286,0.06790781198105833,0.5686923695443857
1.9025118129818452,-0.47248391025856573,0.16428811844287816,0.06311638472988435,0.504197688745294
1.9049987565282267,-0.4149690453627383,0.1595286542986769,0.05832485099953111,0.44838653904385517
1.9074857000746082,-0.3574533694866434,0.15955784367633008,0.04874480750228649,0.39447138437969104
1.9099726436209896,-0.29514848174628655,0.1500104749677149,0.03437625427400626,0.3328625778532165
1.9124595871673713,-0.2376311912294382,0.13088654652733878,0.02958440131470219,0.27290127868539643
1.9149465307137528,-0.18490150039401787,0.10697446003175148,0.024792442026059902,0.21505061062145192
1.9174334742601342,-0.13695941170865417,0.08306261715928231,0.010423569812981981,0.16051769258426388
1.9199204178065157,-0.09859333097283995,0.05915101626973662,0.029573414606996806,0.11871846734851298
1.9224073613528971,-0.06022645403563631,0.02566284908413996,0.034357943256914325,0.07393426711388502
1.9248943048992788,-0.036223993358082685,0.011328533887900782,0.019988752497516415,0.04289596252868915
1.9273812484456603,-0.017009144809940924,-0.003005544234797597,0.01998466562926282,0.026414601333851397
1.9298681919920417,-0.02173552419305086,-0.03170459687752336,0.015192069432345079,0.041332958383717915
1.9323551355384232,-0.012095907475641432,-0.050826609069345,0.015187770611982288,0.05440885537584387
1.9348420790848047,-0.007243910479698579,-0.06037158243889351,0.000818155954668498,0.060810127317578955
1.9373290226311861,-0.016756342396512525,-0.07949313189399909,0.015178855414083259,0.08264581465813949
1.9398159661775678,-0.01190278586470872,-0.08424924245758802,0.03911625578296807,0.09364663705919794
1.9423029097239493,-0.02141366337639361,-0.08900512571297581,0.039111533896255324,0.09954983408372943
1.9447898532703307,-0.04528897751144395,-0.08897237996007012,0.029529899795099013,0.10411143482682271
1.9472767968167122,-0.06916352089834465,-0.0745742001762828,0.034313370164380075,0.10734202963902735
1.9497637403630936,-0.09303729613595962,-0.08890621786023534,0.03430833180924431,0.13318151402516445
1.952250683909475,-0.11691030583251882,-0.09366120806298772,0.024726381498849648,0.15182830911163442
1.9547376274558568,-0.140782552605502,-0.09362757571611757,0.029509535927298103,0.17162943443140152
1.9572245710022382,-0.16465403908154946,-0.09838212906919308,0.03908098854955,0.1957481023460147
1.9597115145486197,-0.1933131712166854,-0.08398285312724374,0.04386393282361034,0.21528387396179471
1.9621984580950012,-0.20760633837434106,-0.07916016941633819,0.03906996553083708,0.22559518248802557
1.9646854016413826,-0.23147555980961065,-0.08391407953825514,0.0486411033774754,0.2509750275858208
1.967172345187764,-0.26492083818482176,-0.0790909718110675,0.04863532986966845,0.2807201945676496
1.9696592887341458,-0.2840001595694181,-0.07905605779254232,0.043841048438418184,0.2980402463381958
1.9721462322805272,-0.29829033328359283,-0.0790209357566769,0.048623469158339816,0.3123870563440326
1.9746331758269087,-0.3125797653357263,-0.08377401061553869,0.04382897886482695,0.3265657268304247
1.9771201193732901,-0.3268684584222671,-0.08852688063798597,0.03424598099780596,0.340371539529003
1.9796070629196716,-0.3315796086073186,-0.09327954741056432,0.029451282320454908,0.34570722994988323
1.982094006466053,-0.3362900252444356,-0.09803201251717564,0.029444882958276963,0.35152276980232366
1.9845809500124347,-0.35536492101556894,-0.10278427753903197,0.03422678303969562,0.3715108443570237
1.9870678935588162,-0.35528547540754135,-0.09795953741400742,0.03422017605542749,0.37012816760575445
1.9895548371051976,-0.34562849779788685,-0.09313460035847898,0.034213465460032566,0.35958819987972673
1.992041780651579,-0.3407592008922445,-0.10267467790635454,0.019841441429710116,0.3564443929617961
1.9945287241979606,-0.3358891841227062,-0.10263775502623362,0.01025771738573944,0.3513705644094395
1.997015667744342,-0.3262300469289622,-0.09781223660574812,0.005462293471007129,0.3406216578537764
1.9995026112907237,-0.3069933887582078,-0.09298652752965886,0.000666766510965644,0.32076764116857587
2.001989554837105,-0.2925444223462904,-0.09294903267982102,-0.004128863345780331,0.30698340221348663
2.0044764983834864,-0.2828831504754254,-0.08812294697421663,-0.013712999268108206,0.296608457322528
2.006963441929868,-0.2636443659740968,-0.07850827196848531,-0.013720431140814782,0.27542721490087174
2.0094503854762498,-0.24919328159977078,-0.07847021917621122,-0.008939562127139311,0.2614092245179008
2.011937329022631,-0.23952990015598413,-0.08322038682669985,-0.008947198707833337,0.25373265106611476
2.0144242725690127,-0.22986582113287007,-0.08797037314619782,0.005410272561015006,0.2461835764744561
2.016911216115394,-0.2297778539883089,-0.0783549697172381,0.01976764188390412,0.24357365031651554
2.0193981596617756,-0.22490079158532966,-0.0687393880411129,0.029336506108714744,0.23699388201943367
2.0218851032081573,-0.20086942679356856,-0.0782772429362657,0.04848207536732829,0.2209668866912037
2.0243720467545385,-0.19599098901261935,-0.0638729060539216,0.06283913987246414,0.21550167841998097
2.02685899030092,-0.19590027112504182,-0.05904520216707132,0.0628308931598962,0.2140349813957651
2.0293459338473014,-0.19102046934002354,-0.059005729482979774,0.05803414204934754,0.20817890734199107
2.031832877393683,-0.181351586513596,-0.05417768288533287,0.05802569336323771,0.19796615959326605
2.0343198209400644,-0.1716820288282065,-0.044561063895138364,0.04365193400479406,0.18266334821302993
2.036806764486446,-0.16680020247232252,-0.03973268067070812,0.03406647744240843,0.17481852974848625
2.0392937080328277,-0.16670611032001093,-0.04448093804668529,0.03884613050649932,0.17685729536230244
2.041780651579209,-0.1761881585714652,-0.049229030893395365,0.04362568342856932,0.18806638444473905
2.0442675951255906,-0.17609273683103027,-0.034823347437122454,0.05319353972400265,0.18721877619442467
2.046754538671972,-0.17599665463054004,-0.03957111574446026,0.06276129627016402,0.19099653387408466
2.0492414822183536,-0.18547672150734212,-0.04431872403478643,0.06275214662672468,0.2007575538490287
2.0517284257647352,-0.2045329403635729,-0.034700963844287,0.06274289763718599,0.21673613401876896
2.0542153693111165,-0.2140117008254322,-0.03465985326812282,0.04836833954606057,0.22213016406873945
2.056702312857498,-0.2234898124462082,-0.039406990476024806,0.03878208584260534,0.23022740355553253
2.0591892564038794,-0.22817887482336474,-0.010635150391956394,0.02919573341706716,0.23028481536844053
2.061676199950261,-0.23765569752031568,-0.015381980983145471,0.033974492443480386,0.24056413290352685
2.0641631434966428,-0.24713188014445192,-0.020128660486621097,0.038753153176518396,0.2509604272347338
2.066650087043024,-0.2566074256282823,-0.010509980417005238,0.03874331251399177,0.2597284636702283
2.0691370305894057,-0.2612939335887253,-0.015256362168029725,0.04831018063745418,0.26616000802166867
2.071623974135787,-0.27076821360824155,-0.034367807207843715,0.053088547809061026,0.27805568791403784
2.0741109176821686,-0.27545346199255427,-0.039113897078971505,0.05786681757469481,0.284170855726992
2.07659786122855,-0.2753496816924224,-0.0534366498436043,0.06264499016237401,0.2873974905023881
2.0790848047749315,-0.2848220856238523,-0.058182453677321444,0.0626346624822336,0.2973750482459785
2.081571748321313,-0.2847170634648723,-0.0581397133534427,0.06262423808744977,0.2972639024384128
2.0840586918676944,-0.2702462148585569,-0.06288523696174897,0.04346010393205191,0.2808493373801999
2.086545635414076,-0.26056315605355096,-0.07720742926783197,0.02908427685526327,0.2733130816242209
2.0890325789604574,-0.265244696661782,-0.08195267843181986,0.03386196705806199,0.27967413792195966
2.091519522506839,-0.2699256296974218,-0.09148619585209827,0.019485948220351546,0.2856733655367339
2.0940064660532207,9.67569614147006,6.344171289498625,0.8382920116024728,11.600445623736778
2.096493409599602,9.51299910506927,5.496667456855352,0.5749188293266503,11.001865149356073
2.0989803531459836,9.058210064754896,4.558184091901665,0.29718034207189525,10.144778358771879
2.101467296692365,8.359213050740523,3.5718168230985423,0.024230163371070645,9.09037432377003
2.1039542402387466,7.444738479955638,2.575872875591563,-0.2247780932404133,7.880975656436284
2.106441183785128,6.3818239958886975,1.6038710712094062,-0.435479217545387,6.594673765735279
2.1089281273315095,5.20877682210304,0.7036954417458143,-0.6126616126056366,5.291681916817395
2.111415070877891,3.9639041821598986,-0.10550040092263879,-0.7563252781603129,4.036792616214493
2.1139020144242724,2.680724896295953,-0.8045628449160898,-0.8616818106261679,2.928498400853996
2.116388957970654,1.4119113980272273,-1.388703488310856,-0.9191544030973322,2.1833084965389458
2.1188759015170353,0.21013612086703554,-1.8435571225384904,-0.943108265267318,2.0814209697634385
2.121362845063417,-0.9150241315575749,-2.1739121523078913,-0.9431202035071511,2.5402045046704393
2.1238497886097987,-1.9252621356990516,-2.384556982323234,-0.9048250075840958,3.1955366665792653
2.12633673215618,-2.8110010879343377,-2.470703210644059,-0.8186458705836532,3.830963655906769
2.1288236757025616,-3.538722168041847,-2.470658065208431,-0.7228900187922207,4.375988555405472
2.131310619248943,-4.09884857240312,-2.3796331440672196,-0.6127690486113213,4.778985187963063
2.1337975627953245,-4.500957110683202,-2.2072052552279007,-0.4882829597606726,5.03674400776017
2.1362845063417057,-4.745047785908506,-1.972528013334208,-0.3542201552782078,5.150904500410459
2.1387714498880874,-4.826332197787036,-1.6995434363457997,-0.21536903819978193,5.12135862814127
2.141258393434469,-4.7543871559895265,-1.412193542217923,-0.08609481819982356,4.960433463664344
2.1437453369808503,-4.553154680149347,-1.1056899289795163,0.047967714971166586,4.685730323235876
2.146232280527232,-4.246576789901469,-0.794397807936311,0.167664948322507,4.323493245592026
2.1487192240736133,-3.834653488280796,-0.5022591970301842,0.2682084788264749,3.8766954309437174
2.151206167619995,-3.3461151982455126,-0.22927409759695516,0.3448099034573442,3.3716386818994657
2.1536931111663766,-2.8096923427549996,0.019769085711803136,0.4214112391132634,2.841188010346541
2.156180054712758,-2.2349617314890025,0.23050514160827928,0.49801248609272086,2.301348082718567
2.1586669982591395,-1.6410769807683832,0.4029340687703873,0.5506716280946726,1.7772812840324879
2.161153941805521,-1.0519801102357351,0.5418442692007828,0.5602350521402553,1.3092443156431555
2.1636408853519025,-0.4820363328938327,0.6424473382661389,0.545856371815038,0.9711111096708026
2.166127828898284,0.044812331613110656,0.6951664680174345,0.5266892007064801,0.8733075503287883
2.1686147724446654,0.5142006702807906,0.7239436737524829,0.46442631256017464,1.0020920975048635
2.171101715991047,0.9357054867058461,0.728778954172197,0.3877981276079616,1.2478184602224742
2.1735886595374283,1.2853847612422067,0.695307098021233,0.3111698561225893,1.4941528115797749
2.17607560308381,1.5536616842043123,0.6426817172911359,0.2441183050583291,1.6989697365078094
2.178562546630191,1.7501130591875242,0.5756912140172337,0.18664347473063714,1.8517969328451964
2.181049490176573,1.8747388831463436,0.4943355869192825,0.13395696213644648,1.9434397392717009
2.1835364337229546,1.9179623463945084,0.393826431401485,0.07169355763384822,1.9592903782910165
2.186023377269336,1.8941486558472758,0.29331735947438053,0.00943006818424763,1.9167480611710617
2.1885103208157175,1.8176630184199278,0.1928083698720373,-0.033679892608574846,1.828170739069598
2.1909972643620987,1.6693518177858109,0.09708786465371677,-0.07678993770156772,1.673934956782975
2.1934842079084804,1.4827338741417926,0.006155842563091873,-0.11990006676875531,1.4875865225042686
2.195971151454862,1.2673859910835708,-0.07519929433094985,-0.1486450695215069,1.2782869556386043
2.1984580950012433,1.013731358926223,-0.1565543539155363,-0.1630249456304309,1.0386229665755147
2.200945038547625,0.7409235879067713,-0.21875572415118283,-0.17740490472542447,0.7926501940870186
2.2034319820940063,0.46811628826330587,-0.25701500295429636,-0.1774197365128387,0.5627320267989877
2.205918925640388,0.19530945695314897,-0.3048510147989405,-0.18222305393958038,0.4053210660530057
2.208405869186769,-0.07270850574521948,-0.3335333409901695,-0.18702645334938062,0.3892427399608313
2.210892812733151,-0.32157239291180073,-0.32869677278902953,-0.17267632112342568,0.49118986573591367
2.2133797562795325,-0.5417054009459239,-0.32864853797503724,-0.17269148016475455,0.6567167960762139
2.2158666998259138,-0.7378959362067785,-0.3238118311196039,-0.1535531068904703,0.8203188838977348
2.2183536433722955,-0.9101440017320735,-0.3093982501094579,-0.12483800759893526,0.9693677884069283
2.2208405869186767,-1.0392959872770102,-0.2854077961466288,-0.0961229885869681,1.0820505478979534
2.2233275304650584,-1.1301402991970022,-0.26141727706874374,-0.05304283954832201,1.1611931929900705
2.22581447401144,-1.1922537471663368,-0.23742669406776606,-0.009962770097121876,1.215705428743381
2.2283014175578213,-1.2208479308968347,-0.2086476450102901,0.028328816794610745,1.238872887750961
2.230788361104203,-1.2111344500986976,-0.1846569377187799,0.06183192147663519,1.2266898660122063
2.233275304650584,-1.1726901144413586,-0.16066617004967743,0.09533494762047745,1.1874781997766182
2.235762248196966,-1.1150917335924542,-0.13667534317463748,0.11926108893815979,1.1297490566903985
2.238249191743347,-1.0287625039364874,-0.12226126490083145,0.13361034578373676,1.0445821321951052
2.240736135289729,-0.92327923513724,-0.10784712974905775,0.14317112183297986,0.940517686998831
2.2432230788361105,-0.8177955434970596,-0.08864453555528895,0.1527318207630355,0.8366447356680469
2.2457100223824917,-0.6931578187536704,-0.05986508015035419,0.14792723297115806,0.711290415916915
2.2481969659288734,-0.5685196772049761,-0.04066237796146144,0.1431225687778266,0.5876666759688647
2.2506839094752547,-0.4390927185451329,-0.02145962348880026,0.14310623186423044,0.4623227492975175
2.2531708530216363,-0.30966534910642896,-0.0022568178679800432,0.1335130126316173,0.3372290708199193
2.255657796568018,-0.19939118517960508,-0.002207575510661197,0.11434291144346354,0.22986086990684296
2.2581447401143993,-0.09390501981073457,0.007418522379822878,0.09517273530517123,0.1339068212057271
2.260631683660781,0.002004740675705108,0.012256264722568577,0.08079088790306521,0.08173984694316569
2.263118627207162,0.08354968995778983,0.0027288437621995065,0.06640896628412207,0.10676210977330378
2.265605570753544,0.1459414217165151,0.012355081631405085,0.06639218077779674,0.16080879417242092
2.268092514299925,0.18439152963576486,0.01719296062437925,0.05201011183194204,0.1923561432063445
2.2705794578463068,0.20847681736335127,0.0028772696812042753,0.028051163137797985,0.21037521197173836
2.2730664013926885,0.22298568522984558,-0.021015185651196866,0.004092141708103014,0.22401115925135792
2.2755533449390697,0.20876451696741033,-0.03054238985967972,-0.0007133388026190346,0.210988080173322
2.2780402884854514,0.1945437295145703,-0.03528115066798687,-0.0007304879808920361,0.1977183752173422
2.2805272320318326,0.16595810993034266,-0.044808275794560704,-0.010324515412108326,0.17221054395659977
2.2830141755782143,0.12300765523809229,-0.04475855635095716,-0.019918614078980212,0.13240454222050893
2.285501119124596,0.07526916910526427,-0.04470880004497646,-0.02951278360374765,0.09238684438436132
2.287988062670977,0.022742648562272316,-0.0494474112587695,-0.024741813646638633,0.05978655272171081
2.290475006217359,-0.039360312677206244,-0.054185987728525564,-0.029547720429309976,0.07320125178391437
2.29296194976374,-0.09188610429418387,-0.05892453050539359,-0.03914210025050302,0.11596232349199943
2.295448893310122,-0.15398834252839366,-0.06845144395547731,-0.024794532806359015,0.1703313789978739
2.2979358368565035,-0.20651341705321347,-0.06840151915826409,-0.020023840956062244,0.218466275321356
2.3004227804028847,-0.2590381374599167,-0.06356316046912269,-0.0008880077140549503,0.266724240715437
2.3029097239492664,-0.3067741033748784,-0.04914796559741186,0.023036160664029026,0.3115389826682432
2.3053966674956476,-0.3449329144203362,-0.05388635548929077,0.032595051282893195,0.35063498417379807
2.3078836110420293,-0.3783029768550214,-0.0634131212027178,0.03257706784975056,0.38496185731540816
2.3103705545884106,-0.40209589029275694,-0.05378624714962088,0.027770614072737843,0.40662669904808496
2.3128574981347922,-0.42110006098370434,-0.04415934761933915,0.027752496981234387,0.4243176998798643
2.315344441681174,-0.4353154918533062,-0.04889763357547938,0.027734313644575792,0.43893023155178484
2.317831385227555,-0.43516537918193265,-0.0488474927340512,0.032504467773607715,0.4391030917793724
2.320318328773937,-0.4302265325266588,-0.04879732940719883,0.03727455643941546,0.4345865175139952
2.322805272320318,-0.4252873581196434,-0.05353554790163706,0.0420445800342506,0.4307007529315114
2.3252922158666998,-0.415559455547744,-0.053485342557710425,0.042026135630880646,0.42108970426705783
2.3277791594130814,-0.3866776177524321,-0.05822352099157424,0.04679603026383461,0.3938266457666444
2.3302661029594627,-0.35300705759226986,-0.06296168085299625,0.04198905436688172,0.36102802751644036
2.3327530465058444,-0.32891298792088897,-0.058123016465992716,0.03718201497615681,0.336072225725126
2.3352399900522256,-0.30960700830574045,-0.0676495453913093,0.041951719128555,0.31967625392187454
2.3377269335986073,-0.2855123149889354,-0.06759925198111105,0.03235615061954,0.29518445311645597
2.3402138771449885,-0.2566289108480998,-0.06276054050397839,0.017972116487486645,0.26480234194295427
2.34270082069137,-0.22295679875572466,-0.06271021854334258,0.0179532304121377,0.23230287149190773
2.345187764237752,-0.1940727882196817,-0.06265988371623044,0.0322994927926743,0.20647945512654997
2.347674707784133,-0.1699768821019293,-0.06260953695451432,0.0418572907477035,0.18591430110534707
2.350161651330515,-0.1458806799387543,-0.057770775864283586,0.04662662467777068,0.16368468911964937
2.352648594876896,-0.13136099122195832,-0.06250881132740416,0.051395898304381404,0.15428739375235664
2.3551355384232777,-0.1216294154769178,-0.06245843429839226,0.032223095427820425,0.14047454788399819
2.3576224819696594,-0.11189755222345688,-0.05761964568722311,0.02741544301305332,0.1288126246853326
2.3601094255160406,-0.10695380761641354,-0.057569253039017276,0.02739613482253489,0.12451459377251209
2.3625963690624223,-0.1067981844846308,-0.057518853932477576,0.022588364619311463,0.1233876208664949
2.3650833126088036,-0.0970654756902799,-0.04789164262051404,0.022568939448266434,0.11056524332578874
2.3675702561551852,-0.10169770065222539,-0.04784123327242362,0.02733785971421554,0.11566574468151851
2.3700571997015665,-0.1111180555412864,-0.05257922345046584,0.012953109220967818,0.12361059843080102
2.372544143247948,-0.1205381398426768,-0.04295200075047889,0.012933511616600057,0.12861412538262887
2.37503108679433,-0.13953476299656153,-0.0429015826456256,0.036855873948145046,0.15056178573093373
2.377518030340711,-0.15853112115581736,-0.05242797000202515,0.03683616341937679,0.17099038379076387
2.3800049738870928,-0.16795041046722248,-0.04758914707875217,0.036816397039237,0.17840267483068287
2.382491917433474,-0.17736944035264912,-0.057115534652835365,0.03200817189526539,0.1890677808029915
2.3849788609798557,-0.19157661690744138,-0.06664192361301069,0.02719989171607118,0.2046523399277636
2.3874658045262374,-0.22014874954099733,-0.061803104842543366,0.03675676687133489,0.23159480910304714
2.3899527480726186,-0.22477861445324537,-0.06654109578170653,0.03194837784833915,0.23658791556309722
2.3924396916190003,-0.2294082310018113,-0.06649068730280838,0.017563128376968606,0.2394944914351187
2.3949266351653815,-0.24840281189725577,-0.07122868687424155,0.017543035468765567,0.25900818690873567
2.397413578711763,-0.2578203432811443,-0.08075509531829583,0.03667650285438562,0.27264973994321334
2.3999005222581444,-0.2576608278900722,-0.08549310681117372,0.041444707702369854,0.27461944093191776
2.402387465804526,-0.2670778817352829,-0.08544272216423066,0.03663605374410395,0.2827954280340836
2.404874409350908,-0.2669178942588735,-0.08539234550367025,0.031827348031612246,0.282046086710904
2.407361352897289,-0.27154607813842935,-0.0805535743096093,0.02701859097661341,0.28452795142969217
2.4098482964436707,-0.27138562944322303,-0.07571481269732994,0.022209782991131632,0.28262372014853826
2.412335239990052,-0.2616481475560396,-0.0804528680969745,0.007824117846855216,0.2738496556956348
2.4148221835364336,-0.2519104418137517,-0.08040253133166964,0.007803612557930606,0.26454552369732887
2.4173091270828153,-0.24696091822602056,-0.08514060982065752,0.017359864216894394,0.2618014198916837
2.4197960706291965,-0.24679957947524744,-0.08987870101679718,0.022127663275899323,0.2635865072564933
2.4222830141755782,-0.23706121827590132,-0.09461680568782782,0.02689541346858526,0.25665877034434037
2.4247699577219595,-0.22253424061665938,-0.08020131131480124,0.041239921849113514,0.24011345180469984
2.427256901268341,-0.22237226244004793,-0.07536263857646741,0.05079597887028875,0.24022735453170946
2.429743844814723,-0.22221007643927004,-0.08010078822427946,0.055563584946037636,0.2426535932504455
2.432230788361104,-0.212470878620669,-0.08005055104333181,0.050754337170150876,0.23265418054649586
2.4347177319074857,-0.2027314782646043,-0.08000033109455806,0.04594504259751275,0.22273538603885532
2.437204675453867,-0.19778028132386294,-0.07516172579285874,0.05071250828314611,0.2175731674657411
2.4396916190002487,-0.20719409706423203,-0.07511154250867547,0.04590312136033958,0.22511826719952566
2.44217856254663,-0.19266570154102036,-0.079849781966431,0.04588209220468187,0.21354443709790014
2.4446655060930116,-0.18292551728651874,-0.07022283160391218,0.03628421126999193,0.19927251426249754
2.4471524496393933,-0.2067039668255753,-0.07017270873633397,0.03147468893204497,0.2205479426251623
2.4496393931857745,-0.21132861623025906,-0.07012260743136034,0.03145352560575354,0.2248694918920763
2.452126336732156,-0.21595308136980346,-0.06528412507159587,0.012278705104524335,0.22593918858516024
2.4546132802785374,-0.21578896150432392,-0.07002247231553849,-0.0021077555550466087,0.22687543976767247
2.457100223824919,-0.20604785588634827,-0.06997243989446256,0.007447757323349791,0.21773224462466056
2.459587167371301,-0.20588338036232634,-0.0747108351358623,-0.0021503857280098515,0.21903036171931864
2.462074110917682,-0.2152955374897883,-0.07944925540095626,-0.006960167692467323,0.22959267536463457
2.4645610544640637,-0.21991911985762824,-0.07939929804564194,-0.006981588154939544,0.23391752901879698
2.467047998010445,-0.21975413000793254,-0.08413777038143433,-0.007003050020669477,0.2354147080577046
2.4695349415568266,-0.22437737711563166,-0.07451105979266615,0.01212906040662709,0.23673660363168234
2.472021885103208,-0.22421205706659758,-0.07446118354118392,0.02647272694036573,0.23773161266446718
2.4745088286495895,-0.22883497902010624,-0.07919973896166876,0.04081635331578326,0.24556877035308824
2.4769957721959712,-0.23345774216661308,-0.06478471010228493,0.03600632666647208,0.2449408736829821
2.4794827157423525,-0.2332919456886664,-0.06473492084966281,0.03598466400874578,0.2447664967769039
2.481969659288734,-0.2235491887608667,-0.0646851618820592,0.05032817239788834,0.23809942230140205
2.4844566028351154,-0.20901787719046494,-0.050270223872479036,0.0407296256859464,0.2188023555675641
2.486943546381497,-0.20885162673764324,-0.045432124051192346,0.05986146081076882,0.2219605243667486
2.4894304899278787,-0.21826203655298498,-0.05017086304167728,0.07420485494443696,0.23592751555494376
2.49191743347426,-0.21809549581807042,-0.04533282818095019,0.05981779189950842,0.23064882144668855
2.4944043770206417,-0.21314041030794773,-0.03570642340237917,0.05500749865244359,0.22300136341831828
2.496891320567023,-0.2129735891098551,-0.040445262595080855,0.05019716897639803,0.22251589762972776
2.4993782641134046,-0.20801822802163095,-0.035607329760174444,0.03580999664433726,0.21406032089478072
2.501865207659786,-0.2174279427548123,-0.02119262549517531,0.01663438538996509,0.21909071281839076
2.5043521512061675,-0.21726071912992084,-0.021143166994003426,0.01182394890770766,0.2186070889865165
2.506839094752549,-0.20751655956081233,-0.021093744882932253,0.0022250743292602237,0.20859774572346926
2.5093260382989304,-0.21213748305465202,-0.01625595642372657,-0.0121622379326638,0.21310675228050283
2.511812981845312,-0.21196987872751583,-0.016206608833970737,-0.016972777504674852,0.2132649967385138
2.5142999253916933,-0.21180215228874194,-0.02094570268551843,-0.03136015725582908,0.2151332927239387
2.516786868938075,-0.2116343061190329,-0.016108028584193246,-0.01701715021172312,0.21292752643254478
2.5192738124844567,-0.20667793927043243,-0.016058797052616924,-0.012250982523223541,0.20766256792362464
2.521760756030838,-0.2017214574272459,-0.025586411967711165,-0.012273250458699536,0.20370774050284782
2.5242476995772196,-0.20155326626538567,-0.030325663920103274,0.01164646631473687,0.204154366135189
2.526734643123601,-0.19659656149142224,-0.035064956776630574,0.030777748285911954,0.20205699436928307
2.5292215866699825,-0.19163974876443524,-0.03980429107878658,0.04033219254484344,0.19984208928615352
2.5317085302163638,-0.19147123373505726,-0.03975526404274543,0.03552139618122396,0.1987548337872486
2.5341954737627455,-0.1913026154048318,-0.044494682840623856,0.02592216624531929,0.19811215551971229
2.536682417309127,-0.1959222994074411,-0.06359935463954258,0.030688116427654677,0.20825989965795766
2.5391693608555084,-0.19096507808682306,-0.06355045671886428,0.04981924713711727,0.2073361497259748
2.54165630440189,-0.1860077603799587,-0.04913639291548533,0.06416194550096144,0.2028053926323988
2.5441432479482713,-0.19062715521529755,-0.05866439030355819,0.06892780860697378,0.2110243251251499
2.546630191494653,-0.19045805491118362,-0.058615626147633826,0.05932843354252171,0.20791807361516224
2.5491171350410347,-0.1807120584180204,-0.04420169762922521,0.059305837316431465,0.19526346424968113
2.551604078587416,-0.1853311845995116,-0.04894142848745897,0.04970640705428231,0.1980243376701392
2.5540910221337976,-0.1899502257482774,-0.048892802612845454,0.035318546482757895,0.1992962471669122
2.556577965680179,-0.18978078078895982,-0.03926741717228577,0.006565449367151643,0.19391178389577612
2.5590649092265605,-0.18482285195790243,-0.04400728924971853,-0.01739927060584101,0.1907848598043786
2.561551852772942,-0.18465324812345174,-0.043958806041451304,-0.0222104030703143,0.19110860963252493
2.5640387963193234,-0.18927197150469183,-0.048698774660855815,-0.027021560903049746,0.19729575414686173
2.566525739865705,-0.19867902431206858,-0.048650388935271405,-0.031832743700078936,0.20701096255180212
2.5690126834120863,-0.2032976021067462,-0.05817885928882349,-0.031855547737638545,0.2138445010098847
2.571499626958468,-0.20791611040216612,-0.06291897621901077,-0.012724762651856736,0.21760015192494755
2.5739865705048492,-0.20295774474216216,-0.05808233685922337,-0.00795921128251642,0.21125518467032398
2.576473514051231,-0.19799931394314513,-0.06761095826000307,0.006383123373794319,0.20932203482385006
2.5789604575976126,-0.20740603013314962,-0.07713963090470166,0.030302241718379364,0.22335176257389522
2.581447401143994,-0.20244747554871168,-0.0723031452719809,0.039856127550402576,0.21863493791153632
2.5839343446903755,-0.2022772656207964,-0.06746671175771812,0.054198394551272955,0.2200120800191678
2.5864212882367568,-0.20689540249041888,-0.0722071374328328,0.0589638331596305,0.22692798833284794
2.5889082317831384,-0.20672508164926512,-0.07215921276205384,0.07330605705570825,0.23090255384120256
2.59139517532952,-0.20655470854125052,-0.07689974480706807,0.07328305003630753,0.23226886100934213
2.5938821188759014,-0.2063842852812673,-0.07206352402340999,0.05410640917887122,0.22520019587017137
2.596369062422283,-0.21100221729580648,-0.06722735746360797,0.044506554802408616,0.22588113404103996
2.5988560059686643,-0.21562010336201876,-0.057602842214705685,0.039695083983103174,0.2266843975607619
2.601342949515046,-0.21544954224833845,-0.04797838199984161,0.034883593796500634,0.22346654226192467
2.603829893061427,-0.21527893935510772,-0.052719187178269955,0.03486048795811314,0.22436485475063908
2.606316836607809,-0.21031989343332702,-0.05267164486256526,0.03483736354217193,0.2195959964227574
2.6088037801541906,-0.22451442314715547,-0.05262415876239457,0.03481422094255038,0.23321247450851854
2.611290723700572,-0.21955530398797435,-0.05257672926266377,0.030002657232129692,0.22774767487331224
2.6137776672469535,-0.20501934464157712,-0.052529356743848066,0.034767882764345615,0.21447860189095674
2.6162646107933347,-0.20963696706629248,-0.052482041582015526,0.04432149461068313,0.22060466344548346
2.6187515543397164,-0.21425456000862164,-0.05722318746916066,0.03950987988098298,0.22525660984048496
2.621238497886098,-0.20929531884698288,-0.057175988131975775,0.034698248926551045,0.21972162521858643
2.6237254414324793,-0.20912445555265735,-0.05234044393343584,0.025098198816722928,0.21703105668357295
2.626212384978861,-0.20416516548666813,-0.04750495855249648,0.025074939901337245,0.21111344934970075
2.6286993285252422,-0.20878266060291062,-0.042669532343508454,0.025051665927941613,0.2145657808799182
2.631186272071624,-0.2086117329247209,-0.03783416565653397,0.0250283772839488,0.21348699930967419
2.633673215618005,-0.19407557778706946,-0.03778726215768957,0.029793477676335556,0.19995214024063138
2.636160159164387,-0.1939046170787559,-0.04252882218854115,0.03934696749099409,0.2023756039940112
2.6386471027107685,-0.20331044943772902,-0.04248203944581341,0.04411204047242023,0.21233401668288446
2.6411340462571498,-0.1983510602120327,-0.037646914262661646,0.034511890364317566,0.20482066257400958
2.6436209898035314,-0.1933916613035646,-0.04238865692900751,0.029700130831473714,0.2001979786846121
2.6461079333499127,-0.19322065796496068,-0.05191886444937488,0.024888358936314248,0.20161652105089925
2.6485948768962944,-0.19783805211991745,-0.05187232718353574,0.03444178502171269,0.20740508612259445
2.651081820442676,-0.20245544236320256,-0.05661425540903364,0.034418392867221925,0.21302113938659178
2.6535687639890573,-0.19270762064035318,-0.06135624611808188,0.02002977953281615,0.20322895477441727
2.656055707535439,-0.19253660545081241,-0.06609829961914482,0.015217961999516305,0.20413455371024958
2.65854265108182,-0.2019423986838796,-0.061263609576029054,0.015194537325623259,0.21157702193060296
2.661029594628202,-0.2017713889390349,-0.05642898292977705,0.005594295927974002,0.20958821449644088
2.663516538174583,-0.19681198140876538,-0.056382823297131957,0.010359254785045735,0.20499095821206678
2.666003481720965,-0.20621779123795358,-0.056336727650244445,0.010335800991647659,0.21402437498457266
2.6684904252673465,-0.20604680368014167,-0.051502292957325224,-0.00405287171765778,0.21242456839034599
2.6709773688137277,-0.2010874239022346,-0.05145632614360407,-0.004076343046689246,0.2076066524089925
2.6734643123601094,-0.19612805706263575,-0.060987230810104265,0.010265387377966562,0.20564784284564996
2.6759512559064906,-0.18638030167064557,-0.06094139395241838,0.015030303327266736,0.19666565629467272
2.6784381994528723,-0.18142096618803644,-0.06568402580447641,0.015006808493133406,0.19352819567089793
2.680925142999254,-0.18125005242750303,-0.07042672331513966,0.010194903246278031,0.19471887662494566
2.6834120865456352,-0.1858675621933087,-0.06080427678884881,0.014959797917434514,0.19613185948547188
2.685899030092017,-0.1952734972813081,-0.07033550972938762,0.029301492875472235,0.20961249999486475
2.688385973638398,-0.19989105283833225,-0.07029000247273443,0.0388547785273925,0.21542240196146425
2.69087291718478,-0.19493182732314962,-0.07024456191364159,0.038831251919898335,0.21080934966848186
2.6933598607311615,-0.19476103246742216,-0.07019918830253635,0.03401931673937675,0.20980252552704237
2.6958468042775428,-0.1993786700335341,-0.060577075245553225,0.03399577999157444,0.21113301297258516
2.6983337478239244,-0.19920793513493357,-0.05574343294672923,0.019607028759409673,0.2077873126881974
2.7008206913703057,-0.20382563615801957,-0.04612145500492293,0.005218273367029624,0.20904379671237688
2.7033076349166874,-0.20365496819966739,-0.05086475493726672,0.005194724137602691,0.20997512835119667
2.7057945784630686,-0.20348433630943719,-0.04124291305419714,0.00995957479177001,0.20786064112890892
2.7082815220094503,-0.19852533888803403,-0.03162113954540935,0.024301229010127656,0.20249137358949806
2.710768465555832,-0.19835478428889264,-0.04115304791739005,0.033854477191042065,0.20538821638317745
2.713255409102213,-0.19818427089632595,-0.0411082184700029,0.029042513052194963,0.20447581377970528
2.715742352648595,-0.19322539708648606,-0.02669824810120147,0.009865336950895198,0.19531045902372512
2.718229296194976,-0.18826656786801366,-0.031441960267993174,0.0002649658450160075,0.1908742194461957
2.720716239741358,-0.18809618824143753,-0.050550951861463744,0.005029803410169009,0.19483550417571044
2.7232031832877395,-0.20229106651951273,-0.05050639984743022,0.009794640039705982,0.20873070447985803
2.7256901268341207,-0.2069091877647417,-0.05046191771177977,0.02413628272751822,0.2143370646074035
2.7281770703805024,-0.20195055363315922,-0.059994312296431485,0.057631538466482723,0.2184141429639458
2.7306640139268836,-0.20178037573372454,-0.059949970518110796,0.06718477772500542,0.2209595287701433
2.7331509574732653,-0.20639865570647797,-0.05990569921212607,0.06237280749388496,0.2237844163256329
2.7356379010196465,-0.19665178190225446,-0.06464990189020936,0.04798403144257257,0.21249470678872767
2.7381248445660282,-0.1916933692264629,-0.06460577209991847,0.033595256559779685,0.20505827185787232
2.74061178811241,-0.20110022593598087,-0.05977331002622854,0.014418079872243084,0.21029034806713448
2.743098731658791,-0.1961419337173247,-0.054940919171236224,-0.009547498274065092,0.20391497611760884
2.745585675205173,-0.1911837041319741,-0.050108599713571955,-0.014359460932665158,0.19816224314726036
2.748072618751554,-0.19101394209297223,-0.04527635182872958,-0.009594614400318946,0.19654091363964668
2.7505595622979357,-0.1860558425446418,-0.050020982329723296,0.004747041665766005,0.19272106688891993
2.7530465058443174,-0.1858862137047993,-0.05476568474523891,0.009511894326072579,0.19401917638416977
2.7555334493906987,-0.190505057142915,-0.05472205592121826,0.009488347241557449,0.1984356543936765
2.7580203929370803,-0.20470077774108109,-0.05946690266151755,0.028618417353348136,0.21507611381036318
2.7605073364834616,-0.21410816709247615,-0.049846611845117295,0.038171685078040696,0.2231234399829713
2.7629942800298433,-0.18999680682171677,-0.040226393590218734,0.03814815075302036,0.1979197583608042
2.7654812235762245,-0.18503913499111713,-0.044971458012068144,0.042913024675506506,0.19520102766325975
2.767968167122606,-0.19444674981170224,-0.05450499862144342,0.04767790386036275,0.20749341171125474
2.770455110668988,-0.18948923288538416,-0.059250208926224346,0.057231191961975014,0.20662082656567082
2.772942054215369,-0.17974339236907927,-0.0544186857517408,0.04763087271174804,0.1937466915706543
2.775428997761751,-0.18436284305286305,-0.06395244584236037,0.038030559722773916,0.19881120868950555
2.777915941308132,-0.18898237647718996,-0.05912106941620232,0.0475838666070274,0.20365132906307573
2.7804028848545137,-0.18402518749542823,-0.05428976657141371,0.04756037377223343,0.19767305719409675
2.7828898284008954,-0.18385648755514494,-0.054246940762761486,0.03317167822656408,0.19454125226953903
2.7853767719472766,-0.18847627813563578,-0.05420418880165867,0.033148200219253354,0.1988974727875724
2.7878637154936583,-0.18830775406828165,-0.044584704176504175,0.02833632679528364,0.19557748721413704
2.7903506590400395,-0.1833509168178249,-0.049330503615212073,0.018736058279751333,0.1907933362691937
2.792837602586421,-0.18797097780272193,-0.044499570639923824,0.013924201637246725,0.19366771458992244
2.7953245461328025,-0.18780272851236546,-0.0348803086920384,0.013900757190580038,0.19151953378601513
2.797811489679184,-0.19242297703055838,-0.044414734491610375,0.009088918620788533,0.19769137353703212
2.800298433225566,-0.19704332147305026,-0.04916083155300788,-0.0005113137516179478,0.2030840203902504
2.802785376771947,-0.1968753599485114,-0.04911859998962198,-0.010111536286965261,0.20316197327718355
2.8052723203183287,-0.1967074971991949,-0.04428803991233554,-0.0005581353858090665,0.20163229267346236
2.80775926386471,-0.2061165412806611,-0.03945755474986212,0.00899527598763683,0.21005199881561373
2.8102462074110917,-0.21073728363994,-0.03941554792845814,-0.0006049151320137724,0.2143925233228949
2.8127331509574733,-0.1962045157171351,-0.0393736162313294,0.004160114812121307,0.20015943694509522
2.8152200945038546,-0.19603706214857763,-0.04890856640021024,0.004136752852325287,0.20208832308505678
2.8177070380502363,-0.20065811768093667,-0.044078381932284305,-0.005463404019355522,0.20551504258448738
2.8201939815966175,-0.2004908770540656,-0.044036676205196024,0.004090064430148033,0.20531086006383706
2.822680925142999,-0.2003237449619789,-0.05357185263332642,0.013643545229591325,0.2078116756021921
2.825167868689381,-0.1953683194513287,-0.05353029802721254,0.02798544200812536,0.20449317352055732
2.827654812235762,-0.19520140852300655,-0.05348881911699355,0.03275054511245301,0.2050298560333567
2.8301417557821438,-0.1950346102103076,-0.04865901266963757,0.04230406480997573,0.20541624228214572
2.832628699328525,-0.19486792586022061,-0.043829282090522614,0.047069194765342104,0.20520726983587292
2.8351156428749067,-0.19470135681315487,-0.038999627462539266,0.03746912864200169,0.2020730681914123
2.837602586421288,-0.19932330772329282,-0.034170048866418945,0.02786907670378369,0.20414225108391776
2.8400895299676696,-0.19436856995706764,-0.034128949701077715,0.0326342492133147,0.2000222997982248
2.8425764735140513,-0.18941395147601703,-0.04366473336333021,0.027822629869524107,0.1963628088165022
2.8450634170604325,-0.19403626023525666,-0.0436237866463558,0.018222622292011437,0.19971271619666167
2.847550360606814,-0.20344709422259238,-0.04837131958347429,0.03256464670073633,0.21163875098999893
2.8500373041531954,-0.19370443813823995,-0.053118928924734465,0.04211828347070501,0.20522421827620854
2.852524247699577,-0.17438509991830775,-0.038713001457256535,0.046883532897590285,0.18468060323787974
2.855011191245959,-0.1790079040942139,-0.024307150528692922,0.042071991955532795,0.1854850932073363
2.85749813479234,-0.1884192386677187,-0.029054989484753158,0.0276836609377753,0.1926457552010933
2.8599850783387217,-0.18825389495473333,-0.03859130842705172,0.008506943456650262,0.19235692381277636
2.862472021885103,-0.17372347090565632,-0.02897409081469071,-0.001092950236095902,0.1761264796169643
2.8649589654314846,-0.16876998438667445,-0.024145353308039574,-0.010692826491490948,0.17082342419769464
2.867445908977866,-0.16860503333605198,-0.028893499284385893,-0.0155042817008475,0.1717640076331687
2.8699328525242476,-0.168440215686048,-0.03364172215827255,-0.015527315577001488,0.17246729910091527
2.8724197960706292,-0.16827553268326945,-0.038390021983095046,0.008391685447238117,0.17280297761423555
2.8749067396170105,-0.15853417892778426,-0.0479268021307977,0.02273389841439233,0.1671732466272856
2.877393683163392,-0.16315817225595913,-0.05267525601067424,0.0370761302485878,0.17541354338791962
2.8798806267097734,-0.16778230393583088,-0.047846980350625845,0.04662997791178647,0.18059509927664816
2.882367570256155,-0.16282976854995285,-0.047807185158131205,0.027453425083464822,0.1719091359631258
2.8848545138025368,-0.1674541805970024,-0.04776746715777591,0.017853698605920343,0.17504681680051692
2.887341457348918,-0.17207873464806905,-0.05251622971314429,0.02261920207803847,0.18133028871099124
2.8898284008952997,-0.17191502858889324,-0.04289985958467213,0.03217312913652215,0.18008410603254218
2.892315344441681,-0.17175146694021265,-0.03807197009371599,0.012996656815287722,0.1763999841023409
2.8948022879880626,-0.17637645421718418,-0.052397771239786284,0.008185415272009777,0.1841770372665895
2.897289231534444,-0.18100158828880014,-0.0571468431380584,0.022527808100624824,0.19114088725736506
2.8997761750808255,-0.17605006369824389,-0.04753078250377918,0.02729341565164667,0.18438473567926073
2.902263118627207,-0.17588709158480698,-0.05228000929291543,0.02248223819622197,0.18486459745484332
2.9047500621735884,-0.17572426980111955,-0.057029313577186436,0.017671082644881153,0.18558994791222916
2.90723700571997,-0.17556159951475536,-0.06177869538782943,0.012859949266283976,0.18655792859895548
2.9097239492663514,-0.1801874852082737,-0.0713165580750057,0.003260435007529594,0.19381489034072136
2.912210892812733,-0.18481352471832863,-0.06648928838595447,-0.006339056544907962,0.19651220834025154
2.9146978363591147,-0.18465131587632871,-0.07123890294938207,-0.001573315165158462,0.19792312919136087
2.917184779905496,-0.18927766646942146,-0.080776998470804,0.007980852769835067,0.20594817920291408
2.9196717234518776,-0.19390417431866486,-0.0855267683341463,0.02232344752251869,0.21310089917496017
2.922158666998259,-0.19374243723999957,-0.08069980924237274,0.03187766271346604,0.21228465931273513
2.9246456105446406,-0.18400405304429746,-0.08066133117846297,0.03185509528231201,0.20341703217689389
2.927132554091022,-0.18384263613895668,-0.07583452752261888,0.036620955448691817,0.20221296893393048
2.9296194976374035,-0.17889297768421097,-0.07100780161478903,0.03659843682943986,0.19591899074170258
2.932106441183785,-0.17394348211659233,-0.06139275015312906,0.031787539680758314,0.1871786644389942
2.9345933847301664,-0.18335936050835677,-0.06135458311590236,0.03655347421854138,0.1967770221159099
2.937080328276548,-0.18798700068471175,-0.06131649387868876,0.03174262741524814,0.20026587138909205
2.9395672718229293,-0.17824959710667038,-0.0564900791362839,0.02214340284364802,0.18829333020319652
2.942054215369311,-0.16851236083203042,-0.05166374222303505,0.017332607395575295,0.17710442482558642
2.9445411589156927,-0.16835209959354464,-0.05162588647224453,0.01252183800068174,0.17653458023434154
2.947028102462074,-0.1777688144786322,-0.056376511895869896,0.012499498227988681,0.1869125462633127
2.9495150460084556,-0.182397296609141,-0.05155040854394022,0.0076887816843349555,0.18969801210123283
2.952001989554837,-0.1822375470632343,-0.04672438306706006,-0.001910311384072827,0.1881418104042959
2.9544889331012185,-0.17250116359418927,-0.04668683879457047,-0.006720974091644294,0.17883367650059653
2.9569758766476,-0.17234176055231837,-0.04664937241425404,0.0028336004459568187,0.17856616607970205
2.9594628201939814,-0.1721825323615691,-0.051400387253607516,0.00759979918995235,0.1798515532543192
2.961949763740363,-0.17681188340237325,-0.0417862700376852,0.0027892190612472945,0.18170391910723446
2.9644367072867444,-0.17665300808982143,-0.03696063405316652,0.00755547358104991,0.18063626135919816
2.966923650833126,-0.17170590747525627,-0.04650028594526967,0.012321756347439816,0.17831719192040563
2.9694105943795073,-0.17633579256662857,-0.046463209116204496,0.007511260957238974,0.1825090698640617
2.971897537925889,-0.1761774544457279,-0.03684940356894373,0.021854407568522305,0.18131185600653504
2.9743844814722706,-0.1855961041119631,-0.041600885907242535,0.031409179814682275,0.1927772915735593
2.976871425018652,-0.18543812931834786,-0.03677563953097662,0.017021964648172627,0.18981436918337946
2.9793583685650336,-0.17091512777466022,-0.02237366444084321,0.02178839218426276,0.17374491588738683
2.981845312111415,-0.1755459237490447,-0.022336977238392564,0.03613165601353252,0.1806123153700603
2.9843322556577965,-0.1801769049821127,-0.022300367961977763,0.03132133644407631,0.18423368209102237
2.986819199204178,-0.165654459210418,-0.01268702996958826,0.00735743370461428,0.16630241253951508
2.9893061427505594,-0.16549741068993262,-0.007862173220127389,-0.0022412287351798454,0.1656992149017578
