Time (s),Acceleration x (m/s^2),Acceleration y (m/s^2),Acceleration z (m/s^2),Absolute acceleration (m/s^2)
0.0,2.8964901273511,-0.2891564081128064,0.10685520182834551,2.9128481801070354
0.002486943546381497,2.8861494446674216,-0.2878482682033181,0.12561136709659237,2.903186776286636
0.004973887092762994,2.861444638484838,-0.2865398682230009,0.12521390217769124,2.878480334567781
0.007460830639144491,2.8511062239074585,-0.28044281719711606,0.1152396173235779,2.8671824223655853
0.009947774185525988,2.8311922794966753,-0.2839223374397819,0.11484212942714223,2.8477096642512927
0.012434717731907486,2.8064913037144112,-0.2826132313505849,0.11444463545963757,2.8230057121700134
0.014921661278288981,2.8057338116007338,-0.2860923179377446,0.12841234899405762,2.8232039896749836
0.01740860482467048,2.8001894783265233,-0.2895712062555611,0.1423800636816317,2.8187203977260413
0.019895548371051976,3.8816143559881526,-6.944142120598368,0.8889734911422646,8.004893107820703
0.022382491917433474,5.417939301339951,-6.320339814564974,0.8406919758084346,8.3670499366723
0.02486943546381497,6.695692314659302,-5.548096844493655,0.7684684558623793,8.729502731320014
0.02735637901019647,7.714873490916412,-4.68008565930676,0.6866681448767569,9.049529706038987
0.029843322556577963,8.456329311764465,-3.730671481369604,0.6048678531036149,9.262466207799601
0.032330266102959464,8.9296366787407,-2.7716803728964288,0.5182791808336731,9.364253126282744
0.03481720964934096,9.144372493342473,-1.8318427662235939,0.42690213167751345,9.33581499641006
0.03730415319572246,9.110113657025222,-0.9494659003327155,0.3355251125654899,9.165600549935293
0.03979109674210395,8.869955894442594,-0.1532802075691695,0.23935972378672332,8.874508745207287
0.04227804028848545,8.443052913600663,0.5423490896785048,0.143194372270262,8.46166589184338
0.04476498383486695,7.85334682577775,1.1230567690179423,0.05181746494439032,7.933410232810588
0.04725192738124844,7.153510162123952,1.5840544146938327,-0.04913620454471079,7.326960515446957
0.04973887092762994,6.367485033815347,1.9205536109475823,-0.1309362126689706,6.652107644962935
0.05222581447401144,5.538367165255099,2.1229775386972607,-0.16485213590133263,5.93360941701593
0.05471275802039294,4.7044638774698395,2.2056913954597617,-0.21313321380175054,5.200238520803565
0.05719970156677443,3.8897172814670324,2.1878487820698123,-0.27099103944697767,4.471019902260355
0.059686645113155926,3.1084926815532525,2.0790264927193167,-0.2857531727118783,3.750564328792911
0.062173588659537427,2.379943785293091,1.8935897249185571,-0.27657322327732814,3.0539003283189117
0.06466053220591893,1.737589510147772,1.6363268695355333,-0.2817584141068359,2.4033665416784706
0.06714747575230041,1.1910067569106302,1.331179930718116,-0.2677899183607,1.8061695776778812
0.06963441929868192,0.7497724263066452,1.0116677192536825,-0.24424453908359034,1.2826868909838662
0.07212136284506342,0.4138866123498257,0.6730018193662741,-0.22548748264209806,0.8216314146750965
0.07460830639144492,0.1929262156224376,0.33433583188092886,-0.1971535354826699,0.43344029543551255
0.0770952499378264,0.058160910069879,0.02440016426301872,-0.1736079039753875,0.18470994504613503
0.0795821934842079,0.019167596123671693,-0.26159359926429726,-0.12133176128908651,0.2889982771829649
0.0820691370305894,0.0759463674963432,-0.5188570678369828,-0.06905552375858903,0.5289131998181309
0.0845560805769709,0.20934370453880424,-0.7330250439498518,-0.016779187798874773,0.7625169131441625
0.0870430241233524,0.404994490839917,-0.8945207334172345,0.03549725017299643,0.9825721016260511
0.0895299676697339,0.6485336099041961,-1.0177093586539505,0.0638317771362189,1.2084712150645422
0.0920169112161154,0.9303843484701502,-1.1073793354328512,0.0969548165911931,1.4495876189048251
0.09450385476249688,1.2409699931879354,-1.153953869564226,0.13007796879378475,1.699569455785974
0.09699079830887838,1.5467718140159032,-1.1478561668564866,0.15362443067714793,1.9322725713846358
0.09947774185525989,1.852578307382623,-1.1034514497174366,0.17717101245319888,2.1635713657103777
0.10196468540164137,2.1488127596614963,-1.0398933438727591,0.20071771769068114,2.395633954699649
0.10445162894802287,2.4163216504891087,-0.9619702650844917,0.23384135659631156,2.6112600195277262
0.10693857249440437,2.664681879325761,-0.8601054191507551,0.27654193273348326,2.8136784270096564
0.10942551604078588,2.8699515222894556,-0.7390872218273552,0.300089029740942,2.9787455560236933
0.11191245958716736,3.0512842852789355,-0.6276461054681328,0.3044826511764356,3.1300135955242956
0.11439940313354886,3.1895266475264363,-0.5209936791809437,0.3088764138760336,3.2465241856602027
0.11688634667993036,3.270313491478543,-0.39518793878832836,0.29890511143060294,3.3076378437110807
0.11937329022631185,3.3271637326770698,-0.2789593166319162,0.28414555402949304,3.350906668388734
0.12186023377269335,3.3409238500305642,-0.19146143840809904,0.26938614853857956,3.3572307860980897
0.12434717731907485,3.302017128976437,-0.11832910656619688,0.259415301820491,3.3143046323977465
0.12683412086545634,3.2487508880415357,-0.035620316909747096,0.2542330174142329,3.2588779613037007
0.12932106441183785,3.1715484124339755,0.01835769159908196,0.22989728225386408,3.1799228131577397
0.13180800795821934,3.0751981972052893,0.05318171320693743,0.21035011647309254,3.0828427495113226
0.13429495150460083,2.9453351240063226,0.07364013884613296,0.18122631363959307,2.9518239851844172
0.13678189505098234,2.8154781075696977,0.07015614949428084,0.13773747395804392,2.8197181545765266
0.13926883859736383,2.685627239262617,0.052306539416759446,0.09424881091069715,2.6877895156974594
0.14175578214374532,2.546205803686509,0.03445650620604468,0.07949074793697797,2.5476793409992493
0.14424272569012683,2.406790698597024,0.007029230860104985,0.06473286862873096,2.40767132749064
0.14672966923650832,2.2865356282615212,-0.020398492334517293,0.06912878977702519,2.2876713197867535
0.14921661278288983,2.1710754735743705,-0.05740348236493409,0.07831330492675725,2.173245693765974
0.15170355632927132,2.074775535219145,-0.09919734824945436,0.07313280429844937,2.078432592726588
0.1541904998756528,1.9880590971433079,-0.1362032956779422,0.05358729138975171,1.9934397179965808
0.15667744342203432,1.910926249798534,-0.17320974029279768,0.04361878629567251,1.9192559352049157
0.1591643869684158,1.8529538901388554,-0.2006398877668123,0.024073679224127176,1.8639404565530473
0.1616513305147973,1.8189305116578613,-0.24243576700602443,0.014105586941180803,1.8350701008263102
0.1641382740611788,1.8040678010665436,-0.27465537370413884,0.008926109606925081,1.8248769494358652
0.1666252176075603,1.7987890416117613,-0.29729872014694436,-0.00104155594335964,1.8231921539054388
0.1691121611539418,1.7935175163947172,-0.3199426252511124,-0.0014321962773955477,1.8218316102904313
0.1715991047003233,1.8074069282910021,-0.32822189132174184,-0.0018226145691038198,1.8369683547358686
0.1740860482467048,1.840457366745642,-0.3317133372552141,-0.007001210676802927,1.8701246145303352
0.1765729917930863,1.868726904450964,-0.3495705885779925,0.006974035458286565,1.9011545116029418
0.1790599353394678,1.9017924371885278,-0.36264004424322405,0.030526320647894067,1.9362990812600478
0.18154687888584928,1.9396540539445188,-0.3517681031929776,0.04450203505821371,1.9717959018447406
0.1840338224322308,1.9823118435485458,-0.3265315842798562,0.04890118213168293,2.0096204731787104
0.18652076597861228,2.015400684710929,-0.31566091962610354,0.06766578190724104,2.041092941086612
0.18900770952499377,2.048497472583398,-0.2952141048186565,0.07206541789525822,2.070914456784941
0.19149465307137528,2.0863906988354373,-0.2843447653151223,0.07167690016340522,2.1068971668703176
0.19398159661775677,2.1242920483321885,-0.27347610663883515,0.08086544209438706,2.143349039992045
0.19646854016413826,2.1526248024529977,-0.24345452765984055,0.08526583714368563,2.168025348135417
0.19895548371051977,2.16660064573027,-0.21343365379775614,0.08966649204261401,2.1789337673383997
0.20144242725690126,2.166219665847708,-0.20256711045900655,0.08927900687636381,2.1775012780739984
0.20392937080328274,2.1754239669198077,-0.20127810311469085,0.0841033850448909,2.1863338468812508
0.20641631434966426,2.179848426326047,-0.1856246272612605,0.07892803326284437,2.1891608662765663
0.20890325789604575,2.1555511146310242,-0.17476030826400235,0.08811816487980373,2.164418301556648
0.21139020144242726,2.1408393453874046,-0.16389675487240263,0.09730857331771503,2.1493078438087
0.21387714498880875,2.1357132054076318,-0.1578223824620788,0.10649926195363157,2.144183036253019
0.21636408853519024,2.1162307647231433,-0.156537203073575,0.12526704079933282,2.1257065594802635
0.21885103208157175,2.082392109785779,-0.150464422091797,0.14403510657938234,2.0927834463080073
0.22133797562795324,2.0629277467863862,-0.14439245484731345,0.1484382526919834,2.0732954406789785
0.22382491917433472,2.048260955168741,-0.15268652329578414,0.1384764824901783,2.058606774269377
0.22631186272071624,2.0096614009091027,-0.15140462281457534,0.1380918159223956,2.020082091336465
0.22879880626709773,1.9758595896395228,-0.15970037864781794,0.13291904636832896,1.9867543385628195
0.2312857498134792,1.9564324135211673,-0.16799699610145868,0.10380456388105408,1.966373862432551
0.23377269335986073,1.9178611346410745,-0.166717680464878,0.09384400167133933,1.9273797792329432
0.23625963690624222,1.8888762580573646,-0.1702276536121996,0.10303736306071265,1.899328215578764
0.2387465804526237,1.864689465391327,-0.1689501207989088,0.11701944140326326,1.8759809421541818
0.24123352399900522,1.8405124380679525,-0.16767349722409808,0.11663662672620667,1.8518111510216875
0.2437204675453867,1.8211336639549107,-0.1807630047098976,0.10667732565168109,1.8331893349214596
0.24620741109176822,1.8065532273999712,-0.18427663849809983,0.09192994479512429,1.8182528860627298
0.2486943546381497,1.7871944059090565,-0.17821441041396913,0.08197129408552328,1.797927560733713
0.2511812981845312,1.777422493386804,-0.17215313890504458,0.06722457016379302,1.7870049149529303
0.2536682417309127,1.767660766931821,-0.18045804572058088,0.06205498626551886,1.777931526953639
0.2561551852772942,1.7626977133975719,-0.16961031938785842,0.07603935229901992,1.7724708382249719
0.2586421288236757,1.757745012789211,-0.17312879489942956,0.08044725160309874,1.7680816920886784
0.26112907237005717,1.7480143449026078,-0.17664827402537053,0.0800670907516512,1.758740885327588
0.2636160159164387,1.7478710026040094,-0.1753803651567818,0.07968727631142158,1.7584542576457325
0.2661029594628202,1.7429498586253298,-0.18847869326647482,0.06973100488099426,1.754497318475924
0.26858990300920166,1.7476162054063256,-0.19678965674465942,0.06456348965324032,1.7598457360225326
0.2710768465555832,1.7475049152492717,-0.2003132672424459,0.07376154049337202,1.760494134812628
0.2735637901019647,1.7378276668799053,-0.20383793971066266,0.07338314401702206,1.7512795297337789
0.27605073364834615,1.7281613487661804,-0.207363685758982,0.07300511007454347,1.742088141179398
0.27853767719472766,1.723294445835473,-0.2061021136556782,0.08220424850877173,1.7375210406707657
0.2810246207411092,1.7232270394730405,-0.21920684824925285,0.08661535255339281,1.7392714828882636
0.28351156428749064,1.7183824042001796,-0.22752428780413414,0.09102682871570345,1.7357682080714596
0.28599850783387215,1.7135490242742613,-0.2166892338832409,0.0762850668937265,1.7288793752321643
0.28848545138025367,1.6991501737653425,-0.2106437145899287,0.061543683540215,1.7132628848156186
0.2909723949266352,1.6751859331562196,-0.21417614472399782,0.04680268181884273,1.6894702787083131
0.29345933847301664,1.6703868026221746,-0.20813292246113546,0.04163887152602186,1.6838186301999707
0.29594628201939815,1.6655992489044853,-0.20209086587611536,0.04126385248926567,1.6783218647041453
0.29843322556577967,1.651246545152686,-0.20083838970036894,0.04088922452807786,1.6639180088990644
0.30092016911216113,1.6416939808840283,-0.1900102953608096,0.050091797414820505,1.653412298061859
0.30340711265854264,1.6321532320991992,-0.18397180418271386,0.059294767632477985,1.6435588420420777
0.30589405620492416,1.6226243778824205,-0.18751133082698557,0.06370973497615573,1.6346648895775402
0.3083809997513056,1.61310749707968,-0.19105207996960472,0.05854829923271687,1.6254367406141728
0.31086794329768713,1.6036026682972835,-0.18022885294201973,0.06775248010259105,1.615120539081531
0.31335488684406865,1.5893215665801073,-0.17419527429340587,0.08653387735597917,1.6011792989896731
0.3158418303904501,1.579841076691412,-0.1729513552669939,0.0909504774733989,1.5918800169117044
0.3183287739368316,1.5751612765098586,-0.16692030044046158,0.09057909016907928,1.5865686260893852
0.32081571748321314,1.580070646989029,-0.1513137176866386,0.09020812182840565,1.5898605586277965
0.3233026610295946,1.5658388455935217,-0.14528523145452032,0.08504917218754215,1.5748626767239844
0.3257896045759761,1.561196369383484,-0.13925804624560012,0.07031384097400206,1.5689713010290631
0.3282765481223576,1.5517780852866627,-0.13802057649644706,0.07952095446909802,1.5599322061269296
0.3307634916687391,1.5375840699407664,-0.13678442997691764,0.07915169246101428,1.5456842312837267
0.3332504352151206,1.5234028030514661,-0.1307612144305481,0.0787828646119344,1.531032767546429
0.3357373787615021,1.5092343607504053,-0.11995094089463976,0.07362607061423354,1.5157827621942686
0.3382243223078836,1.4902904155938366,-0.11393042702033807,0.07325812011230148,1.496433231779579
0.3407112658542651,1.471359446522209,-0.11269968379115802,0.05373699949935684,1.4766473867216785
0.3431982094006466,1.4715951421791371,-0.11625872216338351,0.039004728362709074,1.4766955413350942
0.34568515294702806,1.4574787544256935,-0.1198191497455281,0.04821492296026442,1.4631902224400204
0.3481720964934096,1.4433755680656466,-0.11380417079810723,0.0526371663376608,1.4488116133783342
0.3506590400397911,1.4436508676410118,-0.11736740947560653,0.04748305813291509,1.4491920429181617
0.3531459835861726,1.4391511141885576,-0.11614366666218956,0.051906214576353804,1.4447627957168439
0.35563292713255407,1.4298763817619398,-0.11492135649491475,0.061118235287452194,1.435788572173459
0.3581198706789356,1.4062499375085324,-0.12327729640257346,0.06554231655602116,1.4131638170469158
0.3606068142253171,1.3922138715509522,-0.1268462871835978,0.07954367126401962,1.4002416364146988
0.36309375777169856,1.3877682571420349,-0.13520514620896407,0.10312230232300834,1.3981471225621525
0.36558070131808007,1.383336360624503,-0.13398867421884963,0.10275938939286178,1.3936039407066714
0.3680676448644616,1.3837066580312691,-0.12319688188491229,0.09760854864731883,1.3926051184579442
0.37055458841084304,1.374514011841995,-0.11719498981007526,0.09245818628957103,1.3825960909096033
0.37304153195722456,1.379700510825596,-0.10640620196580608,0.07773149855220751,1.3859790637871736
0.3755284755036061,1.3657474036327608,-0.10998414221534336,0.07258210157998057,1.3720898817272282
0.37801541904998753,1.3518083751619083,-0.1183520144697301,0.07222159490631341,1.3588999379121824
0.38050236259636905,1.3570371100345322,-0.11714461928916098,0.07186157805481841,1.3639782499144941
0.38298930614275056,1.3479148560705556,-0.11593877380464468,0.057136843898623724,1.354097809398467
0.385476249689132,1.3292300873730656,-0.1243112951162284,0.04720100854314424,1.335864461118257
0.38796319323551354,1.3297132943661814,-0.12310858037091332,0.04684247812288511,1.336221308590683
0.39045013678189505,1.3254225306688703,-0.12190744660619446,0.036907642160786125,1.3315286269519642
0.3929370803282765,1.3115694628984604,-0.1254963075076625,0.05091532669317189,1.3185431922004247
0.395424023874658,1.30251937066947,-0.13866357672910778,0.06013511458219867,1.311259139333761
0.39791096742103954,1.293483920029952,-0.1326788446501257,0.0549902019611217,1.3014331521463054
0.400397910967421,1.2748863734212814,-0.13148413814153237,0.05463420487488513,1.2828126285862638
0.4028848545138025,1.2658804129191967,-0.13507946744016008,0.059067126076930876,1.2744365844244199
0.40537179806018403,1.266466107029546,-0.12431122946896522,0.05392375834946428,1.2736944114430238
0.4078587416065655,1.2670667173277852,-0.12312145100088401,0.048780911065925636,1.2739688124678696
0.410345685152947,1.2581055050984906,-0.1267217388539441,0.0484269902690464,1.26539836985979
0.4128326286993285,1.239582537974873,-0.12074689317231257,0.04328519203019887,1.246201544097938
0.41531957224571003,1.2210746899376812,-0.11956213398859727,0.05250913233215471,1.2280373411540007
0.4178065157920915,1.2169472379937982,-0.12316747134083261,0.056945200584682,1.2244891024124547
0.420293459338473,1.2032582322923484,-0.12677451191290512,0.056593399468221506,1.211241083894297
0.4227804028848545,1.1895845459283096,-0.11601805571404622,0.06103053829324345,1.1967858236825388
0.425267346431236,1.1807146483789541,-0.11484012928175646,0.06546821639862799,1.188091504703449
0.4277542899776175,1.167071798862164,-0.11366393587692425,0.06990643643288585,1.1746756930630453
0.430241233523999,1.153444466257262,-0.10770108204612772,0.06476839439317317,1.1602709186761841
0.43272817707038047,1.1446211191430353,-0.1113167875823784,0.06920770618774164,1.1521018358555306
0.435215120616762,1.1358134191560851,-0.10056904568117808,0.07843597111246403,1.1429516427428656
0.4377020641631435,1.1270214309507383,-0.08503467274501064,0.06851117517110161,1.132299422641567
0.44018900770952496,1.1230336221980388,-0.06950208182065998,0.06337533755964486,1.1269656114431585
0.4426759512559065,1.1094848469831842,-0.05875968591932379,0.06302846086157565,1.112826092996213
0.445162894802288,1.1007403790076533,-0.05759589801642884,0.057893741008768984,1.1037655342935029
0.44764983834866945,1.092011878385099,-0.06122232441081543,0.03839437392207934,1.094400403640863
0.45013678189505096,1.0785110049216238,-0.05527376472455359,0.03804918539410984,1.0805965562193096
0.4526237254414325,1.0793914347163707,-0.05890384178556518,0.04249296800322355,1.0818323272327772
0.45511066898781394,1.0754996169965079,-0.06732416178369194,0.03257211099633217,1.0780968932958992
0.45759761253419545,1.0668356139600228,-0.07574633087207294,0.02744023017166164,1.06987321682801
0.46008455608057697,1.0629762941341605,-0.08417035848727616,0.02709732803497289,1.0666477939440482
0.4625714996269584,1.0447681058119906,-0.07823104406786374,0.03633181040107303,1.0483227039537695
0.46505844317333994,1.0265763202155453,-0.07229360693702525,0.055143679753157926,1.0305950379503939
0.46754538671972146,1.013189401612094,-0.08072326638051974,0.06916772860214948,1.0187507958054285
0.4700323302661029,1.014184217274174,-0.08436641840431314,0.07361555608822279,1.0203462986753953
0.47251927381248443,0.9912536009552584,-0.09279987889846009,0.06848716466046056,0.9979408853502117
0.47500621735886595,0.9970700491779279,-0.09644685043380719,0.06814776671743061,1.0040392402863794
0.4774931609052474,1.0029032017017436,-0.10009574550399725,0.06780896136496573,1.0101643655826533
0.4799801044516289,0.994387907928629,-0.09895816992373785,0.07225915433800267,1.0019088861842549
0.48246704799801043,0.9954662435035674,-0.09782253610987723,0.057556331438052055,1.001915676000071
0.48495399154439195,0.9869846538684391,-0.10147725644060701,0.04285410833783487,0.9931126900548327
0.4874409350907734,0.9785200040658638,-0.10034553329435258,0.03772929405782399,0.9843749915755113
0.4899278786371549,0.9748607554961807,-0.10400418229179031,0.037393487645880796,0.9811058227628102
0.49241482218353644,0.9664301592759975,-0.10287640573317924,0.03705828813817291,0.972596588691601
0.4949017657299179,0.9580166761592502,-0.10175061584037959,0.027146891238826854,0.9637873693543856
0.4973887092762994,0.9448319599348342,-0.1054152247957516,0.022024509241759915,0.9509494629791739
0.4998756528226809,0.9364528740273658,-0.10908183810136096,0.012114337827535238,0.9428624448235726
0.5023625963690624,0.937667878215142,-0.1079620612194434,-0.007372024014808076,0.9438915209055074
0.5048495399154439,0.9197466087074883,-0.10684430621286367,0.0162378625356574,0.9260740781269934
0.5073364834618254,0.9066311379096085,-0.11051698510433061,0.030271563241088373,0.913843745814831
0.5098234270082069,0.9031099246171371,-0.10461489659498158,0.0347290803751541,0.909812025396045
0.5123103705545884,0.8948178140153843,-0.10350325926734971,0.04876402948081804,0.902102973905663
0.5147973141009698,0.8913316675614039,-0.10239367838207913,0.07237641280778817,0.9001083002068857
0.5172842576473514,0.8830747331004455,-0.10607456579964314,0.07683581267187733,0.8927354254531147
0.5197712011937329,0.8700470647871005,-0.09539231673799886,0.07171903793934042,0.8781942891184367
0.5222581447401143,0.852248716443961,-0.08950055293649362,0.07617970410497144,0.8603148092261567
0.5247450882864959,0.8392565482015356,-0.08361087949164947,0.06148739344833132,0.845649473731045
0.5272320318328774,0.8310706132162992,-0.06814649813825824,0.051584124760269745,0.8354539073387031
0.5297189753792588,0.8229025609903146,-0.057472627171105906,0.03689309357728199,0.825731692568518
0.5322059189256404,0.8099640406908636,-0.04680087156200674,0.022202705384604116,0.8116187706784694
0.5346928624720219,0.7970435077903989,-0.036131239561219886,0.021878172295856757,0.7981619348265496
0.5371798060184033,0.7937178207455665,-0.0350405460176102,0.021554286490530927,0.7947832447280324
0.5396667495647849,0.785621821074676,-0.033951992456625835,0.03080785673738795,0.7869583899909934
0.5421536931111663,0.7727555599195538,-0.03286558700203024,0.04963888515226067,0.7750453671332606
0.5446406366575478,0.7694842980449071,-0.02220453109450471,0.03974014727613451,0.770829686405706
0.5471275802039294,0.7662312792751947,-0.016334042733692655,0.02984206512200238,0.7669861296936689
0.5496145237503108,0.753419747095572,-0.020042533235869797,0.03430985072952808,0.7544668212116085
0.5521014672966923,0.7502033645731548,-0.018964800593178843,0.038778296204080576,0.751444281457323
0.5545884108430739,0.7470053745126682,-0.017889256035988232,0.02888219363857658,0.7477775311827102
0.5570753543894553,0.7342490193777297,-0.016815907431189103,0.02377515835565802,0.7348262756289602
0.5595622979358368,0.7167227512512032,-0.01574476260237123,0.028245595704529336,0.7174518892491697
0.5620492414822184,0.6992150218736873,-0.014675829329686696,0.018351491100007777,0.6996097512227291
0.5645361850285998,0.7008794926038878,-0.013609115349714873,0.0036696531865345605,0.7010212104692657
0.5670231285749813,0.6977741945743109,-0.012544628355326104,-0.0014347060837014425,0.6978884242455581
0.5695100721213628,0.6898991751750924,-0.016270779315863404,0.007826818588274165,0.6901353992196256
0.5719970156677443,0.6772544814518954,-0.01999917251607153,0.017089019207558565,0.6777651762413583
0.5744839592141259,0.6694169667460065,-0.014153008876281348,0.03592870436818174,0.6705298314208341
0.5769709027605073,0.6615982740922536,-0.008309102553840209,0.04519226272964083,0.6631920220250872
0.5794578463068888,0.6537984494997445,-0.012044267661737162,0.05445650286062076,0.6561729860757652
0.5819447898532704,0.6460175386310513,-0.010993301666909705,0.05893302335616113,0.6487931982861406
0.5844317333996518,0.6382555868017171,-0.01473301859324394,0.04904501947826567,0.6403066998369582
0.5869186769460333,0.6305126389797718,-0.013686619138639333,0.03915770307775013,0.6318756500823619
0.5894056204924149,0.6227887397852555,0.0017226960438656569,0.04842468931296828,0.6246708994502815
0.5918925640387963,0.6150839334897523,0.012341306424339393,0.052903963446681246,0.6174782444992319
0.5943795075851778,0.6169750706565585,0.018169204799205918,0.0525955273303893,0.619479335660087
0.5968664511315593,0.623673791538672,0.028783190650735424,0.03792257616214734,0.6254882829430407
0.5993533946779408,0.6160265260783514,0.03460645022528919,0.018461918408402056,0.6172739502527833
0.6018403382243223,0.6083985271098112,0.03085057313499817,0.013367169163363002,0.609326847318898
0.6043272817707038,0.6007898371556754,0.027092358998504373,0.022638330227092496,0.6018263190831036
0.6068142253170853,0.5932004983875022,0.023331800839511363,0.03191019342581747,0.5945161601353396
0.6093011688634667,0.5760537459847551,0.019568891727520743,0.04597116385408384,0.5782164021303886
0.6117881124098483,0.5732916380172198,0.015803624777945835,0.04566762999193408,0.5753247684618396
0.6142750559562298,0.5705490056399308,0.0024591865115968226,0.030999593587694108,0.5713958262339819
0.6167619995026112,0.5582490829756074,-0.010887623223335474,0.025909072978260284,0.5589560439293529
0.6192489430489928,0.5411803137549104,-0.019448407852732164,0.030396069885988197,0.5423820550390502
0.6217358865953743,0.5384963513160822,-0.02322317407643837,0.030095376059277257,0.5398364269434467
0.6242228301417557,0.5406204287217845,-0.027000331868160643,0.020218589874122728,0.5416717246163167
0.6267097736881373,0.5140337620790684,-0.025991484514424457,0.015130922974719851,0.5149128184989094
0.6291967172345188,0.5018320202656043,-0.024985041895721594,0.014832377031270383,0.5026724861087849
0.6316836607809002,0.5040152419215461,-0.038346220486408455,0.014534550380590261,0.50568077862382
0.6341706043272818,0.49185304541015296,-0.03734460683116936,0.02381425130734094,0.4938432509450198
0.6366575478736632,0.47971067862217087,-0.03155701399023103,0.023517868161210487,0.4813224183839471
0.6391444914200447,0.47237658245209946,-0.030560254976767176,0.018433805880331278,0.4737228831633573
0.6416314349664263,0.46506239079790335,-0.039142739436486274,0.008562066069396579,0.46678527221906985
0.6441183785128077,0.4577681405216715,-0.04772766700691289,0.00826786028089721,0.4603237536649787
0.6466053220591892,0.45049386812903347,-0.05152664059854306,0.022339593413548187,0.45398103192436695
0.6490922656055708,0.45281641640952375,-0.050539666394750604,0.026835250431025415,0.45641767660220145
0.6515792091519522,0.44558220787382974,-0.04476675053138646,0.02654323620568988,0.4486113120677267
0.6540661526983337,0.4335796812769853,-0.03899630241700036,0.031040358917030275,0.4364350530149341
0.6565530962447153,0.4311740816571975,-0.04759353805306299,0.025961410129754725,0.43456901451122965
0.6590400397910967,0.4287886370934342,-0.04661644683075572,0.030460004637552274,0.4323894081705624
0.6615269833374782,0.41684657530676883,-0.036065034694949816,0.030170933978682868,0.41949021362801264
0.6640139268838597,0.40971314026173433,-0.0398813241441216,0.03467100627973707,0.4131070757020141
0.6665008704302412,0.4073883656036231,-0.03891170774589581,0.02959501305249468,0.4103111821855098
0.6689878139766227,0.40029547797860965,-0.02357938466040066,0.01973135907671697,0.40147451177142124
0.6714747575230042,0.3932229136351312,-0.022614780562061565,0.01944525575952838,0.39435238820010393
0.6739617010693857,0.38617070514246377,-0.026441094514525254,0.01437149457289344,0.3873415609583
0.6764486446157671,0.38871569135149586,-0.025481525533082028,0.00451007693642147,0.3895760999347072
0.6789355881621487,0.3817042908320726,-0.029312885865837135,0.004226214217364799,0.38285150098179066
0.6814225317085302,0.3747133417165991,-0.028358374431135758,0.013519907808740683,0.37602802258336293
0.6839094752549116,0.36774287513740245,-0.022617996739368262,0.01802594912932065,0.368878477052861
0.6863964188012932,0.36079292186722733,-0.02645696821321053,0.02253274286580975,0.36246272654934153
0.6888833623476747,0.35386351231911617,-0.030298487625051607,0.01746348373064599,0.35558734084215826
0.6913703058940561,0.3469546765462972,-0.02456575369848979,0.0076065763838855105,0.34790642971408914
0.6938572494404377,0.3352780409217694,-0.01883557838951111,0.01690403875349311,0.3362318995333231
0.6963441929868192,0.32841044141945785,-0.017896370284865792,0.021413855550973082,0.3295940705053022
0.6988311365332006,0.33114031033287905,-0.01217132796137621,0.025924431396342484,0.33237647704812456
0.7013180800795822,0.32431406299381393,0.003127946732877973,0.04001257421658089,0.32678800712657224
0.7038050236259636,0.312720130975365,0.004059432077056169,0.049313075323748734,0.3166103894440664
0.7062919671723452,0.5836627413888299,-5.755460861373922,0.7529328207431014,5.833772343436512
0.7087789107187267,1.8793444364146101,-5.32836665446129,0.7047740089865222,5.693868027870025
0.7112658542651081,3.007452816466813,-4.819872185555003,0.6278855426540684,5.715783461874227
0.7137527978114897,3.963199505036423,-4.234765862897582,0.5366326329261657,5.824788993002659
0.7162397413578712,4.732219318613264,-3.5874129013228724,0.44538049096986576,5.954980670478363
0.7187266849042526,5.32408908992847,-2.930485742177585,0.3589175212981903,6.087897265041215
0.7212136284506342,5.719655231430692,-2.2591959869152594,0.2580901118092189,6.155081882439923
0.7237005719970157,5.928494575129985,-1.6070624635024595,0.14768666698922495,6.144225666473412
0.7261875155433971,5.9553955493556865,-0.9788735799340915,0.046860801271993324,6.035488842626946
0.7286744590897787,5.829088598678199,-0.3937829541164328,-0.03481067756268352,5.8424781291388
0.7311614026361601,5.56393895734663,0.12905579609387896,-0.11648138167028677,5.56665429426516
0.7336483461825416,5.169523455929324,0.5848542628510298,-0.19815130993845642,5.206274215963736
0.7361352897289232,4.674572537915562,0.9640356350386048,-0.25587844466664755,4.7797977882232265
0.7386222332753046,4.107816646434429,1.2761767148712422,-0.2992395914099095,4.311882296789944
0.7411091768216861,3.483621014293701,1.5164890946525982,-0.3330231524163896,3.813955815878611
0.7435961203680677,2.81156247062076,1.6897611733768163,-0.3428639166663636,3.2981406905416737
0.7460830639144491,2.1299482641048875,1.7912045434473605,-0.3239734797941356,2.801794449962347
0.7485700074608306,1.44356681983301,1.8351844105989605,-0.31465906733023097,2.356013012035667
0.7510569510072121,0.7955137890947857,1.8217007706554167,-0.28619025833417666,2.008317890776225
0.7535438945535936,0.19536599957786926,1.7603304261312118,-0.25293226176173533,1.7891075462347872
0.7560308380999751,-0.35687652803038405,1.6702269862315466,-0.2340386899023592,1.723888961089533
0.7585177816463566,-0.8564253700818591,1.5466020436101777,-0.22472113845736352,1.7821172480756144
0.7610047251927381,-1.2937036999675517,1.3942439976116394,-0.19624918653987322,1.9120929191342613
0.7634916687391196,-1.6495578847971175,1.2083644409900183,-0.15819963983891938,2.0509054009365286
0.7659786122855011,-1.9144110986799774,1.0272705964324174,-0.12493770737722443,2.1762040721789786
0.7684655558318826,-2.1074169360064126,0.8365972501527335,-0.0773097749487075,2.2687172372141027
0.770952499378264,-2.2285753782442783,0.6315559950557406,-0.04883466488410981,2.3168504517775457
0.7734394429246456,-2.2683096005794567,0.4408772473386775,-0.0012051497228533492,2.310758023612104
0.7759263864710271,-2.2361963918375554,0.26934940664751794,0.0607903680994486,2.2531797253176093
0.7784133300174085,-2.160966154483717,0.10739566271761358,0.07969104961038198,2.1651002777198807
0.7809002735637901,-2.013888451497427,-0.03061877806378499,0.07465050894917091,2.015504131261257
0.7833872171101716,-1.8236936860598085,-0.16384753250126138,0.07439916688230319,1.8325501113240927
0.785874160656553,-1.6047470517487246,-0.2635601841459052,0.08372542756136347,1.6284001406237905
0.7883611042029346,-1.3522601292182461,-0.3393335430609219,0.09784088848396877,1.397614950542158
0.790848047749316,-1.0805981127609234,-0.4007444192591203,0.12153395377501042,1.1589041689414985
0.7933349912956975,-0.8137030036669264,-0.44779281606227794,0.14522781758511272,0.9400649463170605
0.7958219348420791,-0.5372095770206755,-0.47569033342143996,0.15934567405157196,0.735028208160941
0.7983088783884605,-0.35167428795058964,-8.270380773385664,0.9348204585093018,8.33047190927623
0.800795821934842,1.03577177426961,-7.9152115024067005,0.8723254627252199,8.030214692592205
0.8032827654812236,2.270010483877418,-7.378085648604606,0.7715240419294886,7.7578569709897245
0.805769709027605,3.36540706436401,-6.682945231650555,0.6467814068077313,7.51039598598531
0.8082566525739865,4.302807915622958,-5.8872510944074605,0.5364047846338327,7.311744764440803
0.8107435961203681,5.048694227231781,-5.010156853125286,0.42124056282465006,7.125196748495483
0.8132305396667495,5.5982776083350485,-4.0660277206832305,0.2965003387447034,6.925402952624907
0.815717483213131,5.970711684324378,-3.0931709265116045,0.17654932302650117,6.72668373430812
0.8182044267595125,6.161208063635629,-2.1298936999902685,0.05659911300803877,6.519212792681354
0.820691370305894,6.184131967632033,-1.1857728505267617,-0.04898508070466967,6.296979036352784
0.8231783138522755,6.044271810682651,-0.2847503974391228,-0.13062645083915925,6.052385296716783
0.825665257398657,5.760781216764279,0.5396548333644207,-0.2170554166986829,5.790072591990186
0.8281522009450385,5.3576022128211624,1.2874428392682544,-0.2891183643965949,5.51769879241706
0.8306391444914201,4.8491000188043945,1.9298831977853292,-0.33245008337975435,5.229602585990843
0.8331260880378015,4.259216660953649,2.471764309721095,-0.34705057306915954,4.936698235463028
0.835613031584183,3.611894165156672,2.9130861726112265,-0.35207344618023306,4.653579936012355
0.8380999751305646,2.9167093469889465,3.244271977401067,-0.3331534921993935,4.3753268823628675
0.840586918676946,2.2023926349562952,3.455744915086314,-0.3190211305090287,4.110289614901353
0.8430738622233275,1.4833092472527927,3.5714469999552634,-0.304887957262471,3.8792262969513365
0.845560805769709,0.7929780150036416,3.596166633065253,-0.2763887619855563,3.692914747567685
0.8480477493160905,0.13139894574213135,3.5155386022427164,-0.23831194749850404,3.5260558604652514
0.850534692862472,-0.4870627433870862,3.3582933252471774,-0.19544591663462185,3.3990532918335723
0.8530216364088535,-1.0384650289476114,3.13400760660719,-0.15257907224031086,3.305101158497967
0.855508579955235,-1.5228079044530984,2.8426814442609882,-0.12407662381568407,3.227255291418402
0.8579955235016165,-1.9400913637654358,2.508256852798521,-0.09078495763172612,3.1723097023935356
0.860482467047998,-2.271161787812853,2.1307338302584253,-0.038338863292793235,3.1144297054625585
0.8629694105943795,-2.520807574472329,1.7436311979717631,-0.005045566939710255,3.0650849971580323
0.8654563541407609,-2.6842403153270395,1.342160550757153,0.028248545117424584,3.0012229165353577
0.8679432976871425,-2.785402022228278,0.9406870967646457,0.047178263313323754,2.9403371282868465
0.870430241233524,-2.795562270849722,0.5439992375538245,0.06610879799158731,2.8487670936441067
0.8729171847799054,-2.74823988037445,0.17603898801548734,0.08504014952190886,2.7551849288954813
0.875404128326287,-2.6434348470881854,-0.15361684687040933,0.08003030165945368,2.6491037683764387
0.8778910718726685,-2.4763587643007234,-0.4689102853160483,0.09417488463082435,2.522121823802215
0.8803780154190499,-2.261376838946912,-0.7458993122805972,0.12268549544656082,2.384374702637814
0.8828649589654315,-2.0080658749846565,-0.9702187193138518,0.13204331118242152,2.2340743849775735
0.885351902511813,-1.7355794833553055,-1.151445314517281,0.12224833214345843,2.0863861363802068
0.8878388460581944,-1.4439176620612577,-1.284790695981548,0.12203097854372302,1.9366148060514092
0.890325789604576,-1.1426572160873087,-1.3702548650678004,0.11223763738127523,1.7876971768068843
0.8928127331509574,-0.8365865474391798,-1.4174146297280206,0.10244511556320468,1.6490713403688717
0.8952996766973389,-0.5400708651039072,-1.4262699912238197,0.08786501002283842,1.5276265535745281
0.8977866202437205,-0.25311016844773265,-1.3872441441264785,0.05892051436038592,1.4113761723216591
0.9002735637901019,0.019507139503203985,-1.3147022995591782,0.039553645405462134,1.3154418101241308
0.9027605073364834,0.24426223546186734,-1.227798071915794,0.03455280669366623,1.2523362334147246
0.905247450882865,0.4450971356465215,-1.1121662522984417,0.024764385146283985,1.198181333389889
0.9077343944292464,0.6268002426563068,-0.9630184384003357,0.014976784273425636,1.149133308611407
0.9102213379756279,0.7702179421515054,-0.7995082444667805,0.00040160093187147083,1.1101573188813203
0.9127082815220094,0.8705618294166639,-0.626424074732687,-0.0045959547530376454,1.0725232599072543
0.9151952250683909,0.932620306040815,-0.4533427367039333,-0.009592689270190746,1.0370112303390497
0.9176821686147724,0.9707585799181373,-0.2802642311964485,-0.038530619082068895,1.011140380154834
0.9201691121611539,0.9706114386860522,-0.12155376893779124,-0.043525710859100286,0.9791610547591136
0.9226560557075354,0.9417556862492661,0.05151906927651151,-0.038943174448373696,0.9439674559634249
0.9251429992539169,0.8889797228585266,0.20064705621568812,-0.04872502635020126,0.9126435870669732
0.9276299428002984,0.8170719484315652,0.32583019126060364,-0.06329445983526938,0.8819172699842738
0.9301168863466799,0.7116671492724869,0.4366452804817915,-0.06349786154618364,0.8373536951262522
0.9326038298930613,0.5919189345958239,0.5378807266784906,-0.049335231419322056,0.8013224484091497
0.9350907734394429,0.46740410664444365,0.6199597227375966,-0.03038337604414032,0.7770069538072408
0.9375777169858244,0.4817747602994782,-6.020882380200767,0.8840007221960047,6.104472854613798
0.9400646605322058,1.9757838201904443,-5.54137158348853,0.8167629617649315,5.939496819271103
0.9425516040785874,3.1872988590552476,-4.90384631518549,0.725584006738849,5.893475617216754
0.9450385476249689,4.106743064537771,-4.113094978888953,0.6248290670800358,5.845793382130326
0.9475254911713503,4.748481640555569,-3.2457320279524913,0.5144981427774731,5.774734853384298
0.9500124347177319,5.1173029840587825,-2.3304878824776463,0.4137448470889886,5.63818662333243
0.9524993782641133,5.227572298311579,-1.4104581724785934,0.3225691799788457,5.424108707083449
0.9549863218104948,5.112808399533782,-0.5191617212806734,0.20745231815683418,5.143284464959619
0.9574732653568764,4.82089531358119,0.3003058411988615,0.07797106820321531,4.830868939460476
0.9599602089032578,4.361409839422857,1.0287909016923988,-0.04193255335305146,4.481301691010133
0.9624471524496394,3.777447598946428,1.6519282503009332,-0.13789333663588188,4.1251656790021185
0.9649340959960209,3.1168926170372537,2.164929483814052,-0.2146996850626408,3.8010571175391084
0.9674210395424023,2.394110095016225,2.543852585788346,-0.2819284053832174,3.504630187486631
0.9699079830887839,1.6617724604452735,2.788697556429947,-0.344367901039357,3.2644924602147496
0.9723949266351654,0.9533985272848607,2.9042527993130682,-0.3924413655239878,3.081827915299793
0.9748818701815468,0.28814189921430966,2.9000951213801853,-0.43093720230309707,2.9460625145208312
0.9773688137279284,-0.32442062704662855,2.7858013296214947,-0.4407017982532011,2.839041363974435
0.9798557572743098,-0.8507702384950153,2.5853134410358147,-0.43131196018476103,2.75566427456389
0.9823427008206913,-1.2956953490080079,2.312996666028924,-0.4075560915999574,2.6823277171706916
0.9848296443670729,-1.649619162818584,1.9832162150541643,-0.3885878059739394,2.6087143233676797
0.9873165879134543,-1.912541691116417,1.6151257019326222,-0.36483029687196833,2.52973277221478
0.9898035314598358,-2.084462945406485,1.2183019338920018,-0.33628356451188246,2.4376898918152996
0.9922904750062174,-2.1653829375081317,0.8166869281683549,-0.28858239916251804,2.3321965195495005
0.9947774185525988,-2.174455292835683,0.4294342987245918,-0.21693839774524903,2.2270455554115802
0.9972643620989803,-2.1164684271553926,0.06612085293003167,-0.15487038375580475,2.123156943351689
0.9997513056453619,-1.9962107565455596,-0.25409979515838854,-0.0975899541392593,2.0146830742319333
1.0022382491917432,-1.823259100716139,-0.5408044513584911,-0.035520302532216164,1.9021053847895395
1.0047251927381249,-1.6119786830077412,-0.774839501519603,0.012184957495099624,1.7885748518794722
1.0072121362845063,-1.3863115337112992,-0.9609933480457435,0.050314228962243135,1.6875720444251283
1.0096990798308878,-1.160622876785909,-1.0896891833333555,0.08844431819735732,1.5944561379398023
1.0121860233772693,-0.9205475165767671,-1.1465617964119987,0.1265752248762535,1.4758160355612202
1.0146729669236507,-0.6852390809784001,-1.160341606147566,0.16470694866307056,1.3575984752477939
1.0171599104700322,-0.47385119819163346,-1.1358170147580005,0.18368587592905072,1.2443294379131458
1.0196468540164139,-0.2815954801212036,-1.0490460044930845,0.1883004096353904,1.102384042988854
1.0221337975627953,-0.11804874893730699,-0.933547397400109,0.19291575937231542,0.9605533512160465
1.0246207411091768,0.016788979526580455,-0.7941095955584825,0.19274352143724371,0.8173383538337289
1.0271076846555582,0.13249449577486294,-0.6355210010014996,0.17820688879575108,0.6732008833467499
1.0295946282019397,0.20033736344735353,-0.4577816123962881,0.1588826676831676,0.5243498507020883
1.0320815717483214,0.23947117908584983,-0.28004504164538524,0.1443476643233481,0.39573718445268535
1.0345685152947028,0.24031911900999325,-0.10709969064473857,0.12023666832715918,0.2892757838263571
1.0370554588410843,0.23639998912284227,0.05626603875541081,0.09133808257528031,0.25960251790580546
1.0395424023874658,0.1989833518648769,0.20047534142995938,0.07201711657766374,0.2914982022603244
1.0420293459338472,0.1472228025820785,0.33989342890079177,0.06706217319228358,0.3764298496178685
1.0445162894802287,0.08111832304245373,0.46015509281321787,0.047742832023619286,0.4696831589324835
1.0470032330266104,0.0006698947181421333,0.5516835281781209,0.02363589922735443,0.5521900214186043
1.0494901765729918,-0.07975729125261793,0.6096903333716948,0.009106584268261386,0.6149524030295989
1.0519771201193733,-0.16974006062727454,0.643752316776173,-0.014998726642325266,0.6659231902684665
1.0544640636657547,-0.2597016261750714,0.6538694801780038,-0.03910322738236438,0.7046412520836021
1.0569510072121362,-0.34964200759807995,0.6496186320490587,-0.0679953218019218,0.7408625138103918
1.0594379507585177,-0.4347728215693255,0.6262113709449486,-0.08730980048093251,0.7673272370612976
1.0619248943048993,-0.5055172817318663,0.5836476987861614,-0.08746985733073309,0.7770735707572455
1.0644118378512808,-0.5666638119790874,0.5267160208579824,-0.09720591283621616,0.779734975440668
1.0668987813976623,-0.6182124331725616,0.47456995245095834,-0.10694116093079487,0.7866636283696291
1.0693857249440437,-0.6553747631410828,0.40805588233737344,-0.1070987955588798,0.7794201917339103
1.0718726684904252,-0.6877276299609425,0.32717381261494394,-0.10725562395708188,0.7691006212083803
1.0743596120368066,-0.7104826520331691,0.2558657620269056,-0.11220005005262479,0.7634407234681064
1.0768465555831883,-0.7188514480434658,0.19892013607918013,-0.12193207446330945,0.7557671967443899
1.0793334991295698,-0.7224108469222096,0.13239492039962464,-0.11250968121624716,0.7430102792464371
1.0818204426759512,-0.7163724679216112,0.06586692390192539,-0.08872127427123111,0.7248444170777015
1.0843073862223327,-0.7007363338960013,0.018489762183983238,-0.0697204675597991,0.7044389430918662
1.0867943297687142,-0.675502467980548,-0.02889017567536145,-0.04593045510236671,0.6776782667344993
1.0892812733150956,-0.6454592969105964,-0.06190767731174329,-0.0365048508519461,0.6494481261919071
1.0917682168614773,-0.6249720543410037,-0.0805627402785225,-0.022290042209728966,0.6305372866136552
1.0942551604078588,-0.5948871509623452,-0.08485536208596,0.001502373451490513,0.6009104858303134
1.0967421039542402,-0.5743582243046169,-0.0891507501622768,0.020507185467048217,0.5815976020726266
1.0992290475006217,-0.563385298892496,-0.0790836919709581,0.020359183161703598,0.5692729764207645
1.1017159910470031,-0.5332379796037225,-0.05944258821400128,0.02021197909185446,0.536921491732496
1.1042029345933846,-0.5030699047931029,-0.049381049511722175,0.02485397584244886,0.5060983474331819
1.1066898781397663,-0.48245790644776065,-0.024957056559131274,0.034285172667644304,0.484318035211267
1.1091768216861477,-0.47140201018612055,0.004252586748962894,0.04850556881116219,0.47391004410886584
1.1116637652325292,-0.4603254352569274,0.03345947988029074,0.06272676018600087,0.46578287815437275
1.1141507087789106,-0.4492282078194495,0.06745202898536329,0.05300672941354634,0.45734611868697184
1.116637652325292,-0.4476871609424874,0.08707662365511881,0.04807589562827985,0.45860377691464893
1.1191245958716736,-0.44612551468146977,0.10669847676456445,0.047934258032508836,0.4612051960752521
1.1216115394180552,-0.4541201026399323,0.1454712045507729,0.04779341249796509,0.4792401790891036
1.1240984829644367,-0.46209414540599053,0.17466439008931944,0.03328814824553561,0.4951229637144529
1.1265854265108182,-0.4700476704731851,0.18948963309884181,0.009206867767170834,0.5068884492502111
1.1290723700571996,-0.482769108919135,0.19952374330028633,0.004279990146232038,0.5223926253143185
1.131559313603581,-0.4858932788029381,0.2143435304558441,0.004142304573155897,0.5310862322837242
1.1340462571499625,-0.49857382168756914,0.22437219108756956,0.008793810189237306,0.546805328159144
1.1365332006963442,-0.5160223627950791,0.22482132507881314,-0.005707510475827959,0.5628998870053549
1.1390201442427257,-0.5286621242868109,0.23005614563503007,-0.024996448339869914,0.5770912356200686
1.1415070877891071,-0.5412815385435851,0.24007665604146178,-0.03470779433066795,0.5931501797449452
1.1439940313354886,-0.5490922315630901,0.2309408430223816,-0.034841549346880996,0.5966991581188242
1.14648097488187,-0.556882636240073,0.20264870994408657,-0.054128134218933255,0.5950753104454249
1.1489679184282517,-0.5742295890449666,0.1887190834553869,-0.07341393658397699,0.6088876082494606
1.1514548619746332,-0.5771911034603254,0.16999835372185634,-0.06875694076867767,0.6056207782810601
1.1539418055210147,-0.5801324197844462,0.16085173419130427,-0.06409916431260143,0.6054218428029177
1.1564287490673961,-0.5878419719271726,0.15170242174990456,-0.04986380152286429,0.6091454731230663
1.1589156926137776,-0.600319790729131,0.132973613323633,-0.04520446663816635,0.6165300291027614
1.161402636160159,-0.603200697320037,0.11424211915935345,-0.04054435398498235,0.6152610727792377
1.1638895797065407,-0.6060615296801055,0.10508474954345681,-0.03588346454004032,0.6161501483990707
1.1663765232529222,-0.5897487061155438,0.1102899114814,-0.04079860593028428,0.6013584016087142
1.1688634667993036,-0.592569485023072,0.09633878545538455,-0.04092456919063814,0.60174294888014
1.171350410345685,-0.6001586885216657,0.0919617951507794,-0.0362613553264719,0.6082452704834722
1.1738373538920666,-0.6029395422952039,0.09715894437004069,-0.02202056203231173,0.6111144387808797
1.176324297438448,-0.6104888855523152,0.10235343031382937,-0.017355803613662957,0.6192528788782429
1.1788112409848297,-0.6132299444627799,0.09796845022148926,-0.017478677783870467,0.6212521921101744
1.1812981845312112,-0.6111627520783048,0.09358081465216062,-0.003235572304690848,0.6182942239153043
1.1837851280775926,-0.5994989383704832,0.10355573752369818,0.0014314951699940792,0.6083788433696846
1.186272071623974,-0.5878153435109381,0.11352801287034842,-0.017842686382348205,0.5989439449819248
1.1887590151703555,-0.6000540178702152,0.10913243476447487,-0.013174084829415733,0.6100395636275597
1.191245958716737,-0.6170613821729198,0.10952262055860462,-0.0037163145324825564,0.6267166542999177
1.1937329022631187,-0.6196838573794172,0.1242753810024726,-0.0181997965025964,0.6322844976849263
1.1962198458095001,-0.6222866879269027,0.13423710696162594,-0.023105708595860364,0.637019777264551
1.1987067893558816,-0.6296583118454684,0.14898460926103096,-0.018434051919630434,0.6473065871307991
1.201193732902263,-0.6178567474757356,0.1685178921224333,-0.008973230910619634,0.6404886878311421
1.2036806764486445,-0.6204008532333508,0.17368334652357653,0.0004883499854653195,0.6442541129383705
1.206167619995026,-0.6229254545609862,0.17884618672149966,-0.0092029236469795,0.6481564427269739
1.2086545635414077,-0.6254305870912737,0.1792180137289554,-0.004528229709030995,0.6506174149057072
1.2111415070877891,-0.6422814966456664,0.17479883191582157,-0.009429585954391584,0.6657094483810516
1.2136284506341706,-0.6399593960692543,0.17995385564957678,-0.004753380262783935,0.6647962194570575
1.216115394180552,-0.6328295316358655,0.1755294760920343,-7.642044459643671e-05,0.6567220256148695
1.2186023377269335,-0.6256803432031823,0.1806793110038738,0.004601292321654071,0.6512619113587987
1.221089281273315,-0.6280886741725371,0.1810381549398068,0.004491353528432995,0.6536745126011434
1.2235762248196966,-0.6400545615268299,0.1766060124515514,-0.0004062380201634852,0.6639726578667747
1.226063168366078,-0.6376360258684449,0.17695969476736773,-0.0005146768880361918,0.6617361256193915
1.2285501119124596,-0.6495635245431024,0.1820992065106588,-0.005410770928927278,0.6746274304167557
1.231037055458841,-0.6614718852324578,0.1776593423795072,-0.010306118044180579,0.6849920532070729
1.2335239990052225,-0.6637843391560737,0.1780053170293323,-0.019989122784274116,0.6875282589314154
1.236010942551604,-0.6612893277108893,0.1783487318696162,-0.03445978638782776,0.6857837282859043
1.2384978860979856,-0.6683520991497515,0.1739011883450008,-0.029776093500322176,0.6912472549600632
1.240984829644367,-0.6753958853380668,0.1694510945757597,-0.020303255338115278,0.6966243590069464
1.2434717731907485,-0.6680555150338913,0.16499845539670277,-0.025194886446220366,0.6885909117564167
1.24595871673713,-0.6750614470898886,0.1605432756773415,-0.020508971495129202,0.6941921337958918
1.2484456602835114,-0.6868369140068572,0.16087396364203688,-0.020610721726088244,0.7057267038099329
1.250932603829893,-0.6842283418544327,0.16120212090891606,-0.035076945068238885,0.7038358755119829
1.2534195473762746,-0.6816009801527328,0.15195094581002477,-0.0351772228963938,0.699218437320148
1.255906490922656,-0.6885316753086852,0.15227405663335913,-0.030488363155990683,0.7058277385558716
1.2583934344690375,-0.6858668540132913,0.14780624845864265,-0.0353755771208597,0.7025037081568618
1.260880378015419,-0.6879717664045131,0.14333592968060938,-0.045050462791632384,0.7041873928897696
1.2633673215618004,-0.6900580495426584,0.14365150872759624,-0.049936214856623806,0.706618350492357
1.2658542651081819,-0.6969141473310754,0.14396458742076357,-0.059609641293357996,0.7141207464543746
1.2683412086545636,-0.6941748905930991,0.1490635742551829,-0.06449393680601823,0.7129222929495264
1.270828152200945,-0.6818403203130516,0.1493716677981154,-0.055012296106655256,0.7001745998451542
1.2733150957473265,-0.6838524942756856,0.14488887329041544,-0.03116472055578079,0.6997272749705863
1.275802039293708,-0.6954230505415594,0.1308267926854314,-0.007316421482620683,0.7076598045192312
1.2782889828400894,-0.6973984174067852,0.12633904457072154,0.0069557930961607894,0.7087838103696557
1.280775926386471,-0.6897786366440279,0.12663723096476653,-0.0027132881641076523,0.7013122826313389
1.2832628699328525,-0.6965057668216237,0.1173561472777509,0.0019835599076731825,0.7063261874159577
1.285749813479234,-0.7080030434586372,0.10807260555358456,0.00668112595156245,0.7162350417717736
1.2882367570256155,-0.7099052989455452,0.11794022450879771,-0.007774204720258027,0.7196776141350946
1.290723700571997,-0.7070009791445964,0.1325937996495803,-0.012652013600023437,0.7194383737785094
1.2932106441183784,-0.7136553367479915,0.12330291655285341,-0.00795230210931841,0.7242725923353492
1.29569758766476,-0.7250800113548075,0.1235864039911152,-0.008040281638116653,0.7355809053031238
1.2981845312111415,-0.7221214327901104,0.12865586420570896,-0.008127550302548414,0.7335378328097879
1.300671474757523,-0.723933257627186,0.12414609282853784,-0.00821410954640811,0.7345468572248757
1.3031584183039044,-0.7209387227019639,0.1244223054443987,0.010853652460445673,0.7316770829778466
1.305645361850286,-0.7179262749946228,0.12469610438769241,0.005980104376835271,0.7286995378243895
1.3081323053966674,-1.16979427377682,-3.3945089450858674,0.7433097759871679,3.6665541103749035
1.310619248943049,0.40863856017088573,-3.226645840190026,0.6857651999983467,3.323928813979461
1.3131061924894305,1.7476690088174607,-2.9821706786941946,0.6138561161414255,3.5106279000441836
1.315593136035812,2.832931817821303,-2.6610834548218434,0.537159329570013,3.923698253344028
1.3180800795821934,3.635696522702135,-2.301691389329008,0.44609803214944677,4.326092452917218
1.3205670231285749,4.184693498647502,-1.9039944763793524,0.3454606256989994,4.61044441324414
1.3230539666749563,4.50865312067012,-1.477569516747479,0.24961231867160905,4.7511546963851226
1.325540910221338,4.6075753436872064,-1.0367817144987488,0.16334151287266607,4.725605497827847
1.3280278537677195,4.4958253324045705,-0.615149886950614,0.05312938353824492,4.538025730898974
1.330514797314101,4.216498671278623,-0.2126740281487849,-0.047505247618140345,4.222126008978734
1.3330017408604824,3.788748927994357,0.1754342712099728,-0.1337739788115222,3.7951668079677905
1.3354886844068639,3.2556716866695914,0.49650258061414254,-0.21046521490435666,3.300031598428
1.3379756279532453,2.6603625312544,0.7936265359872277,-0.27757895744549543,2.7900576972424664
1.340462571499627,2.021975028931463,1.0524409334372273,-0.325538401349748,2.302605087015566
1.3429495150460085,1.3644511500384153,1.2442153591397194,-0.36392035481983953,1.882083107998298
1.34543645859239,0.7213096713896068,1.392891835821851,-0.3831480127837992,1.6146943079231817
1.3479234021387714,0.11170415967602146,1.5032587729574556,-0.3832213768167847,1.5553531372044849
1.3504103456851528,-0.46915383517435566,1.5513741601263202,-0.36892885182074764,1.6622200827424227
1.3528972892315343,-0.9781687301905627,1.551603213498368,-0.3737892626259498,1.8718987712254986
1.355384232777916,-1.4009753624824623,1.5183111492709793,-0.36428378758464497,2.09778535369576
1.3578711763242974,-1.7567273925596654,1.4514979737079101,-0.33083562165702496,2.302691839566215
1.360358119870679,-2.0310596578462397,1.3559520964203107,-0.3021751863720237,2.460715193754874
1.3628450634170604,-2.2239722058822844,1.241250330366611,-0.26393727338205153,2.5605502610674304
1.3653320069634418,-2.345041891002545,1.0978158752507547,-0.21133348098633142,2.5978997299155275
1.3678189505098233,-2.384691954413268,0.9495907540454684,-0.17309423073245256,2.572632879041406
1.370305894056205,-2.3716528640347194,0.7965749731483385,-0.12527750765067758,2.504987714391735
1.3727928376025864,-2.301136264695258,0.6291917323425698,-0.07746012001952174,2.3868620435495065
1.3752797811489679,-2.182719011333236,0.466594651359332,-0.024853666162606203,2.2321717128918195
1.3777667246953493,-2.03555476567538,0.31357213999467826,0.03254185227018702,2.0598227261572215
1.3802536682417308,-1.859643576313862,0.17491260807052234,0.06599601370111685,1.8690168873533166
1.3827406117881123,-1.6645622986266906,0.04582765879357176,0.08508562310908907,1.6673654019379598
1.385227555334494,-1.4646761914562823,-0.06889429796345548,0.1089642921077747,1.4703387320836332
1.3877144988808754,-1.2599853038270565,-0.15967644898228261,0.13284361570347336,1.2769913705475553
1.3902014424272569,-1.07922010482685,-0.23609559430091576,0.14714678557642102,1.1144995921112995
1.3926883859736383,-0.9032270304807613,-0.288574920651266,0.15666220336207815,0.9610606637368109
1.3951753295200198,-0.7415829368748946,-0.3171144213812087,0.15660146404961672,0.821602596791427
1.3976622730664012,-0.608653083553554,-0.34086770309539083,0.15175296926320492,0.7139175938530835
1.400149216612783,-0.5044375202367515,-0.34546954913197037,0.12296310401986865,0.6236395963617536
1.4026361601591644,-0.4145710868189648,-0.33570835608623284,0.09417388321391229,0.5416991846513766
1.4051231037055458,-0.3486306399303942,-0.3115841172092044,0.08453891841383232,0.47515767269601783
1.4076100472519273,-0.31140463301384474,-0.27788522904846147,0.06532778797956773,0.42244616919568173
1.4100969907983087,-0.28852790636254466,-0.22982328148736553,0.036540490187526586,0.37067816348784144
1.4125839343446904,-0.2800005103610921,-0.17218667102649388,0.017330636590020987,0.3291639203288742
1.4150708778910719,-0.3049761088045091,-0.11455219746352929,-0.006666984508138185,0.3258482492935859
1.4175578214374533,-0.34430113905328585,-0.05213145061211355,-0.035452374846473234,0.35002547532796546
1.4200447649838348,-0.39318724855550774,0.005498769775967638,-0.045083519568136055,0.39580168346325945
1.4225317085302163,-0.4468460848847441,0.06791527725291946,-0.049925630383972575,0.4547268158250642
1.4250186520765977,-0.5052776990590891,0.1351180787528281,-0.06913232233026001,0.5275810140282513
1.4275055956229794,-0.5684821422195597,0.20231877791174613,-0.07876158056554594,0.6085295559719553
1.4299925391693609,-0.6364594656289176,0.2407869617863514,-0.06923660021436007,0.6839976017240063
1.4324794827157423,-0.6996329140297808,0.2840414606193402,-0.06449939964839935,0.7578429509466817
1.4349664262621238,-0.7532141356042878,0.3225054747923668,-0.07412678728337951,0.8227004898127386
1.4374533698085052,-0.8067799886135028,0.341813801388378,-0.08375355493834746,0.8801961615524053
1.4399403133548867,-0.8411769115133497,0.3659084640742365,-0.08859130107783741,0.9215834303908511
1.4424272569012684,-0.8755585694377477,0.3804242599755425,-0.08385162417118686,0.9583091990427517
1.4449142004476498,-0.9147134176739098,0.3805727928795708,-0.07432292933313711,0.99350902611778
1.4474011439940313,-0.939487895020507,0.37593087655540414,-0.08394723496439482,1.0153859695189535
1.4498880875404128,-0.9498820536692022,0.37128692147250053,-0.08399412294691189,1.023320529760333
1.4523750310867942,-0.9602611558831089,0.357064128159883,-0.07446359508914213,1.0272006162917453
1.4548619746331757,-0.9514716407924184,0.3380509071278306,-0.06493245984475671,1.0118265283059429
1.4573489181795574,-0.9474555775181548,0.3142472655864439,-0.07455433231260677,1.0009903914450906
1.4598358617259388,-0.943424615366244,0.28565321076578254,-0.06981039107260578,0.9881908987647358
1.4623228052723203,-0.9393788070684541,0.2618455565562865,-0.0411238313106832,0.9760567648243071
1.4648097488187017,-0.9113761888592752,0.23803590690704057,-0.04595549470154481,0.9430692223214466
1.4672966923650832,-0.8833588302793778,0.19507065582561856,-0.04120975319770359,0.9055791669177262
1.4697836359114647,-0.41479367890094443,-6.508565594652812,0.6865854860877114,6.557810574091081
1.4722705794578463,0.9827363508067797,-5.996080014937247,0.6290831754125357,6.108558907165748
1.4747575230042278,2.16480281204758,-5.339944301781912,0.5524278441784816,5.7884845066913595
1.4772444665506093,3.10267523156142,-4.578465674384994,0.4757731038145092,5.551153174825897
1.4797314100969907,3.8011419592327345,-3.769104965207326,0.38475374250324634,5.366830337858692
1.4822183536433722,4.279356554811522,-2.9214389734882147,0.2793697583841599,5.189002376268856
1.4847052971897536,4.5325305613518765,-2.0785633216910497,0.164409552912975,4.989117083508577
1.4871922407361353,4.589394345056964,-1.2644200189799861,0.04944993086172644,4.760645306520999
1.4896791842825168,4.47388986871782,-0.5029510745017187,-0.041567093040539405,4.50226367108616
1.4921661278288982,4.190805481753546,0.1771130992946972,-0.12779513395155107,4.196492729899462
1.4946530713752797,3.778448356736088,0.7805609132194791,-0.19965738711098346,3.863393637204945
1.4971400149216612,3.2799140694695557,1.2882387614985218,-0.2619422577232964,3.5335547478584175
1.4996269584680426,2.7143561790695934,1.6905698450153297,-0.30507294103578,3.212292852010952
1.5021139020144243,2.100928244566179,1.992342574631143,-0.333837842260408,2.914579923149966
1.5046008455608058,1.4683606315454882,2.1983453612238084,-0.35302536661282957,2.6671018317565274
1.5070877891071872,0.8358068988698828,2.3085782123672915,-0.3291166927498548,2.477180722567906
1.5095747326535687,0.23678581528076104,2.3278295389721007,-0.3099958557772027,2.3602871256328704
1.5120616761999501,-0.3334910771239552,2.289618171886663,-0.2956628576010072,2.3325917338702276
1.5145486197463316,-0.846293413083136,2.189155715412799,-0.266964086849681,2.3621780438865976
1.5170355632927133,-1.2920444406956377,2.0168653705476407,-0.23826475539726744,2.407051069942492
1.5195225068390947,-1.6707442147777203,1.81105437150697,-0.19998805851968093,2.472104243618824
1.5220094503854762,-1.9728159835808454,1.5812995325999801,-0.17128761141807836,2.534137044971776
1.5244963939318577,-2.207836608712276,1.327600861510355,-0.11864459277350825,2.578981015371682
1.5269833374782391,-2.3518641286104076,1.0739003825382647,-0.05163581115312077,2.5859607823889488
1.5294702810246208,-2.4336290183091625,0.8201981033970336,-0.01814530168980788,2.5681908767741395
1.5319572245710023,-2.462708139632061,0.585647645095889,0.010557353605326725,2.531407909233815
1.5344441681173837,-2.4391015478316493,0.37503741869725316,0.03926055611648671,2.468078365312662
1.5369311116637652,-2.3580208949085666,0.15963701203581904,0.06317590058412215,2.3642626146119508
1.5394180552101466,-2.243408252852477,-0.02224634055557928,0.07272657842532126,2.244697004908273
1.541904998756528,-2.0904752737971477,-0.16582422797240293,0.08706620097603057,2.0988485100864955
1.5443919423029098,-1.9183756265426146,-0.2902502556980915,0.10140636296766381,1.9428570472106037
1.5468788858492912,-1.7318977699915479,-0.37158239931982373,0.10617025580838124,1.7744902052151177
1.5493658293956727,-1.5358301631088023,-0.42418586097408584,0.10135787754409087,1.5965529599438222
1.5518527729420541,-1.3397496682406596,-0.4576374394639773,0.10133443617878335,1.4193765770597226
1.5543397164884356,-1.162809954433917,-0.46236032029849783,0.09173471979177883,1.254718818991894
1.556826660034817,-0.9906458675517144,-0.44314289893491754,0.07734712974089497,1.0879969863252774
1.5593136035811987,-0.8328342701162024,-0.4143503774586408,0.06296006738123872,0.9323428161705091
1.5618005471275802,-0.6941636213854947,-0.3664059413412524,0.043785127424627035,0.7861511206433434
1.5642874906739617,-0.5746339773522227,-0.3088863893234315,0.019822307900566827,0.6526928322935729
1.5667744342203431,-0.47424539406288146,-0.24179171349335116,-0.0041399898437006755,0.532342996591309
1.5692613777667246,-0.40257473425711965,-0.1794871158883855,-0.01373655782285077,0.44098836090416466
1.571748321313106,-0.3644104574056162,-0.10281897529218265,-0.023332607975918407,0.37935620957309074
1.5742352648594877,-0.33102219978699454,-0.021364090398906743,-0.03771654560376625,0.3338482573305941
1.5767222084058692,-0.31677522761162147,0.05051233678810396,-0.047311566048714226,0.3242474753612914
1.5792091519522506,-0.321669597176638,0.11281031423746324,-0.06648288125701107,0.347300259496548
1.581696095498632,-0.3457053648257047,0.1655298499285469,-0.08565368657565564,0.39274531761771714
1.5841830390450136,-0.3793057803071668,0.22303616181227381,-0.09045877403362113,0.449222432932779
1.586669982591395,-0.4128940934134789,0.2661756446077863,-0.10005175890429285,0.5013395661804002
1.5891569261377767,-0.46562397390188437,0.2997367096460173,-0.10006743322106715,0.5627266400065455
1.5916438696841582,-0.5231302683291283,0.3285077682679236,-0.10965941226167075,0.627381716462994
1.5941308132305396,-0.5758362266128112,0.3524888285040153,-0.10967408474341589,0.6840059495093006
1.596617756776921,-0.6285303086707676,0.3525262851131994,-0.09532304934662328,0.7269192626077685
1.5991047003233025,-0.686000974458965,0.34777375942635924,-0.09533672799581439,0.775005171859608
1.601591643869684,-0.743459877329656,0.333442856182105,-0.07619629945342155,0.8183658128174115
1.6040785874160657,-0.8056954773114883,0.32868719672970137,-0.05226697568691563,0.8717294948558715
1.6065655309624471,-0.8535542178660764,0.3239299825054487,-0.03791396866566288,0.9137411588753845
1.6090524745088286,-0.8774593491290286,0.29522920499343375,-0.013983667118683485,0.9258999599314602
1.61153941805521,-0.910929751150942,0.26652688888940146,0.005158716981009448,0.949134451167942
1.6140263616015915,-0.9348118674899693,0.25218825225681973,0.009936374978959606,0.9682824348939495
1.616513305147973,-0.953894158335636,0.23305968992513115,0.014714514820559188,0.9820628296200066
1.6190002486943547,-0.9585998739451601,0.218718016653622,0.009916327847966144,0.9832851177021644
1.6214871922407361,-0.9537174745641501,0.2091632405687438,0.0003302153626556503,0.9763843462163986
1.6239741357871176,-0.9488238237848005,0.194818563163921,-0.009255421335474523,0.9686622651672573
1.626461079333499,-0.9439189785837795,0.18047239590092135,-0.0044753743074466,0.9610272383174455
1.6289480228798805,-0.939002995961683,0.16133634360811966,0.005093547782664132,0.9527759371556714
1.631434966426262,-0.924499126301237,0.17092923768342683,0.014662939589642932,0.9402821069361033
1.6339219099726436,-0.9004074266473778,0.16136705308629207,0.019444395766848643,0.9149595315150529
1.636408853519025,-0.8954583739873357,0.1470150079468917,0.024226317606899528,0.90776980924156
1.6388957970654066,-0.8904984121244683,0.16139193368313043,0.01943189644014076,0.9052139950605269
1.641382740611788,-0.8759507915208476,0.16140220859420706,0.005061130236256872,0.8907109952977766
1.6438696841581695,-0.8613923759367247,0.15662264750886257,-0.009309176395676744,0.8755650403024133
1.646356627704551,-0.8468232225074883,0.17099527522269176,-0.018890622168113325,0.864121409254712
1.6488435712509326,-0.8322433883831462,0.17100127669327714,-0.018894805794650082,0.8498396953686082
1.651330514797314,-0.8224413340474681,0.17100587008687063,-0.014110132630641203,0.8401498981710352
1.6538174583436955,-0.8174171166762145,0.19016267689539834,-0.014113411352827399,0.8393639107677277
1.656304401890077,-0.8075939868156716,0.19016447877221054,-0.004539434037424073,0.8296934271096269
1.6587913454364585,-0.8025488083033764,0.1805880905787718,-0.004541816003827748,0.8226282734386589
1.6612782889828401,-0.8022816383450939,0.1805871338219749,0.00024465066980283723,0.822354911204204
1.6637652325292216,-0.7924273241933639,0.18058481009145666,0.005031560623155684,0.8127590383172165
1.666252176075603,-0.8017163429900999,0.18058112762191314,0.005030508495050157,0.8218174640918383
1.6687391196219845,-0.8014183320388916,0.18536449797260168,0.005029895564094389,0.8225914173427896
1.671226063168366,-0.7819565419288719,0.1853581227459049,-0.014123893493451334,0.8037494332817037
1.6737130067147474,-0.7912150630960642,0.17577360686839727,-0.02848884411927166,0.8110050870252831
1.6761999502611291,-0.8052519361738276,0.1757645718719103,-0.02848815171668484,0.8247032437339185
1.6786868938075106,-0.8097020084370267,0.1661774127292861,-0.03806383493186338,0.8274546093279525
1.681173837353892,-0.8141421437618459,0.15658894433855863,-0.04763908916940984,0.8304318217379976
1.6836607809002735,-0.8089955927418451,0.1517875782805964,-0.03806030319388931,0.823991459103326
1.686147724446655,-0.8134160258899612,0.14698491949860015,-0.047634705614152395,0.8279609066336254
1.6886346679930364,-0.8130382904733234,0.14218097625885617,-0.06678549183643412,0.8280742682305374
1.691121611539418,-0.8270160569965066,0.132587353509928,-0.0763590506268006,0.8410503370509056
1.6936085550857995,-0.8266189627551016,0.11820405952309487,-0.07635538403299158,0.838511332031288
1.696095498632181,-0.8166354682799108,0.09424269925154682,-0.07635130074375596,0.825593541362958
1.6985824421785625,-0.8114308407342732,0.09422210421300958,-0.07634680280756001,0.8204429587216854
1.701069385724944,-0.806216733991077,0.094200266083313,-0.07634189227316668,0.8152835070165799
1.7035563292713254,-0.8105700118738388,0.09417719314152206,-0.07154816786929352,0.8191533606002134
1.706043272817707,-0.7957603116321598,0.10372970030881534,-0.061965631645188424,0.8048813973501039
1.7085302163640885,-0.7905181103469153,0.10849258590542377,-0.0667478989314585,0.8007151840665117
1.71101715991047,-1.259318587233627,-7.610440294127351,0.8669972889642708,7.762497605390979
1.7135041034568514,0.5751121263582127,-7.299222007679525,0.8334854085082046,7.369131142914575
1.715991047003233,2.1797086168685347,-6.80604558845792,0.7664551051114721,7.1875475396528605
1.7184779905496144,3.530528810597888,-6.159641448099153,0.675483183364955,7.131766540108532
1.720964934095996,4.603630633864894,-5.379163191598744,0.5749348511798544,7.103475328176432
1.7234518776423775,5.394225626288239,-4.498129633913251,0.474386913147157,7.039593969410351
1.725938821188759,5.9166789407884535,-3.5500595899987357,0.3642625605766465,6.909609250453272
1.7284257647351404,6.185355730307055,-2.5828370847726556,0.24456179141890821,6.707420024625061
1.7309127082815219,6.205044341167346,-1.6108273199106211,0.13922662022626042,6.412232371195149
1.7333996518279033,6.004475136317589,-0.6483954970883263,0.03868023830900391,6.039506150682867
1.735886595374285,5.617166882050939,0.25178595545457316,-0.06665416302221061,5.623202177196036
1.7383735389206665,5.076638344686117,1.0849286426812048,-0.16719977917525064,5.193965999946836
1.740860482467048,4.397254677287089,1.8318789595927432,-0.23422619227640062,4.769328163239564
1.7433474260134294,3.6364766628285023,2.473483301188912,-0.27731021101403996,4.406697529180937
1.7458343695598109,2.823034664391865,3.0001648691087217,-0.31081704739645843,4.131237247501588
1.7483213131061923,1.9808706417682136,3.411923671630214,-0.35390031675180644,3.961100487824923
1.750808256652574,1.143503361420044,3.703971313709358,-0.3874064078452566,3.8957781193492442
1.7532952001989555,0.3300863798812384,3.866730996979791,-0.40175851608206514,3.9015350218128115
1.755782143745337,-0.4402267462820294,3.919356342995034,-0.4304754667497619,3.9674252178195992
1.7582690872917184,-1.1243404438672262,3.8714241666655376,-0.4544036486118088,4.056913751588667
1.7607560308380998,-1.7318315761605005,3.718146072938392,-0.4496010471107095,4.1262564061697375
1.7632429743844813,-2.2579117964508244,3.4786756833595835,-0.430432874250787,4.169487096728427
1.765729917930863,-2.6786391447087095,3.172166619472249,-0.3825339221137636,4.169422133920664
1.7682168614772444,-2.9940136774679784,2.7986188895352613,-0.3250578060227838,4.111210061160248
1.770703805023626,-3.213612257863792,2.3771861150855456,-0.2723697379799024,4.006557480408233
1.7731907485700074,-3.332646539030047,1.9270219176566545,-0.22446972002539134,3.8562070847461443
1.7756776921163888,-3.3559049806999113,1.462491515458285,-0.1622041409174031,3.6643266578738167
1.7781646356627703,-3.307329655845418,0.9979601266964515,-0.09993821265538827,3.456058667508311
1.780651579209152,-3.177343814152989,0.5477929695731087,-0.05682555055813232,3.2247201419729783
1.7831385227555334,-2.98510112518651,0.12156685896607344,-0.004135736740343177,2.9875783392418396
1.7856254663019149,-2.7545436617847074,-0.2855066002121882,0.048554420121806885,2.769726039729632
1.7881124098482963,-2.490459883458593,-0.6351201731707741,0.08687970803288358,2.5716368618358505
1.7905993533946778,-2.188061443031067,-0.9272738516858807,0.12041693160009892,2.379485219940554
1.7930862969410595,-1.880867219839009,-1.1906980474603643,0.13958928215053668,2.2304502923360903
1.795573240487441,-1.573665673248028,-1.3870855257175778,0.14918516097338497,2.103018335409616
1.7980601840338224,-1.2712452625730646,-1.5068594716079655,0.15878137267934989,1.9778527521276794
1.8005471275802039,-0.9783944470776863,-1.5787502968496836,0.1444358986381893,1.8629465700043135
1.8030340711265853,-0.7142668959337413,-1.6027579932445088,0.13966756006467662,1.7602606087935977
1.8055210146729668,-0.48843947161918977,-1.5788825525998171,0.13489954829208983,1.6582041853973102
1.8080079582193485,-0.2865470199556834,-1.5023355634084623,0.1253434579753634,1.5345462919653243
1.81049490176573,-0.11816640331118378,-1.382693824130294,0.12057609373174216,1.3929623485719789
1.8129818453121114,0.007125516002999904,-1.2391109398718072,0.1158090502189495,1.2445314099695988
1.8154687888584928,0.09411708569386576,-1.0620100958239647,0.11104232541648784,1.0719393021460843
1.8179557324048743,0.1523850568471105,-0.8705448971061378,0.09191070734441098,0.8885478048773646
1.8204426759512558,0.17235256732662116,-0.6647153355630628,0.08235621058680564,0.6916172570280552
1.8229296194976374,0.15401956169726563,-0.4540982096868005,0.06322521984649931,0.4836575625903242
1.825416563044019,0.12132800118683629,-0.24827031797672694,0.034517733109185045,0.2784782012281302
1.8279035065904004,0.05991262052288021,-0.04244324897802754,0.015387361643396602,0.07501814700506908
1.8303904501367818,-0.02543823222251826,0.1538061987956323,-0.0037427032025192375,0.15594056006642554
1.8328773936831633,-0.12514780559270694,0.3452664367840095,-0.03244927007851217,0.36867850594091406
1.8353643372295447,-0.23442775138626154,0.5223606664584413,-0.05636713103125324,0.5753210320713299
1.8378512807759264,-0.3437013180152314,0.6707236859619625,-0.06591948142593829,0.7565356812122433
1.8403382243223079,-0.45296856046525347,0.7999323100312621,-0.0802599365478347,0.922775094384638
1.8428251678686893,-0.5670179369743027,0.8812561268324162,-0.09938849839913111,1.052615682737199
1.8453121114150708,-0.6762726957503625,0.9530023710074644,-0.11372836233950956,1.174092167831699
1.8477990549614522,-0.7711560849316303,0.9912290340259942,-0.11849112704706855,1.2614502972420554
1.8502859985078337,-0.856456562546336,0.9959361239504716,-0.118465197838594,1.3188785424052938
1.8527729420542154,-0.9321741832307047,0.9958540687564406,-0.10407377006795926,1.3680297452017436
1.8552598856005968,-1.0030974048685373,0.9766176665276709,-0.09925886232921499,1.4035094556072065
1.8577468291469783,-1.0596494753091408,0.9142849086981681,-0.10402047661280633,1.4034223043513705
1.8602337726933598,-1.0970420456475838,0.8280094165754721,-0.10399340494615394,1.3783742133864023
1.8627207162397412,-1.1296403801847716,0.7417332147779363,-0.09438924599519005,1.3546825754428038
1.8652076597861227,-1.1382909199030462,0.650667907992545,-0.07041959842372236,1.3130247007072169
1.8676946033325044,-1.1373589289497081,0.5500251008963306,-0.0656032874558452,1.2650757827903671
1.8701815468788858,-1.126844461432952,0.454170011437824,-0.06078670179003254,1.216447229708738
1.8726684904252673,-1.111535974702228,0.3535258409537909,-0.05596984340375677,1.1677437076045232
1.8751554339716487,-1.0818567160660864,0.257669404051982,-0.03678750431127931,1.1127267393009177
1.8776423775180302,-1.047383546033494,0.1666007086891903,-0.031970106407364085,1.0610325990944551
1.8801293210644117,-1.0033281150707327,0.08031976281158082,-0.03194084502193739,1.007044581123504
1.8826162646107933,-0.9640556868426934,-0.005961828965735716,-0.01754610884192509,0.9642337769824528
1.8851032081571748,-0.9152011050089569,-0.06830204211655033,-0.007939513114365582,0.9177806205381545
1.8875901517035563,-0.8711296330665237,-0.11627767536799727,0.011244150158331578,0.8789276229066786
1.8900770952499377,-0.8270529211459124,-0.1546771241380589,0.03521647569498221,0.8421292936764417
1.8925640387963192,-0.7829710226118609,-0.18828878385603787,0.04003544493563638,0.8062872473424364
1.8950509823427006,-0.7436723940623936,-0.20753584000184278,0.03527786256507959,0.7728934481304155
1.8975379258890823,-0.7043686853670615,-0.20284147806702713,0.025732129950352345,0.7334453303838812
1.9000248694354638,-0.679425159587983,-0.18378249683621162,0.016186648461093966,0.7040288070902435
1.9025118129818452,-0.6544766597757978,-0.16951250174659416,0.011429819469572777,0.6761692297145601
1.9049987565282267,-0.634311642172019,-0.14566627500533702,0.006673237710089097,0.6508567086313464
1.9074857000746082,-0.6189301596065532,-0.11224380879277263,0.0019169012399498087,0.6290285284414894
1.9099726436209896,-0.6131206681375334,-0.07403349862200148,0.0019492114394914495,0.6175772923617456
1.9124595871673713,-0.612094817089518,-0.031035336698362226,-0.0028066402691333536,0.6128875381841529
1.9149465307137528,-0.6062758523729768,0.007173878119457466,-0.0027738491797393294,0.606324639064853
1.9174334742601342,-0.6004522297647086,0.05495936356143627,-0.017106030505201986,0.6032047978523823
1.9199204178065157,-0.6089892115866989,0.10274432074299122,-0.021861169572742867,0.6179823347062731
1.9224073613528971,-0.6223100434631232,0.14095195076636324,-0.026616074948888624,0.6386279496432977
1.9248943048992788,-0.6452031808819952,0.18394747132199996,-0.036159151876960394,0.6718863751338195
1.9273812484456603,-0.6537266593115835,0.22694248680565554,-0.050490402277036495,0.6938376741964328
1.9298681919920417,-0.662245740683951,0.2603601982791832,-0.05524461810531278,0.7137288152594179
1.9323551355384232,-0.6755488801910143,0.2889890167515561,-0.03605659131498662,0.7356500656613989
1.9348420790848047,-0.6888477262837636,0.3080405465772511,-0.031233550379667463,0.7552322179377954
1.9373290226311861,-0.7021423306323917,0.3318800053779336,-0.021621883926172814,0.7769270855749986
1.9398159661775678,-0.7154327448051732,0.3413537875188726,-0.021586803820445866,0.792989540089985
1.9423029097239493,-0.7287190202677051,0.3460387072728799,-0.03591671528468865,0.8075049274573197
1.9447898532703307,-0.7372128050617754,0.3507231755779574,-0.04066960361608629,0.8174004419455788
1.9472767968167122,-0.7504909570858529,0.34583039339654187,-0.03584547071023003,0.8271156118916414
1.9497637403630936,-0.7589767208521085,0.3361487716372338,-0.04059793174076631,0.8310775243804085
1.952250683909475,-0.7483049374465891,0.3312551245140285,-0.035773375315619305,0.8191275671745032
1.9547376274558568,-0.7519944810518764,0.3167842496243001,-0.030948609961338747,0.8165817636961108
1.9572245710022382,-0.7604685958603868,0.29273615451116797,-0.040488847521501725,0.8158714900163347
1.9597115145486197,-0.7593621226361138,0.28305286330396484,-0.035663669953576616,0.8111853389167947
1.9621984580950012,-0.7630403219560492,0.2590039635931114,-0.011684675813256717,0.8058846801724139
1.9646854016413826,-0.766714841006309,0.22537786619561606,-0.011647496855999862,0.7992386966189945
1.967172345187764,-0.7560205202220176,0.21090499851425992,-0.006821715029190045,0.784916862598205
1.9696592887341458,-0.7453226198490461,0.1820665447718799,-0.016360945479924283,0.7674123499923713
1.9721462322805272,-0.7441979967010971,0.1532277223784262,-0.016323173469036334,0.7599841045648957
1.9746331758269087,-0.7526467008386497,0.1339653454073355,-0.00670840085545521,0.7645055740120199
1.9771201193732901,-0.741938362286981,0.11949101795481543,-0.01145864609617675,0.7515862807258544
1.9796070629196716,-0.7264382408401251,0.10022794078033037,-0.025785507722787315,0.7337731599591818
1.982094006466053,-0.7252999994976327,0.08575292790799027,-0.025746970982098105,0.7308054189938742
1.9845809500124347,-0.7241584779013848,0.07127758338428336,-0.00655463439857229,0.72768740420709
1.9870678935588162,-0.7182253222176608,0.06159031787947011,-0.0017273230555776564,0.7208633465339288
1.9895548371051976,-0.7170773884567491,0.05669113872652076,-0.00647663547034405,0.7193440157901342
1.992041780651579,-0.715926322550367,0.05658005324129434,-0.01122576683613552,0.7182463502074612
1.9945287241979606,-0.7147721736322061,0.06604547204271993,-0.020763122303465664,0.718117241001804
1.997015667744342,-0.713614990716921,0.07072219245110478,-0.025511897058210664,0.7175645200067456
1.9995026112907237,-0.7076664193791233,0.0753986250504961,-0.03983730288406662,0.7127858896453068
2.001989554837105,-0.6969265083933163,0.08007477708699495,-0.03979732499846911,0.7026395627232108
2.0044764983834864,-0.6909721130535217,0.08953905910924975,-0.030180368536937507,0.6974027235169389
2.006963441929868,-0.6993800885319733,0.09421467168707487,-0.025351645271799228,0.7061526878190589
2.0094503854762498,-0.6886316599956278,0.09889002533319768,-0.020522753690297435,0.6959985514911414
2.011937329022631,-0.6826688923320539,0.12271874050313514,-0.006116888955494559,0.6936383222970333
2.0144242725690127,-0.6862802370237642,0.13697040443100228,0.0035007371718691616,0.6998240568743924
2.016911216115394,-0.6898889354678632,0.1416450242543843,0.008330122895902292,0.7043290758760904
2.0193981596617756,-0.6887066322566383,0.15110781705327092,0.0035828631043344217,0.7050980319054292
2.0218851032081573,-0.6827333751769029,0.1605703866077537,-0.0011642373502045444,0.7013622930300836
2.0243720467545385,-0.6815460185296591,0.17003273999943724,-0.001122776931408609,0.7024367364207145
2.02685899030092,-0.6947214164888248,0.17470648097072594,-0.005869564059890919,0.7163760554371335
2.0293459338473014,-0.6839523898974658,0.17938001988561458,-0.0058277938709903054,0.7071082140394221
2.031832877393683,-0.6779694059546617,0.1888417670889413,-0.015362678097533333,0.7039458361877846
2.0343198209400644,-0.6863493184492386,0.19351492294534367,-0.02489741186671779,0.7135427761921058
2.036806764486446,-0.6851501577982111,0.19339949444068072,-0.024855190301627417,0.7123565705921119
2.0392937080328277,-0.6887371808508386,0.19807229518192226,-0.03917803176341117,0.7177231057851281
2.041780651579209,-0.6875336277239479,0.18837971883452864,-0.0535007280465809,0.7148788258306036
2.0442675951255906,-0.6767511417231838,0.18826378892700868,-0.04866966762114977,0.7041335800763512
2.046754538671972,-0.6803317859439637,0.1833593024055018,-0.05341527215606412,0.7066294389875375
2.0492414822183536,-0.6886988001068123,0.17366626615708425,-0.058160736753553266,0.7126350262015068
2.0517284257647352,-0.6874870204786244,0.16876149368934934,-0.058117659831914636,0.7102791757211914
2.0542153693111165,-0.6862732997939467,0.15906818520840948,-0.053286043125492455,0.7064793924436444
2.056702312857498,-0.6898460873325062,0.1637399608219039,-0.03887748504402033,0.7100773604483348
2.0591892564038794,-0.6886286222779955,0.15883481073419636,-0.024468793953857926,0.707132659689124
2.061676199950261,-0.6969861602799873,0.1491411450509461,-0.010059971576405147,0.7128351785630852
2.0641631434966428,-0.6957651336096025,0.15860098713837,-0.01480463290995182,0.7137664684080164
2.066650087043024,-0.694542394322996,0.15369552049812807,-0.009972359745292536,0.7114147162464382
2.0691370305894057,-0.6837411810576591,0.14878996181407533,-0.0003515571110117577,0.69974322362075
2.071623974135787,-0.6729383455943507,0.15824952774903833,-0.0050958399922134134,0.6913138922293416
2.0741109176821686,-0.6717107395752844,0.16292061170250616,0.014102016474183188,0.6913301022282571
2.07659786122855,-0.6800584078629434,0.153226413693337,0.028511590671346454,0.697689531784026
2.0790848047749315,-0.6740393785785881,0.1578973602815168,0.01419086430722416,0.6924319756396771
2.081571748321313,-0.6967493261876432,-7.383955384689759,0.4260381511255229,7.428981441142944
2.0840586918676944,0.07541707596178603,-6.914809426930143,0.3781988351869554,6.925554960076872
2.086545635414076,0.7566051693113313,-6.201454945413166,0.3207828269239723,6.255669144405528
2.0890325789604574,1.3276612964210226,-5.330083193352923,0.25379012466421,5.498807215519991
2.091519522506839,1.7981622199151348,-4.367731810704177,0.19637434002114595,4.727476221070398
2.0940064660532207,2.1537426859593203,-3.3335544042403953,0.1293818580503494,3.970885567294324
2.096493409599602,2.3896142475031104,-2.2754350006798116,0.062389483733936046,3.3002656168661906
2.0989803531459836,2.510565264280834,-1.2460460300822562,0.004974022058608085,2.8027831518318864
2.101467296692365,2.53096090281182,-0.2741179059283607,-0.052441335265505984,2.546301987502072
2.1039542402387466,2.450801119799343,0.6164073615981915,-0.0811261699610526,2.528431454418867
2.106441183785128,2.2844510820531743,1.3920109556512767,-0.10981090358976608,2.6773997985908453
2.1089281273315095,2.046275956528988,2.0383276726432706,-0.13849553778676515,2.8915750042699573
2.111415070877891,1.7458525070088367,2.5409923089634305,-0.13844965426054578,3.0860672703629146
2.1139020144242724,1.4071227073823542,2.909581677580252,-0.1384036745585977,3.234936696331643
2.116388957970654,1.0300865150852856,3.134518978157662,-0.13835760030175415,3.302337093416171
2.1188759015170353,0.6338975009825841,3.2253810236178464,-0.1526766430669877,3.290625920186656
2.121362845063417,0.24249763940765384,3.191744626859897,-0.16220719118428129,3.2050507080355533
2.1238497886097987,-0.15368991839903134,3.0383981974391907,-0.15258403629907313,3.046106709449382
2.12633673215618,-0.5211463911648377,2.8132257747707863,-0.12380718001292124,2.8637669316272194
2.1288236757025616,-0.8550834173894952,2.5210157683632106,-0.09981864052403999,2.6639541880495083
2.131310619248943,-1.1650778453831105,2.1569797810609725,-0.08540682274453815,2.4530109023564712
2.1337975627953245,-1.4223992967426013,1.7594250455676992,-0.07578332494098738,2.263744544484615
2.1362845063417057,-1.6270478128355517,1.361870391242959,-0.06137134205473593,2.122673311987222
2.1387714498880874,-1.7933886448388268,0.9499506142193539,-0.05174768230343929,2.0301051262228635
2.141258393434469,-1.91663343049594,0.5523961404883622,-0.05170075057949042,1.9953190648444064
2.1437453369808503,-1.9824170007572388,0.19314899269712038,-0.06601895177030137,1.9928979402528588
2.146232280527232,-1.9955277997013443,-0.13736762977354822,-0.07076027083641456,2.001501456661807
2.1487192240736133,-1.9655426745737827,-0.4200001076451607,-0.061136306014626385,2.0108445349916337
2.151206167619995,-1.9068268757865596,-0.6547484349447918,-0.056300672138274166,2.016892166916171
2.1536931111663766,-1.8193804436364664,-0.8272473957629984,-0.05625337075441195,1.9994118870819795
2.156180054712758,-1.6984150149453952,-0.9566505974569188,-0.041840790123792715,1.9497550052057386
2.1586669982591395,-1.558295839661274,-1.0285928241662192,-0.017851335103651778,1.8672460448470245
2.161153941805521,-1.3894461509750617,-1.0382856666957614,-0.008227023827393154,1.7345504939454293
2.1636408853519025,-1.2158080051639863,-1.0144595391173723,0.0013973521391914545,1.5834516773555372
2.166127828898284,-1.0469582483880404,-0.9571144356058432,0.0253870012354227,1.418743851632342
2.1686147724446654,-0.8733201133692777,-0.8470967370796407,0.03979990534326028,1.2173105334513599
2.171101715991047,-0.7092588492742329,-0.7131368576853645,0.049424466271691614,1.0070030143596425
2.1735886595374283,-0.5595628984713495,-0.5696000016337719,0.05426068251456506,0.8003118272734681
2.17607560308381,-0.42423229985091104,-0.4116977598795457,0.05909695589121178,0.5941048223354505
2.178562546630191,-0.3032670921449774,-0.25379533668388277,0.0543564782652215,0.39917117735371765
2.181049490176573,-0.2014557172473247,-0.09110432305207139,0.03046244150541,0.2231868366030594
2.1835364337229546,-0.13316342353339117,0.06679848002423672,0.020933667368616682,0.15044185830473364
2.186023377269336,-0.07923663597710134,0.21033627152788759,0.011404944413802909,0.22505524734674118
2.1885103208157175,-0.04446379599425509,0.33950905705678425,0.0018762711661288733,0.342413418795605
2.1909972643620987,-0.02884494152031175,0.43995163222215705,-0.007652353843985438,0.4409626150430486
2.1934842079084804,-0.03238011033032761,0.5164524058908508,-0.007604125440220599,0.5175223491011407
2.195971151454862,-0.0646461466792678,0.5737997869038249,-0.017132658362831066,0.5776840379601377
2.1984580950012433,-0.09691266809849217,0.6119937807558147,-0.021872744104580732,0.6200055401820448
2.200945038547625,-0.13396811520020002,0.6262459895953363,-0.01703598079352986,0.6406416471133715
2.2034319820940063,-0.19975454171604046,0.6261332255057295,-0.012199176513350452,0.6573382028499469
2.205918925640388,-0.26554156469218976,0.6020786872629937,-0.012150736022043418,0.6581479382489803
2.208405869186769,-0.3313292209343041,0.5636591868981755,-0.021679064072255727,0.6541870630321989
2.210892812733151,-0.4066943537259591,0.5252399397363616,-0.03599575877064254,0.6652615923802505
2.2133797562795325,-0.47727178958614896,0.4772441444747346,-0.03594720825753761,0.6759012770750603
2.2158666998259138,-0.5526383714721028,0.4196718064246898,-0.031110220589742,0.6946232364067896
2.2183536433722955,-0.6184289255758556,0.3573113341914498,-0.031061603818645978,0.7149059719727956
2.2208405869186767,-0.6602782779255113,0.2949511363536832,-0.02143614938865568,0.7234798446655031
2.2233275304650584,-0.711705287588073,0.23259121814312245,-0.011810665340302506,0.7488408261799726
2.22581447401144,-0.763133183583215,0.1750199880851251,-0.006973556388365054,0.7829769361889736
2.2283014175578213,-0.795408388125184,0.12702585467828564,-0.011713227242157842,0.8055726356754421
2.230788361104203,-0.8133193398647056,0.07903201643343793,-0.021241275964904105,0.8174262046350808
2.233275304650584,-0.8312312839277702,0.03582688179546345,-0.0211924939737127,0.8322728727047526
2.235762248196966,-0.8443558519934847,0.006987262502600178,-0.011566882641142584,0.8444639834871335
2.238249191743347,-0.8431162722547433,-0.017063643015183594,-0.006729653295188598,0.8433157799348696
2.240736135289729,-0.8275125793789007,-0.031537426394064205,-0.021046017258329996,0.828380717506341
2.2432230788361105,-0.8119100178278267,-0.04122248593798883,-0.0209971526444086,0.8132269368480499
2.2457100223824917,-0.7963086219357786,-0.03175360669686045,-0.02573667408517366,0.7973569397079855
2.2481969659288734,-0.771131619229452,-0.017495993669719212,-0.035264582925579546,0.7721357877853108
2.2506839094752547,-0.741167447029323,-0.0032380452423184103,-0.030427267223782195,0.7417988191306745
2.2531708530216363,-0.715992945808757,0.0205970501331465,-0.02558993827455147,0.7167461069744184
2.255657796568018,-0.6812429392719037,0.044432490695788474,-0.039906210687401966,0.6838557553963273
2.2581447401143993,-0.6417058642363158,0.06826828129781815,-0.039857262542827954,0.6465567073382218
2.260631683660781,-0.6069585606716819,0.0825276201233085,-0.030231498478224594,0.6132890394879854
2.263118627207162,-0.5674242550981783,0.11115252857085878,-0.020605726445692696,0.5785756353699772
2.265605570753544,-0.5374681904689599,0.13020099480829428,-0.02534515771204049,0.5535943748219411
2.268092514299925,-0.5075135929668635,0.14446142689758545,-0.02529618029625702,0.5282793272928653
2.2705794578463068,-0.4919257052073153,0.17308744283386268,-0.02524719881326476,0.522099208348755
2.2730664013926885,-0.48591615635531493,0.18256022406098937,-0.01083300459109715,0.5191917761336289
2.2755533449390697,-0.4751197687658588,0.19203338851838359,-0.0012072121943269565,0.5124617784179204
2.2780402884854514,-0.4595365745853102,0.20150694083628062,-0.0011582262209319794,0.5017770940116493
2.2805272320318326,-0.45832021907150705,0.20619248229662324,-0.005897644622605114,0.5026007811150834
2.2830141755782143,-0.4571055240701632,0.2156668241142503,-0.005848662025050189,0.5054620124267192
2.285501119124596,-0.46068092453809945,0.22035316419467676,-0.020164892970173653,0.5110665848129604
2.287988062670977,-0.4690464519415072,0.2298283136965309,-0.03926953207229644,0.5238012256616862
2.290475006217359,-0.47262533093547676,0.22015026050809006,-0.039220563979126766,0.5228566660974016
2.29296194976374,-0.4857828026059988,0.22004942901283897,-0.0343831998951476,0.534405171149798
2.295448893310122,-0.49415368794637043,0.22473742032381194,-0.01996903773788894,0.5432251263269933
2.2979358368565035,-0.5025264210601605,0.20548381892416723,-0.010343288700410014,0.5430132478350171
2.3004227804028847,-0.5156894358797914,0.19101904911246903,-0.015082760649727689,0.5501375837648854
2.3029097239492664,-0.5240659562054752,0.20049672851824596,-0.029399051486185712,0.5618793187405687
2.3053966674956476,-0.5324444156269144,0.1860328282582242,-0.043715355784055276,0.5656998331742434
2.3078836110420293,-0.5456132475622429,0.15720415926438758,-0.03887806147124806,0.5691383551204421
2.3103705545884106,-0.5683608852578684,0.15231795236208834,-0.03404078303240787,0.5894010768673118
2.3128574981347922,-0.5815337451867939,0.14264379186373022,-0.014838311704227891,0.5989565290089707
2.315344441681174,-0.5851318569312874,0.128181681975005,0.013940948001083697,0.5991695783507094
2.317831385227555,-0.5887320565421428,0.12329683683389225,0.023566574975577126,0.6019658859351281
2.320318328773937,-0.6019111798979245,0.12320085726845731,0.023615374679545553,0.6148440498525214
2.322805272320318,-0.5959388361423568,0.11352853743743063,0.00929894261813402,0.6067275299252575
2.3252922158666998,-0.5899686674498352,0.11343349471298492,-0.005017512416472414,0.600795607279368
2.3277791594130814,-0.6031543158221893,0.11812732983695362,-0.024122394907566402,0.6150862416648728
2.3302661029594627,-0.5924001799245325,0.12282164352235547,-0.04801570601229699,0.606900846362905
2.3327530465058444,-0.586436708053889,0.13230484309399415,-0.05275543028047913,0.6034863043046521
2.3352399900522256,-0.5804755250922445,0.1370001258868565,-0.04791837549827882,0.5983452518692912
2.3377269335986073,-0.5697282557486357,0.13690749584764772,-0.03829294612573442,0.5871969835929379
2.3402138771449885,-0.5637717345199955,0.1368153602144453,-0.02866754661706139,0.5808432143559346
2.34270082069137,-0.5626059890895254,0.13672372287604695,-0.02861898474096236,0.579687779450363
2.345187764237752,-0.5662310469672261,0.14142099101256767,-0.014205245018116486,0.5837972972141979
2.347674707784133,-0.5698585321695212,0.15569557177509763,0.00020846147413067229,0.5907452083707171
2.350161651330515,-0.5399696486176229,0.16039385568411468,0.00025692366428131663,0.5632880935890843
2.352648594876896,-0.5292368598249684,0.1603042498325813,0.005093753728871775,0.5530054725215929
2.3551355384232777,-0.5328717892877844,0.14584995132342238,0.009930547248728772,0.5525605558565222
2.3576224819696594,-0.5221440437272165,0.1457613837929368,0.019555706451161115,0.5424603294802719
2.3601094255160406,-0.5066304562533515,0.14567334096546114,0.005238810327153232,0.5271836365111899
2.3625963690624223,-0.505484666443271,0.14079742317678567,0.0004986810376088613,0.5247274636087432
2.3650833126088036,-0.5091298937785315,0.14071044069444305,0.01012372082742452,0.5283135116412931
2.3675702561551852,-0.4984125509263674,0.15020080043643835,0.01017191202549661,0.5206523016053324
2.3700571997015665,-0.4972746802630882,0.15011489268997869,-0.004145149752163846,0.5194552636219487
2.372544143247948,-0.5009279040693682,0.15002952763488953,-0.008885448961800435,0.522988121701565
2.37503108679433,-0.49979544113177865,0.15952151542172466,-0.008837389975655086,0.5247101069353768
2.377518030340711,-0.49387731670370394,0.1546488429295585,-0.01836618380071542,0.5178497709580488
2.3800049738870928,-0.4975387658256361,0.1593535302112854,-0.023106621516211234,0.522945778305925
2.382491917433474,-0.5012030067626609,0.16405877404828528,-0.02305870415643163,0.5278744539826985
2.3849788609798557,-0.5096584675669463,0.15918777119260108,-0.03258764271072678,0.5349340655794862
2.3874658045262374,-0.5133283661558717,0.1495289283278547,-0.03732822824069615,0.5359648388940481
2.3899527480726186,-0.5170011302338801,0.14944745874893428,-0.04685726840360083,0.5402039570309264
2.3924396916190003,-0.5158883806909436,0.15894336576040402,-0.037232747608637595,0.5411008153252571
2.3949266351653815,-0.5291437548447424,0.16365144267649745,-0.02760828014192107,0.5545602988978625
2.397413578711763,-0.5328252599563015,0.16357169274298533,-0.037137480283664814,0.5586033017769636
2.3999005222581444,-0.5221445163940768,0.1587041191762233,-0.0370899291050808,0.5469895394657243
2.402387465804526,-0.5210435642745901,0.15383712848345743,-0.03225403091366097,0.5442357765547796
2.404874409350908,-0.524734023618707,0.15854753046281722,-0.041783399971944135,0.5497535515775693
2.407361352897289,-0.5188507076329137,0.15847011828142854,-0.032159214013143256,0.5434639364716378
2.4098482964436707,-0.5177588492718478,0.14402808839728376,-0.022535087288016342,0.537890459485723
2.412335239990052,-0.5166700680352089,0.1439518638014219,-0.008122617439855873,0.5364103608334618
2.4148221835364336,-0.5107959832490486,0.14866464089292508,-0.0032870153873183483,0.5320004853619413
2.4173091270828153,-0.5145018273470625,0.14858961604141552,0.006336927878720644,0.5355662059855364
2.4197960706291965,-0.5086340093472047,0.1580920021886052,0.006384001451401389,0.5326747526353636
2.4222830141755782,-0.5123461646564186,0.15801818900455933,0.0016426077110143211,0.5361632574641002
2.4247699577219595,-0.5112731052660127,0.16752179269236578,-0.007887254276568001,0.53807615443842
2.427256901268341,-0.5054148529548419,0.16266079954282953,-0.0030519721583210924,0.5309538810756845
2.429743844814723,-0.5043482359690593,0.1578004223797853,-0.007793563458136532,0.5285157103244109
2.432230788361104,-0.50807327574093,0.15772906735697045,-0.01732362577213209,0.5322753237012887
2.4347177319074857,-0.5165899935295356,0.15286993063771526,-0.002911740088965331,0.5387419747322193
2.437204675453867,-0.5059563938192787,0.14801141831681663,0.006711672764856402,0.5272042288810544
2.4396916190002487,-0.48096090084340387,0.15751874310023029,0.00675820857028242,0.5061434736821708
2.44217856254663,-0.4894875685450172,0.171815101062883,0.006804673075093248,0.5188109600702557
2.4446655060930116,-0.498017594249047,0.1717468816096197,-0.007514144568601111,0.5268538487026881
2.4471524496393933,-0.49218578838890525,0.1621024907173929,-0.026621438601244662,0.5188764484749626
2.4496393931857745,-0.4767805745065661,0.166823947614958,-0.03615199993706675,0.5064157509636713
2.452126336732156,-0.4757439892526805,0.17154604493912773,-0.04568263608598677,0.5077866600099658
2.4546132802785374,-0.47471084254292123,0.16669197861759466,-0.05042494459109648,0.5056473818781958
2.457100223824919,-0.47368115408152756,0.16183855782987733,-0.05037892630992147,0.5030940178024411
2.459587167371301,-0.46786654008016515,0.15698578508544836,-0.031179372133166794,0.4944853782389302
2.462074110917682,-0.4620554232189814,0.1473452595440703,-0.01197989618785833,0.48512818671857577
2.4645610544640637,-0.46103622600608973,0.1472821936173503,0.002431097365809265,0.48399623601953656
2.467047998010445,-0.4695973707776998,0.15200818640626634,0.007265204373501533,0.4936405195792171
2.4695349415568266,-0.4637968597763639,0.15194643366210814,-0.011842785953872337,0.4881961669454184
2.472021885103208,-0.4675767282761031,0.14709693774743382,-0.01658564787609329,0.49044937520148485
2.4745088286495895,-0.4665717848169233,0.14703650763607623,-0.016540188850200366,0.4894716976621463
2.4769957721959712,-0.4655704510486931,0.15655354895222073,-0.006918006366445795,0.4912359080841965
2.4794827157423525,-0.46457274512972613,0.1612828540094946,-0.021237924471712688,0.4922306816429504
2.481969659288734,-0.46836708836754853,0.14685921509221922,-0.025981120722653017,0.49153878499809434
2.4844566028351154,-0.47216509525810957,0.1372246510179349,-0.011570789271637238,0.4918377427480148
2.486943546381497,-0.4711783801265575,0.151532777254602,-0.006737350827686228,0.49499155586469845
2.4894304899278787,-0.4701953637680194,0.1466879660768723,-0.011480806172095015,0.492679255105257
2.49191743347426,-0.4692160634868224,0.14184383289423597,-0.016224349439699637,0.4904555195723045
2.4944043770206417,-0.46824049641696797,0.13700037980571977,-0.020967981400115576,0.48832153628087677
2.496891320567023,-0.4720570828426108,0.12258080224054257,-0.03528850945774842,0.488987956333855
2.4993782641134046,-0.4758774362372897,0.12731552216125808,-0.04003232108931343,0.494237962154636
2.501865207659786,-0.4749131699047262,0.1272625249778372,-0.03519941704694318,0.4929272442999419
2.5043521512061675,-0.4787411069399382,0.11284500603206693,-0.025578201397273403,0.49252541786914317
2.506839094752549,-0.47778445698723254,0.11279338719913623,-0.011168674880805085,0.49104488067083246
2.5093260382989304,-0.4768316394825759,0.11753086376266308,-0.0063360481931695745,0.491143626503638
2.511812981845312,-0.47109426705221963,0.1174806309772185,-0.0015035154226286096,0.48552421944008056
2.5142999253916933,-0.46536075879413985,0.1174310940292913,0.003328922707735771,0.47996018522036593
2.516786868938075,-0.4596311303172944,0.12695906139668756,0.0033728621603223985,0.4768550675274764
2.5192738124844567,-0.4586938003824469,0.1364877282469945,-0.0013716977763671423,0.47857160804430005
2.521760756030838,-0.4673371875820468,0.13644028971886035,0.00346045215289692,0.486859296188094
2.5242476995772196,-0.4664076937388878,0.13160515088296032,-0.0012843020330706167,0.48462119428422346
2.526734643123601,-0.4559053337891117,0.1411359267420229,-0.010817557708111991,0.47737411193890616
2.5292215866699825,-0.4454069291418026,0.14109060238711812,-0.015562508920002216,0.46747842976267445
2.5317085302163638,-0.44448930103857515,0.1458343894429941,-0.020307559671682185,0.4682422501887147
2.5341954737627455,-0.45315246391316816,0.14100207958374078,-0.020264307319719066,0.47501514096780406
2.536682417309127,-0.45703122207134916,0.14095888437656034,-0.02500955917587433,0.47892841122957713
2.5391693608555084,-0.4561255896130226,0.15049320871931293,-0.034543315905548155,0.4815516587493108
2.54165630440189,-0.44564717715119906,0.15045144087960605,-0.03928877152777943,0.4719964513995247
2.5441432479482713,-0.4447496117341061,0.1504103890182673,-0.029669120055869413,0.4704314604138994
2.546630191494653,-0.44385610032198436,0.14558165130656686,-0.024837975419274017,0.46778112404533245
2.5491171350410347,-0.45254346299044934,0.15511884248875552,-0.029583741580806233,0.47930432812187235
2.551604078587416,-0.4468696964072997,0.15986835071803318,-0.024752805896003593,0.4752505828804226
2.5540910221337976,-0.4412000236374398,0.150253370759724,-0.01992197563658138,0.4665087581124293
2.556577965680179,-0.4451112642603239,0.14542751727255165,-0.024668058068558096,0.46891546513242227
2.5590649092265605,-0.44902662440926444,0.1597560015664956,-0.015049037210076222,0.47683683056769327
2.561551852772942,-0.45294611669356244,0.15493159839970438,-0.005430123636108064,0.47874154932820373
2.5640387963193234,-0.4520813502378265,0.15968472898634678,-0.014964931236256973,0.4796881373050675
2.566525739865705,-0.43685553068223293,0.16922699127009766,-0.01492304069133965,0.46872510750487906
2.5690126834120863,-0.4455758967062272,0.1691931765257304,0.004272354042241133,0.4766366160058286
2.571499626958468,-0.4447236370209773,0.17394849592166572,-0.0004743775096969216,0.47753263510737926
2.5739865705048492,-0.4295103600962057,0.1787045473168889,-0.024374832612561903,0.46584181556253285
2.576473514051231,-0.42866649748077496,0.1834613318625551,-0.033910188604243885,0.46750714138116994
2.5789604575976126,-0.4326152539982755,0.1882188506817264,-0.03386884937952139,0.47300041511845964
2.581447401143994,-0.4365682376301169,0.1929771048694069,-0.03382762214785018,0.4785146780731203
2.5839343446903755,-0.4405254595158095,0.18815928885196875,-0.028998104152133664,0.4799036241864732
2.5864212882367568,-0.43969852731262427,0.18334221030907383,-0.00980348930935726,0.4764926750796343
2.5889082317831384,-0.4340874518365049,0.17852587025184263,-0.004974198093412596,0.4693912492130208
2.59139517532952,-0.43326905038267144,0.16413346302290233,-0.0001450210897875337,0.4633161822497773
2.5938821188759014,-0.43245493012435127,0.15453019953862324,-0.009681168800259599,0.4593371029947868
2.596369062422283,-0.42685669807401305,0.15450448404698136,-0.009640625158539251,0.4540608086310913
2.5988560059686643,-0.43083957436491627,0.16405631744792037,-0.0048117940146461535,0.4610426959568435
2.601342949515046,-0.44440356900922573,0.16403208733246233,-0.014348289173977236,0.4739271370421853
2.603829893061427,-0.443606675257692,0.15443179454525824,-0.004731287912951743,0.4697429579940156
2.606316836607809,-0.4428141127640215,0.15440905318463916,0.004885595974105428,0.468988660008306
2.6088037801541906,-0.45160269770237527,0.15438705739954228,0.009713958659329336,0.4773622534903526
2.611290723700572,-0.4508188261661195,0.15915421127237783,0.014542202960994288,0.4783086374491781
2.6137776672469535,-0.44046250737126735,0.15913370889720868,0.009793521741942257,0.4684300062712413
2.6162646107933347,-0.4396873636567978,0.16869076094229296,0.005044721151753251,0.4709639049845051
2.6187515543397164,-0.4389165972818524,0.16388335148609512,-0.004492602615435715,0.4685357144786884
2.621238497886098,-0.4333618136682472,0.1638650944626363,-0.033183660000634774,0.4644947642547966
2.6237254414324793,-0.42781142472111744,0.16384758717718384,-0.05708643487687759,0.46165734911582335
2.626212384978861,-0.4318422455089217,0.1638308302281799,-0.06183571775239649,0.4659956243672214
2.6286993285252422,-0.4263006710216052,0.1590264208666743,-0.05700831573151355,0.45855382749430784
2.631186272071624,-0.42555191933498376,0.15422276295731985,-0.037815825952193904,0.45421265213149314
2.633673215618005,-0.43438440172827497,0.15420826033780122,-0.018623458828225026,0.46132074442839555
2.636160159164387,-0.4336445127235,0.13982930021733342,-0.01858482808829187,0.4560100793288919
2.6386471027107685,-0.42812066328895193,0.13023949634078313,-0.008969514252553878,0.4475824850549893
2.6411340462571498,-0.42260126423797884,0.13501565578560282,-0.013719534359221797,0.44385727600861546
2.6436209898035314,-0.42187472622933203,0.13500416568064155,-0.013681275558301564,0.4431609038296385
2.6461079333499127,-0.4211526531268921,0.12541662308901724,0.0055104716852589775,0.4394647333758045
2.6485948768962944,-0.42043505196095904,0.12061823832848928,0.01033688370875474,0.43751713509266227
2.651081820442676,-0.419721929608296,0.11582060840902031,0.005586363417341644,0.43544473700181247
2.6535687639890573,-0.419013292792487,0.11581213695471337,0.015200927002757325,0.43498926283824857
2.656055707535439,-0.4135207447639854,0.1205928242429386,0.020026960779263803,0.43121121827603653
2.65854265108182,-0.4176095019020392,0.12058586388408443,0.0009108510664397329,0.43467168794068645
2.661029594628202,-0.42170276383224414,0.13015646606380837,-0.013416982607710182,0.44153588993904946
2.663516538174583,0.5127265141121513,-6.11871531530846,0.3505389183526155,6.150157975316059
2.666003481720965,1.9930292537023757,-5.577630432208834,0.3074804090328751,5.930992416649559
2.6684904252673465,3.2099652879934495,-4.8833158864442066,0.25963336796129965,5.84962055886364
2.6709773688137277,4.153957804683017,-4.088444114417963,0.20220939144482664,5.831949018792458
2.6734643123601094,4.815429991619626,-3.240899149238572,0.1447852857565426,5.8062686881246455
2.6759512559064906,5.199170246761622,-2.378988217400474,0.09214945385449447,5.71834309176944
2.6784381994528723,5.338697388139269,-1.5218649321427362,0.03951349206133514,5.551515467857921
2.680925142999254,5.267530233931843,-0.7078365200105272,-0.013122599974817462,5.314892238519683
2.6834120865456352,4.980880375904921,0.04394340570538624,-0.04660520931932233,4.981292240725837
2.685899030092017,4.521843439175238,0.7095328283692579,-0.0752995462745929,4.577791492042313
2.688385973638398,3.9430918556482712,1.2697781346395587,-0.08962880453626809,4.143469948713402
2.69087291718478,3.2877212507363516,1.7246793244306584,-0.1087465977167188,3.7142234204712232
2.6933598607311615,2.5700968300769356,2.0790248009518653,-0.11828771618098166,3.307829170731731
2.6958468042775428,1.8333142193766163,2.31844935410572,-0.11825216024988983,2.958079107786925
2.6983337478239244,1.1061038345265959,2.452529790371305,-0.11342833355946347,2.6928115515697035
2.7008206913703057,0.4171960915645392,2.476477706241389,-0.11818144638122163,2.5141521955912087
2.7033076349166874,-0.21904380328731074,2.4094467147852354,-0.12293469238002253,2.422504199735989
2.7057945784630686,-0.7978274503026639,2.2801672356876224,-0.11332286189533214,2.4183741096422473
2.7082815220094503,-1.2856360296879514,2.0838508653662298,-0.10849956850371711,2.4509317791984495
2.710768465555832,-1.677681141427679,1.8492280234559142,-0.09409960253451644,2.498622226394759
2.713255409102213,-1.9931164019636758,1.5619334996841046,-0.06533456095265322,2.5330649131174945
2.715742352648595,-2.203211394391497,1.255486116956288,-0.06051167060080154,2.5365424302631725
2.718229296194976,-2.3031777182649624,0.9586162948331594,-0.04611210851193981,2.495135092371407
2.720716239741358,-2.345687812839043,0.6665356296085663,-0.017347471635909884,2.438610669133443
2.7232031832877395,-2.3067996641014568,0.37924412087209225,-0.017313390120676786,2.3378303075698437
2.7256901268341207,-2.1913016778200616,0.12547218811092486,-0.026856250945161975,2.1950552547535542
2.7281770703805024,-2.042289486183704,-0.08999176581396151,-0.026822441083329096,2.0444471885173465
2.7306640139268836,-1.8501862847169426,-0.27193614470630223,-0.012423557465114143,1.870105050453717
2.7331509574732653,-1.6197804787645786,-0.42036094907391486,-0.012390020257692314,1.6734830861096612
2.7356379010196465,-1.3702256834924478,-0.554419792729814,-0.012356619740510055,1.4781922798893001
2.7381248445660282,-1.1254639172468384,-0.6310170463471463,0.002041853811906691,1.2902928779824618
2.74061178811241,-0.8759183749928177,-0.6597295171464239,0.011651786887741267,1.096636585009815
2.743098731658791,-0.6455310747985648,-0.66928762565334,0.03562679254257439,0.9305512144584774
2.745585675205173,-0.41993680803156314,-0.6453261625345743,0.04523645063373216,0.771258137887229
2.748072618751554,-0.22786599580412997,-0.5926335317618028,0.05963437422652973,0.6377253904320145
2.7505595622979357,-0.06931863916924133,-0.5207865406506844,0.06445535314894535,0.5293186065204375
2.7530465058443174,0.06049366427762208,-0.42499678657944506,0.050122580554084806,0.43219674351155024
2.7555334493906987,0.16635931707734303,-0.3196294802312045,0.040578072842070156,0.36260861408257566
2.7580203929370803,0.22912470530562848,-0.21904983231232666,0.02624502317562083,0.31807194289804686
2.7605073364834616,0.26315503841598364,-0.11368103695102683,0.03106544796444588,0.2883383680040002
2.7629942800298433,0.27323871935656985,0.0012653083809253118,0.011943717138644061,0.27350256148710034
2.7654812235762245,0.24979894124943047,0.10663558958712338,-0.016754959523181512,0.27212384806288714
2.767968167122606,0.21677772059314676,0.18327619254796534,-0.021511758956407334,0.28468491121560663
2.770455110668988,0.1645982507780241,0.2694943429646983,-0.031057101255752784,0.31730793968567794
2.772942054215369,0.10283733860906491,0.35092482999220875,-0.0358141799487246,0.36743218422268853
2.775428997761751,0.021918177743012163,0.39404882948132025,-0.035782995198747614,0.3962768089058032
2.777915941308132,-0.06858242474961035,0.4371735670648156,-0.030963547164560623,0.4436023196261745
2.7804028848545137,-0.14472245170527184,0.4611454285090866,-0.04529785260179153,0.48543958399861403
2.7828898284008954,-0.22565551571166553,0.46117600951890836,-0.0644207016989089,0.5174492731990855
2.7853767719472766,-0.32095842258464924,0.45641892237815673,-0.06439007799911778,0.5616748382094364
2.7878637154936583,-0.3779587348454462,0.4420857627467627,-0.05957119160350821,0.5846720052631382
2.7903506590400395,-0.4349636779709414,0.41817652958268825,-0.049964042647618,0.6054431572043099
2.792837602586421,-0.49676165406611256,0.3894796251420045,-0.025991824621765858,0.6317769339714968
2.7953245461328025,-0.6160250983097955,-5.332628096192889,0.8311624301211236,5.432056730125177
2.797811489679184,0.7347466499510927,-5.083596147249114,0.7450010896233099,5.190166572614054
2.800298433225566,1.9514384800135796,-4.666969353375724,0.6732048178300403,5.10312843394868
2.802785376771947,3.0101083770056607,-4.1114781356467365,0.5918315980270403,5.129841083468771
2.8052723203183287,3.86766071290145,-3.4602181251188546,0.500881430106114,5.2137118323270935
2.80775926386471,4.528883893005073,-2.7323429362688767,0.43866154052606454,5.307439230442108
2.8102462074110917,4.979412709465732,-1.9709482001968635,0.3572878959845749,5.367200609225
2.8127331509574733,5.2479775844417045,-1.1903991281017958,0.2567604963868533,5.387415406620593
2.8152200945038546,5.320213310333365,-0.4242145444866465,0.15623295492396494,5.339385393788932
2.8177070380502363,5.191331486307068,0.30366353276631486,0.04134006154906267,5.200369519807622
2.8201939815966175,4.909216148176873,0.9597162791124192,-0.08312978049895214,5.002836104283226
2.822680925142999,4.48344410531864,1.5200016766262587,-0.16929253809391476,4.73712318880535
2.825167868689381,3.9379573771920957,1.9845197239636438,-0.2267250179491178,4.41556690280494
2.827654812235762,3.3062747900213534,2.3436936131181945,-0.2841576400546266,4.062646711652784
2.8301417557821438,2.607549960191477,2.6071001493444035,-0.3080715812321486,3.7001616292763564
2.832628699328525,1.8705133108501286,2.750797314633785,-0.3128320515021539,3.341192871522235
2.8351156428749067,1.123895265267136,2.7987271241601395,-0.3175926642010811,3.032635682562927
2.837602586421288,0.39163784351254644,2.7461011731550484,-0.331930226020436,2.793676704384505
2.8400895299676696,-0.32625895082449263,2.602496266790553,-0.3414795270458786,2.645002833466033
2.8425764735140513,-0.9723342741911498,2.387066016858939,-0.32229855071814306,2.597574727588149
2.8450634170604325,-1.5417997194380855,2.123752438452756,-0.2983293136768399,2.64130103814243
2.847550360606814,-2.039443685938159,1.8077671267222537,-0.2791486225963862,2.7395759682965752
2.8500373041531954,-2.4461125563437265,1.4678405000400172,-0.2456028642250896,2.863274897521322
2.852524247699577,-2.7426527131892127,1.1039725568367653,-0.21684565186954963,2.964442839413097
2.855011191245959,-2.948217765454041,0.7305285054842461,-0.18808858223060554,3.043195229463497
2.85749813479234,-3.072384515359901,0.3762387642956515,-0.1545432520049328,3.0991911581446976
2.8599850783387217,-3.0959993450902292,0.04110333164227553,-0.12099806452563833,3.0986354997466505
2.862472021885103,-3.028639056634243,-0.260512584162945,-0.09702982644202152,3.0413707648192094
2.8649589654314846,-2.89424566182663,-0.5238205814672072,-0.05869652115703872,2.941851667601011
2.867445908977866,-2.683242349144909,-0.7488206619573645,-0.0012097453507902145,2.785771589973372
2.8699328525242476,-2.4195711301943637,-0.9259360206988547,0.04191167773822002,2.5910304045357115
2.8724197960706292,-2.1175972098254516,-1.031224642815459,0.06587934479747837,2.35626447901787
2.8749067396170105,-1.7821089861350892,-1.0934169499732016,0.06590485251849643,2.0918452415361943
2.877393683163392,-1.4322600670676613,-1.1220897505759881,0.06593021751872996,1.8206595238117456
2.8798806267097734,-1.082415657135123,-1.0885126264839817,0.061167036497774774,1.5363023137326315
2.882367570256155,-0.7277873474562352,-1.0166275960995248,0.0659805194404921,1.2520221728124938
2.8848545138025368,-0.3827403423195921,-0.9160114678826237,0.0803706663747974,0.9960053327894014
2.887341457348918,-0.080793459184411,-0.7770874370306582,0.08518386405134493,0.7859063293628435
2.8898284008952997,0.18284171116318557,-0.6333743286421152,0.09957372578725554,0.6667151253654648
2.892315344441681,0.4177419813671547,-0.47050693463067095,0.11396344498172617,0.6394316267781955
2.8948022879880626,0.6382725675008069,-0.28848525688927795,0.1187762150378795,0.7104388806401781
2.897289231534444,0.786972635941696,-0.10646291061014068,0.118800439323687,0.8029780977337457
2.8997761750808255,0.8877842096208656,0.0659832956371611,0.11403611789069856,0.8975070107463602
2.902263118627207,0.9454956982957545,0.21927655326504425,0.10927165411465722,0.9767213608294474
2.9047500621735884,0.9457418985497684,0.367782070269866,0.0853534347735998,1.0183204793738365
2.90723700571997,0.9028880269947708,0.4923462313880038,0.0518582665712799,1.0297091242988272
2.9097239492663514,0.8312993003487399,0.5833922279788966,0.03751656949652826,1.016273836824147
2.912210892812733,0.7166105155132871,0.6648620746267677,0.023174730338840988,0.9778084052346383
2.9146978363591147,0.5731868894169712,0.7080253493749495,0.008832749172778875,0.9110000675164475
2.917184779905496,0.4201820424132101,0.7320356634526934,0.004067432717272723,0.8440649888142923
2.9196717234518776,0.2623843849982842,0.7416814181111797,-0.015063235547170706,0.7868696159640985
2.922158666998259,0.0950055211313715,0.7273858046235966,-0.034194045573814336,0.7343605317322444
2.9246456105446406,-0.08195454180515899,0.6987256275274651,-0.06290180391376765,0.7063219424750654
2.927132554091022,-0.25413058636579267,0.6509124813825289,-0.08682130051289683,0.7041358899878157
2.9296194976374035,-0.41194579832334466,0.5743695574115422,-0.09158732531336433,0.7127327461225874
2.932106441183785,-0.5506117666698179,0.48346206342220066,-0.08677668485525203,0.737861150487121
2.9345933847301664,-0.6749168869371007,0.4069204171666523,-0.08675458899531208,0.7928577355942837
2.937080328276548,-0.7944379578772298,0.330379406497852,-0.07236742434446874,0.8634345749738473
2.9395672718229293,-0.8852329549004357,0.24426222257280017,-0.06276880407253671,0.9204571367438342
2.942054215369311,-0.9425134665991268,0.16293407313390107,-0.05795872806449509,0.9582475468622713
2.9445411589156927,-0.9902215013890687,0.08160655262624239,-0.03399517960018095,0.9941599084054886
2.947028102462074,-1.0139918410255162,0.02422167540093323,-0.024396981799640116,1.0145744703798119
2.9495150460084556,-1.0042476704866619,-0.03316257740997974,-0.033952537857480536,1.0053685468748879
2.952001989554837,-0.9801425945756539,-0.07618099812762091,-0.038719831042934416,0.9838609025127528
2.9544889331012185,-0.9368882013977696,-0.09046837908867467,-0.038698861223286585,0.9420412047215658
2.9569758766476,-0.8792728856031293,-0.11912035248910113,-0.02910122494202838,0.8877822632983314
2.9594628201939814,-0.821661848387247,-0.13819490405584922,-0.014715325379810906,0.8333322059078159
2.961949763740363,-0.7544782742494517,-0.128538422851451,0.00445883760646737,0.765362315309795
2.9644367072867444,-0.6777221542355134,-0.09972771787544854,0.009267650882099687,0.6850830792007219
2.966923650833126,-0.5866050759773784,-0.07570480810336644,0.00449951791733838,0.591487090978224
2.9694105943795073,-0.5002806436155576,-0.04689288928346347,-0.009845561134472547,0.5025699956382199
2.971897537925889,-0.41396044459649295,-0.013291963819412,-0.019402376155692735,0.4146279997699017
2.9743844814722706,-0.34200967955607076,0.02509796587040025,-0.019382523665932183,0.34347665280851103
2.976871425018652,-0.27485153243727367,0.06348849403268586,-0.014574406822099206,0.28246516084620443
2.9793583685650336,-0.20769759041257263,0.10187961822004299,-0.009766428777778557,0.23154509021553862
2.981845312111415,-0.1597014571658423,0.1402713359706924,0.009406620597991022,0.21276533464587408
2.9843322556577965,-0.11649791304911214,0.17866364480863162,0.02857953151757897,0.21519584415798476
2.986819199204178,-0.07808694828626361,0.2074797356031186,0.028598690876302513,0.22352471294789739
2.9893061427505594,-0.06362216629391751,0.24108481581094887,0.038194518775833686,0.2522468824842986
2.991793086296941,-0.05394994383822338,0.27947888291412815,0.038213402117959205,0.28719210737153844
2.9942800298433223,-0.049070270879198435,0.3035083210996179,0.023866937768600494,0.30837448529234207
2.996766973389704,-0.05855994393065536,0.31796153114229453,-0.009633277403130691,0.32345262767991156
2.9992539169360852,-0.08241895277952549,0.3228385104831881,-0.0191916133218335,0.3337452706034529
3.001740860482467,-0.10628207716609056,0.31813925654990527,-0.014384876432394833,0.33573112926096166
3.0042278040288486,-0.1301493067064687,0.31344057339737796,-0.03830869641875978,0.34154266396624045
3.00671474757523,-0.16838584089313893,0.31353086174703604,-0.03829063655551579,0.3579407290725032
3.0092016911216115,-0.20183805589240691,0.29446810238536836,-0.01911909995791028,0.3575130824348485
3.0116886346679927,-0.244871151029344,0.27061750264841145,-0.019101312980305707,0.3654594006229288
3.0141755782143744,-0.2879083089446083,0.24676746321874488,-0.019083662130261914,0.379670332555838
3.016662521760756,-0.33094951883720175,0.21812957812560585,-0.00948934055292483,0.39648221202969436
3.0191494653071373,-0.37399476982441704,0.19906905466688496,-0.014260364632612266,0.42391500844089136
3.021636408853519,-0.40746724430178366,0.18000908352643075,-0.02860833082876013,0.44637569593753956
3.0241233523999003,-0.4313669312248911,0.15137285537572875,-0.03337962563689878,0.4583725232893445
3.026610295946282,-0.45048222278964867,0.13231398079589773,-0.018997442190215708,0.46989586652079673
3.029097239492663,-0.46960151111254667,0.11804405375436611,0.00017300977947876106,0.4842107059930984
3.031584183039045,-0.4887247849109174,0.08462105492530947,0.009766520543294632,0.49609275669618214
3.0340711265854265,-0.4934868228628857,0.07514061145539319,0.019359896976812507,0.49954995890315945
3.036558070131808,-0.4982528234907553,0.07044910731545206,0.024164735997565856,0.5037885343116553
3.0390450136781895,-0.5125995819193953,0.06096973310529741,0.024181037846267017,0.5167788330903198
3.0415319572245707,-0.49821985999401563,0.061067696014777795,0.0002551894852373948,0.501948560622185
3.0440189007709524,-0.47426725932759384,0.0707429932613941,-0.0236707922375885,0.480098230335047
3.046505844317334,-0.46947218809835023,0.06605360544979577,-0.02365489047144287,0.47468596780817734
