Time (s),Acceleration x (m/s^2),Acceleration y (m/s^2),Acceleration z (m/s^2),Absolute acceleration (m/s^2)
0.0,0.9123335650262892,1.484706137618877,0.021302958001204075,1.7427445782375404
0.0024869435463814966,0.9039546242022927,1.5037248805482537,0.021189695709916023,1.7546428360782849
0.004973887092762993,0.9147298529394311,1.5131671259752209,-0.0028655261601713278,1.7681667529480578
0.00746083063914449,0.9207172643349604,1.5178213214087786,-0.012555480195098667,1.7752913802107173
0.009947774185525986,0.9123400814200837,1.5272643176678635,0.001696641095046303,1.7790175937235966
0.012434717731907484,0.9135403504405292,1.5462845622397527,-0.0032047913255048854,1.7959850194228872
0.01492166127828898,0.9147412943715154,1.5509400826775386,0.001470643309923858,1.8006023821143942
0.017408604824670475,0.9111545394795857,1.560384536403842,0.010934542523575175,1.8069648752764091
0.019895548371051973,0.9075685186422605,1.5698295642254723,0.010821697194767665,1.8133291443852708
0.02238249191743347,0.9087716647067516,1.569698403613714,0.020285721442714788,1.8138992605367517
0.024869435463814968,0.9051872005283012,1.5695679053051277,0.044115019423358603,1.8124164566409433
0.027356379010196462,-1.5213285211863572,9.015405276463584,-0.4587799832252717,9.154367910526139
0.02984332255657796,-0.2464076243257718,7.9953463277517915,-0.32481727883636147,8.005734562340335
0.03233026610295946,0.9518997007826999,6.869943300476548,-0.17648929822197168,6.937822602553316
0.03481720964934095,2.05922827354364,5.70144548182328,-0.037738057157534755,6.062039741351308
0.03730415319572245,3.046847703366466,4.542525352315798,0.08664804186034836,5.470404499403998
0.039791096742103946,3.8812391963053994,3.4362785858153337,0.19188059633262533,5.187373746079935
0.04227804028848544,4.552825974980698,2.3922820329180228,0.28274801039841435,5.150843049527484
0.04476498383486694,5.056819665296776,1.4632081740789322,0.3496734782334201,5.275857733999606
0.047251927381248435,5.4027971030821655,0.6490570532048809,0.41659901725303605,5.457567804119729
0.049738870927629936,5.581181510846706,-0.031017672541855612,0.4883130315888913,5.602588577599338
0.05222581447401143,5.591972917702776,-0.5578623460257258,0.5217198921669493,5.643896097140461
0.054712758020392924,5.468690175966221,-0.9506305367013689,0.5263964064340616,5.575604347039456
0.057199701566774425,5.211333314671342,-1.2141106040911214,0.5167077851548143,5.375783329972433
0.05968664511315592,4.8342675727734035,-1.338725697785967,0.4926540291302679,5.040341005477631
0.06217358865953741,4.3710118024683,-1.357994597290236,0.45902354247918176,4.600064794775915
0.06466053220591891,3.831142839309126,-1.276705662217864,0.4206047293176951,4.06011590246549
0.06714747575230041,3.2386027287680514,-1.104435655535521,0.3821859937592951,3.4430207501303016
0.0696344192986819,2.6316987262357,-0.86033814688387,0.3389789332741806,2.7894312377002377
0.0721213628450634,2.0152192638173947,-0.5875087225394406,0.2957719519704973,2.1198481615184344
0.0746083063914449,1.4131063868559952,-0.27158212897026457,0.23341143735214231,1.4577748154073797
0.07709524993782639,0.8445137373297131,0.07786487071787751,0.16626260016246874,0.8642393434942062
0.07958219348420789,0.309441343890549,0.4177366901399011,0.10869065114211196,0.531104081365908
0.08206913703058939,-0.16816874825348238,0.7336681627945341,0.04633038110707055,0.7541194900020662
0.08455608057697088,-0.5787397039014732,1.0448129453837056,-0.01602980584817537,1.1945001843402407
0.08704302412335238,-0.9079062845789769,1.3272290646866136,-0.06881310231160498,1.6095235489972344
0.08952996766973388,-1.1604568651401725,1.5665513540822316,-0.1263847174755668,1.953641824296155
0.09201691121611537,-1.336391417166905,1.7675682601890113,-0.17437944061333432,2.2227567936266883
0.09450385476249687,-1.4213447023286443,1.925491422942062,-0.20322046432133867,2.4018818746516515
0.09699079830887837,-1.4392587089065418,2.0355324822328873,-0.2368498044410252,2.5041876821141535
0.09947774185525987,-1.3949218119502567,2.116845094510002,-0.24653704029329582,2.5470807854958633
0.10196468540164136,-1.2835455799191735,2.1598524962545813,-0.24185897776439091,2.5240736570933167
0.10445162894802286,-1.1147067912845545,2.150189520581111,-0.22760401942314523,2.432630221511339
0.10693857249440436,-0.8931938212488741,2.1213750337599,-0.20377216452098068,2.3107467042517986
0.10942551604078585,-0.652525464988648,2.0734090787709514,-0.17036341231225371,2.180329879317149
0.11191245958716735,-3.940908554842186,7.005384764951053,-0.8169078401792174,8.07920258206111
0.11439940313354885,-2.07217943980305,6.44027567033749,-0.5823859649602774,6.7904529858372635
0.11688634667993034,-0.2800629210668053,5.798554396353777,-0.3574408034967558,5.816307441601982
0.11937329022631184,1.3923453993353057,5.075432582457598,-0.15164916169546494,5.265134288730472
0.12186023377269334,2.8923731126763963,4.318794304577354,0.04456576781502797,5.198056615298075
0.12434717731907483,4.205655036736542,3.5573700253065654,0.20726196916095674,5.512292926617521
0.12683412086545634,5.336979602520978,2.8055249972232685,0.3508046530280513,6.039651123397421
0.12932106441183783,6.238462804454821,2.0776244728500917,0.4656170134974307,6.591793444580177
0.13180800795821931,6.910104670109091,1.3832453013330306,0.5373338413268645,7.06764754161938
0.13429495150460083,7.371058840278282,0.7463295417218152,0.5851087505132337,7.431814614319875
0.13678189505098232,7.621325342417305,0.18124244636746178,0.6089417417690868,7.647761688507709
0.1392688385973638,7.656115800601883,-0.30243913575829384,0.6184096224445046,7.68700260466952
0.14175578214374532,7.51373746873112,-0.6999267590638987,0.6183007965661407,7.5715549322514955
0.1442427256901268,7.208555584042601,-1.0255855912997518,0.5990384581965884,7.305747496848764
0.1467296692365083,6.754935383713387,-1.2602619770356982,0.5558342047156124,6.893936752831207
0.1492166127828898,6.17681891150013,-1.4039558741852987,0.4934764401404532,6.353558291154552
0.1517035563292713,5.502936614418214,-1.4710324506864043,0.4263303751258114,5.712092912587465
0.15419049987565278,4.75723053610061,-1.4614916645801472,0.3591844136825806,4.989610576215126
0.1566774434220343,3.978007930078556,-1.3753334739727425,0.2872501531778422,4.218838928769206
0.15916438696841578,3.1748456298983125,-1.2269230469972907,0.21052759429578494,3.4101769462738294
0.16165133051479727,2.3525320657220856,-1.025837148533378,0.1433819476783249,2.5704683150122167
0.16413827406117878,1.5828933141322852,-0.7912293501688795,0.08102481068290679,1.771485294446318
0.16662521760756027,0.8419873852403482,-0.5183112069586193,0.018667780663738753,0.9889073516754179
0.16911216115394176,0.1489679189752906,-0.22623629062834838,-0.04847754502820756,0.2751806178731801
0.17159910470032327,-0.45785783151836146,0.08020703698690723,-0.0964691491233598,0.4747349359353074
0.17408604824670476,-0.9928550496857675,0.40101881730137845,-0.13967224091789276,1.079854423706895
0.17657299179308625,-1.446446902437287,0.70268026841522,-0.15893320646908649,1.6159294431716547
0.17905993533946776,-1.785114540148917,0.9995566415589334,-0.18298246504063265,2.0540764308194572
0.18154687888584925,-2.032799953108234,1.2724943646473301,-0.19745480601670629,2.406347015256766
0.18403382243223074,-2.1990799217100485,1.5214934788019943,-0.19756182542543677,2.681403659088034
0.18652076597861225,-2.2743776131366955,1.7369772184286985,-0.19766873257952433,2.8686157484607917
0.18900770952499374,-2.2634814046006575,1.928522431138376,-0.19298712351375968,2.9798977945927865
0.19149465307137523,-2.180756480024748,2.0817639478635277,-0.1691517876256423,3.019611280786191
0.19398159661775674,-2.0309912167613478,2.2014902127401905,-0.15489314419884082,2.999245966150891
0.19646854016413823,-1.823762395553816,2.292489669825879,-0.13584598263758885,2.9325879854990426
0.19895548371051974,-1.5686467972166556,2.3356087464972117,-0.11679870563073358,2.8159124504801927
0.20144242725690123,-1.2800096059563124,2.35478949993347,-0.09775131255020142,2.6819793995186916
0.20392937080328272,-0.9770044093716097,2.350031970631415,-0.06433859281036725,2.5458451118334273
0.20641631434966423,-0.6452659718917528,2.3021825857248013,-0.026137352430581018,2.3910449585250424
0.20890325789604572,-0.303947881261148,2.2303949988273204,-0.0023012040742287354,2.2510112085143543
0.2113902014424272,0.03258467802263065,2.1346692501880593,0.03111186947469058,2.135144612751675
0.21387714498880872,0.3499665213880876,2.010216976651635,0.06452506218655607,2.041473081615601
0.2163640885351902,0.6386208675096261,1.876191831579293,0.0787847613876842,1.9834665210006757
0.2188510320815717,0.9033361449477696,1.7469590649262263,0.08825617764313165,1.9686724761090122
0.2213379756279532,1.1393239755471158,1.608153506639246,0.09293931155356461,1.9730318136828506
0.2238249191743347,1.3370075777562203,1.464563599859118,0.08325735707555637,1.984809207081895
0.22631186272071618,1.5107521865490243,1.3305545942791615,0.0735755247637595,2.0144877898275544
0.2287988062670977,1.6461926169009884,1.186972916261656,0.05910541188810292,2.030356689252528
0.23128574981347919,1.7241752803901997,1.0529722186417767,0.06857743895720603,2.0214434832252763
0.23377269335986067,1.7638538150797771,0.9429177508439948,0.08283799327305452,2.001783279717784
0.2362596369062422,1.7939586655955488,0.847232745600077,0.05879144553256488,1.9848293259497694
0.23874658045262367,1.7809710333209485,0.7515520322295783,0.04911023283539606,1.9336752813349616
0.24123352399900516,1.7296793461231528,0.6941828764828242,0.058582759074562674,1.8647017043129912
0.24372046754538668,1.6496604351104731,0.6463948975323603,0.05369020157704263,1.7725937358769295
0.24620741109176816,1.5600679379522535,0.5938229244175071,0.03922096422878418,1.6697233066066342
0.24869435463814965,1.4513250723159588,0.5604090126451802,0.01996345091217755,1.5558924340580846
0.25118129818453117,1.3186434591089469,0.5461532010250858,0.005494468826388044,1.4272820605712244
0.2536682417309127,1.1763883324390043,0.546267124950236,-0.004185981473602496,1.2970407869226455
0.25615518527729414,1.0389249263327052,0.5607508230368352,0.0004989072042516085,1.1805959245229942
0.25864212882367565,0.8966764581334183,0.5896043338032408,0.0003955221265474762,1.0731552065978192
0.26112907237005717,0.7592197583837486,0.6328276956692369,0.0002922671578762248,0.9883752421759691
0.26361601591643863,0.6361316575439045,0.6664789303537362,0.004977546159254942,0.9213481569421971
0.26610295946282014,0.5226237760303186,0.7145000926787708,-0.004702253613450225,0.8852503063536358
0.26858990300920166,0.4186961374965611,0.7768912207640739,-0.014381921665776787,0.8826512698261033
0.2710768465555831,0.3147719588720137,0.8344987393466747,-0.004907844186563537,0.8919044898406295
0.27356379010196463,0.2300048769239491,0.8921110896630287,-0.00979884389166763,0.9213362345257949
0.27605073364834615,0.17397172169469777,0.9545167128467291,-0.024266516938070026,0.9705447845913387
0.2785376771947276,0.12273049989969831,1.002562033326241,-0.01000363624416778,1.0100957771473864
0.2810246207411091,0.08106963809117407,1.0506122986679791,-0.010105831177298796,1.053783951365949
0.28351156428749064,0.06335436937652861,1.0986675463724709,-0.014996294584983971,1.1005948584390546
0.2859985078338721,0.050431103535172994,1.1323626038736645,-0.01030981599807923,1.1335319383066518
0.2884854513802536,0.04708826686190437,1.1612743151007623,-0.010411604872933466,1.1622752433502284
0.2909723949266351,0.07726789884624141,1.1854027172353372,0.008640355892961082,1.187949740507144
0.2934593384730166,0.10745119904706713,1.1999594440309744,0.022904050195348802,1.2049784325916912
0.2959462820193981,0.1424265934985286,1.2097329357735398,0.027591075207569205,1.2184007460035355
0.2984332255657796,0.18219410482687726,1.219511632639879,0.032278238060262865,1.2334687667833042
0.3009201691121611,0.21717694892980954,1.2149303614159073,0.0321771359194738,1.2346080261818437
0.3034071126585426,0.26652876153862737,1.1912007554178214,0.03686457590852221,1.2212107997361545
0.3058940562049241,0.31588435505383616,1.1770532710930066,0.0367637518658146,1.2192575208748053
0.30838099975130556,0.3652437517479348,1.158122734894384,0.041451470907341914,1.2150594601543323
0.3108679432976871,0.4146069738041501,1.1344091831235088,0.04135092686417252,1.2085086001491705
0.3133548868440686,0.45918563999578577,1.1059126519689921,0.04603892684495037,1.1983379442162645
0.31584183039045005,0.503768175646844,1.0726331775058575,0.03636185803277314,1.1855996343624846
0.31832877393683157,0.5387777960301399,1.0393591990152184,0.026684930849238953,1.171008600996201
0.3208157174832131,0.5594261196482274,1.0108791556633308,0.01221974243102153,1.1554148920644747
0.32330266102959454,0.5800783781940224,0.9824046798603416,-0.01661051340920139,1.1410020986025509
0.32578960457597606,0.5911577866676849,0.9587242105409095,-0.03586381962027474,1.126900995728055
0.32827654812235757,0.6022411732591137,0.9302609765620271,-0.016809755834396256,1.1083151551674562
0.33076349166873903,0.6181169627460823,0.9018034166242772,-0.021697564773420552,1.0935212691972471
0.33325043521512054,0.6244199665329979,0.8781399693102847,-0.045738842678506586,1.0784814055118925
0.33573737876150206,0.6211502058927905,0.8592706697637926,-0.036261152591409385,1.0608904436294213
0.3382243223078835,0.6035192986853655,0.8451955530093744,-0.01720651068257162,1.0386949170581163
0.34071126585426503,0.5858924759588735,0.8215494439908977,-0.017305336446460373,1.009214029320093
0.34319820940064655,0.5682697587072345,0.8026975874537379,-0.012615612857802105,0.9835715984375554
0.345685152947028,0.5506511678307877,0.7934284213816916,-0.0031373394965825696,0.9657925301993022
0.3481720964934095,0.5330367241360102,0.7841651736760724,-0.0032357259074480282,0.948184390720614
0.35065904003979104,0.5202148516555464,0.7701194754363805,-0.0033339650371839724,0.9293646290085916
0.3531459835861725,0.49303195772606,0.7704449742409734,-0.0034320564769121376,0.9147009066815373
0.355632927132554,0.46106486951139725,0.775564897623052,0.006046806819156814,0.9022850371115134
0.3581198706789355,0.4386788174007539,0.7759024729919677,0.02031422193217125,0.8915584221148295
0.360606814225317,0.42108541840684455,0.7810345409139048,0.03458178593955097,0.8879886168269446
0.3630937577716985,0.39870788612658126,0.7957495385097586,0.04884949923532389,0.8913874466659055
0.36558070131808,0.38112304734237124,0.8056822894936342,0.0343869422879326,0.8919423695615951
0.3680676448644615,0.3683309220999864,0.8108328274144894,0.024712938726153766,0.8909142896645468
0.370554588410843,0.36511993366924733,0.8159895890149522,0.024615892253184057,0.8942916288855927
0.3730415319572245,0.3475480853015842,0.8307294142307808,0.014942189966930641,0.9006243946873865
0.37552847550360596,0.3347690100344769,0.8454755295887586,0.0052686388834626285,0.9093552219944304
0.3780154190499875,0.3267827275271473,0.860227968128038,0.005172046015125886,0.9202205486837148
0.380502362596369,0.3140124507009473,0.8606215527980374,0.014652411729917603,0.9162357608744722
0.38298930614275045,0.3156118123016165,0.8658099296610446,0.043286543032742486,0.9225569766533118
0.38547624968913197,0.32200402505530057,0.875793131368253,0.052767213721674366,0.9346039695761909
0.3879631932355135,0.3284007049105071,0.8714175771592445,0.047882827473879175,0.9324743331238126
0.39045013678189494,0.33001346771756357,0.8622601060645949,0.04778699792374397,0.9244917395823836
0.39293708032827646,0.32205392922839504,0.8722627669444312,0.038114515459739096,0.9305986160626577
0.39542402387465797,0.3332525283384872,0.8774835753238635,0.028442187068172586,0.9390652962453492
0.3979109674210395,0.3348788640007343,0.8683457565565411,0.023558416411333383,0.9309797019634659
0.40039791096742094,0.32693295499084407,0.8544261491444718,0.02346320382747713,0.9151391824934315
0.40288485451380246,0.32856843326650387,0.8644552047375285,0.028156549651148666,0.9252204102943605
0.405371798060184,0.3397853174046721,0.8601257283673343,0.018484840931936475,0.9249929836855575
0.40785874160656543,0.3462184159216831,0.8510145581342763,0.013601691278212868,0.9188460021600056
0.41034568515294695,0.33829094055429776,0.8419101286835899,0.003930294372773702,0.9073416514494346
0.41283262869932846,0.3399449261813754,0.8232356645642604,-0.020106156105299533,0.8908893139780895
0.4153195722457099,0.3463919876596202,0.8045680034707328,-0.044142449879077006,0.8770778968854421
0.41780651579209144,0.3432669331046343,0.7906955796408883,-0.04423657003468762,0.8631271987112535
0.42029345933847295,0.3401465871329161,0.7768300205352687,-0.03954212954478464,0.8489571023037225
0.4227804028848544,0.34181937093980075,0.7725481634381797,-0.020482321463831,0.8450388586768854
0.4252673464312359,0.34349689897896163,0.7634848288947367,0.003366047868754052,0.8372039977441836
0.42775428997761744,0.3403907856028573,0.7544284505932257,0.008060962148940476,0.8277035417941573
0.4302412335239989,0.3420778550234911,0.7501674620834109,0.003179228311186222,0.8244868631814536
0.4327281770703804,0.33419291474973856,0.7411250868151544,0.003086056606575127,0.812994970661612
0.43521512061676193,0.32631278879030146,0.7416665647004803,-0.00658376263936411,0.8103040634559394
0.4377020641631434,0.3280143010519765,0.7278499089490831,-0.016253422503234916,0.7985130214310057
0.4401890077095249,0.3057786454566791,0.7188287625132108,-0.01634611606530889,0.7813338373218045
0.4426759512559064,0.3074898722694075,0.7146031549231784,-0.021227053011093844,0.7782405016149907
0.4451628948022879,0.2996291752074597,0.7008079056072629,-0.021319426428213717,0.7624722166350515
0.4476498383486694,0.2917733777684026,0.7013850604147263,-0.021411639368894342,0.7599547126295196
0.4501367818950509,0.29828770666742255,0.7019694384904069,-0.03108049820934511,0.7633496223175777
0.45262372544143237,0.29523016195436147,0.6834074555164997,-0.02159558276692053,0.7447636994229633
0.4551106689878139,0.28738916349794785,0.6648527535949686,-0.002533699425166347,0.7243121805489947
0.4575976125341954,0.2891299377044044,0.6702473780049643,0.0021631354677982273,0.7299536613748397
0.46008455608057686,0.29087569427511906,0.6804377439993026,0.0020717288023810454,0.7400057331123345
0.46257149962695837,0.2830496428080741,0.6762702666868947,0.006768887465346651,0.7331469100637747
0.4650584431733399,0.2800170093992739,0.6816869909151695,0.006677805058568964,0.7369879729115609
0.46754538671972135,0.28177781008011626,0.6775343315040745,0.0017984818209058062,0.7337947527456702
0.47003233026610286,0.28833206077820184,0.6686007197300743,0.001707724628191798,0.7281244509145286
0.4725192738124844,0.29489137399689824,0.6836166033257804,-0.003171272928618407,0.74451503663287
0.47500621735886583,0.2870905554949058,0.6986399933545866,-0.0032617039809519355,0.7553340096154347
0.47749316090524735,0.2745064275283281,0.6897289007337453,-0.008140374945105222,0.7423920803497253
0.47998010445162886,0.28108102220993214,0.6712485627965079,-0.022595688920688417,0.7280739929847504
0.4824670479980103,0.2876607416652883,0.6719294266902098,-0.03226243572968457,0.7316274472071629
0.48495399154439184,0.2655151812748472,0.672617906211864,-0.022775405197659637,0.7234859213047372
0.48744093509077335,0.2625283894394579,0.6685256249718725,-0.01807661371630509,0.7184528032300778
0.4899278786371548,0.2739119779318331,0.6692294163936918,-0.013377657759015449,0.7232390650042957
0.4924148221835363,0.270935541818323,0.6603640971509961,0.005686672837832418,0.7138060989333189
0.49490176572991784,0.2583874993025649,0.6658717103314129,0.024751168312393546,0.7146760488139661
0.4973887092762993,0.2649982850847685,0.6665986689908789,0.02945061889922762,0.717945134081865
0.4998756528226808,0.27161430055694036,0.6529681926767592,0.02457342811056229,0.7076338334786532
0.5023625963690623,0.25908194700591547,0.6537107273494038,0.024484806095690814,0.7036054832401508
0.5048495399154438,0.2513432554960888,0.6448842822958982,0.019607946398771503,0.6924114681297855
0.5073364834618254,0.2531866437052732,0.6360656898953789,-0.004422360759912536,0.6846185767911328
0.5098234270082068,0.24067010928399568,0.636831782376543,-0.009298888640195457,0.6808548229083773
0.5123103705545883,0.23294727966010653,0.6328173752157833,0.00018995961172585396,0.6743310029656737
0.5147973141009698,0.230018168874649,0.6335993003400198,0.01925578084611601,0.6743346472633619
0.5172842576473513,0.22230598422241266,0.6343891795639083,0.023956558628439595,0.6726392037862364
0.5197712011937328,0.21938754617374123,0.6208218279098678,0.019080696442514977,0.6587220281744163
0.5222581447401143,0.2164744651322844,0.6120508834906058,0.004628194448315526,0.6492217635136635
0.5247450882864958,0.20877835139587186,0.6176531776260339,-0.0002473339164463795,0.6519845926225415
0.5272320318328773,0.20587602511739478,0.6088983149211133,-0.009911098459763679,0.6428377131940757
0.5297189753792588,0.20297909638287737,0.6001515297109006,-0.01957469571188497,0.6338497778614081
0.5322059189256403,0.20008757849267356,0.6009896528571597,-0.0005077056049955786,0.6334223391019711
0.5346928624720217,0.19720148464110676,0.5970474984668481,0.008982645440852366,0.6288360906383267
0.5371798060184033,0.1943208279164239,0.5835366871340499,0.013684760884935088,0.6151934021703942
0.5396667495647848,0.1914456213007537,0.5796108559006625,0.008810237542423494,0.6104734150466211
0.5421536931111662,0.1837874743497533,0.5661164150920854,0.003935882185963635,0.5952151899381914
0.5446406366575478,0.19050001311444664,0.5478417914810398,-0.000938305055887767,0.5800187616846005
0.5471275802039293,0.19242963697712867,0.5391522183263937,0.0037644825825893236,0.5724757209197046
0.5496145237503107,0.17999955185445904,0.5304709121307374,0.008467438582417941,0.5602418449212533
0.5521014672966923,0.17236338347867952,0.5265862992026555,0.0035937564211572237,0.5540895068103904
0.5545884108430738,0.1647327408741589,0.5179215957346264,0.017873856135446786,0.5437822450001151
0.5570753543894552,0.16668444291986328,0.4996884210840504,0.02257731791473816,0.5272399424941168
0.5595622979358368,0.168641695107155,0.4862520077339674,0.022492545187263957,0.515157209930066
0.5620492414822182,0.16581610614133357,0.49197758801159863,0.0032543280965882104,0.5191796594753539
0.5645361850285997,0.1582076879416252,0.49292316752563736,-0.011195316654626808,0.5178110241413749
0.5670231285749813,0.16018166228179465,0.48908876833010506,-0.02564479228900396,0.5152898636782643
0.5695100721213627,0.15737283090732634,0.4852628156429031,-0.030517292071621682,0.5110552937489726
0.5719970156677442,0.15935801205885436,0.48623373452530405,-0.03538962255217548,0.5129041294259185
0.5744839592141258,0.15656041058934933,0.4824247399208228,-0.03547338032281999,0.5084320530445603
0.5769709027605072,0.1537684412063035,0.4882010632175291,-0.025980161979060057,0.51250363945459
0.5794578463068887,0.15098211519048654,0.48919751572443015,-0.021275177401026468,0.5124084715066609
0.5819447898532703,0.1434130403959507,0.48062571523378317,-0.011781619870614435,0.5017042802950478
0.5844317333996517,0.14542643785160125,0.47685089266155645,-0.021441505915259285,0.49899434950131744
0.5869186769460332,0.1378687052377724,0.4778730688050663,-0.011947608901657247,0.49750697998277205
0.5894056204924147,0.13031666005029974,0.47890386098343685,0.0023348612767293275,0.4963232732087928
0.5918925640387962,0.1323471196786662,0.4799432896780642,0.011829098043447672,0.49799723789872863
0.5943795075851777,0.13438328812476974,0.4809913752121493,0.011746698139038614,0.49954935299014164
0.5968664511315592,0.14121357924513478,0.4868365410708537,0.011664468261693983,0.5070376243484137
0.5993533946779407,0.13368439018843636,0.48790200061990374,0.002005601825072034,0.5058892179396981
0.6018403382243221,0.135737747879903,0.4889761770273191,-0.007653094479186606,0.5075243912905739
0.6043272817707037,0.13300845257603777,0.4900590899820214,-0.0029464106424086367,0.5077970475163801
0.6068142253170852,0.12549651438808507,0.48157395237338463,-0.003027959901357846,0.49766657037543316
0.6093011688634666,0.12277874996175586,0.48746280017391985,0.0016790644258275478,0.5026901851567388
0.6117881124098482,0.11048995923508043,0.4885720393141444,-0.0031905475837952224,0.5009200018817735
0.6142750559562297,0.09820695864157136,0.49447849548714595,-0.003271585934529142,0.5041470941098299
0.6167619995026111,0.0907181611883967,0.49081697762502774,-0.02250606719639059,0.49963748193567237
0.6192489430489927,0.09281197977673761,0.47758750446129117,-0.036951974739487525,0.48792349445870004
0.6217358865953742,0.08533481060027681,0.4739437078510371,-0.02745569525742475,0.4823468495946075
0.6242228301417556,0.08265187298899668,0.4703087995677331,-0.02274764865014056,0.4780576895925236
0.6267097736881372,0.0847631762061144,0.4666827978656092,-0.027616238219172473,0.47512133868897105
0.6291967172345186,0.091668729409074,0.45827731751862144,-0.022907850667687413,0.4679166863083112
0.6316836607809001,0.08421492836835764,0.45945758642192036,-0.008622485983243777,0.4671913688685561
0.6341706043272817,0.0719785886706713,0.4462816057480121,-0.0039137574378091955,0.4520658208196322
0.6366575478736631,0.06453652579713776,0.4331146030716697,0.01516035157632345,0.43815871418449776
0.6391444914200446,0.0618887484827394,0.41995659584641754,0.03423463110122427,0.4258706018854882
0.6416314349664262,0.0640352653570131,0.4211728113263251,0.034155467855539356,0.4273799810406357
0.6441183785128076,0.07097608494412355,0.42718646000343297,0.02928807179698545,0.43403187370727214
0.6466053220591891,0.07313440902231538,0.4284207522092478,0.024420846239557648,0.43530375651679964
0.6490922656055707,0.08008705254586423,0.4344525113959192,0.014765387853532985,0.44201915945145476
0.6515792091519521,0.07746881376234926,0.42133973761274923,0.005110099946737279,0.42843284738543513
0.6540661526983336,0.07006810409554487,0.40823606063112283,0.009820192464554012,0.4143219238601824
0.6565530962447151,0.07703854482519656,0.40950670674133915,0.009742052107114318,0.4168040160965087
0.6590400397910966,0.07922653056367379,0.40599807883068273,-0.004701127787866355,0.41368270904382726
0.6615269833374781,0.06705526245918225,0.3881333862661873,-0.014355733963830275,0.39414466995706976
0.6640139268838596,0.06925516811773336,0.3846430648164696,-0.01922176644850815,0.3913004496902902
0.6665008704302411,0.07624944847824555,0.38595032352669545,-0.02887603191325816,0.3944685739607821
0.6689878139766225,0.06888449773451333,0.3776899679607282,-0.009799707149644732,0.38404533610829183
0.6714747575230041,0.06152553321812071,0.359862013482354,-0.005088422077204058,0.36511909293350275
0.6739617010693856,0.05896096551573682,0.35640849189587476,-0.009953773415338318,0.3613896597237442
0.676448644615767,0.051613995148907854,0.3529642082820317,-0.010030551245796104,0.3568590040641927
0.6789355881621486,0.04906143581635125,0.34952917752141843,-0.005318755614215576,0.35299569343611675
0.6814225317085301,0.05130329447219539,0.3508918176538427,-0.010183596530117356,0.35476865892917686
0.6839094752549115,0.058339577966716405,0.3474753365970673,-0.015048267404390359,0.35265998674708454
0.6863964188012931,0.06059348640583051,0.33927974874836453,-0.015124364971157434,0.3449798036426882
0.6888833623476746,0.04848821979183693,0.34067027830482566,-0.01998869592839192,0.3446837593269903
0.691370305894056,0.03638899462510081,0.3372817293805501,-0.010487647055084537,0.33940111173140297
0.6938572494404376,0.03387262398230373,0.32911411588946304,-0.0057748316956107715,0.33090301390930554
0.696344192986819,0.026573904235319912,0.32574425822501096,-0.005850249915965833,0.32687875363343794
0.6988311365332005,0.01928124493415384,0.32717216997892606,-0.0011370951443883115,0.32774180111834605
0.7013180800795821,0.016783055525824375,0.32860946126155666,0.0035762292270895557,0.3290571962423525
0.7038050236259635,0.009502535393559941,0.3252677420221981,0.008289723123908743,0.3255120914629688
0.706291967172345,0.002228093778807616,0.321935428689744,0.003426579828058607,0.3219613736100256
0.7087789107187266,-0.00025186017956491114,0.3186125342117774,0.008140412540592834,0.318716608771385
0.711265854265108,0.0020626792345584954,0.32487587801553897,0.01764281785818511,0.32536112211505713
0.7137527978114895,-0.0004050890056276346,0.33114866608608784,0.007991779093476481,0.33124533457963856
0.716239741357871,-0.0028667560681443494,0.34221931420852814,-0.0016590905608619977,0.34223534284056445
0.7187266849042525,-0.005322316543328265,0.3485110280461772,0.0030554187647808817,0.3485650574957548
0.721213628450634,-0.007771765123370966,0.3452354164218634,-0.006595112945564807,0.34538585466095023
0.7237005719970155,-0.015003499922478292,0.34196929795860065,-0.025822282468412894,0.3432708785028239
0.726187515543397,-0.022229112515779526,0.3387126844780828,-0.02589566998144832,0.34042767483472397
0.7286744590897785,-0.015083387939170079,0.3306771843210523,-0.016392082227573823,0.331426627146912
0.73116140263616,-0.012719934571962965,0.317862808987992,-0.03083034255395134,0.31960768466237743
0.7336483461825415,-0.010350344292981983,0.30984637645949586,-0.03090322450574945,0.31155563855741025
0.736135289728923,-0.012763015722581095,0.29226268795415855,-0.03097593815424382,0.29417661716230986
0.7386222332753045,-0.019957944261543292,0.29384217441301486,-0.02147167697181729,0.2953008227467333
0.741109176821686,-0.03672352873153606,0.30021963673400043,-0.007178844394424289,0.30254253196869774
0.7435961203680674,-0.03911774813275537,0.282664665693904,0.011902559459649353,0.2856066917502366
0.746083063914449,-0.03671740480781127,0.27948449839375833,0.016618921188248592,0.2823755322256031
0.7485700074608305,-0.0486761078399941,0.2667371286104978,0.011758643988175166,0.2713969877545892
0.7510569510072119,-0.0366866265687249,0.2587877765236044,0.011686937694253885,0.26163640106012287
0.7535438945535935,-0.029479376917488476,0.2508480488714584,0.011615398857468762,0.2528412442159685
0.756030838099975,-0.03184275830773142,0.242917955552997,0.016332430666853526,0.24553990037910334
0.7585177816463564,-0.024623153658667407,0.2397859096278161,0.0018960163870058722,0.24105430307355505
0.761004725192738,-0.02697417255115231,0.23666351735533953,-0.012540230837219113,0.23852564604518142
0.7634916687391194,-0.029319004743130206,0.228762384835552,-0.017399504504108876,0.2312889437732928
0.7659786122855009,-0.026869243411621557,0.22565932797005228,-0.017470208075415883,0.22792388359188448
0.7684655558318825,-0.029201691793158457,0.22256595254029143,-0.017540745015383052,0.2251577663982403
0.7709524993782639,-0.03152794326171798,0.2194822674889445,-0.027187922111064466,0.22339574762541922
0.7734394429246454,-0.03863639793008228,0.2116198782794072,-0.03204652955042597,0.21749189452535722
0.775926386471027,-0.03616184272776918,0.19897879353654435,-0.04648177744578241,0.20751095099113662
0.7784133300174084,-0.033681081283637726,0.20071263500776082,-0.060916859310321314,0.21244020532005495
0.7809002735637899,-0.040770917324127354,0.1928793943990721,-0.037044548737803495,0.20059169243613037
0.7833872171101715,-0.05264294471211439,0.18984428982055102,-0.022748879090020324,0.1983170328168624
0.7858741606565529,-0.0501435474467018,0.1916073292630336,-0.018029850528064273,0.19887890659372737
0.7883611042029344,-0.04763793286613466,0.18859171391857377,-0.008522253254469092,0.19470191577649368
0.7908480477493159,-0.04512609844446591,0.18558585478215317,0.015350719205537544,0.1916092869256846
0.7933349912956974,-0.05218484839290338,0.1778013560502698,0.024858646761865444,0.18696131400355617
0.795821934842079,-0.059237373737719146,0.1843918383632781,0.02000152924394527,0.19470356358944202
0.7983088783884604,-0.07107207556221729,0.1862036956414852,0.01993297976013153,0.20030072360674633
0.8007958219348419,-0.07811214508464132,0.18323693492905724,0.010287788174268897,0.19945706334306199
0.8032827654812235,-0.07556917693919918,0.1994335797144995,0.000642760949457255,0.2132718133337028
0.8057697090276049,-3.24773137718351,6.282547030282115,-0.5309380640081542,7.092252922299207
0.8082566525739864,-1.6266956189632251,5.494311521721373,-0.3729886468416641,5.742187585332541
0.810743596120368,-0.16845933704132965,4.581587338768001,-0.200673855899419,4.589073009599781
0.8132305396667494,1.1174006636064593,3.5826817142445457,-0.052300917930551805,3.753255639391856
0.8157174832131309,2.206942367949199,2.5502670907778433,0.09607218347764501,3.3739719492301448
0.8182044267595124,3.0905889708226058,1.5274391041979318,0.23008023817316747,3.4551045309224926
0.8206913703058939,3.7922824902105408,0.5525049868585565,0.31620442272054916,3.8453417901415565
0.8231783138522754,4.307234524081193,-0.3458048356829577,0.38317515684618897,4.338049496103376
0.8256652573986569,4.630656670309189,-1.1531251479858253,0.43578084367275416,4.791929021689329
0.8281522009450384,4.805644559878955,-1.835937121483418,0.4692330796801141,5.165758843868062
0.8306391444914198,4.827409790478729,-2.38466394436587,0.46916665470537744,5.404685445301689
0.8331260880378014,4.715105976305473,-2.7849404016580093,0.45473518182569705,5.494988761969283
0.8356130315841829,4.483098328143265,-3.0463432951410185,0.4307270641551728,5.437269893563066
0.8380999751305643,4.160117266644783,-3.164084216789733,0.3875654948448606,5.241012460962891
0.8405869186769459,3.7892584223315726,-3.1525283720146122,0.32525047368436333,4.939909148779941
0.8430738622233274,3.3609449891099152,-3.01167575641934,0.2629356137424601,4.520539483137071
0.8455608057697088,2.8895421773960894,-2.7798335923240405,0.21498612476556467,4.015363972270238
0.8480477493160904,2.3942036008353726,-2.457001875640063,0.16224839325587048,3.434442260435596
0.8505346928624719,1.8988712763023097,-2.062334215713504,0.11908762895572522,2.805907411986164
0.8530216364088533,1.4179104139400311,-1.619772625364041,0.0759270250039048,2.1540422960016947
0.8555085799552349,0.9561094171605176,-1.1628359242050164,0.027978177857503894,1.505694319123568
0.8579955235016163,0.5230450926058025,-0.6915241087603938,-0.015182106067424428,0.8671864033992416
0.8604824670479978,0.1282942468279259,-0.23456759562857998,-0.06791903695835799,0.27585207316507265
0.8629694105943794,-0.22814312035141981,0.1984568117209351,-0.11107900176252983,0.32213806685128227
0.8654563541407608,-0.53190179923906,0.6027607129868806,-0.12550838742912163,0.8136291271023061
0.8679432976871423,-0.7877701935122491,0.9496136911145787,-0.13993761411233763,1.241744972199217
0.8704302412335239,-0.9861714969762125,1.2390157488196234,-0.15436668204642956,1.5910761514765344
0.8729171847799053,-1.136682516806057,1.466178485345948,-0.17358399478783682,1.8632922202785032
0.8754041283262868,-1.2488800602652448,1.6215250964660806,-0.18801274593394268,2.0553330231451725
0.8778910718726683,-1.327552531384999,1.700267181122022,-0.18807612908399207,2.165335272219654
0.8803780154190498,-1.3535463176827787,1.721558354706755,-0.16419733783906842,2.1960900638468077
0.8828649589654313,-1.3555918399666775,1.680610215861389,-0.14031838904425875,2.1637396295640294
0.8853519025118128,-1.3289006958898348,1.5822111697175978,-0.11165087962459808,2.0692595690334654
0.8878388460581943,-1.263896079872021,1.4455148312182158,-0.08777161646786524,1.9221473108596725
0.8903257896045758,-1.1797316063415404,1.265732798555006,-0.08304580978390952,1.7322652183951925
0.8928127331509573,-1.0859840831724292,1.0572302830517066,-0.06874303990154651,1.5171759640332951
0.8952996766973388,-0.9874419150045136,0.8343724958831391,-0.04007490375290068,1.2933773599784575
0.8977866202437202,-0.8649514899618354,0.6115246480754184,-0.020983418193683434,1.0595016654210858
0.9002735637901018,-0.7376664228164123,0.383898337224974,-0.016256986800089024,0.831741530942564
0.9027605073364833,-0.6343171350661223,0.17543558070204712,-0.006741996548447204,0.6581651201121319
0.9052474508828647,-0.526173208449986,-0.01865202419285783,0.007561552301986296,0.5265579933590022
0.9077343944292463,-0.40365783807286554,-0.20315288030680545,0.017076852849651658,0.4522193736648836
0.9102213379756278,-0.3050782523270918,-0.35412497071218274,0.031380711472575484,0.4684676979017678
0.9127082815220092,-0.2160692431655401,-0.4715682952299478,0.036107917945614076,0.5199676496154119
0.9151952250683908,-0.13663081258574256,-0.5602712571480062,0.031258472002919646,0.5775369707698416
0.9176821686147723,-0.06676296266866,-0.6298106632209182,0.026409180017688882,0.6338897455238383
0.9201691121611537,-0.011254098898641374,-0.6658213037477712,0.02156004172089787,0.6662653365329829
0.9226560557075353,0.03947258311810431,-0.673091582454644,0.031076266802889663,0.6749637749892337
0.9251429992539167,0.08062867773191179,-0.6516214998927314,0.03101583838994948,0.6573230142222931
0.9276299428002982,0.10263737589063787,-0.5966226534380619,0.026167159528695194,0.6059519302411619
0.9301168863466798,0.11028707842119823,-0.5272486572130364,0.021318633264220566,0.5390815061972426
0.9326038298930612,0.1179429927095641,-0.4578647221642478,0.011681855999487567,0.47295572635440714
0.9350907734394427,0.12081671277920347,-0.36452883281999915,0.011622037417225783,0.3842043984620827
0.9375777169858243,0.09975462261170776,-0.26160620041492466,0.0019855639565058425,0.2799870198637132
0.9400646605322057,0.08348713931116009,-0.1682504396475304,0.001926048617434617,0.18783509399264303
0.9425516040785872,0.062437453338834825,-0.0748847454376671,-0.012498525484131662,0.09829737442058598
0.9450385476249687,0.0366055617166281,0.028067687151948295,-0.022134545350947832,0.051163466541495
0.9475254911713502,0.0059914613867669275,0.11187643635349653,-0.026982011268431805,0.11524002582782104
0.9500124347177317,-0.024616447467583014,0.18132990349916955,-0.036617730164012485,0.18662090330749886
0.9524993782641132,-0.05521816806260904,0.23642808645894542,-0.04625329900558661,0.24715714397874344
0.9549863218104947,-0.08102530037289374,0.2771709829612172,-0.051100314762381416,0.2932577283977687
0.9574732653568762,-0.11161465441237156,0.3083469939135166,-0.041581971084672986,0.330552204733809
0.9599602089032577,-0.1469862336324282,0.3299561167621823,-0.03685188154592467,0.36308959368136745
0.9624471524496392,-0.16798642828094734,0.3324215421723973,-0.03212164311936938,0.37383863061962025
0.9649340959960206,-0.19376885524574117,0.31574326730979596,-0.03696806274045272,0.3722993658032368
0.9674210395424022,-0.21475671156985626,0.2990749024814381,-0.04181433406467683,0.37055995600152547
0.9699079830887837,-0.24052680765436318,0.27762804125333806,-0.03229524742847012,0.3687457898024469
0.9723949266351651,-0.25671393737521586,0.24182587373208353,-0.02277601309141275,0.3534127128744976
0.9748818701815467,-0.25852970132511793,0.20603360648704871,-0.022833437993996952,0.3313741380372651
0.9773688137279282,-0.26991612009443233,0.17503963930858868,-0.0037371025154424586,0.32172589754529207
0.9798557572743096,-0.2812963911068015,0.12490195192712816,0.010570976440391178,0.3079608786645157
0.9823427008206912,-0.27351690522036826,0.07477415381821872,0.024879201890328773,0.28464301538463627
0.9848296443670727,-0.28009648989150715,0.04380985432011242,0.03439917020939198,0.28558124920272226
0.9873165879134541,-0.28188153612762185,-0.0015097738893419255,0.024765671130827727,0.28297140896815887
0.9898035314598357,-0.28844885493211747,-0.04203112174544943,0.010343914308611701,0.29167851081294016
0.9922904750062171,-0.2950100474212573,-0.06338898364001233,0.00549910939559517,0.30179352466637016
0.9947774185525986,-0.2871999081441381,-0.0943137839834951,0.01023125608257125,0.3024624864149501
0.9972643620989802,-0.2841720549651624,-0.11565191411869868,0.0005983374576867817,0.3068052803818008
0.9997513056453616,-0.2811380892199592,-0.1274033788047504,-0.013822840149808613,0.30896814892626656
1.0022382491917432,-0.2828864189572274,-0.13435658625578828,-0.028243873732028746,0.3144425777533059
1.0047251927381247,-0.2798402423368353,-0.12214633153902543,-0.02829955364151182,0.3066449938868871
1.0072121362845061,-0.2767879675513556,-0.11950303973841336,-0.037931896794319186,0.30386079754115364
1.0096990798308876,-0.2737295995444772,-0.11206150618864585,-0.05235250018565907,0.3003771947264592
1.012186023377269,-0.27066514333097474,-0.10461013963881882,-0.05719615417109303,0.2957605470335652
1.0146729669236507,-0.258017797355742,-0.09714894565048304,-0.06203966570873298,0.28259515479668185
1.0171599104700322,-0.25494118005595107,-0.08010112327694241,-0.05730622847641165,0.2733042243741203
1.0196468540164136,-0.25664689333726926,-0.05825508166442317,-0.04778424611384402,0.26747825439850004
1.022133797562795,-0.2535581358547666,-0.04597603673134287,-0.023896912300729767,0.25879835128759
1.0246207411091766,-0.26004012293444645,-0.02889878460545825,-0.009586243959898155,0.26181654141916505
1.027107684655558,-0.27130445669008824,-0.016600138146850796,0.004724565227139266,0.271852890959401
1.0295946282019397,-0.2634091260229026,0.00528510625556633,0.01903551493733957,0.2641489179406414
1.0320815717483212,-0.2555077497852428,0.027180135481339907,0.014192991565543878,0.25734104020673004
1.0345685152947026,-0.25717714025682725,0.04908494292107024,-0.0050146018926930935,0.2618674460951317
1.037055458841084,-0.26841730314438694,0.06142271519557063,-0.014645249161407747,0.27574459539998536
1.0395424023874655,-0.2748630342610102,0.05940504211720432,-0.014698950567016311,0.28159315648624644
1.042029345933847,-0.2669375328070388,0.0717623366121769,-0.024329319717992348,0.27748404490184403
1.0445162894802287,-0.2685828212915939,0.0745525749553364,-0.014805937020476279,0.27913085479122085
1.0470032330266101,-0.2750105023681717,0.058198943254945235,-0.024436029365748624,0.282161324316339
1.0494901765729916,-0.2718553721155364,0.04664345073436449,-0.019700773841167418,0.27653042388573934
1.051977120119373,-0.27348264659986876,0.039886089888708565,0.008976635863611193,0.2765216775395859
1.0544640636657545,-0.28468073531192134,0.03313844976652858,-0.005441447066788285,0.2866546480642615
1.056951007212136,-0.27671922456510323,0.021612119290537635,-0.03901300636252181,0.28029025600185004
1.0594379507585177,-0.2735401372607436,0.0005186872580371649,-0.05821921911383221,0.2796675762460184
1.0619248943048991,-0.27993188308306843,-0.010988241057089176,-0.06784848897412132,0.28824645368856294
1.0644118378512806,-0.27674085517852304,-0.017697077107081682,-0.07268921959747843,0.28667474619987837
1.066898781397662,-0.27354386667886066,-0.03397303910892946,-0.058376201357383195,0.2817591085818467
1.0693857249440435,-0.2799177307789132,-0.05502773212207446,-0.034486241229499726,0.28735220225544494
1.071872668490425,-0.2814972441346794,-0.07128435800889177,-0.01538454951043633,0.29079003166511436
1.0743596120368066,-0.26870560678483885,-0.08274292539522721,0.0037172767838686838,0.2811812813244446
1.076846555583188,-0.2750616487129016,-0.09419184634961741,0.018030833996249385,0.2913007474861847
1.0793334991295696,-0.2862001667609146,-0.10084272642193692,0.008402508508043027,0.3035628321705618
1.081820442675951,-0.2925443611525479,-0.09311876796326013,-0.006014086737476276,0.3070659170738976
1.0843073862223325,-0.27972902885210915,-0.0949619966879176,0.0035114678430367974,0.2954292483893781
1.086794329768714,-0.27648459676731124,-0.10637242182931228,0.00824875198865982,0.296355978992809
1.0892812733150956,-0.2828110719442403,-0.09861963281915642,0.0034093620395125868,0.2995322322240997
1.091768216861477,-0.28434325152792683,-0.08606884909171164,-0.0014298957038523241,0.297087488924003
1.0942551604078585,-0.2906579493244914,-0.08787369352084218,-0.015845828222612823,0.304064006075323
1.09674210395424,-0.28738996259766686,-0.08009215921645074,-0.015896419256231198,0.2987648585677565
1.0992290475006214,-0.2936929119121841,-0.07230106264901259,-0.015946879107113787,0.3028816156865439
1.101715991047003,-0.2999899979693635,-0.0645004137663232,-0.025574014757800967,0.30790961740179185
1.1042029345933846,-0.3014928248489363,-0.06147862595397546,-0.0399894232303204,0.31028486726695825
1.106689878139766,-0.30777820664931416,-0.06323570939428791,-0.040039491586167486,0.31674807073973715
1.1091768216861475,-0.3044809409247381,-0.06977167438615295,-0.03530102680910474,0.31436108605684376
1.111663765232529,-0.3059662452083476,-0.06672132138364661,-0.020985625922328666,0.3138590040598269
1.1141507087789104,-0.30744572380870727,-0.0684498708783825,-0.0018816925900324577,0.31497904482446215
1.1166376523252919,-0.30891938441100736,-0.07974573683655217,0.002857159562301703,0.3190591355364156
1.1191245958716736,-0.31996404139701906,-0.07666691341721421,-0.0019806664895831716,0.32902693877519956
1.121611539418055,-0.3166376859619242,-0.08315542809682386,-0.0020299611296294984,0.3273810778519064
1.1240984829644365,-0.31330553591864385,-0.08963448522346917,-0.0020791280233325438,0.3258819150426767
1.126585426510818,-0.32433280913498047,-0.09610409589920765,0.0026602358041447616,0.3382821975577867
1.1290723700571994,-0.3162006903301402,-0.09298746469835084,0.002611323366428664,0.32960030971770693
1.1315593136035809,-0.3176396074415475,-0.0946498129091844,-0.01659107564342932,0.3318565519774621
1.1340462571499625,-0.3238611652182557,-0.10109115197100316,-0.021428138329497415,0.3399479966930513
1.136533200696344,-0.3252885651424502,-0.10752309011425387,-0.011899865038266455,0.3428052979580114
1.1390201442427255,-0.3171334120697216,-0.10915723568038738,-0.016736676038320297,0.3358109877255049
1.141507087789107,-0.3137609241896402,-0.11078200376199909,-0.016784958395318128,0.33316708230885184
1.1439940313354884,-0.31995951310352877,-0.11718580956173597,-0.026409922417299114,0.3417661305486171
1.1464809748818698,-0.31657557386316515,-0.12358026175119408,-0.03603476181091381,0.3417465129596135
1.1489679184282515,-0.3227627281344801,-0.12517696911106624,-0.03608267028296375,0.34806179244983815
1.151454861974633,-0.3289441777128338,-0.11718754053066416,-0.05528406810289255,0.3535442262190173
1.1539418055210144,-0.33511993108515253,-0.12834240824962473,-0.055331729055902557,0.36309605093714054
1.156428749067396,-0.3317131901483231,-0.13469956809181838,-0.02664884684917901,0.35900943608892927
1.1589156926137774,-0.3283007701307059,-0.14104743591015279,-0.017119455033773434,0.357727341121554
1.1614026361601588,-0.3344594863105306,-0.1425976210236164,-0.021955150637380072,0.36425164123749526
1.1638895797065405,-0.3406125407342919,-0.14413853949802835,-0.01721391740652578,0.3702555069496915
1.166376523252922,-0.33718313549763446,-0.14088180086431068,-0.012472562329982395,0.3656442444369427
1.1688634667993034,-0.3385364893465621,-0.14240422471956293,-0.012519489076257884,0.36748150353970915
1.1713504103456849,-0.33988420779427064,-0.15349422744532681,-0.012566294673264977,0.37314831411757976
1.1738373538920663,-0.3364378964020367,-0.15020980560553543,-0.022189786109874987,0.369114928502062
1.1763242974384478,-0.3281975640991748,-0.14691618243039173,-0.027024753773405408,0.3605944301525819
1.1788112409848295,-0.33910523646392887,-0.15797858125338982,-0.017494391371474904,0.3745072058873492
1.181298184531211,-0.3452189059184376,-0.16424340226863254,-0.012752312533550025,0.38251092751351856
1.1837851280775924,-0.3417501782127397,-0.16092225573345864,-0.0032217109671979216,0.37775592135708497
1.1862720716239739,-0.338275869104112,-0.15280355864763884,-0.008056200301830074,0.37127401406081184
1.1887590151703553,-0.3443727943957775,-0.14946413143257287,-0.0033137642839715653,0.3754239325596859
1.1912459587167368,-0.35046415665529995,-0.14611558464954388,0.0014287900977265622,0.37970637421398656
1.1937329022631185,-0.34697315849547505,-0.14275793228046751,-0.017770554106228076,0.3756141538048892
1.1962198458095,-0.34826501917553926,-0.14417959172739847,-0.01781616736085212,0.37735088985114096
1.1987067893558814,-0.3543397480383167,-0.1312269638901542,-0.013073259974801132,0.37808475665921043
1.2011937329022628,-0.35083214450986555,-0.1230536763298784,-0.017907042256593897,0.3722177629319551
1.2036806764486443,-0.34731902466161746,-0.13402495338573717,-0.03710591787398876,0.37412570369224496
1.2061676199950258,-0.35337720460847,-0.1306219862915996,-0.03715106393209133,0.37857331336340344
1.2086545635414074,-0.3594298872271786,-0.13199840290209508,-0.022830884098336668,0.38358137529024766
1.211141507087789,-0.35590027543725183,-0.12378900792649494,-0.013298992000914112,0.37704852171567776
1.2136284506341704,-0.36194199212247485,-0.11557062277195129,-0.008555387986568519,0.3800417992446134
1.2161153941805518,-0.3631898369664991,-0.11692006894143514,-0.018176879042471228,0.3819784799288394
1.2186023377269333,-0.3644322229759189,-0.11347215143167144,-0.02300985223368812,0.382382305544488
1.2210892812733147,-0.3704575631986761,-0.10522688529512525,-0.027842711226622185,0.38611749518568
1.2235762248196964,-0.3669006574424587,-0.1065494956394959,-0.02788705304680228,0.38307515604692316
1.2260631683660779,-0.3633383221571562,-0.10307478774440826,-0.018354474719492586,0.3781217197659515
1.2285501119124593,-0.369347373832953,-0.09959118026401637,0.0055434267303144935,0.3825789007820391
1.2310370554588408,-0.3705626123984155,-0.09609868862494331,0.005499424395097208,0.38286009367868246
1.2335239990052222,-0.3621956444623244,-0.10217413498670425,-0.004121272108946528,0.3763538542536209
1.2360109425516037,-0.3634000932742649,-0.11302913163964012,-0.018530259805931593,0.3810230739987158
1.2384978860979854,-0.36459916220084587,-0.11908688764502973,-0.018573925758714083,0.3840042012851277
1.2409848296443668,-0.3657928612878433,-0.11555901547520486,-0.013829076951687114,0.38386136403144516
1.2434717731907483,-0.3813464105801684,-0.12159914429428076,-0.013872520368899188,0.40050453627501553
1.2459587167371298,-0.3968946102387062,-0.12763048343421435,-0.018704256353416326,0.4173304699442878
1.2484456602835112,-0.3980722604618492,-0.13844145227710003,-0.023535881927630342,0.4221155031456559
1.2509326038298927,-0.3944561780867007,-0.14924366365309005,-0.03794420407448307,0.42344906446255093
1.2534195473762744,-0.395623179987177,-0.16482553712113335,-0.03798720653434451,0.43026525085198236
1.2559064909226558,-0.3872080664720978,-0.1708218790465903,-0.023664889648729925,0.4238752506388584
1.2583934344690373,-0.38357605780827164,-0.17202110916320867,-0.01891927036030161,0.4208084990972037
1.2608803780154187,-0.38472716433734705,-0.17800005061167612,-0.02375034900973283,0.42457400777120047
1.2633673215618002,-0.38587299311608864,-0.17439351001723047,-0.033369722616949815,0.42476417167650926
1.2658542651081817,-0.38701355455665865,-0.18035511733288034,-0.047777391521737655,0.42963954531602216
1.2683412086545633,-0.3833604557856502,-0.1863080826748451,-0.043031339461858664,0.42840125689129355
1.2708281522009448,-0.38449051392499234,-0.19225242288451527,-0.02391997009649316,0.43054165230868
1.2733150957473263,-0.39040373949004914,-0.188611348246698,-0.01917370368587079,0.43400109609111004
1.2758020392937077,-0.39631173970958833,-0.1897500857312755,-0.014427330606933353,0.43963193461702554
1.2782889828400892,-0.38784931520512844,-0.1908802491098811,-0.00010404455641399579,0.4322758050488219
1.2807759263864709,-0.3841700898734064,-0.19679025887724766,-0.0049342657930289135,0.43166817223560916
1.2832628699328523,-0.38527407436261063,-0.20748013228975504,-0.009764381371855535,0.4376979104525354
1.2857498134792338,-0.39594968267359376,-0.2181614833649057,-0.009805988308357882,0.4521799878809314
1.2882367570256152,-0.3970433122376674,-0.20968071624018547,-0.005059086937770019,0.4490378479775385
1.2907237005719967,-0.3933433771193808,-0.21555667165689618,0.00447632240523177,0.4485573859404769
1.2932106441183782,-0.3992150980552511,-0.2214241572331055,0.004435029425618353,0.4565315119547181
1.2956975876647598,-0.40029327589092967,-0.21770638398653475,-0.005182966210115936,0.4556946779267009
1.2981845312111413,-0.40136632478398226,-0.21398017629498556,-0.005224051553630815,0.4548733155862951
1.3006714747575228,-0.40243425560199764,-0.21503395529424996,-0.010053436898166623,0.45639237899518975
1.3031584183039042,-0.3939202726019386,-0.216079335557275,-0.019671122575402933,0.44972259614681986
1.3056453618502857,-0.3997664033126157,-0.21232793173426012,-0.02450030227577038,0.45331732001287756
1.3081323053966671,-0.4056074487296766,-0.20856816519275956,-0.029329379650002707,0.45703204975966993
1.3106192489430488,-0.40665501651838726,-0.20958845737653498,-0.03415835502786635,0.4587618305213013
1.3131061924894303,-0.40290911769299187,-0.21060042316440564,-0.043775632058775216,0.4567325271089384
1.3155931360358117,-0.4087349732570049,-0.21639248415097256,-0.03902759778993392,0.46412621015159905
1.3180800795821932,-0.40976738432007265,-0.21259944872421954,-0.019914252549106948,0.4620653766567517
1.3205670231285747,-0.4107947653007594,-0.20400973862748506,-0.015166016585242303,0.458914284711671
1.3230539666749561,-0.41181712732466225,-0.20020017899799836,-0.01520608358409703,0.45815355832595495
1.3255409102213378,-0.4128344815443916,-0.20117078840541636,-0.005669243910393362,0.4592756640474204
1.3280278537677193,-0.41384683913924364,-0.2117099888122329,-0.005709111170325798,0.46489022314819
1.3305147973141007,-0.41485421131487293,-0.21745258897169872,-0.015325685688106105,0.4686411438808915
1.3330017408604822,-0.42064501262327747,-0.21361020434915412,-0.024942161146570996,0.4724337598537875
1.3354886844068636,-0.4264308510015365,-0.2145480637621371,-0.029770134548130045,0.4782890373623364
1.337975627953245,-0.4274233344121099,-0.22026618613767068,-0.02023279957412072,0.4812663147719855
1.3404625714996268,-0.4236224741628218,-0.21639938051173235,-0.02506057646760773,0.47635357140949514
1.3429495150460082,-0.42460508822685605,-0.20773606927091537,-0.029888255588067736,0.47364233683905876
1.3454364585923897,-0.4207943813205539,-0.20385307819096088,-0.029927433934812342,0.46852923082855813
1.3479234021387712,-0.42176717146559084,-0.20953882979561156,-0.02996651514698101,0.4719025960389004
1.3504103456851526,-0.4227350667464715,-0.20563973007483227,-0.03958230618321501,0.4717620101334733
1.352897289231534,-0.4236980785914544,-0.196944201687403,-0.058774807360707726,0.47091565949824504
1.3553842327779158,-0.42465621845192164,-0.19302907067914266,-0.04923679243333723,0.4690601109945965
1.3578711763242972,-0.42560949780205876,-0.1986827598417631,-0.03969868163850698,0.47137487099069664
1.3603581198706787,-0.42655792813853616,-0.1947516754310814,-0.030160475290923472,0.46988246978454973
1.3628450634170601,-0.42271311765987934,-0.20038945033055722,-0.015833770384116264,0.4680737334332004
1.3653320069634416,-0.41407507790677545,-0.20123089424608276,-0.02066058383261371,0.4608458556468581
1.367818950509823,-0.4197974337226938,-0.19727602690857138,-0.01591049602666139,0.46411298197400735
1.3703058940562047,-0.42072658340982716,-0.1933132714328143,-0.0015835072774859071,0.4630155358031316
1.3727928376025862,-0.4264393452131406,-0.19413105099663497,0.0031667688233198987,0.46855886346504055
1.3752797811489677,-0.4417241340778778,-0.1901525788794225,-0.0016596680336906644,0.48091679985141716
1.377766724695349,-0.43785054172737814,-0.18616627838347144,-0.011274414836755398,0.4759181573842523
1.3802536682417306,-0.4291837897877451,-0.19653737951315708,-0.011312261932570067,0.4721796630865217
1.382740611788112,-0.4300890999047402,-0.20211228909158807,-0.00656161294815405,0.4752568421634692
1.3852275553344937,-0.435778080462219,-0.1981026239632011,0.0029775318107105875,0.4787024657635737
1.3877144988808752,-0.4366739365427543,-0.1988736143135479,0.017305172039185024,0.4801398861844171
1.3902014424272566,-0.43277667988826496,-0.19963687710627243,0.002902484191189103,0.47661196142179935
1.392688385973638,-0.438451532220021,-0.21475764264507413,0.0028650978465769583,0.4882302735044437
1.3951753295200195,-0.439333295355528,-0.2250823180497501,0.0028278027424342156,0.49364338421065324
1.397662273066401,-0.4497871910519612,-0.2162457138181635,0.0027905985777465503,0.4990776627134925
1.4001492166127827,-0.45065961784180786,-0.2169782703882137,-0.006823321588138143,0.500220170216556
1.4026361601591641,-0.4515273941966139,-0.22249160501231957,-0.026013958054264208,0.504039907174612
1.4051231037055456,-0.45239053196418844,-0.22799733499907138,-0.02605089119680315,0.5072658347549812
1.407610047251927,-0.448460639688609,-0.22870707771270649,-0.021299331273727518,0.5038626144679821
1.4100969907983085,-0.44931453589116815,-0.22940925721320493,-0.016547681901375455,0.5047632962434169
1.41258393434469,-0.4549522324685128,-0.2348922976151404,-0.021372750015371977,0.5124575297038995
1.4150708778910717,-0.4557969346923408,-0.23079100980590317,-0.03577453590968993,0.5121475893741141
1.4175578214374531,-0.45184865449034967,-0.2218938180076675,-0.04059942659602278,0.5050271145935484
1.4200447649838346,-0.44789580712562893,-0.22256595313625294,-0.03584742236626859,0.5014292524638675
1.422531708530216,-0.44393840455573286,-0.2232306295584019,-0.05024894343315367,0.4994378613287926
1.4250186520765975,-0.44955326539332147,-0.22867627165376092,-0.06943878012553384,0.5091293743525166
1.427505595622979,-0.4551635949839926,-0.23890290053310093,-0.05989810948995,0.517529011362987
1.4299925391693606,-0.4511925986872326,-0.23954532739717216,-0.055145755056246415,0.5138071421152883
1.432479482715742,-0.45200549847768073,-0.24018038009866993,-0.04081650715006546,0.5134798661041439
1.4349664262621236,-0.4576023063823432,-0.24559648321984495,-0.036063979338143426,0.5205940011007595
1.437453369808505,-0.4584062278006078,-0.260582061392288,-0.02652296194393422,0.5279609340814113
1.4399403133548865,-0.45920567810551205,-0.2611951193745341,-0.026558665211661392,0.5289594576971334
1.442427256901268,-0.45521226604189424,-0.2522240818952799,-0.026594282782888,0.5210973522477823
1.4449142004476496,-0.4560028103276603,-0.2576109870122463,-0.03141821825899527,0.5246799863676123
1.447401143994031,-0.4615773230519365,-0.25820224294758765,-0.026665261959003317,0.5295593069848731
1.4498880875404125,-0.4623590096747779,-0.24920946793111476,-0.017123817482053383,0.5255230136341408
1.452375031086794,-0.4631362856284408,-0.24499789352009138,-0.01715909506678237,0.5242266889795879
1.4548619746331755,-0.4639091630358495,-0.25035594467683975,-0.017194288349127618,0.5274328906462775
1.457348918179557,-0.4646776540306207,-0.25570683644789804,-0.0028641876435724356,0.5303956183194304
1.4598358617259386,-0.4510765607958418,-0.24668538060412892,-0.0028992131462572956,0.5141324208217919
1.46232280527232,-0.437471105446595,-0.2472336155230046,-0.022087768450601786,0.5029843916667496
1.4648097488187015,-0.44780331674842433,-0.252563159703723,-0.022122627266055517,0.5145924317045197
1.467296692365083,-0.46291959359362583,-0.25788563168855383,-0.007792193183693286,0.5299625151262155
1.4697836359114644,-0.4636663348837662,-0.24883584342170018,-0.026980499676234615,0.5269095695076271
1.472270579457846,-0.46440876277158694,-0.23977902681126828,-0.03659191712929477,0.5239355390091345
1.4747575230042276,-0.4699352927779224,-0.23071520384595834,-0.02704963916947456,0.5242140475637338
1.477244466550609,-0.4563039205101671,-0.2216443965554573,-0.02229568266438342,0.5077761355783201
1.4797314100969905,-0.4522450781073004,-0.2173550303302516,-0.012753241238240065,0.5019277488286771
1.482218353643372,-0.45775877779431157,-0.21784712728047584,-0.02236433175625052,0.507445201816907
1.4847052971897534,-0.4584798218428517,-0.2231207095557104,-0.017610131238662063,0.5101928211881657
1.4871922407361349,-0.4687734324537673,-0.21402218606321988,-0.02243265654826132,0.5158073779828847
1.4896791842825166,-0.4694860085927731,-0.20970519231117857,-0.01767829466380455,0.5144957745685208
1.492166127828898,-0.45582915919329214,-0.21974655720504233,-0.012923852484696852,0.5061973900934089
1.4946530713752795,-0.4469565097968113,-0.21541588312515092,-0.003380926948176821,0.49617089295863037
1.497140014921661,-0.45244487931042515,-0.21586680569183336,-0.0034147282714904748,0.5013147783409033
1.4996269584680424,-0.45792907004562533,-0.21631094396021489,-0.008236853389394838,0.5065148600224566
1.5021139020144239,-0.4586206909602125,-0.2167483203415741,-0.00827049591509521,0.5073274816628781
1.5046008455608055,-5.156731814884173,9.297378440177571,-0.5589704412573777,10.646387970796331
1.507087789107187,-3.0744596953185694,8.257870999688752,-0.4009866164255431,8.82074408041585
1.5095747326535685,-1.1166819324461206,7.060352944072069,-0.2621563263569815,7.15292165290294
1.51206167619995,0.6591406215913224,5.771861897262863,-0.13290276465988704,5.810896597338562
1.5145486197463314,2.209912324607425,4.425916659921185,-0.00364912494122116,4.946965138257246
1.5170355632927128,3.506902744374245,3.0799780492748794,0.1160277859121841,4.668842906932979
1.5195225068390945,4.550111868581554,1.7819300758789858,0.20218595105381176,4.890774168854287
1.522009450385476,5.301232458352535,0.5605031369761484,0.27397898352119476,5.3378173280341725
1.5244963939318574,5.779418114651295,-0.5364187569414667,0.3266184797516374,5.813441189009607
1.526983337478239,6.0086108417591095,-1.5040472252951167,0.3409508262227874,6.203370839271585
1.5294702810246203,5.998387433993556,-2.323228677575358,0.3504948459370212,6.4421184352376475
1.5319572245710018,5.758324685669748,-2.9748095233023535,0.355250538655822,6.491070622843294
1.5344441681173835,5.345883424303468,-3.473154995268179,0.3312758875404338,6.383652474960129
1.536931111663765,4.78021725084642,-3.8038999063708765,0.29293610231589895,6.116039815355856
1.5394180552101464,4.094844976209127,-3.9861978927796122,0.2498079893882572,5.720134006397748
1.5419049987565279,3.323285411300829,-4.020048977409718,0.1923147418836244,5.2193873841365335
1.5443919423029093,2.5134225769904557,-3.9246067964850218,0.1396099728513036,4.662544638077078
1.5468788858492908,1.6939868808647993,-3.723813389576383,0.10127048870131006,4.09226507264769
1.5493658293956725,0.8793435205487207,-3.441610796280788,0.0677194825637244,3.552818012300404
1.551852772942054,0.0934345003076217,-3.0971526529006868,0.04853376085122285,3.0989417689204584
1.5543397164884354,-0.6206445623120549,-2.6952273858028444,0.01498290341531927,2.76580455226032
1.5568266600348168,-1.2485284696860302,-2.254988631339495,-0.028144686648969852,2.5777100671862763
1.5593136035811983,-1.7997940407910504,-1.809955235848094,-0.05690699296402357,2.5531225883002784
1.5618005471275798,-2.250499271360956,-1.369704029088413,-0.08088082239304484,2.6357878907697034
1.5642874906739614,-2.591067367090171,-0.9246582275617876,-0.10964298179791676,2.7532970275752735
1.566774434220343,-2.8214983403122513,-0.5035482743551571,-0.12882826143758308,2.8689737659894825
1.5692613777667244,-2.9561574133206006,-0.14946982253842256,-0.1336482582102505,2.9629494995869647
1.5717483213131058,-2.999833001766409,0.17109592792173567,-0.13367977897370764,3.0076805246476432
1.5742352648594873,-2.942948311338138,0.44378374383428776,-0.13371122726406526,2.979222627934347
1.5767222084058687,-2.814233774284715,0.6542283919874383,-0.12416579665512373,2.891944617427219
1.5792091519522504,-2.6184778062511853,0.8120066557507721,-0.09067827739901801,2.7429916844215234
1.5816960954986319,-2.3700456295207615,0.9171185118333796,-0.0859211062308578,2.542755412392995
1.5841830390450133,-2.0880908696941534,0.9839291468860867,-0.0955290734000549,2.3102739772712546
1.5866699825913948,-1.7821903457284543,0.9932849242987287,-0.08598335587334027,2.0421093278113394
1.5891569261377763,-1.466709279897823,0.9595510306850219,-0.0764375671395392,1.7543708256515467
1.591643869684158,-1.1416476845119976,0.8923042493205591,-0.06210330408450737,1.4503182855102341
1.5941308132305394,-0.8501012017598006,0.7915445568229811,-0.04298056691302499,1.1623519982353503
1.5966177567769209,-0.5729162306620433,0.6620603331133941,-0.03343456578942927,0.8761705097911876
1.5991047003233023,-0.30530438019624917,0.5325819746980973,-0.014311687634481984,0.6140514219047845
1.6015916438696838,-0.07120767925748168,0.3983210548253777,0.009599664030886856,0.40474973730929564
1.6040785874160652,0.11500864990460616,0.24970074340775295,0.009569069085587856,0.27508002089288397
1.606565530962447,0.26770980496710095,0.0915094203037583,0.009538543933365062,0.28307860657460826
1.6090524745088284,0.3677421603699571,-0.042734114720567984,0.014296491698127411,0.3704927674724414
1.6115394180552098,0.4246825104804225,-0.19133711171787482,0.014266105544249896,0.4660135693259289
1.6140263616015913,0.45289605299162916,-0.3207807709495989,0.014235788598448096,0.5551736624727756
1.6165133051479728,0.4523827756415876,-0.4166999059714227,0.009417137348222582,0.6151241092735796
1.6190002486943542,0.41835426285403715,-0.5126133635546761,0.009386958243421617,0.661725671806714
1.621487192240736,0.3555989056996037,-0.58936755395932,0.014145251094689115,0.6884800531048662
1.6239741357871174,0.2784819018960538,-0.6325972907771713,0.023692015714084746,0.6915871699148682
1.6264610793334988,0.16306122260534267,-0.6710330174940058,0.02845044527446383,0.6911466564492481
1.6289480228798803,0.04764408216044234,-0.6998863543640241,0.004478522989170841,0.7015204378762174
1.6314349664262617,-0.0629811283406965,-0.7000037116906634,-0.009916524762962453,0.7029012422603528
1.6339219099726432,-0.1927564377146028,-0.6857503230292399,-0.014734698164177829,0.7124785338135597
1.6364088535190249,-0.31295143824681726,-0.6571262119833636,-0.029129610676529083,0.7284243237252049
1.6388957970654063,-0.4235661421368558,-0.6189198054857226,-0.03873605251846435,0.7509796829155213
1.6413827406117878,-0.534177368216866,-0.5759195304772966,-0.03876562054761479,0.786467761346089
1.6438696841581693,-0.6208431120685347,-0.5233370072662802,-0.048371928221740745,0.8134295522153464
1.6463566277045507,-0.7027169991479114,-0.46117225948852614,-0.057978169075319386,0.8425274487531694
1.6488435712509322,-0.770222234980436,-0.4133673273883858,-0.053219133321046996,0.8757551682758818
1.6513305147973139,-0.8137820250826984,-0.36076862133381304,-0.04846003109207864,0.8914839073703142
1.6538174583436953,-0.8525499948840028,-0.31295297162064317,-0.03891245923889386,0.9090078303881232
1.6563044018900768,-0.8721609465621689,-0.26034359526897477,-0.03894162789176292,0.9110213799295024
1.6587913454364582,-0.8774032955667188,-0.21730572590554065,-0.0485475372185995,0.90521554612847
1.6612782889828397,-0.8634886506968061,-0.18383938720075266,-0.04857657410463645,0.8841771619535772
1.6637652325292211,-0.8399938307025674,-0.15515619950887194,-0.039028738714911526,0.8550943364974926
1.6662521760756028,-0.8212840576442821,-0.13125618650816495,-0.039057644494258525,0.8326230776472404
1.6687391196219843,-0.7882057303296885,-0.10735096855984771,-0.03429808164390025,0.7962216162474783
1.6712260631683657,-0.7407588608371998,-0.08822897266855678,-0.029538453644864404,0.7465792401150093
1.6737130067147472,-0.7028854778359993,-0.08825543248188694,-0.029567163976732758,0.7090213209071593
1.6761999502611287,-0.6650087867421199,-0.09306516172746893,-0.04396101943795827,0.672926728553422
1.6786868938075101,-0.6175519929604113,-0.10265818409531002,-0.05835481022399769,0.6287403682342985
1.6811738373538918,-0.5700919151655726,-0.11224611995610934,-0.04401811656792454,0.5827019630724948
1.6836607809002733,-0.5322053720207478,-0.13140579964205523,-0.039258165185742655,0.5495918901521942
1.6861477244466547,-0.49431556889603573,-0.14577203688388707,-0.04407495622951885,0.5172426608052769
1.6886346679930362,-0.4468457111495599,-0.16013325869325934,-0.03931487656861776,0.47629760615825467
1.6911216115394176,-0.4281030373303919,-0.18406629540136077,-0.039343136313139127,0.46765424626452623
1.693608555085799,-0.41414554281117555,-0.203205960736617,-0.0489481389311166,0.46390205153035774
1.6960954986321808,-0.4001848362332395,-0.22234068170703658,-0.03461106132666103,0.4591091454753786
1.6985824421785622,-0.3910093328657816,-0.24147048199822319,-0.02027392024616148,0.46000796069931826
1.7010693857249437,-0.38661904464473673,-0.24623017533231906,-0.025090329114258125,0.45905676069659984
1.7035563292713252,-0.39180238681321267,-0.25098499535036956,-0.015541464830722163,0.46555785390501137
1.7060432728177066,-0.40177096796036416,-0.2701001756900232,0.003584269143624752,0.4841351697500227
1.708530216364088,-0.4117363966618263,-0.2844221267429137,0.01313325938847143,0.5005949350714525
1.7110171599104698,-0.4264870881201526,-0.2891624688573402,0.008317102445886349,0.5153400274789204
1.7135041034568512,-0.4412346508833804,-0.3034748389784707,0.0035010081406259275,0.5355345479903122
1.7159910470032327,-0.4464022901651554,-0.30341724416354454,-0.0013150236620482758,0.5397580550651628
1.7184779905496141,-0.4659320344070453,-0.3081433213470506,0.003445813545200238,0.558620480119077
1.7209649340959956,-0.49024708879398965,-0.308076287535632,0.003418309669575237,0.5790206316304424
1.723451877642377,-0.5097706584962948,-0.3127929730107737,-0.010974342059961728,0.5981855936181627
1.7259388211887587,-0.5245027553100885,-0.30792819144557626,-0.02057852849114994,0.6085609149868887
1.7284257647351402,-0.5392317943368113,-0.3078471764277593,-0.025394249751517606,0.6214383959643012
1.7309127082815217,-0.5443809807018049,-0.30776154825612645,-0.025421505967166524,0.6258706541295139
1.7333996518279031,-0.5543155361166238,-0.3076713305416998,-0.04460231386430813,0.6355444340245694
1.7358865953742846,-0.5690354723163586,-0.30757654688699443,-0.0494178503239695,0.6487270804274099
1.738373538920666,-0.583752397700092,-0.29790041424497504,-0.03029130882730513,0.65607094282433
1.7408604824670477,-5.3677160310021685,5.888820520362064,-0.743790414103934,8.002737449812276
1.7433474260134292,-3.2420106856693347,5.266436428673839,-0.5858000539682848,6.212016391356856
1.7458343695598106,-1.221647237628982,4.505193112319585,-0.4134444228735301,4.686162955265595
1.748321313106192,0.6694322848618468,3.638609370988337,-0.2554539408576453,3.708486814667028
1.7508082566525736,2.38334383696174,2.700204004379524,-0.10704020471490772,3.6031773639214784
1.753295200198955,3.857838163884816,1.7282842155244653,0.03179678544148956,4.227397859667528
1.7557821437453367,5.078550044066269,0.7515804008249631,0.1562686261795836,5.1362402136697
1.7582690872917182,6.035902659277099,-0.18202343002267662,0.25201010742805785,6.043902922416232
1.7607560308380996,6.705953981345657,-1.0437968805914728,0.31423282575775957,6.793973284952029
1.763242974384481,7.093492402039309,-1.8145863610818762,0.36209039434249135,7.330857219540486
1.7657299179308625,7.222459926424222,-2.4656614750402372,0.40515961971685144,7.64248442692234
1.768216861477244,7.078491333021862,-2.9970222459211446,0.42907529181531423,7.698784806724905
1.7707038050236257,6.704682240215202,-3.3799382772429403,0.4434142171753237,7.5215266314906
1.7731907485700071,6.1441282664054,-3.623986399071791,0.4338111857341822,7.146452386993651
1.7756776921163886,5.4207714167305205,-3.7339550381386766,0.4242082139931167,6.595993904492563
1.77816463566277,4.544188486386144,-3.7146326211591223,0.4002400918922735,5.882885061017411
1.7806515792091515,3.5909939170705347,-3.570807574832857,0.36190681933414126,5.077093715384999
1.783138522755533,2.580341310657119,-3.321633535804339,0.3475156227851173,4.220447575049768
1.7856254663019147,1.5649030922801854,-2.986264140701428,0.313970872267717,3.386040890907828
1.7881124098482961,0.5494676538901868,-2.5646994128538547,0.26127256768865514,2.635879575320374
1.7905993533946776,-0.41329257934043145,-2.100035005456724,0.21336272555761226,2.1509257153465025
1.793086296941059,-1.2994356021416937,-1.6162129584061824,0.16545294246380848,2.0803970503736404
1.7955732404874405,-2.08980781254441,-1.1132332949787356,0.11275481499786899,2.370506003098509
1.798060184033822,-2.770044011880313,-0.6150380550338093,0.060056746392422866,2.838137144269282
1.8005471275802036,-3.3305674047814584,-0.1551460850527029,0.026512349842459315,3.3342843985170263
1.803034071126585,-3.7426475825789023,0.27601939838547196,0.012121625263096902,3.752831540246351
1.8055210146729666,-4.025438169786488,0.654516355478791,-0.02621105731194362,4.078385849559681
1.808007958219348,-4.1837275809373,0.9803447630472837,-0.06454368136320987,4.297536295685427
1.8104949017657295,-4.217515827223507,1.2391393879701016,-0.08851103701045027,4.396673785871811
1.812981845312111,-4.126802919816938,1.4021697871864962,-0.1124783342939466,4.359958007457614
1.8154687888584926,-3.9307424831498956,1.5029547608207707,-0.1364455732916472,4.2104900993095935
1.817955732404874,-3.6389113349934115,1.5367058824561934,-0.14604754411915977,3.9527801049719726
1.8204426759512555,-3.2752515030585028,1.498634725697987,-0.15086105349229584,3.6049878650025535
1.822929619497637,-2.854128208394318,1.412683284095428,-0.1508861014848648,3.1881794972579733
1.8254165630440184,-2.3899066720293667,1.2788515346189429,-0.1556994948099284,2.7150243979183273
1.8279035065904,-1.9065289216107275,1.082774244300825,-0.14135921693698172,2.197096953088876
1.8303904501367816,-1.4279369847644008,0.8675470200405018,-0.13659568785759113,1.6763950150189817
1.832877393683163,-0.9541308724934573,0.6283814355581092,-0.1318321009994765,1.150047239574589
1.8353643372295445,-0.4994758057396151,0.37006587123818857,-0.11749164978898818,0.6326366392682734
1.837851280775926,-0.08312540874355044,0.10696551413055433,-0.11272794757299565,0.1762357652578392
1.8403382243223074,0.28055509759665875,-0.14176604537006154,-0.10796418777514738,0.3323628141794511
1.8428251678686889,0.5963541056862984,-0.3809172334453925,-0.09841196713803058,0.7144375923623932
1.8453121114150706,0.8499063946714142,-0.6009112662906047,-0.08407128572320843,1.0442716173206532
1.847799054961452,1.0220583404003505,-0.787382956754912,-0.06494214359089412,1.291817577595307
1.8502859985078335,1.1463287552672576,-0.9307555209815686,-0.050601347440586864,1.477476210080235
1.852772942054215,1.2083524184858867,-1.045394191688982,-0.04104889732981931,1.5983271239798647
1.8552598856005964,1.2129177225739167,-1.1312989916076968,-0.041073196635091236,1.6591244129444642
1.8577468291469779,1.1552362534312945,-1.1741047334801644,-0.036309035450322824,1.64754698642492
1.8602337726933595,1.0496732102621906,-1.1785998433025133,-0.03154481714934931,1.5785773704395447
1.862720716239741,0.9153821956141627,-1.149572747042998,-0.02678054178435829,1.4697480267752203
1.8652076597861225,0.7332095854956632,-1.0966002739620044,-0.026804612726532895,1.3194115902096981
1.867694603332504,0.5270973858210061,-1.0148940433303562,-0.0316170300254246,1.1440459824300797
1.8701815468788854,0.31141079588763654,-0.9044540777103776,-0.02685258376834021,0.9569403971707625
1.8726684904252668,0.08136140173515896,-0.7940108195569897,-0.017299677322524687,0.7983558968914402
1.8751554339716485,-0.14868559729196518,-0.6739874847330141,-0.017323520694542793,0.690410487165467
1.87764237751803,-0.3787302117861649,-0.5539609023527508,-0.0029820973271608153,0.6710574845417759
1.8801293210644114,-0.6039840489958586,-0.4195658848986259,0.0065709794553612255,0.7354423437518413
1.882616264610793,-0.7957166995439021,-0.2851676647443684,0.016124112931619194,0.8454263125587165
1.8851032081571744,-0.9539281739506574,-0.17949668419393516,0.030465706381505697,0.9711468374858547
1.8875901517035558,-1.1025604993140936,-0.08339935231678774,0.044807356445579316,1.1066177324651203
1.8900770952499375,-1.217671669504649,0.012701115208461289,0.03999544980475456,1.2183945375151937
1.892564038796319,-1.299261694969754,0.08965108281307632,0.03039519638340238,1.302705698394085
1.8950509823427004,-1.3473305861324498,0.15223893156214263,0.02079499946655794,1.3560637273424903
1.8975379258890819,-1.3618783533910854,0.19567623591257144,0.0016180523795767954,1.3758649849566016
1.9000248694354633,-1.352481813759878,0.22475137699465808,-0.012770434949352705,1.3710883713389885
1.9025118129818448,-1.3191409775875884,0.22509912269059873,-0.012793655911101709,1.3382698574720973
1.9049987565282265,-1.271432661838682,0.20150785419721595,-0.008028417176513258,1.2873270308572422
1.907485700074608,-1.1949916668509983,0.19228477598726723,-0.0032631220948733386,1.2103673685644398
1.9099726436209894,-1.099394809538847,0.14954583280193523,0.0015022293061015546,1.1095202386807868
1.9124595871673709,-1.0085841167522285,0.09244461590111763,0.0014792336796300987,1.0128129717308407
1.9149465307137523,-0.912982792073615,0.04971152321995698,-0.003332108999515526,0.914341247627912
1.917433474260134,-0.8078024423804496,-0.016960693755766254,-0.017720202075633296,0.8081747686052181
1.9199204178065155,-0.7026198844855761,-0.0836300403409993,-0.032108238930863564,0.7083075777719753
1.922407361352897,-0.597435128535615,-0.14071973177606534,-0.036919412946121,0.6148933393457606
1.9248943048992784,-0.4970365879719207,-0.20259499986693985,-0.03694212746203185,0.5380100598829684
1.9273812484456598,-0.4157894828506291,-0.26446746310225056,-0.032176382497697276,0.4938210735474662
1.9298681919920413,-0.34411701660044847,-0.2976067233326436,-0.027410581391315247,0.4557824293004239
1.932355135538423,-0.2772307959445794,-0.345108432176624,-0.017856320839264583,0.4430300129487699
1.9348420790848044,-0.2294960408614045,-0.39739580469227764,-0.013090407497655221,0.45908955240403476
1.937329022631186,-0.19612435802197015,-0.4257384426191244,-0.008324438060464345,0.46881476256866095
1.9398159661775674,-0.17232735407119953,-0.44928998086214733,-0.00355841254078193,0.48121810664614406
1.9423029097239488,-0.17247024890897095,-0.46326203768691787,0.0012076690494939868,0.4943269776019622
1.9447898532703303,-0.1821878424870154,-0.4580778280004738,0.005973806699641315,0.49301459696665156
1.947276796816712,-0.17753812809002747,-0.45289098659326,-0.017990419521741075,0.48677889011099856
1.9497637403630934,-0.21598195542154025,-0.4477015349357276,-0.027589379740200926,0.4978413837016442
1.9522506839094749,-0.2592121077523147,-0.4281442844983463,-0.02282307396292893,0.5010183009223473
1.9547376274558563,-0.30722859488898546,-0.40858446663414716,-0.03721032543813685,0.5125575911167279
1.9572245710022378,-0.3504546199708951,-0.3890221026956371,-0.04202071424882803,0.5252831402878461
1.9597115145486192,-0.3936785960715699,-0.3646688106751439,-0.032465837078405,0.5376059979774294
1.962198458095001,-0.44647733955804403,-0.33552461184516336,-0.04685292049193812,0.5604587193106201
1.9646854016413824,-0.49927405348916837,-0.3063779307581256,-0.06123994788930709,0.5889756770534932
1.9671723451877638,-0.5520687475375292,-0.286805595246058,-0.07083851595049317,0.6261433117219811
1.9696592887341453,-0.595284624708065,-0.27201922313910964,-0.07564862467466504,0.6588482045101093
1.9721462322805268,-0.6289216946192365,-0.2524420289059113,-0.07567027405985982,0.6819057605689802
1.9746331758269082,-0.6577683701827176,-0.23765084025484695,-0.07569186742331624,0.7034674189190941
1.97712011937329,-0.6866130642829775,-0.2228572748916262,-0.0757134047608421,0.7258342680506764
1.9796070629196714,-0.7106673831365793,-0.20806135380028268,-0.07094648274682669,0.7438891448418546
1.9820940064660528,-0.7203545296125135,-0.19326309792255758,-0.06139110137485915,0.7483516156726782
1.9845809500124343,-0.7204629165132989,-0.18803933479831691,-0.06620087391868879,0.7475347224108324
1.9870678935588157,-0.7157809566140549,-0.1780248753230751,-0.06622218708847605,0.7405542600970636
1.9895548371051972,-0.7110970626624233,-0.1680081436305616,-0.04708983091361851,0.7321906999059651
1.9920417806515789,-0.6968344374175814,-0.16756596713152794,-0.037534225305241975,0.7176805728045494
1.9945287241979603,-0.6682046869314453,-0.17190996323225827,-0.03755537025154787,0.690985488219831
1.9970156677443418,-0.6491498371501659,-0.17146334597493418,-0.03278805577871324,0.6722129474257059
1.9995026112907233,-0.6253046874297424,-0.16622613599832237,-0.02802068519311618,0.6476281643113063
2.0019895548371047,-0.5966692470593682,-0.1609867572172181,-0.018464855159457727,0.6182813900335095
2.0044764983834864,-0.5632435253004721,-0.17011044014251597,-0.018485775622636424,0.5886616638942563
2.0069634419298676,-0.5346043380273153,-0.17923199531846778,-0.004141429964022336,0.5638643966643134
2.0094503854762493,-0.5155400977659573,-0.17877463656463233,0.0006261652329353495,0.5456577271204432
2.0119373290226306,-0.49168560373333503,-0.18789199757718178,0.0006054133076656143,0.526363469664671
2.0144242725690122,-0.4726176717199948,-0.192218888764625,-0.004203685719689432,0.5102286113043505
2.016911216115394,-0.4679131174885068,-0.19654373377098722,0.005352481453273938,0.5075438639764661
2.019398159661775,-0.45841833685155875,-0.20086655287402255,0.034062318169008066,0.5016522551970523
2.021885103208157,-0.4489217421953221,-0.20039896298498983,0.05798380784914059,0.4950278749260779
2.024372046754538,-0.444211745877902,-0.2047177909296507,0.0531749339162193,0.4919969742752533
2.0268589903009198,-0.4394999535886357,-0.2042462502058795,0.04357771299694768,0.48659609225477757
2.0293459338473014,-0.4395747776293326,-0.20856116754591314,0.043557355078347015,0.4884884736791779
2.0318328773936827,-0.454013033593911,-0.20808575635363846,0.014806633625015664,0.4996466281980866
2.0343198209400644,-0.4540843104855877,-0.19324322998561483,-0.01873243473347941,0.49384857099670637
2.0368067644864456,-0.46373063380273627,-0.19755243163366476,-0.03790623668687587,0.5054799172580675
2.0392937080328273,-0.4781636090935858,-0.19228296127778144,-0.052291578845869324,0.5180227634741065
2.0417806515792085,-0.4973832451983709,-0.18222324209214857,-0.042734847898335815,0.5314335986626461
2.04426759512559,-0.5070243409680404,-0.1817385038433743,-0.033178060413987964,0.5396326063222441
2.046754538671972,-0.521452115147052,-0.186040362968396,-0.03319802300071473,0.554639913615945
2.049241482218353,-0.5406665764905434,-0.19034043585550942,-0.03321792898421627,0.5741543862600637
2.051728425764735,-0.5455141204439995,-0.18985033884416724,-0.028449375009598654,0.5783062974769273
2.054215369311116,-0.5599367723072647,-0.1941468981856973,-0.023680764361685647,0.5931129619707858
2.0567023128574977,-0.5695693307892452,-0.198441730121226,-0.02848890364471046,0.6038211328366139
2.0591892564038794,-0.5744118045313017,-0.20273485416271653,-0.028508582860458986,0.6098057736476393
2.0616761999502606,-0.5840410087869238,-0.2166030964130723,-0.01895139865046147,0.6232013774305919
2.0641631434966423,-0.5936685488201631,-0.22568126632376595,-0.018970964256928013,0.6354008792192333
2.0666500870430236,-0.5937176265462191,-0.22039257661647982,-0.01420206967901727,0.6334628692216255
2.0691370305894052,-0.5937650571330044,-0.24383267648604923,-0.023798328157216275,0.6423220980299439
2.0716239741357865,-0.5938108490792475,-0.2529059553112192,-0.03339452968896417,0.6462878161695796
2.074110917682168,-0.5938550108551052,-0.2428240289825352,-0.042990674231800696,0.6430205914587285
2.07659786122855,-0.5843207442615258,-0.24231733658185028,-0.062163568383056145,0.6356199595800781
2.079084804774931,-0.5795732676724266,-0.25138589721808335,-0.07175959881734784,0.6358061669589732
2.0815717483213128,-0.5796125894721785,-0.2556645199879539,-0.07177876548973572,0.6375478741479306
2.084058691867694,-0.5700735080556083,-0.2599416272179731,-0.07179787499506318,0.6306412522198037
2.0865456354140757,-0.5605328383904742,-0.2594288345423945,-0.05745171732581156,0.6203233696466638
2.0890325789604574,-0.5557789920955971,-0.2637029675045768,-0.0478939057158243,0.6170278513407915
2.0915195225068386,-0.5510235741205418,-0.2679756416349286,-0.03354763347629941,0.6136475922368538
2.0940064660532203,-0.5414781893862247,-0.27224687573197714,-0.028778110519180444,0.6067496770265816
2.0964934095996015,-4.961204320713822,7.973902232355101,-0.3879271824977728,9.399316603984984
2.098980353145983,-2.62928022336079,6.973645931515611,-0.282601074947717,7.458197868028308
2.1014672966923644,-0.4170646701263835,5.8153737050565475,-0.18206331320806157,5.833151919721193
2.103954240238746,1.5940394744149797,4.570911584196805,-0.08152549390657704,4.841574223606868
2.106441183785128,3.341782959001971,3.2881435836042483,0.009435576368950649,4.688228940823515
2.108928127331509,4.802223758963003,2.0436841379227526,0.0812430910314017,5.219635842334804
2.1114150708778907,5.9418430430153535,0.8471100353647802,0.14347385677567637,6.003638805543165
2.113902014424272,6.75106399650681,-0.2632715158821606,0.20570468029742273,6.759326252778575
2.1163889579706536,7.229886611453706,-1.2443649042558114,0.24878194837110001,7.340408495939204
2.1188759015170353,7.378310879901268,-2.0961701480229964,0.2679172577328206,7.674971034924058
2.1213628450634165,7.225067213845229,-2.7755916355136385,0.2822642217209612,7.74500989428537
2.1238497886097982,6.813251235270808,-3.2874177882065956,0.28703443707303045,7.570330037534835
2.1263367321561795,6.166804952910898,-3.641225430846249,0.2870163071678391,7.1673136059522395
2.128823675702561,5.328823988807795,-3.8130725648807546,0.2869982353848801,6.558830343579086
2.1313106192489424,4.347192368353012,-3.836478031546892,0.26782660850274986,5.8041688695480484
2.133797562795324,3.2745825202868883,-3.7401722687063197,0.2295014265819475,4.976389272009512
2.1362845063417057,2.1588784700578305,-3.538520504204667,0.19117630296487675,4.1495098488823245
2.138771449888087,1.033599033182676,-3.22194594923093,0.157639641033688,3.3873459990953085
2.1412583934344687,-0.04858336151313471,-2.828755848121636,0.12889144085081305,2.832107518231409
2.14374533698085,-1.0541498984560675,-2.392469041837634,0.08577808919808128,2.615816890600888
2.1462322805272316,-1.9543701653645746,-1.9130855480418887,0.04266479610011409,2.735192743157263
2.1487192240736133,-2.7300905565693614,-1.4241242075836404,-0.00044843837879504633,3.079208405871859
2.1512061676199945,-3.357369063051773,-0.9447386512955924,-0.02440800089247297,3.4878437314903494
2.153693111166376,-3.8266288857265285,-0.4892941066334302,-0.06273271461762775,3.858294020074955
2.1561800547127574,-4.137870032119622,-0.08173260763789436,-0.10105736952722566,4.139910773652096
2.158666998259139,-4.300669316369879,0.2779458283087872,-0.1106515456327628,4.311061843303867
2.1611539418055203,-4.300661535985809,0.5849527805602697,-0.12982246942950582,4.342201432011392
2.163640885351902,-4.176153924971033,0.8344998285269436,-0.12983972092781748,4.260693596351781
2.1661278288982837,-3.9271464907383122,1.0170101483556784,-0.12028010669998501,4.058479580538067
2.168614772444665,-3.577581257273607,1.1324837228908917,-0.12029723995837394,3.7544744586892347
2.1711017159910466,-3.14661184521424,1.1857089383543653,-0.12510271731327194,3.364925330644822
2.173588659537428,-2.6581802784895423,1.1958393909860017,-0.13469653869473674,2.917892629882199
2.1760756030838095,-2.1458053876411904,1.1580866604814593,-0.13471349407137367,2.442087877268133
2.178562546630191,-1.6142755832606461,1.0628739232735054,-0.12994198669252022,1.9371297208478093
2.1810494901765725,-1.0875328891927707,0.9341431790947166,-0.12038201648672597,1.4386949273624932
2.183536433722954,-0.5847309259333536,0.7814712177743259,-0.10603358338202185,0.981758952471225
2.1860233772693354,-0.1346001205910201,0.609646425879125,-0.0916850906262816,0.631024653158225
2.188510320815717,0.26285951967577054,0.4282455933540983,-0.07733653814659647,0.5083997988236034
2.1909972643620983,0.6076479877363836,0.24205710688209292,-0.05819952254927507,0.6566695549644195
2.19348420790848,0.8854000665277442,0.060657756524233,-0.053427657041703824,0.8890821985456986
2.1959711514548617,1.0769621356942494,-0.10637566759998185,-0.04386732826836237,1.0830916705735782
2.198458095001243,1.1871225915097705,-0.26383158527347783,-0.0295185361545105,1.2164450240917157
2.2009450385476246,1.2254582335967437,-0.39734480293973196,-0.024746490585902947,1.2885042349598947
2.203431982094006,1.2063342649255941,-0.5021269336239369,-0.029551191486962836,1.3069992689831353
2.2059189256403875,1.1297506785338178,-0.5925432035739582,-0.019990622180118933,1.2758697695001866
2.208405869186769,0.9957074674867195,-0.6590168223772603,0.003935217411045855,1.1940485831494085
2.2108928127331504,0.813781431518139,-0.6967594028826363,0.023072714082083223,1.0715625198392265
2.213379756279532,0.6031261770301732,-0.7105593645205337,0.03263346458987826,0.9325881936514077
2.2158666998259133,0.3637416971715058,-0.7099935299825275,0.03740587233231096,0.7986225855579084
2.218353643372295,0.11478159839973263,-0.685485108619718,0.023024727426383507,0.6954097982798656
2.2208405869186763,-0.1341773194405188,-0.6466109230051091,0.01822044987227045,0.6606369832179471
2.223327530465058,-0.37834665979732696,-0.5933709890116519,0.01820463642832415,0.7039650093349439
2.2258144740114396,-0.6081496227708957,-0.5305537257730766,0.008612077212607261,0.8070981275421171
2.228301417557821,-0.7996441984729749,-0.4581591490431851,0.00380798226538559,0.9216046607588285
2.2307883611042025,-0.9815608135112677,-0.38576408115668315,0.0037923516663180834,1.0546515722563177
2.2332753046505838,-1.129957457942633,-0.32294534438846956,-0.010588427785869214,1.1752487681445751
2.2357622481969655,-1.2400457350777891,-0.24576093771136298,-0.015392339409338263,1.264258196612494
2.238249191743347,-1.3261908614813915,-0.18294129656161218,-0.0010425764828738693,1.3387497174715377
2.2407361352897284,-1.3740276337688875,-0.13448643639357938,-0.005846365488096694,1.3806059249198492
2.24322307883611,-1.3739792518488936,-0.08124275932015168,-0.010650093062592347,1.3764202828116996
2.2457100223824913,-1.3499877388449744,-0.047152297276830346,-0.020242162445237355,1.3509626121069038
2.248196965928873,-1.3020531012520133,-0.027426662216900155,-0.029834170234032342,1.302683606250535
2.2506839094752547,-1.2445405554987676,-0.0029122560723386925,-0.025060906386080717,1.2447962582469083
2.253170853021636,-1.1439312847838858,0.012025696043178602,-0.03465279074105432,1.1445192080427389
2.2556577965680176,-1.0337441187633278,0.012598775717163058,-0.049033016575908306,1.0349830283351868
2.258144740114399,-0.9283442737850488,0.0035953712383647307,-0.049047970526734375,0.9296460190721104
2.2606316836607805,-0.8133665462480737,-0.01019612904376821,-0.03469765251066903,0.81417014603383
2.2631186272071617,-0.6935993458060643,-0.02877574003931338,-0.02992407904619654,0.6948406624717451
2.2656055707535434,-0.5786194854061646,-0.05214347659751173,-0.0395156533703549,0.582306566942754
2.268092514299925,-0.47800377796883997,-0.07551095018637843,-0.03953035879812106,0.4855431645252994
2.2705794578463063,-0.3869638264270728,-0.08930136889262297,-0.04912180852708481,0.40016082956999877
2.273066401392688,-0.31028804032779855,-0.11266836066380215,-0.049136389192179664,0.3337472280154241
2.2755533449390692,-0.2431880225509036,-0.1408235367847923,-0.05872771399066501,0.2870899287947348
2.278040288485451,-0.19045218259045033,-0.16897850847928986,-0.05874216955715106,0.2612975557972802
2.2805272320318326,-0.15686892991408488,-0.19234488690978502,-0.04917975580734435,0.2530277950621198
2.283014175578214,-0.15201507728353353,-0.22049949313836237,-0.03961727929745429,0.2707362905388302
2.2855011191245955,-0.147160210871709,-0.2390771315642497,-0.030054739942928066,0.28234250458234667
2.2879880626709768,-0.15666954670817623,-0.24328941316584896,-0.01570373433879446,0.28979595010371006
2.2904750062173584,-0.19011989747606822,-0.24750156214137675,-0.006141069040909386,0.31215430704652736
2.2929619497637397,-0.23314605923091214,-0.2612903993072071,0.0034216593559097674,0.35020203519935694
2.2954488933101214,-0.2809596346428691,-0.26071392217596934,-0.0013807590243128942,0.38329097564450315
2.297935836856503,-0.32877222635619524,-0.2601373547611594,-0.001394710815290523,0.41924284774292914
2.3004227804028843,-0.3813722436298884,-0.2595607110536773,-0.0014085992522172575,0.4613225932965335
2.302909723949266,-0.4483364990175328,-0.2541956016623943,-0.0014224242499203399,0.5153863051600727
2.305396667495647,-0.49614617516415777,-0.24883044377504415,-0.0014361857231737218,0.555049258632727
2.307883611042029,-0.5391664878923063,-0.23388844455661273,-0.011026690227325275,0.5878145065074573
2.3103705545884106,-0.5965510563192338,-0.2189464243914827,-0.020617131036432923,0.6357953803241907
2.312857498134792,-0.6395694663335866,-0.20879280028184244,-0.020630701424511955,0.6731041238597707
2.3153444416811735,-0.6730101270407841,-0.1938507792070019,-0.03500941790775336,0.7012463297877957
2.3178313852275547,-3.905103268809398,5.217621763945995,-0.7437065518850332,6.559459417283217
2.3203183287739364,-2.535539888586805,4.734569786387298,-0.5665490075682449,5.400563985989131
2.3228052723203176,-1.2952624725487984,4.141384485617452,-0.39896820577000724,4.357516030919623
2.3252922158666993,-0.19384783302119765,3.476373074828283,-0.2361757430848268,3.489774451075561
2.327779159413081,0.7591272176970268,2.758689153990845,-0.0781716194272537,2.8622981646011363
2.3302661029594622,1.5588742706503291,2.0074863231395677,0.06546735864722386,2.5425137766266404
2.332753046505844,2.186239706948934,1.2706486022916788,0.21389480450522846,2.5377042605749565
2.335239990052225,2.6651655376098073,0.5385991716835079,0.33359189498975894,2.7394305910177743
2.337726933598607,2.9812865471122887,-0.15514315850359228,0.43892384014686847,3.017414955400145
2.3402138771449885,3.163333149843431,-0.7818479813469303,0.5011602201398304,3.2968355204779685
2.3427008206913698,3.2160937436128547,-1.355880519743146,0.5490314549754185,3.533143995095178
2.3451877642377514,3.1635103395363426,-1.848510366644948,0.5873259480589077,3.710760031746931
2.3476747077841327,3.015159738792987,-2.240583921582763,0.5873132795532214,3.8021495825957383
2.3501616513305144,2.7758303392659345,-2.546466407266963,0.5968774827461676,3.813920288251676
2.3526485948768956,2.4598873455032204,-2.790099852986189,0.582499734480157,3.764971299076513
2.3551355384232773,2.1104263819989253,-2.9092350282010937,0.5250264215583975,3.632244582415081
2.357622481969659,1.7274474433883602,-2.9373907687161553,0.4675531739480032,3.439614101651044
2.36010942551604,1.3301041376123615,-2.8985091036328097,0.4052915884128847,3.214777334804704
2.362596369062422,0.9279732659946641,-2.7734364321072937,0.3238764550761122,2.9424445591197648
2.365083312608803,0.5258432265628813,-2.5669611698349715,0.2328845806622155,2.6305961252675796
2.367570256155185,0.14765603064920968,-2.3317557656516965,0.15625798185640072,2.3416455348602283
2.3700571997015665,-0.1922231170304575,-2.0390898118859093,0.0748430454610336,2.0494971259095975
2.3725441432479477,-0.5081594316589576,-1.7176937406471215,-0.011360228440556952,1.7913198624010391
2.3750310867943294,-0.7905761117940926,-1.3819327740213398,-0.08319822648399722,1.5942618120446415
2.3775180303407106,-1.0203195493294426,-1.0365953273916388,-0.15024775522693368,1.4622435650276422
2.3800049738870923,-1.2117549593774979,-0.6864698160785654,-0.18856679798506448,1.4053997037374248
2.3824919174334735,-1.3600939437462638,-0.3507098653011198,-0.22688577459770798,1.4227895487912456
2.3849788609798552,-1.4605481042205684,-0.03889229357525803,-0.2604162816622253,1.4840923202404288
2.387465804526237,-1.5274826558435026,0.24419448396612653,-0.2652163024949896,1.5694501894011537
2.389952748072618,-1.5513207970334681,0.4937620522520847,-0.2652278536156967,1.6494674879749327
2.392439691619,-1.5464277427876754,0.7098103995949749,-0.26523933826308266,1.7220979860620012
2.394926635165381,-1.5175919014398451,0.8875511110490879,-0.27003915967611825,1.7786942687822602
2.3974135787117627,-1.4552364713400845,1.0174073684107823,-0.274838914453424,1.7967658082546067
2.3999005222581444,-1.3880918773783306,1.0898023535390777,-0.25569658591263966,1.7832131038859016
2.4023874658045257,-1.2922161078986396,1.1382548782380595,-0.21740057729356366,1.7357158892955447
2.4048744093509073,-1.1867627811053516,1.162764931132183,-0.17910450179720527,1.6710794733500152
2.4073613528972886,-1.0813087085398947,1.1250252743457771,-0.15038516598426632,1.567649861808791
2.4098482964436703,-0.9710654917604985,1.0633431231905717,-0.13124256977512871,1.4459914934210083
2.4123352399900515,-0.8560331356235424,0.9825068697985206,-0.10252309980924856,1.3071432455860599
2.414822183536433,-0.750576854924278,0.8633628897623948,-0.08338036928888037,1.1470455006448714
2.417309127082815,-0.6594850577953488,0.7298531886201016,-0.0642375714947665,0.9857650247324712
2.419796070629196,-0.568392539066339,0.5867661586907493,-0.06424831962985778,0.8194464290154895
2.422283014175578,-0.48208770682619617,0.4245249823946895,-0.05947059701463786,0.6451098895997714
2.424769957721959,-0.3957821625016265,0.26707166545685235,-0.04032759693088295,0.47916292606855604
2.4272569012683407,-0.3525715407008432,0.10004098710193654,-0.02597293258260791,0.367409150184691
2.4297438448147224,-0.31893702288558007,-0.05262504682064062,-0.016406603892956895,0.32366556315322154
2.4322307883611036,-0.2948786137383639,-0.20529165696160323,0.0027365991754617625,0.35931260795211023
2.4347177319074853,-0.2851847212406997,-0.33880524066745865,0.03145667669873653,0.44396941205650536
2.4372046754538665,-0.2659133334310419,-0.44837740518335156,0.04102320883067101,0.5229102236886641
2.4396916190002482,-0.2657948748501534,-0.5531617742938635,0.05537821224808148,0.6161993268645605
2.4421785625466295,-0.28004094677561386,-0.6435815517995849,0.07931009034614078,0.7063357814230119
2.444665506093011,-0.29428634382345786,-0.6909063281577548,0.08887682659771734,0.7562110133788652
2.447152449639393,-0.31331947387016046,-0.7286549369276323,0.09365522771742896,0.798672906447996
2.449639393185774,-0.3371403414511573,-0.7472505817236057,0.09364529377881148,0.825116042000754
2.4521263367321557,-0.37053735440158686,-0.7466932727387197,0.09363542817527915,0.8388184356401301
2.454613280278537,-0.394356903934515,-0.7317714234243673,0.08404882433885419,0.8355064264828156
2.4571002238249187,-0.42296420448474803,-0.6929082372090967,0.05530867570109699,0.8136827349006753
2.4595871673713003,-0.4611476638261893,-0.6444689340611065,0.031356998935267555,0.7930829945248085
2.4620741109176816,-0.4897536731109186,-0.5768767172852454,0.016982197432927393,0.7569239078672891
2.4645610544640633,-0.5135706400724926,-0.5044968067260709,-0.0021809386961226807,0.7199142913117287
2.4670479980104445,-0.5373869724244437,-0.4369060188460585,-0.016555602741023634,0.6927811453969722
2.469534941556826,-0.5564142712197487,-0.3645275567647741,-0.02614179463201971,0.6657030676544028
2.4720218851032074,-0.5850177507728167,-0.287361430180729,-0.0357279176201839,0.6527624716328859
2.474508828649589,-0.5992553988158711,-0.21498445537135158,-0.050102374957129214,0.6386200725295362
2.476995772195971,-0.5991272196630495,-0.14260823859166027,-0.05011155329341932,0.6179010461464449
2.479482715742352,-0.6085752342105593,-0.07502119267567009,-0.04533225920203954,0.6148552746535383
2.4819696592887337,-0.6180226400930108,-0.02180013371627254,-0.05012970257683058,0.6204355055749341
2.484456602835115,-0.6178926349257033,0.026631735536334133,-0.059715480030943624,0.6213424950769356
2.4869435463814966,-0.617762029585978,0.07506280907302809,-0.074089591498403,0.6267005808777593
2.4894304899278783,-0.6128424249711404,0.11870467430540677,-0.07409842363255059,0.6286153147444703
2.4919174334742595,-0.612710631920432,0.147980515386001,-0.06931878300916594,0.6341274675332345
2.494404377020641,-0.6077898479729478,0.16289032316923624,-0.06932747620461654,0.6330466457047687
2.4968913205670225,-0.5885032706489883,0.17301089521129986,-0.059759293194293406,0.6163116440157961
2.499378264113404,-0.5835813240126553,0.168765415848259,-0.04540263723542104,0.6091882523413684
2.5018652076597854,-0.578658802226664,0.15494227943816963,-0.03583431490615396,0.6001143370031137
2.504352151206167,-0.5689473060758605,0.14590668704070797,-0.03584272946493883,0.588450932253209
2.5068390947525487,-0.5544468396470231,0.12250501653431023,-0.040639477530211465,0.5692717665619577
2.50932603829893,-0.5495226169695874,0.08473725913952768,-0.04064775240072116,0.557501344772202
2.5118129818453117,-0.5493862387735703,0.05175701941897737,-0.026290747375854906,0.5524447771592087
2.514299925391693,-0.5444609024506033,0.018775885394471725,-0.016722075677503057,0.5450411323786819
2.5167868689380746,-0.5299582086946608,-0.023782958171804758,-0.03109535052822565,0.5314021573975107
2.5192738124844563,-0.5250317747834123,-0.06155430985549515,-0.026314941987170215,0.5292823195288071
2.5217607560308375,-0.5296816046955284,-0.08974977481227775,-0.026322866598505357,0.5378759315470876
2.524247699577219,-0.524754089110769,-0.11794616809831426,-0.035907527625822055,0.5390431366298507
2.5267346431236004,-0.5198260386132085,-0.1461434980687164,-0.031126908411533094,0.540875139820016
2.529221586669982,-0.5244742637694816,-0.1695533696979088,-0.026346218861206694,0.5518294317819031
2.5317085302163633,-0.5243335585273166,-0.1881757912203632,-0.03593066888111629,0.5582354538772801
2.534195473762745,-0.5194039267781309,-0.20679917413066695,-0.035938241815747674,0.5602123658028935
2.5366824173091267,-0.5336273889977688,-0.23021192986323324,-0.026368937611833232,0.5817654542946901
2.539169360855508,-0.5239083191606764,-0.2392604531908904,-0.01679956285744666,0.5762011078252771
2.5416563044018896,-0.5189771410290352,-0.24830996206863531,-0.021595327461707114,0.5757269043056583
2.544143247948271,-0.5188338584263417,-0.25736046443062044,-0.026391021412576876,0.5797581110365847
2.5466301914946525,-0.5234784751593634,-0.24246995154960382,-0.026398241339371964,0.5775103968808277
2.549117135041034,-0.5329109950182489,-0.24673406112293073,-0.01682858387213848,0.5874989589477548
2.5516040785874154,-0.5375546151359987,-0.24142238098360602,-0.002470452282308244,0.5892841703527122
2.554091022133797,-0.5326209359495194,-0.23132332214720064,-0.007265863123301131,0.580730861542493
2.5565779656801784,-0.5324751711606457,-0.2116484889291419,-0.016849606386802662,0.573244101586696
2.55906490922656,-0.5371173244940737,-0.19197469554634727,-0.016856472065272854,0.5706430098163581
2.5615518527729417,-0.5369705930177667,-0.1723019495157465,-0.03122847671443907,0.5648013786550836
2.564038796319323,-4.9230008251500825,8.825625967289328,-0.4526146925547945,10.115951309631564
2.5665257398657046,-2.9643961837500905,7.729598622670757,-0.33769966544075736,8.28543183339677
2.569012683412086,-1.1590199781396544,6.485129705573067,-0.21799616388327436,6.591491252766773
2.5714996269584676,0.4691857714333276,5.14010324192083,-0.0982925911600816,5.162408164722882
2.573986570504849,1.8867022380973417,3.742403257695542,0.01183424613008377,4.191105764333941
2.5764735140512305,3.083952611596912,2.368644198860417,0.09801913806727391,3.8898389173329493
2.578960457597612,4.0561484850137965,1.0762868981546965,0.16026208469177483,4.1995735444695965
2.5814474011439934,4.798501451444035,-0.13945705478676196,0.21771669932422455,4.8054619976444455
2.583934344690375,5.311011507319428,-1.2259152304270362,0.27038298200319844,5.4573636803890295
2.5864212882367563,5.598467052407184,-2.1304151991707005,0.3086841261258044,5.998065367055312
2.588908231783138,5.694386906411376,-2.862533774527979,0.34698534168987294,6.38283171308553
2.5913951753295197,5.622713082410358,-3.422270963310174,0.3852866287314516,6.59357920553805
2.593882118875901,5.388233980216034,-3.7952615623094372,0.3900691640435472,6.602214000215066
2.5963690624222826,5.01489161293625,-3.986293981541041,0.366121350980789,6.416675341671313
2.598856005968664,4.5457816069747,-4.028887050884107,0.3230199962172762,6.082795673458655
2.6013429495150455,3.9904807655074106,-3.9086755669567133,0.2751303097465385,5.592618180686951
2.6038298930614268,3.358565891724803,-3.668755166162837,0.21287548495966924,4.97845812379702
2.6063168366078084,2.7122862253550393,-3.32349106492686,0.14104392520781417,4.292083738201923
2.60880378015419,2.04206495633583,-2.8968252862561483,0.0835776471224765,3.545223723277051
2.6112907237005714,1.3718440978611701,-2.4174882564208433,0.035688247412396734,2.77983441049509
2.613777667246953,0.7351424697795935,-1.9142104016335657,-0.0026242738942947597,2.050522567398186
2.6162646107933343,0.12717166539152414,-1.4013569380890252,-0.040936723410970544,1.4077108068535695
2.618751554339716,-0.4329147053879129,-0.8980814852444721,-0.08403750443164881,1.000513767237173
2.6212384978860976,-0.9451166459107342,-0.4283260658206176,-0.10798460032936674,1.0432494270054584
2.623725441432479,-1.390280546233737,0.0222745240810176,-0.12714322104056563,1.396259843408663
2.6262123849788606,-1.730099183119785,0.4154130518932342,-0.15109017318234663,1.7856761821638518
2.628699328525242,-2.0124565930830474,0.7319358983860678,-0.16546024677113813,2.1478102317595966
2.6311862720716235,-2.2421411827419493,0.976631460988227,-0.17504184510557685,2.451865767426396
2.6336732156180047,-2.385634132139061,1.1638649438255686,-0.1702581615242984,2.659853315778639
2.6361601591643864,-2.4573006545068843,1.2888479377991984,-0.17983961592941,2.7806110481091824
2.638647102710768,-2.4810827697054587,1.3420036305462877,-0.18463259502083318,2.8268064400791317
2.6411340462571493,-2.456980480980273,1.34248562968215,-0.16069508217913864,2.8044328587537435
2.643620989803531,-2.365840178282653,1.2950823329173335,-0.14633430394991898,2.70108343572049
2.6461079333499122,-2.2411806880745315,1.199793734698123,-0.136761856996932,2.5458004022209497
2.648594876896294,-2.092578820203564,1.0661966361673612,-0.12240093466458823,2.351731994625642
2.6510818204426756,-1.9104577712235136,0.9134446451643439,-0.09846313361860481,2.1198879697025794
2.653568763989057,-1.7091827542771492,0.7319609496622115,-0.08410206712723145,1.8612215550664304
2.6560557075354385,-1.5079073858150893,0.5456875609318796,-0.06495252521754935,1.6049231847299161
2.6585426510818198,-6.171649442430963,6.4550503037752325,-0.8454662656909022,8.97060446519344
2.6610295946282014,-4.078954068873984,5.631916677858671,-0.6108384301393333,6.980650066438037
2.6635165381745827,-2.1490640661249074,4.684283260045444,-0.38578732910021785,5.168154204737468
2.6660034817209644,-0.4202866638678496,3.6743992883913803,-0.1751013658860714,3.7025007088036346
2.668490425267346,1.0882245215075788,2.6405719844046045,0.02600786283039369,2.8561389012024385
2.6709773688137273,2.3429506636625557,1.6163201663280033,0.2031751470941554,2.8536273114813233
2.673464312360109,3.363045372794443,0.6303742491382014,0.3324584703086835,3.437728102676338
2.67595125590649,4.162873855790873,-0.2789585454919621,0.44258825239966626,4.195619259476764
2.678438199452872,4.718494092989006,-1.092524609116436,0.5191992834090104,4.871074257593451
2.6809251429992536,5.053848097941409,-1.786381929915359,0.5575031600183031,5.389188322004021
2.683412086545635,5.1928778842113825,-2.346165302654053,0.5814418988298424,5.72787456474252
2.6858990300920165,5.154737062053856,-2.771874732005511,0.5862270965230767,5.882029064662985
2.6883859736383977,4.9633676450551985,-3.0491450126272515,0.5670703497763743,5.852680793414752
2.6908729171847794,4.647500050133436,-3.1875529557245468,0.523971658587369,5.659884880502552
2.6933598607311606,4.226287887577176,-3.2062521790894936,0.47129623291358413,5.325756517505866
2.6958468042775423,3.728461574326774,-3.1004542838589595,0.3994672661099159,4.865574639672481
2.698333747823924,3.168386317372695,-2.9036780976787524,0.3132731614911286,4.309078605080726
2.7008206913703052,2.57958093699762,-2.6207120282193928,0.22229072569124675,3.6839900260591993
2.703307634916687,1.9859874468546037,-2.2850749030200332,0.15046197530415384,3.0312294960112323
2.705794578463068,1.3971826506461549,-1.911131936285181,0.06426808707887943,2.3682641373319275
2.70828152200945,0.8227433520861536,-1.498883132205726,-0.017137325713143525,1.709927178374976
2.7107684655558315,0.2770347582189303,-1.0818473181615162,-0.06502384316098109,1.1186464934259213
2.7132554091022127,-0.20163590729854206,-0.6791781115190505,-0.10812188519847687,0.7166800460020935
2.7157423526485944,-0.6180570506821649,-0.2765103063495524,-0.15121985515908065,0.6937722335246581
2.7182292961949757,-1.0009590947385774,0.0974256734451755,-0.18474094641636896,1.0225165467946882
2.7207162397413573,-1.3264000257407276,0.4091110006954666,-0.22305036894657526,1.4058663899041943
2.7232031832877386,-1.5800146365918855,0.6681224781667106,-0.2517829128051776,1.7338478978436587
2.7256901268341203,-1.7570145268257265,0.8888253119967335,-0.2709385780096749,1.9875910534555712
2.728177070380502,-1.886130119207962,1.0472774818128534,-0.2709405579380668,2.1743242022365257
2.730664013926883,-1.9673614165723454,1.1434789838957728,-0.2661540625710117,2.2910462926470756
2.733150957473265,-1.9911316151020548,1.1870066212186021,-0.24700228528871726,2.33122284572144
2.735637901019646,-1.9718059275718,1.1826487934856176,-0.20390841947251914,2.3083014162522306
2.738124844566028,-1.9093843567855395,1.125617093811972,-0.16081448174703716,2.2223014560042493
2.7406117881124095,-1.8230205188187056,1.039853535286014,-0.1177204721364884,2.1020364641082896
2.7430987316587907,-1.717502819776002,0.9301465177659538,-0.08420319730680248,1.9550137234524305
2.7455856752051724,-1.5832544557915742,0.7917076345204466,-0.07462786724537196,1.7717406607377468
2.7480726187515536,-1.4394290429118284,0.6341136888299612,-0.05547565873759197,1.5738912569335828
2.7505595622979353,-1.2908149872127355,0.4669414840257513,-0.03153497513249093,1.373037557889001
2.7530465058443165,-1.1374122914403826,0.3093446301301843,0.0019825868604232966,1.1787301436549003
2.755533449390698,-0.9840093616519241,0.15174631729441046,0.001981397327345036,0.9956431562394289
2.75802039293708,-0.8401830072153876,-0.015430264280217543,0.011557086118962445,0.840404155694634
2.760507336483461,-0.7107216341692435,-0.16345469777963384,0.03549805652233928,0.7301388850891962
2.762994280029843,-0.5812600352615297,-0.27317337298032607,0.045073888581189436,0.6438311702065321
2.765481223576224,-0.4709518264732237,-0.38289351945269834,0.04507298558028516,0.6086334234384929
2.7679681671226057,-0.3750086071748063,-0.4638847202329246,0.04028375080323521,0.5978655950124109
2.7704551106689874,-0.29343038004795,-0.5305121881904316,0.03549458753251322,0.6072927099000839
2.7729420542153687,-0.235793954406014,-0.5779875228639137,0.016340285768194462,0.6244480526511191
2.7754289977617503,-0.19252252627221064,-0.5871571137817981,0.00676286207169241,0.6179515641943195
2.7779159413081316,-0.15882769498121918,-0.5867513836264417,-0.002814490238906231,0.6078744477570149
2.7804028848545133,-0.14907467314018305,-0.576770335109301,0.001973438754866663,0.5957274310407965
2.7828898284008945,-0.14889825342565507,-0.5380603576116862,0.006761439048457163,0.558323701238298
2.785376771947276,-0.14872163182582765,-0.4849866637083391,0.001972703956456101,0.507281065395489
2.787863715493658,-0.1581216176015308,-0.4271260626050948,-0.0028159599264636626,0.4554635539093809
2.790350659040039,-0.18188661668473283,-0.36447855681871033,-0.007604552647418217,0.4074127991738062
2.7928376025864208,-0.20565142171765685,-0.28746734217701286,-0.012393074254690717,0.35367155435840697
2.795324546132802,-0.23899284193563794,-0.21045763106122806,-0.026758331438372807,0.31957159021061715
2.7978114896791837,-0.28669928324531585,-0.14781463580457777,-0.026758307647538615,0.3236690479480207
2.8002984332255654,-0.3296171349434362,-0.0899615520908652,-0.036335019535540525,0.3435997237303386
2.8027853767719466,-0.35816959295908224,-0.02732157555617798,-0.05070006383504477,0.362770481550283
2.8052723203183283,-0.3915102731349799,0.02574008160939778,-0.06027663395956395,0.39695858521132943
2.8077592638647095,-0.4296391780244358,0.06922341722411973,-0.06506472996440849,0.4400171858814594
2.810246207411091,-0.4725563101726191,0.0935516225128814,-0.06506435190607363,0.48610157605968596
2.8127331509574724,-0.505896462155719,0.11787830866957005,-0.06985230648285423,0.5241239078666856
2.815220094503854,-0.5344480398230959,0.13741507033345224,-0.07942859375359745,0.557518170404491
2.817707038050236,-0.5486342390552315,0.12343148558905437,-0.07463960049708795,0.5672794107499396
2.820193981596617,-0.5628202723262291,0.1238115856925317,-0.06506213341515554,0.5799388320311042
2.8226809251429987,-0.5770061421413692,0.11461335214188173,-0.05548459589051191,0.590889878860011
2.82516786868938,-0.5911918509981101,0.11020199304392975,-0.06027219794768257,0.6043881383704272
2.8276548122357616,-0.5958005947454873,0.1010006999501405,-0.050694519729537646,0.6064234695492113
2.8301417557821433,-0.590832375865418,0.07264426113770961,-0.041116771262949214,0.5966998189425803
2.8326286993285246,-0.595440810113365,0.04907469149218935,-0.04111575925564992,0.5988727655793696
2.8351156428749062,-0.595260689994963,0.03508039266365248,-0.03153787049470047,0.5971269214145816
2.8376025864212875,-0.5998688246097834,0.0019309431055445359,-0.017171508369891342,0.6001176517814629
2.840089529967669,-0.5901116031279632,-0.012066432198905463,-0.02674709287377297,0.5908406806487377
2.8425764735140504,-0.5707774313136644,-0.021276944744615722,-0.02195739751569903,0.571595759064352
2.845063417060432,-0.5705967315251242,-0.044854209301716796,-0.002802422368704427,0.5723638560307329
2.8475503606068138,-0.5608390862693973,-0.05885621071257541,-0.012377797389808265,0.5640547350170536
2.850037304153195,-0.5415044979679899,-0.06807135369662376,-0.03152990937317668,0.546676289680407
2.8525242476995767,-0.5317465823162907,-0.0724996396083446,-0.0458935484344547,0.5386249561023897
2.855011191245958,-0.5267769384008019,-0.08171787639835904,-0.041103504690470416,0.5346599407584406
2.8574981347923396,-0.526595568621038,-0.07657245205108909,-0.04589019814206097,0.5341087376086898
2.8599850783387213,-0.5216256687286326,-0.08579378770989932,-0.03631161226780755,0.5298796518754915
2.8624720218851025,-0.5118672411086173,-0.09022827127103161,-0.021944553789666088,0.5202218535372517
2.864958965431484,-0.5068970947794603,-0.08987590386811162,-0.01715423275109984,0.5150889345474683
2.8674459089778654,-0.49713842547122883,-0.09910189655200607,-0.017152245915509567,0.5072100152009651
2.869932852524247,-0.4969564455084227,-0.10354104040817802,-0.02193859336778381,0.508102113418288
2.872419796070629,-0.48719754396627224,-0.09361652979901969,-0.02672487187368766,0.4968296692781577
2.87490673961701,-0.5109573530770002,-0.07411676900464181,-0.02193427487985211,0.516770572426146
2.8773936831633917,-0.5251402453001918,-0.0641953722230233,-0.03629722239660005,0.5302931372387412
2.879880626709773,-0.5249578196509161,-0.06385234032800158,-0.026718084630756422,0.529501359605755
2.8823675702561546,-0.5247752884185234,-0.05393406086942054,-0.012350474954372359,0.5276841105132969
2.884854513802536,-6.280253444939084,5.0939394214179865,-0.7066664881858848,8.117215020391564
2.8873414573489176,-4.091770392116567,4.615437441728469,-0.5199162220751141,6.189924118944242
2.8898284008952992,-2.0373625336222987,4.036377430996022,-0.3427426942941043,4.534386553146291
2.8923153444416805,-0.1792791149214694,3.3950666151220936,-0.1703575016181027,3.404062279177803
2.894802287988062,1.4585378450892965,2.701081800127845,-0.01233745078451065,3.069743922419502
2.8972892315344434,2.861723134162293,1.987941808677352,0.11216384482761832,3.4862519500709572
2.899776175080825,2.0047821455252004,6.316988949804429,-0.20865630042759697,6.630764533194949
2.9022631186272068,3.9203267665520958,5.062756255241201,0.021190003974565386,6.403195442339485
2.904750062173588,1.6124997440013011,12.01105688371169,-0.25174597253580444,12.121428089249642
2.9072370057199697,5.098640821703615,9.942792494964428,0.06429172696970475,11.17405003804888
2.909723949266351,8.07242282455651,7.8314309108892255,0.3420222674267208,11.252213097958457
2.9122108928127326,10.50990373371225,5.715279357718348,0.5670804387695068,11.976814052689269
2.914697836359114,12.372776320366786,3.6757406916081825,0.7538314508528483,12.929227562467457
2.9171847799054955,13.651463775646723,1.765487348832234,0.8926984969290253,13.794068268755984
2.919671723451877,14.345966097325435,0.003672942462521256,0.9836815768897278,14.379651810834272
2.9221586669982584,14.499378913065735,-1.5809721077481529,1.0555111105473518,14.623459418845524
2.92464561054464,14.159586253857446,-2.9501405753661176,1.0698798712287996,14.503167075977261
2.9271325540910214,13.374472150696779,-4.094255653840711,1.0411530687832276,14.025813145105245
2.929619497637403,12.220651054508782,-5.003740536580133,0.9980611230195855,13.243030527744205
2.9321064411837847,10.769949012904554,-5.683383626914991,0.9262388238628834,12.21272162747027
2.934593384730166,9.089403670181545,-6.123608118175365,0.81132096123698,10.989725982327105
2.9370803282765476,7.260417880604716,-6.3579328335349565,0.6820379549473916,9.67482059206967
2.939567271822929,5.364394498445615,-6.400722982847208,0.5527550148375706,8.369678676301147
2.9420542153693106,3.4587943613808085,-6.27592058256733,0.4186837374685801,7.178142772683794
2.944541158915692,1.6058667104134077,-5.983525632510235,0.2941893326815759,6.202252352975055
2.9470281024620735,-0.1273508101252703,-5.561845359015006,0.16011818707448455,5.565606872594249
2.949515046008455,-1.7073393791412286,-5.053975391702469,0.040412317126801156,5.3347266256928325
2.9520019895548364,-3.1005801755337155,-4.46949253691292,-0.06013987396434928,5.439997956513718
2.954488933101218,-4.263977571553432,-3.822762004269428,-0.1559035962840909,5.728814886460465
2.9569758766475993,-5.187954762687657,-3.152091019958515,-0.2373020433172055,6.0751020302180265
2.959462820193981,-5.8773001543785535,-2.4670563902066336,-0.2947584085496153,6.380901727540415
2.9619497637403627,-6.346378958700855,-1.7868117278445355,-0.33306109542917284,6.601526469801678
2.964436707286744,-6.571249161161638,-1.144875855625335,-0.3522101040846426,6.679529041802325
2.9669236508331256,-6.571064377143549,-0.5412487730233826,-0.36178224128645375,6.603235848655908
2.969410594379507,-6.384131835304071,0.01928111720371506,-0.36656591048584275,6.394676037044713
2.9718975379258885,-6.024816747692419,0.5175602023746722,-0.3474074985335758,6.056977577669783
2.9743844814722697,-5.526637939632669,0.948800079805225,-0.31867221552369607,5.616538123094369
2.9768714250186514,-4.90874902648124,1.2938471368871007,-0.2995136748716547,5.085230167853426
2.979358368565033,-4.214245640189548,1.5622781809701483,-0.28514347339241475,4.503541520959954
2.9818453121114143,-3.4862234127024103,1.7732468260810292,-0.24683119130048148,3.919066677983382
2.984332255657796,-2.729470749395542,1.9075994597199273,-0.21330724865516615,3.336831768737893
2.9868191992041773,-1.9775064755599072,1.9844896959853653,-0.17978324227468256,2.807321361824515
2.989306142750559,-1.2686378198001573,1.984763922449055,-0.12710555901738907,2.359000968379576
2.9917930862969406,-0.5932879775111983,1.927575753280708,-0.09836982890676182,2.019211611529154
2.994280029843322,0.024601032676535566,1.8416556093260037,-0.06484563216266004,1.8429610821124955
2.9967669733897035,0.546721982178322,1.707849878262682,-0.02174456560755722,1.7933568966082332
2.999253916936085,0.9826516756192937,1.5405237710456237,-0.007373855947790275,1.8272581039649471
3.0017408604824665,1.3371785143106425,1.3540424986646666,-0.007368293367331802,1.9030322538178952
3.0042278040288477,1.5815720763284877,1.1627712721441656,0.0022141385894389742,1.9630109949655041
3.0067147475752294,1.7349859729586188,0.9571332859413908,0.02137343977554096,1.981599676359473
3.009201691121611,1.8117854121730472,0.7419169445090352,0.021379190121074032,1.957923441323208
3.0116886346679923,1.8071819886694351,0.5123338456931887,0.026173406078545014,1.8785839765098975
3.014175578214374,1.7211757004724426,0.30669121725675375,0.0357560874978855,1.7486519929455344
3.0166625217607552,1.5824969655353756,0.12498906043398517,0.04533883090768498,1.5880725804398605
3.019149465307137,1.3863573785760268,-0.051926236788607305,0.05971003947614939,1.388613842655136
3.0216364088535186,1.16148735756129,-0.20968946314867853,0.06929290640952068,1.1822960964195761
3.0241233523999,0.9030984972225766,-0.33872381067102264,0.07887583487398864,0.9677510593785179
3.0266102959462815,0.6255560055793702,-0.44860608462852625,0.07888201807379502,0.7738152932435155
3.0290972394926627,0.33843668733766863,-0.5297594769798808,0.05973464921218685,0.6314687031853555
3.0315841830390444,0.0656825571712426,-0.5821839862916192,0.045375744733595624,0.587631985532682
3.0340711265854257,-0.20228319348141363,-0.6298216276992143,0.026228497839300147,0.6620284791318519
