Time (s),Acceleration x (m/s^2),Acceleration y (m/s^2),Acceleration z (m/s^2),Absolute acceleration (m/s^2)
0.0,-0.07635873804636545,0.10770541756895202,0.006074529682678076,0.13216661363824644
0.002486943546381497,-0.07198088993827928,0.10822088194221546,0.006041440703764778,0.13011343823923308
0.004973887092762994,-0.08675720162915862,0.10873713775896787,0.006008336821835769,0.13923604875857354
0.007460830639144491,-0.09674565254215711,0.12361939061423666,-0.008389991544728304,0.1572000858134741
0.009947774185525988,-0.09236943204533338,0.1337140228417124,-0.01799993073450068,0.1635100895582235
0.012434717731907486,-0.10235895605325879,0.13423262671693337,-0.013244673725839817,0.16932564880060105
0.014921661278288981,-0.11713741390207283,0.12517519781671504,-0.022854640058751485,0.17295183854568982
0.01740860482467048,-0.10797438163078482,0.12090694165983029,-0.04682982935052671,0.16873052049668852
0.019895548371051976,-0.09402346846569659,0.13100466042582015,-0.06601662793637075,0.17424359052686414
0.022382491917433474,-0.08964988029701842,0.1411031396738056,-0.04689621218972029,0.1736273359261683
0.02486943546381497,-0.09485361303829737,0.14162556826441675,-0.018199001647250412,0.17142407401994228
0.02735637901019647,-0.09526945262647007,0.1469371516411031,-0.008655415844827985,0.17533314392776586
0.029843322556577963,-0.09089739494379095,0.14267267530675687,0.0008881588856244349,0.16917038012891292
0.032330266102959464,-0.09610264581788469,0.13840894134721315,0.01522012625204816,0.16918748718856952
0.03481720964934096,-0.09651999113899018,0.1341459451891236,0.019975276681927667,0.16646397501764057
0.03730415319572246,-0.08257262010220229,0.12988368224064173,0.019942013884795884,0.1551956585111581
0.03979109674210395,-0.07341414180908895,0.1208337445711738,0.01990874157096023,0.14278230995328509
0.04227804028848545,-0.08340976202555855,0.1117845308723795,0.0007218468499399222,0.1394757713955834
0.04476498383486695,-0.07904065329910764,0.10752443981761095,-0.008888249964844164,0.13374577009938793
0.04725192738124844,-0.06988361804481186,0.10326506342135255,-0.01849835512171083,0.1260538874317569
0.04973887092762994,-0.07030386198288369,0.09900639700022129,-0.023320064907286664,0.12364758422206983
0.05222581447401144,-0.07072457421685613,0.08996003253240525,-0.018564975607436196,0.11592856063408923
0.05471275802039294,-0.0663573471555155,0.08570277193898423,-0.02817510342916485,0.11199151348556409
0.05719970156677443,-0.05720217651295961,0.08623461048243097,-0.028208431375608356,0.10725769270103096
0.059686645113155926,-0.0624126712695941,0.072401930126055,-0.009088152410114958,0.09602070368006083
0.062173588659537427,-0.07241202046906808,0.0633583393778192,-0.00433308937811816,0.09631487704755903
0.06466053220591893,-0.06804660649958388,0.06389223676696965,-0.0043664352415220264,0.09344316096919092
0.06714747575230041,-0.06368163497676987,0.06442681084410573,-0.009188189602145513,0.0910526628771598
0.06963441929868192,-0.0736823115015543,0.07453886342343585,-0.0044331421001650995,0.10490366026764729
0.07212136284506342,-0.0693182117774141,0.0798631797000362,-0.004466502296928354,0.10584465786513352
0.07460830639144492,-0.055377734735437556,0.0851881581327314,-0.014076673112466409,0.1025761595907693
0.0770952499378264,-0.06537969921407288,0.09530219716291777,-0.018898444184880958,0.11710749355191304
0.0795821934842079,-0.06580527755294246,0.10541688857400722,-0.018931815112534167,0.1257038924373451
0.0820691370305894,-0.061442868639780046,0.10595542081181364,-0.023753592133742174,0.12476381865488871
0.0845560805769709,-0.06665767798861982,0.09691778894556302,-0.023786968204904113,0.12000884844590563
0.0870430241233524,-0.07187289449767337,0.10224600462890399,-0.04297395952395,0.13216171769167362
0.0895299676697339,-0.0770885136915817,0.10757485293591884,-0.057372549085025426,0.14424492128278
0.0920169112161154,-0.08230453108085606,0.10811592556432448,-0.04782912320194477,0.14405108199294084
0.09450385476249688,-0.08752094216194178,0.1038692175152307,-0.0382856980706876,0.14111883056807167
0.09699079830887838,-0.08794933909697461,0.09962312709321663,-0.0478958865662964,0.14125816666443522
0.09947774185525989,-0.08358971735447046,0.10016605258609612,-0.03835246171943396,0.13598305136310732
0.10196468540164137,-0.08880728235001684,0.09113277898374328,-0.014443826442960273,0.12806459669248862
0.10445162894802287,-0.0940252228838418,0.0964653178219157,-0.004900400250679837,0.13479730710758356
0.10693857249440437,-0.09445513106275649,0.1017984540573349,-0.004933779413597961,0.13895696892148976
0.10942551604078588,-0.09009700230022355,0.10234377927088856,-0.004967156881814816,0.13644189835392723
0.11191245958716736,-0.09531604195705001,0.10767809498801961,-0.009788935565776313,0.14413723756933186
0.11439940313354886,-0.09574703545864593,0.103436186116308,-0.0002455017737776899,0.1409489257444967
0.11688634667993036,-0.09138997817790595,0.10877166078929834,0.014086338264588605,0.142764936969568
0.11937329022631185,-0.09182167211496661,0.10931930388220268,0.028418181640605056,0.14556621420864194
0.12186023377269335,-0.09704211261602758,0.10986751353542212,0.028384818805507805,0.1493108840308015
0.12434717731907485,-0.10226289169373515,0.11520468787337546,0.03792826677358363,0.15864543027145342
0.12683412086545634,-0.10748400466787789,0.11096561172333397,0.042683315997178894,0.16027490043388934
0.12932106441183785,-0.11270544684514738,0.10672708649831497,0.023496353608868148,0.15698811220565753
0.13180800795821934,-0.10835040687858555,0.10727751027529164,0.013886203265203179,0.15310487099613415
0.13429495150460083,-0.10878409000984413,0.09825166783433481,0.013852865381073443,0.14723882080064507
0.13678189505098234,-0.10442968486613446,0.09880316718213678,0.013819533731274092,0.14442508244419058
0.13926883859736383,-0.11444079998373702,0.09935519638803214,0.02336301537236274,0.15334269541621928
0.14175578214374532,-0.1100870106830778,0.09511934682626988,0.018541294119225782,0.1466649912194725
0.14424272569012683,-0.10094511883442614,0.09088401649640909,0.004142773709119751,0.13589328182445573
0.14672966923650832,-0.10138032961578292,0.08664920006247145,-0.00546733547957956,0.1334763906528689
0.14921661278288983,-0.10181583159108137,0.08241489217333875,-0.019865839669559904,0.13248897916545044
0.15170355632927132,-0.10704002327276324,0.08296949078315041,-0.034264335122108136,0.1396980588426665
0.1541904998756528,-0.10747609319997958,0.08352458719045597,-0.01993240149647235,0.13756732135315913
0.15667744342203432,-0.1079124398605435,0.08408017599923934,0.0039763483454358095,0.13685898589015896
0.1591643869684158,-0.108349058409757,0.0942130584393186,-0.015210521700034008,0.14438482887463835
0.1616513305147973,-0.09920913735017606,0.10913482576487166,-0.029608978009511233,0.15043122916224114
0.1641382740611788,-0.09485788177387683,0.11448026257484001,-0.020065406881066394,0.15002122785504007
0.1666252176075603,-0.1000836901203464,0.11982617005520746,-0.01531022781545488,0.15687402313310558
0.1691121611539418,-0.09573294421562434,0.13474934937752403,-0.015343440391131224,0.16600483405278918
0.1715991047003233,-0.0913824457958195,0.1353077784568133,-0.020165044186128966,0.16451618557932984
0.1740860482467048,-0.0918205932650028,0.14544346839697297,-0.015409828817137594,0.17269130456120782
0.1765729917930863,-0.0970473816952867,0.1555796070455555,-0.005866197181688904,0.18346013379406054
0.1790599353394678,-0.08790919286597043,0.15613938223604684,-0.0011109554972339453,0.1791891935846511
0.18154687888584928,-0.0931364417479924,0.15669959506921316,0.0036442999800918585,0.18232509645870876
0.1840338224322308,-0.09357551009776599,0.15247183667100295,0.0036111663539060146,0.1789331651492302
0.18652076597861228,-0.09880319958225836,0.1482445047942047,0.008366450689138105,0.17834938448591386
0.18900770952499377,-0.0992426985759497,0.14401759385760338,0.01791015341045643,0.1758151135606848
0.19149465307137528,-0.09968240540310214,0.13979109826638592,0.013088661661628365,0.17219014537877408
0.19398159661775677,-0.10012231505659414,0.1307766090919289,0.008267185828948698,0.16491011436356912
0.19646854016413826,-0.10056242251831576,0.12176252403282595,0.013022532978739676,0.15845661692330534
0.19895548371051977,-0.09621431943894093,0.12711404741498766,0.0034126869354622613,0.15945790274375798
0.20144242725690126,-0.10144321073957291,0.12767756030892352,-0.010985545233911154,0.16344101876725595
0.20392937080328274,-0.09709547808839442,0.12345305705327769,-0.011018549821468326,0.15744712636685973
0.20641631434966426,-0.1023247297054371,0.11922893529398859,-0.0014747297205577325,0.15712435886385528
0.20890325789604575,-0.10755415387829448,0.11500518934375936,0.008069108855451645,0.15766800598152728
0.21139020144242726,-0.10799534220439522,0.11557021682278457,0.012824563013795753,0.158694481223528
0.21387714498880875,-0.1132250962317134,0.11613560869790707,0.012791633182301254,0.16269919453944662
0.21636408853519024,-0.11366660421666963,0.11191295592334471,0.012758723109387304,0.1600230971860985
0.21885103208157175,-0.1093198610460916,0.11247905940172709,0.012725833223422356,0.15736682513879596
0.22133797562795324,-0.1049732649169906,0.12262231670294721,0.003116157312405221,0.1614476055484448
0.22382491917433472,-0.11020361733664868,0.12318910878301015,-0.025647110835413045,0.16726675728021623
0.22631186272071624,-0.12022250984145727,0.1285446398278851,-0.05441035750965817,0.18422177750035096
0.22879880626709773,-0.11587632399700604,0.12911209740985763,-0.068808372320035,0.18663292384240313
0.2312857498134792,-0.11153026460129706,0.12967987905013212,-0.07841796147758195,0.18816282213761507
0.23377269335986073,-0.11676113312233405,0.11588276897674676,-0.07366231791186095,0.18024459890348324
0.23625963690624222,-0.11241531109665004,0.11166277796842694,-0.06411824783346987,0.170929599127293
0.2387465804526237,-0.11285800329345996,0.11223149687031464,-0.05457415413247624,0.1682592526323986
0.24123352399900522,-0.10851239787100131,0.10322370987531926,-0.0546068430190676,0.15941136119062424
0.2437204675453867,-0.11374369957974995,0.09900462108672281,-0.0498511041016787,0.15882278416767026
0.24620741109176822,-0.104609886598449,0.08999741799484617,-0.035518533629177895,0.14249326247597274
0.2486943546381497,-0.10505297029982569,0.10014411132090606,-0.02118593781120026,0.1466758792781217
0.2511812981845312,-0.1054961388053714,0.10071427525149312,0.007511893744361231,0.14604529807529676
0.2536682417309127,-0.11072779018855883,0.10128471052461618,0.0266329448672753,0.15240915280389208
0.2561551852772942,-0.10159430591243512,0.116220621187622,0.031388812668714294,0.1575242627147254
0.2586421288236757,-0.09724929399377702,0.13594519467542687,0.026567900900618113,0.16924649035029604
0.26112907237005717,-0.09290434583912266,0.1460932150918719,0.012170209994748049,0.17355851746022585
0.2636160159164387,-0.08855945616674071,0.14666467649108306,-0.002227452976390154,0.17134254040822713
0.2661029594628202,-0.08421461968641136,0.16160158951820192,-0.007048280940168183,0.1823646187393483
0.26858990300920166,-0.08465823441983406,0.17653873824543087,-0.0022922734644748033,0.19580142306430837
0.2710768465555832,-0.08989029506009649,0.18668771337526557,0.012040569882900698,0.20755130159645238
0.2735637901019647,-0.09991079629208388,0.19204850892029457,0.021585039573322362,0.21755622475031286
0.27605073364834615,-0.10035452283163582,0.1974095222033072,0.03591794267981285,0.22434716025760984
0.27853767719472766,-0.09600987266783101,0.19798234389646607,0.03588566635359669,0.22294099038551285
0.2810246207411092,-0.09645364710214438,0.19376696798235615,0.031065017667843975,0.21866407853848308
0.28351156428749064,-0.10168584078760773,0.19434019507440725,0.021455997055168652,0.22038257972869085
0.28599850783387215,-0.11170644836953009,0.19012521249512915,0.007058604948230851,0.2206258165706536
0.28848545138025367,-0.11693865784497193,0.18112201419809715,-0.007338754899951283,0.21571669163335663
0.2909723949266352,-0.11259406052377985,0.1816958040883776,-0.016947678736311644,0.21442483882028202
0.29345933847301664,-0.1226146676302447,0.17748136613982668,-0.007402956167144481,0.21584437867349535
0.29594628201939815,-0.12305845717820357,0.16369029095770626,0.002141799959098023,0.20479863901882522
0.29843322556577967,-0.11871382709613626,0.15947618573972955,0.006898186754895619,0.19893016750208972
0.30092016911216113,-0.12394598194601425,0.1552622377527415,0.01165460797336415,0.19900954449363306
0.30340711265854264,-0.13875491632183745,0.1510484408953272,0.006834257406666211,0.20522004135729494
0.30589405620492416,-0.1344102048887984,0.14204638573699047,0.011590748768837145,0.1959020784377056
0.3083809997513056,-0.13006545550837906,0.1378328727995184,-0.007594740749556905,0.18966445008968688
0.31086794329768713,-0.1305090660743901,0.1479847025961578,-0.03635700075483861,0.200633795842002
0.31335488684406865,-0.1309526278333838,0.13898304574891895,-0.0363888042518159,0.19439398863388702
0.3158418303904501,-0.1457613453066281,0.1299815093949399,-0.026843764089083066,0.19713485293233987
0.3183287739368316,-0.14620479312614826,0.12576849070222584,-0.03166389643559242,0.19543837167777364
0.32081571748321314,-0.14664817580045025,0.126343983510393,-0.04127239421818096,0.1979189231967857
0.3233026610295946,-0.147091487870874,0.12691957833078193,-0.05088085368407036,0.2008316370479281
0.3257896045759761,-0.14274632055231962,0.1131300590262625,-0.060489274400875814,0.1919215324137854
0.3282765481223576,-0.13840107169428745,0.11370583933478562,-0.07009765593630313,0.1923474874094271
0.3307634916687391,-0.13884413914035526,0.11428170310387786,-0.06055238457689782,0.18974876525526524
0.3332504352151206,-0.13928711408765582,0.11006924081419633,-0.04621866985150902,0.18344564145033257
0.3357373787615021,-0.13494158772760523,0.11543365622027002,-0.05103852792971608,0.1847676714689528
0.3382243223078836,-0.12101915124600643,0.12079813646780613,-0.05585834509842158,0.17988323840628634
0.3407112658542651,-0.12146181574502718,0.126162675335995,-0.031947701004032325,0.17801867579402353
0.3431982094006466,-0.12190436575892927,0.1315272665970073,-0.036767435058713716,0.18306266831433374
0.34568515294702806,-0.12234679577760987,0.1464687106567375,-0.027221916948214187,0.1927766956891593
0.3481720964934096,-0.11800069696545629,0.1566217913127308,-0.0033111462412414028,0.19612626975439298
0.3506590400397911,-0.10886606380207436,0.17635171227774338,-0.008130752389485352,0.2074074622704507
0.3531459835861726,-0.09973129408239467,0.1721396440548637,0.00141489492081881,0.19894820934685797
0.35563292713255407,-0.10974999555740012,0.17750440362513142,0.0013837795188695878,0.208697843009744
0.3581198706789356,-0.10540333944986108,0.19244598472109242,-0.003435694844441173,0.2194473171435862
0.3606068142253171,-0.09147972354037315,0.21217597774880037,-0.008255124418427684,0.2312040925932027
0.36309375777169856,-0.09670956220652804,0.2079639565066853,0.0012907011880134434,0.22935433838855013
0.36558070131808007,-0.10672763993864492,0.21332873795129625,0.015624975764200855,0.23904827845102278
0.3680676448644616,-0.10716874122268916,0.2234819124708629,0.025170893099234704,0.24912422233958553
0.37055458841084304,-0.1028212638216287,0.22884666712760326,0.049082066903858745,0.2556404870924085
0.37304153195722456,-0.11762721877553767,0.2246345922984725,0.07778169096670062,0.26522981375329674
0.3755284755036061,-0.11806777727670881,0.22521089163621877,0.07296253915426476,0.2645439053587907
0.37801541904998753,-0.11371974039631838,0.22578715550700856,0.0537782251765524,0.25846492305706026
0.38050236259636905,-0.11894831252203492,0.22157497427179518,0.0250171527823575,0.2527252029551509
0.38298930614275056,-0.11938827811594044,0.22693955156769707,-0.003743870959478812,0.25645494260590457
0.385476249689132,-0.12461643823807417,0.23230407442530376,-0.02292803898040141,0.2646131792734966
0.38796319323551354,-0.13463278730435463,0.21851492322973964,-0.03253535085277548,0.25871472348235575
0.39045013678189505,-0.1398605130866858,0.21430251156453606,-0.04693101611020012,0.2601711933648208
0.3929370803282765,-0.1402996099943174,0.2053016231258158,-0.061326631005321985,0.2561126562532883
0.395424023874658,-0.14552687907395168,0.19151225156616647,-0.05178017850986549,0.2460410573856744
0.39791096742103954,-0.1507539114082902,0.19208800381508073,-0.04702207811930492,0.24866768757765673
0.400397910967421,-0.15119229807707985,0.18308685691501214,-0.042263926087263926,0.24117659011843665
0.4028848545138025,-0.15163043679784782,0.15972040118556619,-0.0375057219880226,0.22340339097745845
0.40537179806018403,-0.15206832196507275,0.1507190501845601,-0.04232427203683464,0.21824836915142565
0.4078587416065655,-0.16208275461123056,0.14650599090346406,-0.05671957580867826,0.2257253530130957
0.410345685152947,-0.1625201158444064,0.1183507970487736,-0.07111482623828103,0.21325341199394718
0.4128326286993285,-0.15338040005152703,0.1045606888077586,-0.06635640962012168,0.19713360409020272
0.41531957224571003,-0.16339402153909688,0.10992406312202885,-0.052021132170938955,0.2036838337235455
0.4178065157920915,-0.16861895808799493,0.10092209036734268,-0.02332059014692156,0.19789257508960706
0.420293459338473,-0.16426680075827338,0.08713157079904477,-0.01377360636715963,0.18645429652766035
0.4227804028848545,-0.1599143505689537,0.08291770798969766,-0.0329569870495785,0.18312320664389067
0.425267346431236,-0.16035000521688847,0.09306889886826264,-0.028198295248467176,0.18753423144729278
0.4277542899776175,-7.692943778608122,1.7983147024702308,0.7905890173095962,7.939795384280161
0.430241233523999,-6.36220269636575,0.678402378023637,0.7283101756554036,6.439587614755696
0.43272817707038047,-4.993154072197497,-0.3648956687615401,0.6420893745458738,5.047476122052298
0.435215120616762,-3.6145283203953684,-1.3028490243654856,0.5845990509249646,3.886384773741868
0.4377020641631435,-2.259844258570377,-2.0827852586691322,0.5223203819705429,3.117324026812868
0.44018900770952496,-0.953043897691991,-2.7238579913601764,0.4408881581412807,2.91925973425008
0.4426759512559065,0.2723539446310496,-3.211702018886364,0.35945599313754784,3.2432106222503245
0.445162894802288,1.3971956607518412,-3.527163734377041,0.2540818707764281,3.8023147319212827
0.44764983834866945,2.3927508363836827,-3.6702431442446266,0.1534962113979521,4.384005290804634
0.45013678189505096,3.254231073842145,-3.655305464864197,0.06248741874009234,4.894403191496044
0.4526237254414325,3.9576943621622402,-3.5110811225733594,-0.018944506779998704,5.290689388720426
0.45511066898781394,4.512717513621713,-3.2519353337502146,-0.08601116142538068,5.563011836454332
0.45759761253419545,4.914512130537711,-2.8874449114539167,-0.13392414145961062,5.701552707249941
0.46008455608057697,5.167866621868355,-2.4367634753854253,-0.1626834464671223,5.715866300058804
0.4625714996269584,5.2727809932516285,-1.9238330485671065,-0.20580789927505272,5.616556764865699
0.46505844317333994,5.24362046028653,-1.391749267303477,-0.22977867622672754,5.430038654984308
0.46754538671972146,5.080385028611082,-0.8500889446577593,-0.24896098686915025,5.157028681881441
0.4700323302661029,4.802228317144425,-0.3036404903735215,-0.2777200407498679,4.819826011217848
0.47251927381248443,4.4283039448054,0.19971205592232355,-0.28253701421387767,4.441800073985847
0.47500621735886595,3.9681887238719096,0.650391881164857,-0.29214232677081675,4.031733930511834
0.4774931609052474,3.4506130799025962,1.0675525922107556,-0.27780555808716834,3.6226475252824293
0.4799801044516289,2.8851538251742337,1.4176753593930904,-0.2443151110721935,3.223911582696718
0.48246704799801043,2.2909645786035377,1.686394966326103,-0.21082459859669989,2.852524091789509
0.48495399154439195,1.691987362426747,1.8737114065850364,-0.1964876335321062,2.5322367701124913
0.4874409350907734,1.0786453756369578,1.9796246737453447,-0.17257379554731855,2.2610111477376584
0.4899278786371549,0.47966904378869735,2.0089231647031216,-0.14865989087437725,2.0707376551375964
0.49241482218353644,-0.08099961088494245,1.980760486315842,-0.12953432242563778,1.9866434460667448
0.4949017657299179,-0.5985721794333512,1.885559825519696,-0.1008318798328478,1.9808562738361621
0.4973887092762994,-1.0634718495870517,1.728109579212512,-0.07691777265028854,2.0305790889250366
0.4998756528226809,-1.4709102123983357,1.5371401608945172,-0.04342679051102749,2.127971478499331
0.5023625963690624,-1.8113104556007331,1.317439967465381,-0.014724142970683474,2.239801427544402
0.5048495399154439,-2.0894609768905146,1.0737973958258098,0.013978573695702323,2.349272955991517
0.5073364834618254,-2.314938577286025,0.8062124395574597,0.06183497317332787,2.4520894515110134
0.5098234270082069,-2.4685896378856858,0.5577807221261404,0.08096102266233807,2.5321154834333033
0.5123103705545884,-2.545625749750904,0.31892543047570543,0.07614512588560451,2.566655794647015
0.5147973141009698,-2.555623713906183,0.0848581548719296,0.0665408965262202,2.5578978017970955
0.5172842576473514,-2.5225255413392347,-0.1252674978161128,0.06172514162593323,2.5263881423539516
0.5197712011937329,-2.4176008065167176,-0.30187472735810505,0.06169786158513624,2.4371558499226085
0.5222581447401143,-2.2695799237515377,-0.44017513684204657,0.05209384684255447,2.3124577726455473
0.5247450882864959,-2.092828097398269,-0.5545339426350611,0.042489904437736925,2.165465938492954
0.5272320318328774,-1.8825569185329565,-0.625797537859831,0.047251244729805464,1.9844081712279464
0.5297189753792588,-1.6483431881954171,-0.6587543322382201,0.03285904487399627,1.7754076301353687
0.5322059189256404,-1.3901869007877883,-0.6534043321692666,0.018466918548231348,1.5361959079167566
0.5346928624720219,-1.1128764540355776,-0.6289011573306169,0.01844007610934284,1.2784172652328771
0.5371798060184033,-0.8499306655893385,-0.5804564107955841,0.02799011463213219,1.0296092596999833
0.5396667495647849,-0.5774075132591585,-0.49849329231427064,0.032751824549988484,0.763523202569378
0.5421536931111663,-0.3192490080616462,-0.39737701823531335,0.03272520625643338,0.5107830879095937
0.5446406366575478,-0.0850319510559816,-0.2962612082245033,0.027910260144190957,0.30948363255646616
0.5471275802039294,0.12045526001534568,-0.18078065870215587,0.003941776644239781,0.2172709226501857
0.5496145237503108,0.3163662440076738,-0.05093537604610621,-0.0008730172898374633,0.320441531390158
0.5521014672966923,0.493124199850618,0.06933261676779656,-0.0008993312287230992,0.49797519719644806
0.5545884108430739,0.626787116508896,0.1943885233298781,-0.00571397142362251,0.65626338987737
0.5570753543894553,0.7365086128259644,0.3050787239920849,-0.015316937485959414,0.7973409391053576
0.5595622979358368,0.8222886943598433,0.3918264057509231,-0.02970822902801551,0.9113556978412347
0.5620492414822184,0.8697621567033165,0.47378517552884025,-0.04888784566294113,0.9916393614806049
0.5645361850285998,0.8885058120463174,0.5413782203306083,-0.04412536708287362,1.0413836965828787
0.5670231285749813,0.8833080692539412,0.5898171304856379,-0.03457440618395147,1.0626912920441243
0.5695100721213628,0.8493805305460198,0.6191018996481086,-0.03938857586319422,1.0518012681714477
0.5719970156677443,0.7915116047782573,0.624444118156473,-0.039414262456018534,1.0089472539651512
0.5744839592141259,0.7192781041218019,0.624997392955462,-0.034651465579988994,0.9535111201957841
0.5769709027605073,0.6326800341022132,0.615973314393091,-0.049042201455142376,0.8843711252181146
0.5794578463068888,0.5365058035602488,0.5877950695020382,-0.049067646458681224,0.7973387955654285
0.5819447898532704,0.4259670146908466,0.5452510552810255,-0.04430460685154536,0.6933321780200121
0.5844317333996518,0.3058520763242679,0.5027064753746422,-0.04432988889560541,0.5901054414466607
0.5869186769460333,0.1905262039259354,0.4505845168312739,-0.04435508889273443,0.4912168717594928
0.5894056204924149,0.07520099967449345,0.39367357666574554,-0.039591803145754056,0.40274258055633494
0.5918925640387963,-0.044911934257056085,0.3463388585391427,-0.030040031278751655,0.3505283016421567
0.5943795075851778,-0.15065897909995202,0.2894267428761097,-0.03485338619802647,0.3281474150511966
0.5968664511315593,-0.24682853269286303,0.23730243334937118,-0.03008985092804295,0.3437181527846854
0.5993533946779408,-0.3334205895601326,0.1947543269970522,-0.01096102177549163,0.38628833974773813
0.6018403382243223,-0.42958875751348913,0.1474172075821647,-0.010985721610547117,0.4543115888381132
0.6043272817707038,-0.501814207847435,0.10486787547556764,-0.0062219334606226084,0.5126923862905478
0.6068142253170853,-0.5500969351049934,0.07668313105453262,-0.015823270236948517,0.5556413559853383
0.6093011688634667,-0.5935905471169012,0.04849775810129797,-0.02063611828925893,0.5959258507108434
0.6117881124098483,-0.6179298284782648,0.0298885570063403,-0.03023728389018565,0.6193907426658513
0.6142750559562298,-0.6279031770721213,0.035220731487247914,-0.04462676667276,0.6304716076140348
0.6167619995026112,-0.633087394108611,0.030975452065409304,-0.044650952989801596,0.635415482037372
0.6192489430489928,-0.6334824741641559,0.04109472911302703,-0.015944632515477508,0.6350142149118138
0.6217358865953743,-0.6195116051815712,0.05600174976730532,-0.006391838089063739,0.6220704787448152
0.6242228301417557,-0.5863863784311169,0.07569650781339465,0.0031610439334812668,0.591260465703106
0.6267097736881373,-0.5436835951512347,0.09539059372358505,0.012714013913880606,0.5521348233514275
0.6291967172345188,-0.5057684599080394,0.11508400129805807,0.007901862251847191,0.5187566884576705
0.6316836607809002,-0.4534873540329301,0.1491419343056437,0.00787820258820382,0.47744754990704247
0.6341706043272818,-0.4012054821070791,0.17362236996050928,0.00306622864081163,0.43717269812003984
0.6366575478736632,-0.3537112420787338,0.1933137054066707,-0.016110865873560698,0.4034121855746719
0.6391444914200447,-0.3014278219430161,0.22258114443686638,-0.02571106399705947,0.3755824230605003
0.6416314349664263,-0.24914361966391224,0.24705947093019098,-0.02094596205419741,0.3514963139521066
0.6441183785128077,-0.1968586298931348,0.2715370820553473,-0.01618076965184123,0.33577898147600094
0.6466053220591892,-0.1493612506108617,0.28643716502859107,-0.011415486437050149,0.3232419311046316
0.6490922656055708,-0.11143987980553749,0.296548117035734,-0.016226918698640347,0.31721120002131753
0.6515792091519522,-0.06394089887242366,0.3018699319510274,-0.0114614528046868,0.30878027667764907
0.6540661526983337,-0.030806319098086954,0.3024026036575984,-0.011484298366594814,0.3041845707859632
0.6565530962447153,-0.012036135176137996,0.3029345293678971,-0.021083858356307772,0.30390578592142076
0.6590400397910967,0.006734868152031226,0.3034657029831975,-0.025894922465676373,0.3046429686462744
0.6615269833374782,0.03029509949557041,0.2944193117734164,-0.025917490348652095,0.29710644642038847
0.6640139268838597,0.04427935417343315,0.28537215629911783,-0.01636315834004165,0.28925020613248614
0.6665008704302412,0.04389923413613944,0.2763242304897644,-0.0020203294164495844,0.2797968992759766
0.6689878139766227,0.03873155128597444,0.2672755282844763,-0.016407826477557563,0.2705652561850498
0.6714747575230042,0.03356471419562562,0.2534376403118457,-0.026006825939859368,0.2569700032325498
0.6739617010693857,0.00924511482682,0.24917577049162887,-0.035605730783556666,0.2518765666212105
0.6764486446157671,-0.010285224985413843,0.2497015094723749,-0.0308393307088064,0.25180884417420735
0.6789355881621487,-0.020237896696921776,0.24064964127218014,-0.030861238659168677,0.24346301230109355
0.6814225317085302,-0.0349781050545368,0.22680856320069154,-0.026094647657558312,0.23096866196681404
0.6839094752549116,-0.06887105481494166,0.2177550758982969,-0.0069627507281264656,0.22849283395436665
0.6863964188012932,-0.09797472418228115,0.21827757669562908,-0.01656117741969787,0.23982998074518752
0.6888833623476747,-0.11750070465202572,0.21879925297306801,-0.016582700837028952,0.24890663844571442
0.6913703058940561,-0.1466026043313956,0.21453169544212036,-0.02139253060956925,0.26071787877301356
0.6938572494404377,-0.17091520809572447,0.2054748981455483,-0.030990666407088696,0.2690582902099166
0.6963441929868192,-0.195226914112009,0.20599406509811935,-0.03101189793968473,0.28549753179873094
0.6988311365332006,-0.2051725072765216,0.2017239804039228,-0.021456224879665697,0.28852849356384774
0.7013180800795822,-0.22469399905867182,0.19745304145962095,-0.021477260181869795,0.29989393041466
0.7038050236259636,-0.25379138433705745,0.19796964567332997,-0.016709793560233166,0.3223061658928812
0.7062919671723452,-0.2780994480402007,0.2032737871444339,-0.0023654213705963656,0.3444780555544364
0.7087789107187267,-0.2784645717872858,0.21336545998402023,-0.007174563212297258,0.3508829029920897
0.7112658542651081,-0.2884055737320209,0.22345625499470367,-0.007195202162533221,0.3649140224629822
0.7137527978114897,-0.30792244879712505,0.22875776299105643,0.002361065418924113,0.38360386237863
0.7162397413578712,-0.30828477199475224,0.23884678476067478,0.011917433210049566,0.3901657499687594
0.7187266849042526,-0.30864615155160374,0.234569701181496,0.011897094887496351,0.38784911041119324
0.7212136284506342,-0.30421817910435145,0.23029171638598278,0.021453664048452836,0.38215603466996706
0.7237005719970157,-0.2997892529419377,0.23558963119875376,0.03101033436689349,0.38254112373102644
0.7261875155433971,-0.2905709647244347,0.26004024645701795,0.016625089554503703,0.3902932345314361
0.7286744590897787,-0.28135171276440807,0.26533632980757993,0.0166051564856744,0.3870889890104555
0.7311614026361601,-0.2817082987067139,0.26584308543352186,0.021373728830305083,0.38792905010730677
0.7336483461825416,-0.2581218943254853,0.2663489108902688,0.011777193616303805,0.37108941907858983
0.7361352897289232,-0.24889972121174375,0.2668538004260248,0.006969164432700126,0.36498026148544865
0.7386222332753046,-0.24925337108600937,0.25778094166158727,-0.0026271650547240455,0.35858772828681595
0.7411091768216861,-0.22566401575934952,0.25828394215296946,-0.026588601181584792,0.3440084250356491
0.7435961203680677,-13.4180668309615,2.490181936813355,0.806574260652603,13.670994316308086
0.7460830639144491,-10.909294160404043,1.4420226982650162,0.7730362254375489,11.031306067115354
0.7485700074608306,-8.362213259920013,0.4656885450420969,0.7347098911302972,8.407334598402173
0.7510569510072121,-5.834284964457313,-0.42445531856504504,0.6724416447489912,5.88822733337832
0.7535438945535936,-3.421277335539215,-1.2379857048537013,0.576654679950968,3.6837858015913167
0.7560308380999751,-1.1998048214208206,-1.9413837962242675,0.480867820274959,2.332324272978092
0.7585177816463566,0.8014021628326999,-2.505919178383245,0.3755042593754432,2.6576079101310235
0.7610047251927381,2.544036395502251,-2.941168663585306,0.2653524008663961,3.8978206969974676
0.7634916687391196,3.99936746149595,-3.2519206607503595,0.1599890516806628,5.157084890957806
0.7659786122855011,5.162606962309956,-3.423809965502489,0.05941421210900266,6.195039578224333
0.7684655558318826,6.033754902747115,-3.471201793372958,-0.0267953109186454,6.961045762342589
0.770952499378264,6.598446077635595,-3.4036729565579003,-0.10821632375506951,7.4253748058529165
0.7734394429246456,6.9045645249537815,-3.23080026723851,-0.18963722943419725,7.625420901486432
0.7759263864710271,6.956898652783294,-2.97652574754186,-0.24711601106956316,7.570945166477206
0.7784133300174085,6.774602079152632,-2.6600030162595325,-0.28544107169804533,7.28370276595504
0.7809002735637901,6.395982035357371,-2.276443675566244,-0.34291963760019506,6.797674299530069
0.7833872171101716,5.8641341559991265,-1.830636134261919,-0.386032885253373,6.155348848287809
0.785874160656553,5.203000462383882,-1.3752528343340695,-0.3908387977770591,5.395858517025682
0.7883611042029346,4.450888185764068,-0.9294473945123642,-0.3956446014562971,4.5640785216735145
0.790848047749316,3.6461045573775177,-0.45970099698725786,-0.3956618926948323,3.6962077570519543
0.7933349912956975,2.8125915984864287,-0.018686083698935985,-0.3717370579369881,2.8371128123224314
0.7958219348420791,1.9790797336585024,0.3888089366315506,-0.3286585002301763,2.0435130024435653
0.7983088783884605,1.17908779076684,0.7627840586195971,-0.2999450425452057,1.4359855733840288
0.800795821934842,0.4126157744273383,1.0984508735765317,-0.2568662646903608,1.2011770797444048
0.8032827654812236,-0.2676638742357905,1.371867359548797,-0.21378737635828315,1.413990468163226
0.805769709027605,-0.8617511506369986,1.592610317841506,-0.18507358724315637,1.8202403420467486
0.8082566525739865,-1.3840112601670054,1.7606797431357402,-0.1467828804782183,2.2443318694344385
0.8107435961203681,-1.8009253750288403,1.8569220168480447,-0.10849206244045817,2.589065876081635
0.8132305396667495,-2.1220702973238827,1.910067553614922,-0.07020113286780116,2.8559531868034336
0.815717483213131,-2.347446022528529,1.9105395415273185,-0.02712168817942029,3.0267804271856473
0.8182044267595125,-2.4770525461349187,1.8439727653729276,0.01595786856330328,3.088086710136172
0.820691370305894,-2.5204666702916634,1.7534628498003695,0.05903753761772634,3.070972098949963
0.8231783138522755,-2.4920536004836387,1.6198561763114894,0.11169412588024663,2.97434711447304
0.825665257398657,-2.401390138891458,1.447941143027101,0.1356204070425271,2.807418929843237
0.8281522009450385,-2.258053087711888,1.2760249713277245,0.12602797803683252,2.5967145637565103
0.8306391444914201,-2.0620424425173165,1.0801656394474448,0.13558927563756207,2.331772136177462
0.8331260880378015,-1.8277234088574676,0.8890935621615643,0.1355738801721973,2.0370175498870027
0.835613031584183,-1.5646727889781464,0.688443524380379,0.12119338856816775,1.7137220487181004
0.8380999751305646,-1.2968325951026847,0.4830039243134321,0.11160141435284032,1.388352421508492
0.840586918676946,-1.024202822869549,0.3015051767899357,0.10679795777071455,1.0729876969420844
0.8430738622233275,-0.7467834679338925,0.12958206677443806,0.1019946157443421,0.7647744514886347
0.845560805769709,-0.49809334920995396,-0.01361179750798902,0.0924029851946333,0.5067746809297672
0.8480477493160905,-0.26855565574614726,-0.14723003437634086,0.09238827632210977,0.31989750992696425
0.850534692862472,-0.05817038324850915,-0.256907438888927,0.07322006944282933,0.2733978862627854
0.8530216364088535,0.12348566591910606,-0.3378556127260197,0.05405197807431783,0.3637536818668724
0.855508579955235,0.27641249601619533,-0.39965136751006747,0.03009559913088644,0.48685811957244507
0.8579955235016165,0.3958217079646278,-0.44229470820405004,0.010927739486110255,0.593648758856293
0.860482467047998,0.4721364993484818,-0.4418436231503975,0.006125206011905249,0.6466654308716353
0.8629694105943795,0.5292988909764667,-0.42224013387558834,-0.013042420983980563,0.6772105665074309
0.8654563541407609,0.5577320803974706,-0.39306105192596696,-0.022633124672038818,0.6826963617729762
0.8679432976871425,0.5622244751035594,-0.33515276890670287,-0.02743530814633388,0.655115589071415
0.870430241233524,0.5379876759283366,-0.2676689029660684,-0.0370257778229206,0.6020367840001338
0.8729171847799054,0.4850216870077697,-0.19060945895155257,-0.051404533478921266,0.5236606045635398
0.875404128326287,0.42726852906135193,-0.09918603837071283,-0.07535997821346285,0.44505661712894623
0.8778910718726685,0.35515139954826624,-0.012552259312951008,-0.08495009520550845,0.36538554225691083
0.8803780154190499,0.268670302550071,0.06929187343344312,-0.09454009419821396,0.2931261240614186
0.8828649589654315,0.18219045209094845,0.160711565061046,-0.09934157165519686,0.2624696474573767
0.885351902511813,0.09571185221571976,0.24255319754030502,-0.09935452736211126,0.27904145641631556
0.8878388460581944,0.009234506950689614,0.3243935727836984,-0.08979055778601541,0.3367177014199264
0.890325789604576,-0.07724157969644851,0.3870790728020954,-0.08501487267693264,0.4037623048423512
0.8928127331509574,-0.15892800041639332,0.44018649954860667,-0.08023906850538154,0.47482688615517543
0.8952996766973389,-0.22624794459833064,0.4885042516765057,-0.07067474174361976,0.5429727944027394
0.8977866202437205,-0.29356661825190133,0.5272439212190165,-0.05632189218595762,0.6060855280846662
0.9002735637901019,-0.35130721080417054,0.5564055035503563,-0.05633413290970246,0.6604372606650987
0.9027605073364834,-0.38989291170128215,0.5664121874249037,-0.0611346570720368,0.6903453447034199
0.905247450882865,-0.42847733033042745,0.5764175815397956,-0.051569851191278104,0.7200760379759681
0.9077343944292464,-0.4622720594964994,0.5768448746912846,-0.018062908428122526,0.7394401497819967
0.9102213379756279,-0.4721234820628095,0.5724824656576541,-0.013286265109096362,0.7421679598589045
0.9127082815220094,-0.4723968041543061,0.5441767366368166,-0.022874711078111787,0.7209787192967656
0.9151952250683909,-0.46788042527484924,0.511081296410481,-0.0037326162589934597,0.6929142200302492
0.9176821686147724,-0.45378593830730923,0.477984543820821,0.01062119629765057,0.6591689553884017
0.9201691121611539,-0.43490174279489874,0.44967487773149983,0.005821516820683215,0.6256044370102989
0.9226560557075354,-0.4160162383006413,0.4117870837465274,0.001021958779364951,0.5853538735414948
0.9251429992539169,-0.39712942108715404,0.3738979640931803,0.005799329000543807,0.5454769443916946
0.9276299428002984,-0.37824128743704194,0.33600751437989773,0.02494203098895298,0.5065467660064982
0.9301168863466799,-0.3401982203717428,0.2981157302370159,0.029719645005345185,0.45331123420680175
0.9326038298930613,-0.30215382949535663,0.2650110106371688,0.015343767910216854,0.4021979657473733
0.9350907734394429,-0.28326172443261916,0.2366933512548477,0.0009680131638507561,0.3691366740196335
0.9375777169858244,-8.447749562678704,1.6305301305989683,0.6282384258652272,8.626574331695226
0.9400646605322058,-6.671510773235789,0.5727030582557986,0.5851324964241815,6.72156416533446
0.9425516040785874,-4.943154678679797,-0.4085109169084489,0.518084673256423,4.9869901819885865
0.9450385476249689,-3.3057769053184973,-1.308323395809745,0.46540218309618453,3.5855920358834714
0.9475254911713503,-1.7833194661994416,-2.0836387527788163,0.4127198161524337,2.773466498310809
0.9500124347177319,-0.40930118103096935,-2.7248801853662274,0.3408839593119808,2.7764548177687036
0.9524993782641133,0.7923359370979477,-3.22725929441988,0.26425982270198745,3.3335914633516315
0.9549863218104948,1.8168034883584254,-3.5764108741241287,0.19721261644780164,4.0162647412677925
0.9574732653568764,2.6593130729009933,-3.7723349286014916,0.11580032411039021,4.6169109313818275
0.9599602089032578,3.3198646941751266,-3.8293966719122894,0.03438815581139387,5.068230756757582
0.9624471524496394,3.8032467589294807,-3.7380193014921383,-0.023081871688793498,5.332729786932395
0.9649340959960209,4.104670867250691,-3.5221448379956755,-0.08055177483473663,5.409280523018301
0.9674210395424023,4.238502232485406,-3.2009268987338624,-0.13323315015101223,5.3130579949894114
0.9699079830887839,4.247836487880633,-2.7983075043144727,-0.1811259974843651,5.089935789716553
0.9723949266351654,4.137462040099334,-2.3190750620407385,-0.22901872000370993,4.748594618490226
0.9748818701815468,3.902590489142221,-1.7823831891530388,-0.26733451091891425,4.29867073636106
0.9773688137279284,3.5958942748320704,-1.2265391161494206,-0.29607337008234147,3.8108415448148167
0.9798557572743098,3.226950207087055,-0.6754848635432009,-0.32002370066855335,3.312386240897151
0.9823427008206913,2.8005466924831555,-0.13400883854256307,-0.3296086958930502,2.8230589859218647
0.9848296443670729,2.3502025574963397,0.39310055166818003,-0.32482835561386025,2.4048895121387526
0.9873165879134543,1.8759178053383525,0.8819012866475351,-0.315259486331529,2.096713150504393
0.9898035314598358,1.4112112624408915,1.303662942657938,-0.28653687794693283,1.9424617570812417
0.9922904750062174,0.960871335291771,1.6631739192280395,-0.24344893364411035,1.9361530393742648
0.9947774185525988,0.529686430356518,1.9556458092702171,-0.21472607321056003,2.0374556516244517
0.9972643620989803,0.1368101640391837,2.171501802400959,-0.176426279912258,2.1829483115865846
0.9997513056453619,-0.21775746055986467,2.310741894901837,-0.1477031668998965,2.32567466383333
1.0022382491917432,-0.5292280370422409,2.382942889719523,-0.1333451373651524,2.444643134798072
1.0047251927381249,-0.7880247557120488,2.373739573223839,-0.10941017457973246,2.503516160004863
1.0072121362845063,-1.0085128234974676,2.2831319417702254,-0.05674466513758247,2.4965995945909887
1.0096990798308878,-1.18111543074786,2.1494272183014265,-0.028021045439251324,2.452724241840737
1.0121860233772693,-1.310620977796317,1.9822022058631967,-0.013662508723163214,2.3763500576542396
1.0146729669236507,-1.3826642517175454,1.747938077643442,0.019849768371903664,2.2287758903842056
1.0171599104700322,-1.4068220562107554,1.480153653339491,0.04857376936148228,2.0426361757310776
1.0196468540164139,-1.4118248082794194,1.212367752673825,0.06772109104042201,1.8621683605862025
1.0221337975627953,-1.3689420851063403,0.925426758870572,0.06771492688134373,1.6537842754517689
1.0246207411091768,-1.2925390937803176,0.6384842817418965,0.06292048695647168,1.4430102129440212
1.0271076846555582,-1.220923058014903,0.3850591410860176,0.07249138465640037,1.2822553008569573
1.0295946282019397,-1.1253635550626033,0.14599772020329205,0.08685081344790646,1.1381131442718087
1.0320815717483214,-1.0010721788008416,-0.09785359758043954,0.10121037011612444,1.0109225354830813
1.0345685152947028,-0.8767793463727185,-0.29861078242928674,0.09641644148330109,0.9312392559364672
1.0370554588410843,-0.7668502649838413,-0.4466970310442804,0.09641104425254987,0.8926884427970543
1.0395424023874658,-0.6473429153009471,-0.5612659600224923,0.07725216192189954,0.8602559063394488
1.0420293459338472,-0.5230456979362887,-0.6566827826148611,0.0533050045499035,0.841219651828535
1.0445162894802287,-0.41311222348678683,-0.7090054854839056,0.038934782193146944,0.8215025288487512
1.0470032330266104,-0.30796568265122204,-0.7086572652271061,0.043718301585931485,0.7739181294837024
1.0494901765729918,-0.2171828794336052,-0.6939453516189833,0.03413673957778762,0.7279380956796175
1.0519771201193733,-0.1407638112211102,-0.6361393279235441,0.024555306219385287,0.6519897684350872
1.0544640636657547,-0.06913166878435145,-0.549604407261397,0.024550808239117927,0.5544789755213941
1.0569510072121362,-0.011863256199234506,-0.4630710126877955,0.019758035761828552,0.4636441303591741
1.0594379507585177,0.03104142907483659,-0.34780872738788005,-0.004188221089618693,0.3492162973889969
1.0619248943048993,0.059582389554271586,-0.20860595776253055,-0.02813434895215572,0.21876482429764918
1.0644118378512808,0.08333643437184252,-0.06940472346741755,-0.028138331144386797,0.11204348536613935
1.0668987813976623,0.0879383560344538,0.06979497246999422,-0.03771899083065655,0.11843654382585114
1.0693857249440437,0.08296496362618203,0.20899312704890383,-0.05687632793511277,0.231940141033318
1.0718726684904252,0.07320466288634986,0.3338245273341922,-0.06645672910264366,0.34815834696474407
1.0743596120368066,0.0634458595297678,0.44907757369889945,-0.07603700090201748,0.4598670131646049
1.0768465555831883,0.04411174928573808,0.5547522632225674,-0.08561714326337011,0.5630508104924359
1.0793334991295698,0.010413931179254099,0.6412717863710315,-0.0808319461579039,0.6464300097286437
1.0818204426759512,-0.03285918914877767,0.69905933363717,-0.07125821616039474,0.7034496510960261
1.0843073862223327,-0.061765592800943514,0.7520569187830892,-0.06647275984761158,0.7575112047655297
1.0867943297687142,-0.09545889078746073,0.7954761356761679,-0.07126398047803129,0.804346465880366
1.0892812733150956,-0.13393908086217143,0.8149517715703638,-0.06647826471057527,0.8285562304676775
1.0917682168614773,-0.16284095084291533,0.8056954203875337,-0.06169241912806456,0.8242986353760039
1.0942551604078588,-0.18695290185377506,0.7820722893581182,-0.061694846995015595,0.8064705248421258
1.0967421039542402,-0.21106333504388586,0.7488707790993403,-0.047331934976408974,0.7794841161032798
1.0992290475006217,-0.23517224826717986,0.7013024836152661,-0.03775729630175029,0.7406461863157056
1.1017159910470031,-0.2592796394027566,0.6297905936171864,-0.04254773756194652,0.6824019586645043
1.1042029345933846,-0.28338550635493914,0.5678539297267995,-0.032972838787440395,0.635494011628683
1.1066898781397663,-0.2979130404127048,0.4963388760700349,-0.03297461653414402,0.5798204764252304
1.1091768216861477,-0.3028622395309981,0.42003383340207723,-0.03297626411781707,0.5188847572740442
1.1116637652325292,-0.31738671497139154,0.34372720250596256,-0.01382416821563126,0.46805322796639315
1.1141507087789106,-0.3366980614193544,0.28178419083313555,0.0053280579307166676,0.43908575810238865
1.116637652325292,-0.3320658569842868,0.21983958594111153,0.019692011038412005,0.39872917151897114
1.1191245958716736,-0.3370089229652065,0.1626817886966192,0.02926769114293215,0.3753624598658449
1.1216115394180552,-0.33716204748361295,0.11509919999442131,0.03884350159801642,0.35837813789221706
1.1240984829644367,-0.31816001868666505,0.09145702739799688,0.014900619192866671,0.33137925976667254
1.1265854265108182,-0.30873325463004564,0.06302484861616309,-0.023407342761920802,0.3159687607228362
1.1290723700571996,-0.29451654351238826,0.04895627458907059,-0.023407947715604394,0.29947394417608597
1.131559313603581,-0.28508669015970284,0.049251303003888136,-0.018620018885107115,0.2899082904248807
1.1340462571499625,-0.2756552894629247,0.06869833489642163,-0.02340876620814747,0.28504959246036016
1.1365332006963442,-0.2614339363389087,0.07856694808866838,-0.02340897970261402,0.27398621996797845
1.1390201442427257,-0.25199943569140226,0.08843394699356955,-0.03298586931031089,0.2690954220045439
1.1415070877891071,-0.2473517858095452,0.1078761360525573,-0.02819741841258505,0.2713213244069389
1.1439940313354886,-0.23312577504759852,0.13689351309498976,-0.01383203031471858,0.2707005466962691
1.14648097488187,-0.22847501502811846,0.16112086601788977,-0.02340852824591444,0.28055075325704176
1.1489679184282517,-0.22861110079825198,0.18534659602819303,-0.023408088953063455,0.29523606604861347
1.1514548619746332,-0.21438041747041497,0.22872431432246465,-0.023407519067919935,0.31435916927296087
1.1539418055210147,-8.718717680260625,2.082116860641518,0.7858333425490667,8.998265535741805
1.1564287490673961,-6.966293468671898,1.2444251118649272,0.7427385437544203,7.115440892529374
1.1589156926137776,-5.17077206340153,0.4450389585723067,0.6757018589646862,5.233690515163193
1.161402636160159,-3.3608838828705943,-0.2968879879244557,0.613453708102421,3.4292868651510866
1.1638895797065407,-1.6132433787294485,-0.9622021162844363,0.522475267923987,1.9497095981681212
1.1663765232529222,0.019477013946222144,-1.5413266217781825,0.407554941746227,1.5944178058514575
1.1688634667993036,1.4941816666957237,-2.0342615062881126,0.3022115528057263,2.5420720980539557
1.171350410345685,2.7677749510312277,-2.4314299650267,0.1777146811729846,3.6883617450421085
1.1738373538920666,3.816314851719709,-2.7280435964976224,0.048429536799234896,4.691356555611894
1.176324297438448,4.639801370103073,-2.9288908058159757,-0.05212505708511728,5.487155467815709
1.1788112409848297,5.21429249089499,-3.033971594747286,-0.1383143104548541,6.034315260807465
1.1812981845312112,5.55415342534492,-3.048074368348091,-0.21971502996652426,6.339373180500144
1.1837851280775926,5.664172578034949,-2.980775934965896,-0.28675040899749327,6.407035349152923
1.186272071623974,5.5635035634813095,-2.8368646995985065,-0.3346320442475008,6.253986874765138
1.1887590151703555,5.276088399493729,-2.6307058738549203,-0.3681483390589939,5.907051328163568
1.191245958716737,4.825869103855071,-2.362299459353722,-0.4112413100577328,5.3887466778745345
1.1937329022631187,4.251152904282177,-2.0555874742855105,-0.42081532738717264,4.740762219283967
1.1962198458095001,3.5710934151838893,-1.7201467268504758,-0.4016587943959742,3.9840861849337257
1.1987067893558816,2.8239978642232333,-1.355977218578532,-0.36813692107548945,3.1542293745224517
1.201193732902263,2.052961882356392,-0.9726557576105024,-0.3346149174191435,2.29623144656208
1.2036806764486445,1.2771390839110939,-0.5893359586982239,-0.3154579934224362,1.4414974358222539
1.206167619995026,0.5204714865085164,-0.22038303324360187,-0.2723589225594978,0.6274062737236581
1.2086545635414077,-0.1835220856170936,0.14377982398300748,-0.2292597214705907,0.32697555502300973
1.2111415070877891,-0.8300532281799906,0.47921059499860563,-0.19094879351681016,0.9772883902495039
1.2136284506341706,-1.3951799236407498,0.7859092784517991,-0.13827252545975455,1.6072646653814844
1.216115394180552,-1.8836905744087746,1.0686642763412553,-0.06644251402403611,2.1667367452725474
1.2186023377269335,-2.2668547596785547,1.3131103774143273,-0.013765985819158999,2.619747863271595
1.221089281273315,-2.5303072686327592,1.4905171604873675,0.01975705910580494,2.9367476263355705
1.2235762248196966,-2.6979901170438283,1.6439802542113942,0.04849183066064633,3.159774233318569
1.226063168366078,-2.77469170743025,1.759134447423679,0.07243832879214018,3.2861398915555937
1.2285501119124596,-2.750835232376896,1.8120377223509072,0.08680815012468202,3.2951647664171184
1.231037055458841,-2.635997497777239,1.8266320944529628,0.10596650456183809,3.2087842739677184
1.2335239990052225,-2.4589089228333743,1.8029175626182719,0.1251249887238579,3.051622698039543
1.236010942551604,-2.2339347168138572,1.7456825290857054,0.1347067959085937,2.838312479662032
1.2384978860979856,-1.9514980724131035,1.654926992803992,0.1490771360133909,2.5630747298167638
1.240984829644367,-1.6451178122357835,1.5402277593926792,0.16344760565226224,2.2595197026653033
1.2434717731907485,-1.3243707423124427,1.401584827860899,0.16345299479652908,1.9352299021798496
1.24595871673713,-0.9796800554199881,1.2485750038887211,0.13951649673576405,1.5931658432771059
1.2484456602835114,-0.654141380886087,1.0907750931864144,0.10600332135902057,1.2762946189036963
1.250932603829893,-0.35254312150356015,0.9281850948539883,0.08206708187359979,0.9962676491565052
1.2534195473762746,-0.06052006681149619,0.7703818146623989,0.05813097156285174,0.7749387257740057
1.255906490922656,0.19798576706094867,0.6030000418114048,0.03419499034870377,0.6355916234094153
1.2583934344690375,0.41818597723828194,0.44998179209365263,0.015047541471316705,0.6144831594754108
1.260880378015419,0.5905037574970948,0.292173451449389,-0.008888181792141125,0.658892262153386
1.2633673215618004,0.714939108226983,0.15351703573211184,-0.028035372885321763,0.7317727727000967
1.2658542651081819,0.8058572397508348,0.03401254422423072,-0.04718243521488752,0.8079535421150442
1.2683412086545636,0.8584697490826683,-0.07112842708171785,-0.06154096554893762,0.8636068860713618
1.270828152200945,0.8584114265681606,-0.16190587884231222,-0.0711109639779437,0.8764362270378596
1.2733150957473265,0.8200474824472151,-0.24310821500395896,-0.08068083391475334,0.8591209895187097
1.275802039293708,0.7529547236117197,-0.30037022620125553,-0.09025057545396642,0.8156643028643381
1.2782889828400894,0.6523447469649164,-0.3289035096788542,-0.08545497873129726,0.7355499581685498
1.280775926386471,0.5325827626635656,-0.3382848726117538,-0.06150564052516394,0.6339274390186286
1.2832628699328525,0.3984571741950559,-0.3380911221442382,-0.05670978749876987,0.5256326916568402
1.285749813479234,-11.510350572984597,0.8304713447658698,0.8291524044635601,11.570019303238512
1.2882367570256155,-9.058735156500555,-0.07434652017508725,0.7908528834993565,9.093495385385122
1.290723700571997,-6.640636957125631,-0.869032803316786,0.7286114737203189,6.736776075336056
1.2932106441183784,-4.318305217967458,-1.5440106983995072,0.6424281750174412,4.6308145020453315
1.29569758766476,-2.1683543921213477,-2.0944918024535104,0.5466681972405656,3.0639031966188397
1.2981845312111415,-0.21472649618786888,-2.501322502517182,0.455696750237534,2.551544876724881
1.300671474757523,1.4994828399244131,-2.7597143955593384,0.3743022372134597,3.163000868964191
1.3031584183039044,2.95512000288,-2.8792442884788527,0.2833310447698807,4.13558440671811
1.305645361850286,4.142608185956393,-2.8503353748626314,0.1827831727875271,5.031801269903302
1.3081323053966674,5.061947389043908,-2.716083284790254,0.09660063774663286,5.7454113397195945
1.310619248943049,5.7179260153254035,-2.4908532283886218,0.015206632883193905,6.236927044931078
1.3131061924894305,6.120120871276093,-2.1794336091133393,-0.08055245520942478,6.497099278416661
1.315593136035812,6.297262376624841,-1.8057664436702963,-0.15715780341651175,6.5529386128907925
1.3180800795821934,6.244562127830365,-1.3890053454143736,-0.2098210085472445,6.400618475862374
1.3205670231285749,6.014692561167354,-0.9483039276696099,-0.2529072806940764,6.094240644840306
1.3230539666749563,5.636384096281116,-0.49323899708859376,-0.29120502331088716,5.665413555483938
1.325540910221338,5.128790346148471,-0.06211778021492309,-0.31513742989264415,5.13883845174023
1.3280278537677195,4.535006940320254,0.34027131968064994,-0.31991609725665526,4.558993181507734
1.330514797314101,3.8646106850767694,0.7091398993585787,-0.33427144546444687,3.9433275977687576
1.3330017408604824,3.151120403272611,1.0205459423285554,-0.3342614580561456,3.329084639757007
1.3354886844068639,2.437631724374995,1.2792778520531614,-0.3294629418160895,2.772570301446525
1.3379756279532453,1.733721454580893,1.4949124353462198,-0.33424110685095343,2.313497436552676
1.340462571499627,1.053754803380362,1.638719272489737,-0.33901914666786936,1.977557589928518
1.3429495150460085,0.4025201735946684,1.7250635736795394,-0.3054898348541144,1.7975513518633897
1.34543645859239,-0.1864636120608667,1.7443685325407317,-0.26238359148334744,1.7738194398023692
1.3479234021387714,-0.6940429408594545,1.7014225526902074,-0.2384308366312382,1.8529391707275158
1.3504103456851528,-1.1250062167036852,1.6297444576976194,-0.20490115053171287,1.9909019228749734
1.3528972892315343,-1.4841418435238978,1.5101806346400544,-0.16658293666290014,2.123928538281735
1.355384232777916,-1.7666614186375624,1.3618846971879583,-0.13784140514555077,2.2349100092642926
1.3578711763242974,-1.967776539389805,1.1944334524020812,-0.10431134618056603,2.3042778995017232
1.360358119870679,-2.1018524164348227,1.012615304053646,-0.06599275993176512,2.3339940828631023
1.3628450634170604,-2.154523840532571,0.8164302526244902,-0.042039259846234245,2.3044085219839228
1.3653320069634418,-2.1449444257128967,0.6202435085882438,-0.018085636130864557,2.232894016646769
1.3678189505098233,-2.087479382713012,0.438420282449401,0.005868111044529556,2.1330299932354775
1.370305894056205,-1.9821287123368505,0.26617217146206595,0.02982198150812465,2.000142796830277
1.3727928376025864,-1.8288924154159896,0.11786438619244821,0.044199168445503645,1.8332193123546154
1.3752797811489679,-1.6565009127315262,-0.0017146694030052423,0.05378807500118832,1.6573748432336828
1.3777667246953493,-1.4697426084905256,-0.10693020461830072,0.07774231427866418,1.4756765469782491
1.3802536682417308,-1.2542522936465668,-0.18341700879464007,0.09211986949661544,1.2709353585406773
1.3827406117881123,-1.0387603890634578,-0.23117508120340902,0.10170914379363616,1.0690228313688643
1.385227555334494,-0.8376321056716426,-0.25978122772577206,0.11608694362664806,0.8846411753989274
1.3877144988808754,-0.6317138311870106,-0.2644470442511233,0.1113112522084112,0.6938189955559959
1.3902014424272569,-0.4401591799153912,-0.2499609332786905,0.11132408595284282,0.518279484392909
1.3926883859736383,-0.27733336286981697,-0.20674608731596256,0.11133704135002098,0.36339190353902695
1.3951753295200198,-0.11450596120798157,-0.15395611876151616,0.09219650492712361,0.2128715508870337
1.3976622730664012,0.019592604041219097,-0.09159102670189911,0.07784449309217756,0.1217889625959679
1.400149216612783,0.11538552510271038,-0.014862406872583556,0.058704199009053326,0.13031075750899832
1.4026361601591644,0.19681481741619977,0.07144133838108946,0.034775622480298196,0.21224815924560006
1.4051231037055458,0.2686688831127636,0.14816659678358457,0.025212376587742114,0.3078505694142717
1.4076100472519273,0.302217301053934,0.22967857933228109,0.025226057809707214,0.3804259466085848
1.4100969907983087,0.3166136832770384,0.30640048045371104,0.006086246020997166,0.4406387650345188
1.4125839343446904,0.3214348351514734,0.36875549460511303,-0.008265042382099352,0.48925379812107167
1.4150708778910719,0.30710394873811464,0.4263204295556311,-0.022616210927090208,0.5259024976017312
1.4175578214374533,0.26883261939088404,0.47430688314420166,-0.03696725982313431,0.5464472297901806
1.4200447649838348,0.22098605571776184,0.5079264532403491,-0.06089499592192915,0.557254268042288
1.4225317085302163,0.177929466299508,0.5415443510255233,-0.07524580615524634,0.5749705300702254
1.4250186520765977,0.11093242980690543,0.5703721744305406,-0.08001969073802861,0.5865437513547448
1.4275055956229794,0.05351376804770211,0.5752563114558611,-0.08958185984806732,0.5846438718179681
1.4299925391693609,0.005673479560327932,0.5657735700544206,-0.07520189378226405,0.5707777551472069
1.4324794827157423,-0.06610726038604509,0.5610775648503306,-0.0464565994019388,0.5668654331339295
1.4349664262621238,-0.13309803338520826,0.5420146839357471,-0.06559522009376195,0.5619588392330233
1.4374533698085052,-0.17614522769858681,0.5229501386755349,-0.06558010959787453,0.55570202407101
1.4399403133548867,-0.22876766813801397,0.5038839305041205,-0.055988074781323505,0.5562088869510311
1.4424272569012684,-0.27181174301882705,0.4704508509254661,-0.06076113247399029,0.5467152293460918
1.4449142004476498,-0.31964266392543506,0.43701611139587637,-0.06074566962485406,0.544834424939443
1.4474011439940313,-0.35310681922695236,0.4035797134411294,-0.051153283145723094,0.5386814172239343
1.4498880875404128,-0.38178101724118113,0.37493006193773315,-0.05592598987216668,0.5380120935569433
1.4523750310867942,-0.39608845303147094,0.351067158472262,-0.0654869833994578,0.5333130013204375
1.4548619746331757,-0.40081753164886536,0.31762579470070973,-0.055894247363820426,0.5144560292432333
1.4573489181795574,-0.41991027145237625,0.2793943755906465,-0.05108979860647622,0.5069477494816855
1.4598358617259388,-0.42463625430425567,0.26031491942120333,-0.04628523404864282,0.5002220793145318
1.4623228052723203,-0.4102070786949619,0.23644541129865315,-0.04148055393372552,0.4752861414877281
1.4648097488187017,-0.40535316638373214,0.22215106292201714,-0.03188735518669006,0.46333474688987203
1.4672966923650832,-0.39092090595325163,0.20785506941899,-0.022294041374982143,0.4433056607751739
1.4697836359114647,-0.3621218959736504,0.20313423922868923,-0.00791220942728188,0.415281097268574
1.4722705794578463,-0.3381097516430911,0.20320017085946418,-0.0031070695553570005,0.39448468598247255
1.4747575230042278,-0.3236728782252561,0.2128412694904136,-0.012667025332214976,0.3875899787503274
1.4772444665506093,-0.29965766440863006,0.23205753701042964,-0.027015270371762767,0.3799674211763971
1.4797314100969907,-0.2756409188299318,0.24648376537752714,-0.01742138500851098,0.3701832889038992
1.4822183536433722,-0.265987853472492,0.26090835986100647,-0.00782738610223177,0.3726714080976132
1.4847052971897536,-0.246756453783398,0.2705429191195421,-0.007810080553593224,0.3662556701646201
1.4871922407361353,-0.22273512515782273,0.27538744516209146,0.01136095129741399,0.35437021904550203
1.4896791842825168,-0.21307748297804463,0.28980714998847334,0.016166885944910447,0.3600716125132001
1.4921661278288982,-0.20341831941026728,0.32337884230809744,0.01618452976402196,0.3823804745641511
1.4946530713752797,-0.20333444324833044,0.3377952976571055,0.02099068912805535,0.3948305560116031
1.4971400149216612,-0.20324905003084476,0.3426333248045852,0.01622015380695352,0.3987115059721834
1.4996269584680426,-0.17443172204114388,0.35704653919003526,0.0018729235297954006,0.39738163601803334
1.5021139020144243,-0.1743433013541097,0.36666973304051265,0.00667941794574034,0.4060626730926454
1.5046008455608058,-0.19819538690643473,0.37629131189403253,0.0019092168583991764,0.4253001386161729
1.5070877891071872,-0.1981039477778216,0.38591127799796565,-0.01722608332883624,0.4341306560910355
1.5095747326535687,-0.1932225995581191,0.3955296336293115,-0.017207659651855778,0.4405391782913623
1.5120616761999501,-0.1979165545425814,0.40035797777434423,-0.007612319031139236,0.44667149039378007
1.5145486197463316,-0.20260900845056667,0.39560790944888247,-0.007593675029568203,0.44453761620845056
1.5170355632927133,-0.20729996366767228,0.39564464097949426,-0.021940131250850925,0.4472016617050027
1.5195225068390947,-0.24550824584724057,0.3908913681206454,-0.017132864737966713,0.4619132986874793
1.5220094503854762,-0.2406194043009311,0.38134809329684227,-0.01711389237941141,0.45123935034485424
1.5244963939318577,-0.24051747469397722,0.38138002892289835,-0.03146002110449686,0.45198353401677605
1.5269833374782391,-0.2499908628341928,0.3670451608804508,-0.026652427961476377,0.44489092319644136
1.5294702810246208,-0.24509755463285327,0.34792029832260063,-0.017056323203478385,0.42592518525336515
1.5319572245710023,-0.2497795692296368,0.34794746039261915,-0.021825320405676862,0.42887482207402505
1.5344441681173837,-0.25446010254725876,0.3431846330598334,-0.0026521933012411125,0.4272384232323692
1.5369311116637652,-0.24956235053359532,0.34799702888520256,-0.0026325720703823663,0.4282408543710973
1.5394180552101466,-0.24466312244287552,0.3432310372165892,-0.021766457012224905,0.42206796495723076
1.541904998756528,-0.23497401759343667,0.3432518706730736,-0.026535025185415506,0.4168197970660172
1.5443919423029098,-0.23007184528953706,0.3432711286214696,-0.03609189017376124,0.4148141105077129
1.5468788858492912,-0.2347450115400435,0.348077217098143,-0.05043705228150763,0.4228556086284897
1.5493658293956727,-0.23462830909743654,0.34809333220740335,-0.059993705173972955,0.42405029892416946
1.5518527729420541,-0.23451014402024284,0.3481078800433206,-0.05518504251817191,0.4233432327490099
1.5543397164884356,-0.22481371243079112,0.36248607336935557,-0.045587871264050506,0.42897041004017505
1.556826660034817,-0.21032742043701402,0.3672858984151923,-0.045567401683555886,0.4256911357528296
1.5593136035811987,-0.20541648081208197,0.35771895472042026,-0.03597002080812217,0.4140683802857051
1.5618005471275802,-0.2148692997130755,0.3577272617751084,-0.03594934223334967,0.4188436044436096
1.5642874906739617,-0.2147438633996871,0.3577340158556854,-0.040716962954936875,0.41922121134352563
1.5667744342203431,-0.21940538471851345,0.35295081658738026,-0.02154246336868404,0.41614550280060525
1.5692613777667246,-0.22406546325924676,0.3433776669441615,-0.02152147367672619,0.4105809637706239
1.571748321313106,-0.228724101956168,0.3385913765689912,-0.04065399420003679,0.4106234069642847
1.5742352648594877,-0.22859290044745295,0.3385919484925135,-0.035844395378411775,0.4101024779234819
1.5767222084058692,-0.21888345839542012,0.33859098245330754,-0.021457887497033923,0.4037502479177827
1.5792091519522506,-0.2091725854473897,0.34816528817907155,-0.02143648748332616,0.40673303454622944
1.581696095498632,-0.20903709127468495,0.3529496588240648,-0.03578019566477586,0.4117647260201077
1.5841830390450136,-11.102517726002242,1.7032738338596634,0.8022119886060803,11.261020632427964
1.586669982591395,-9.048154360872612,0.7599512930196095,0.7687148696860291,9.112493942758846
1.5891569261377767,-6.941117140589431,-0.12112352690325068,0.7112758349380552,6.978516416941405
1.5916438696841582,-4.8292901014823695,-0.906431799439495,0.6346832873485866,4.954440873252028
1.5941308132305396,-2.7797108931848538,-1.6055503279751453,0.5485140332227267,3.256601318858957
1.596617756776921,-0.8402635520733776,-2.1897486893057208,0.443191265582783,2.3869354111806125
1.5991047003233025,0.945956288772722,-2.6398732668398157,0.33308019405102307,2.8239522979174505
1.601591643869684,2.559795012851681,-2.975077670520821,0.22775762492787166,3.9313497922678815
1.6040785874160657,3.962945390358013,-3.176208283702297,0.13201196119181624,5.080419508890642
1.6065655309624471,5.16019582134521,-3.2576303129524353,0.02668958921826814,6.102498546060277
1.6090524745088286,6.118027479281226,-3.21455535153084,-0.059479071415788454,6.9113793200223235
1.61153941805521,6.831651957532785,-3.06613700927139,-0.150436037658352,7.48967927416866
1.6140263616015915,7.3106460594045295,-2.8315288959807496,-0.21745088993551676,7.8428557671421375
1.616513305147973,7.555009781537529,-2.505942604836879,-0.27010043523740457,7.964350280027857
1.6190002486943547,7.598261943792167,-2.113320148912515,-0.30359627059472416,7.892520339777336
1.6214871922407361,7.440402542763883,-1.6871803478941432,-0.3227267996803125,7.636119440653045
1.6239741357871176,7.086219978345773,-1.2227347948787788,-0.3322804261685217,7.198611271747402
1.626461079333499,6.58838668361131,-0.7439255028583884,-0.3322571504148968,6.638573571226861
1.6289480228798805,5.966056268369358,-0.2603292748373849,-0.3370221827374049,5.981235882352723
1.631434966426262,5.233593939085994,0.1945350696049597,-0.3369987168539339,5.248039400357533
1.6339219099726436,4.4197301121658725,0.6254559374784523,-0.33218675312447665,4.47610963148404
1.636408853519025,3.5627720106319947,1.00849131589752,-0.33216309855112414,3.7176244374630607
1.6388957970654066,2.677084840883616,1.3340644019639383,-0.3081973335749222,3.0069081579421324
1.641382740611788,1.7818222126182022,1.606963602766747,-0.2698662652008732,2.414549692818555
1.6438696841581695,0.9344449620737857,1.8176121154602702,-0.24111191039636282,2.057920344121225
1.646356627704551,0.11579947234117369,1.9612215405453672,-0.1932038496067605,1.9741142764279147
1.6488435712509326,-0.6549606469477043,2.0377918818691643,-0.1405072931617184,2.1450667827118246
1.651330514797314,-1.3395281729017114,2.0616883532657724,-0.1021758547125966,2.4607589270945214
1.6538174583436955,-1.9379031092137857,2.0329109586342304,-0.06384432466999534,2.8093186939591193
1.656304401890077,-2.450085459598421,1.9514597018993691,-0.035089510047475514,3.1324662809339467
1.6587913454364585,-2.8617100178306414,1.8221229903320344,-0.0015462012584332996,3.3925681730493102
1.6612782889828401,-3.1823535943084194,1.6449008279083492,0.022420391360469694,3.5823980525354866
1.6637652325292216,-3.3976509828493704,1.4485236385518885,0.055963880713374436,3.6939660107593566
1.666252176075603,-3.5028137839330293,1.2377798296099813,0.08950745978118668,3.716155930105332
1.6687391196219845,-3.516995614661501,1.0078810018146998,0.10868591822311657,3.6601768941114354
1.671226063168366,-3.4641384954782315,0.7779807725249719,0.1278644656188881,3.552725562134056
1.6737130067147474,-3.320300413644409,0.5528675491637918,0.12310108498438055,3.3682653162852154
1.6761999502611291,-3.114211792965453,0.3277529325386226,0.12312619585756401,3.13383106378425
1.6786868938075106,-2.8650262506269435,0.12657894340378073,0.13272820117350825,2.8708908758574325
1.681173837353892,-2.5727437905536767,-0.05544281738357215,0.14233029390502416,2.577274224911858
1.6836607809002735,-2.232576013370731,-0.2087355389805423,0.13756726370328565,2.2465286405373632
1.686147724446655,-1.8684649396454387,-0.3285108138399435,0.13280432014004084,1.901766960734641
1.6886346679930364,-1.4899873800044967,-0.43392225099163273,0.12325305950448673,1.5567730178659722
1.691121611539418,-1.11150854841512,-0.5010278295582411,0.09454827144390343,1.2228734663998393
1.6936085550857995,-0.7521820621849347,-0.5298275452396541,0.06584356884648734,0.9224047148220248
1.696095498632181,-0.41679632868063043,-0.5251097970318668,0.03235054799758963,0.6711974646080279
1.6985824421785625,-0.10056294864816812,-0.4916629839067814,0.008434418462561766,0.5019128767024569
1.701069385724944,0.18694126718575943,-0.4342755048123168,-0.015481626796070458,0.47305595041735066
1.7035563292713254,0.45050471803570624,-0.3721009686334553,-0.03939758817639216,0.5856328216421135
1.706043272817707,0.6709737864950941,-0.2955625643095301,-0.04894825611680176,0.7348190140175098
1.7085302163640885,0.8531368717393724,-0.2046602873968737,-0.053710437658475385,0.878984167247669
1.71101715991047,0.992205566284037,-0.09939413342826597,-0.05368413320318943,0.9986155745244314
1.7135041034568514,1.088179865945635,0.010659095446337918,-0.06802295643517375,1.0903559783700805
1.715991047003233,1.150636573162141,0.1302878070611988,-0.07757329447736616,1.1605847888815377
1.7184779905496144,1.155633667110297,0.24512679599253095,-0.0823351477351455,1.184210874475034
1.720964934095996,1.1319015634713274,0.364752873441196,-0.09188532325569021,1.1927651573978204
1.7234518776423775,1.0794402579857598,0.4604356240684804,-0.08707020816548017,1.1767639761743536
1.725938821188759,0.9934613430550472,0.5465402624413747,-0.07267820619372145,1.1362014875319262
1.7284257647351404,-3.9958413623754616,3.3524566857667417,0.6120903404526565,5.251701496475991
1.7309127082815219,-3.037945938793087,1.8344436145163754,0.5738100651515232,3.594934894088975
1.7333996518279033,-2.075260911039063,0.4169857213323205,0.5211646588967849,2.1799535642679913
1.735886595374285,-1.146093510028373,-0.8807633758073468,0.4589425245953205,1.5165430092070042
1.7383735389206665,-0.2791741600530262,-2.030073252262529,0.39672046847317866,2.087228485647571
1.740860482467048,0.4919783112566329,-3.002213483371045,0.3057680701927996,3.057584434031424
1.7433474260134294,1.1769407061348884,-3.778030451089068,0.2100273459389843,3.962677756411153
1.7458343695598109,1.727828986954508,-4.36231255395259,0.11428669861419927,4.693423619918912
1.7483213131061923,2.1446431492736537,-4.759848190475884,0.023334531119832747,5.220746453759801
1.750808256652574,2.4417483985938238,-4.975425759151641,-0.05325235032347919,5.54254747744033
1.7532952001989555,2.604779520477066,-5.013833658451077,-0.1250507527773781,5.65146370382787
1.755782143745337,2.6481017203900636,-4.884648690144435,-0.18727227334367846,5.559434004647044
1.7582690872917184,2.5765033971414573,-4.616601269261981,-0.23034010580485287,5.291921541290554
1.7607560308380998,2.4139265628040545,-4.2240566008520055,-0.2590426539053716,4.872042560811095
1.7632429743844813,-7.057305178769511,1.119695866894065,1.1439874647421213,7.236572568565433
1.765729917930863,-5.86954998643884,-0.6329666149756603,1.0769778376020902,6.001012001459755
1.7682168614772444,-4.643486429236587,-2.218036204572115,0.9908146703020595,5.240550022104817
1.770703805023626,-3.422210141641776,-3.606782476977914,0.9046515756951443,5.053592441342937
1.7731907485700074,-2.215297934907808,-4.7752634105756195,0.8041233433912875,5.325157268304466
1.7756776921163888,-1.0610570402264083,-5.6660181604853825,0.6748647629994693,5.803882001376537
1.7781646356627703,0.02614732779584128,-6.298200334932212,0.5360294473699163,6.321023549247289
1.780651579209152,1.0271615512162275,-6.667021525519843,0.4019826060315559,6.757649509229802
1.7831385227555334,1.9276204153956835,-6.786846937113122,0.2631474319108964,7.0601882683518635
1.7856254663019149,2.7131587056795676,-6.672041774557471,0.1243123278944136,7.20366747972943
1.7881124098482963,3.3885648206785515,-6.3226060327178155,-0.009734303132317379,7.173410161531087
1.7905993533946778,3.9203199324250866,-5.776846933002226,-0.11505044500335693,6.9824140141359505
1.7930862969410595,4.3227892461391795,-5.0826485034401205,-0.21557811475680033,6.675799322899149
1.795573240487441,4.595972757064331,-4.268741158760898,-0.2921636995487731,6.2793690997990295
1.7980601840338224,4.730293653788215,-3.3686437169949253,-0.34959560313787286,5.81770191990375
1.8005471275802039,4.744905544805061,-2.411086592833879,-0.39745063260382096,5.337174738812874
1.8030340711265853,4.639808425312754,-1.4295886042706436,-0.4213635784256553,4.87330412208056
1.8055210146729668,4.434155903775534,-0.4863989892023819,-0.44527645764572554,4.482922448517043
1.8080079582193485,4.137524782001988,0.4184822576570979,-0.4596124640650263,4.183955346174037
1.81049490176573,3.7594918617863295,1.2515363183689225,-0.4787368080869143,3.991154112089801
1.8129818453121114,3.3096339449077963,1.9983979882943603,-0.46913066691242555,3.894528848467114
1.8154687888584928,2.807104639771894,2.6351252561715546,-0.4451592509464888,3.875808087747036
1.8179557324048743,2.2710575547699663,3.1473529173966917,-0.41639936727451143,3.9034499147279726
1.8204426759512558,1.7062810883181,3.525504170704013,-0.3780626130217275,3.934908658325909
1.8229296194976374,1.1319288487789283,3.769579021485838,-0.33493739195472827,3.9500850591415815
1.825416563044019,0.5719428478223492,3.889154281791974,-0.2966005111612162,3.942158230205515
1.8279035065904004,0.04068829046271388,3.884229957048955,-0.2774171810498647,3.894336681459239
1.8303904501367818,-0.4666232315799579,3.7691712626609446,-0.23908017550666294,3.8054629912586875
1.8328773936831633,-0.9308381099975858,3.5535550107286236,-0.1959547049417587,3.678669738871267
1.8353643372295447,-1.3567447530974959,3.2421696100487063,-0.15761757644564156,3.518133511648693
1.8378512807759264,-1.7204011492780205,2.863745486036043,-0.09054996722671049,3.3420080221019375
1.8403382243223079,-2.01701890023209,2.423071047520076,-0.037847507619028775,3.1529463964768705
1.8428251678686893,-2.2561748176266834,1.948876719947676,0.005278205245819123,2.9813542454222755
1.8453121114150708,-2.4187152932195892,1.4555277188210698,0.04840397755587844,2.823311451992858
1.8477990549614522,-2.5142171387034375,0.9717544696186713,0.0723761955767177,2.6964481978076504
1.8502859985078337,-2.561833972424015,0.5119221878738829,0.0867716654951387,2.6139217567930744
1.8527729420542154,-2.551988992817773,0.0616656692132862,0.11553240345826765,2.5553469843587657
1.8552598856005968,-2.4846822049741597,-0.34070785419758054,0.13471639240949784,2.511548527902856
1.8577468291469783,-2.350336807354203,-0.6808331667799599,0.13474682525258252,2.45066799381459
1.8602337726933598,-2.1728948216732578,-0.9730754728619262,0.13477731481255795,2.3846410016033865
1.8627207162397412,-1.9667214630179108,-1.1982811535148354,0.1587498772342073,2.30847840784488
1.8652076597861227,-1.7366051398462332,-1.3516617997561713,0.15399207553675787,2.206014640021359
1.8676946033325044,-1.4729690506666189,-1.452371019190948,0.1444459258638915,2.0736161715964094
1.8701815468788858,-1.2093320238823013,-1.4812551928472502,0.13968823439781808,1.9173194030086347
1.8726684904252673,-0.931328854704533,-1.4478911216611512,0.1157769840780496,1.7254467380457306
1.8751554339716487,-0.6581131615980056,-1.3666440098751318,0.09186578772638043,1.519627620883054
1.8776423775180302,-0.4040501597184764,-1.247090658397736,0.07753145152350527,1.3132032469525676
1.8801293210644117,-0.15477464431067645,-1.0652890448818033,0.05840876504805337,1.0780572913816406
1.8826162646107933,0.08492497608858404,-0.8643347934511261,0.04407453447974419,0.8696145418077216
1.8851032081571748,0.286318276329866,-0.6490163016541579,0.044105565997845986,0.7107359679412156
1.8875901517035563,0.4637704611362887,-0.4049683537448068,0.039348245859285313,0.616952747469
1.8900770952499377,0.6124931219391339,-0.1609213638470801,0.015437363640860013,0.6334680907207016
1.8925640387963192,0.7229094468389363,0.0879130771696377,-0.013261871159167882,0.728356131774185
1.8950509823427006,0.8045962372073973,0.31759295852672365,-0.032384249042962665,0.8656148865518292
1.8975379258890823,0.8671302944061331,0.5281182860593705,-0.0562949804349806,1.0168544617443191
1.9000248694354638,0.9009348065055377,0.7147006622943568,-0.0802056624788019,1.1527851103093008
1.9025118129818452,0.8820677516053335,0.877340093090953,-0.08017427903716623,1.2466744051219065
1.9049987565282267,0.8488363509596442,1.0112481809995635,-0.075354443855975,1.3224312180579576
1.9074857000746082,0.8012405992505547,1.1068481252620597,-0.08489977068149912,1.3690534106985364
1.9099726436209896,0.7201268778695769,1.1785051417331092,-0.0848682433775263,1.3837122923698941
1.9124595871673713,0.615071988120824,1.2214308329973766,-0.07525986240975513,1.3696243562588626
1.9149465307137528,0.5100179412602419,1.24041360829115,-0.08480504816608203,1.3438512254843011
1.9174334742601342,0.3953879252926912,1.2115114569396583,-0.08477338119095101,1.277214996749513
1.9199204178065157,0.2616051282141466,1.1586664014819141,-0.07516486195098615,1.190207893396401
1.9224073613528971,0.12782315793377794,1.0962436578267538,-0.06076789423341644,1.1053423243498406
1.9248943048992788,-0.0011695876086213475,1.014666425291797,-0.06073609178667283,1.0164832489495963
1.9273812484456603,-0.11579630716143147,0.9139347098453703,-0.07028105175788646,0.9239182132897698
1.9298681919920417,-0.25436423268449077,0.7988369207859511,-0.07024916133351056,0.8412945581352653
1.9323551355384232,-0.35941252973935284,0.6885266773828462,-0.06064042098148725,0.7790530230082643
1.9348420790848047,-0.45009481702066695,0.5782155823132609,-0.06539684777155053,0.7356598070012975
1.9373290226311861,-0.5216226966293559,0.45353843162314966,-0.07973003885176766,0.6958047324453692
1.9398159661775678,-0.5835729806349197,0.3384372479302664,-0.07490957476885285,0.6787552128019256
1.9423029097239493,-0.6503108844348265,0.23770044057998652,-0.05572385931190382,0.6946300413622628
1.9447898532703307,-0.6835291869104716,0.15132801560631837,-0.046114909551441485,0.7015973934877283
1.9472767968167122,-0.6975931034740039,0.06495476909092446,-0.041294322636277414,0.7018265320747974
1.9497637403630936,-0.6925026395837806,-0.0022656796338464957,-0.026896889074775387,0.6930284855448637
1.952250683909475,-0.6730462040254788,-0.04554492118833675,-0.017287819297303386,0.6748069363123163
1.9547376274558568,-0.6488006089119605,-0.06488294950507534,-0.007678710453131288,0.6520820422732341
1.9572245710022382,-0.6245542630425079,-0.06985656514930794,0.006718840308353791,0.6284847730805567
1.9597115145486197,-0.5811535586214285,-0.0604657620379232,0.016328025876706675,0.584518752056944
1.9621984580950012,-0.5329637111016571,-0.05586414736150269,0.025937249102312876,0.5365108211421963
1.9646854016413826,-0.4799847259815498,-0.032109698420471844,0.03075810619485786,0.4820398645391595
1.967172345187764,-0.4078513988046544,0.006009187570065855,0.030790596684258986,0.4090561510188279
1.9696592887341458,-0.354870961643986,0.04412730676139098,0.026034720100376774,0.35855045010548553
1.9721462322805272,-0.3114666133753767,0.10139827855373307,0.0212788792933285,0.32824663417187827
1.9746331758269087,-0.2536963429194298,0.1443032858305746,0.04046509039443791,0.2946569127864192
1.9771201193732901,-0.19113696244455808,0.18241914136463455,0.030920916410002164,0.26601914333441734
1.9796070629196716,-0.14773049408563543,0.23968786789578678,0.016588373471307705,0.28204564707443663
1.982094006466053,-0.1043233300999864,0.2969558582872578,0.011832671068985334,0.31497007965662305
1.9845809500124347,-0.07049228267207452,0.3350695054080819,0.021442212053067067,0.34307507025207323
1.9870678935588162,-0.0510257606710805,0.3731824286955363,0.016686576031405664,0.37702413073809127
1.9895548371051976,-0.03155855968986071,0.41129463431117097,-0.002434237466234279,0.41251078096808613
1.992041780651579,-0.012090685286986813,0.4446177251015695,-0.011978212308500602,0.44494334888310366
1.9945287241979606,0.016954663614944188,0.45878649727783083,-0.007156945645236945,0.45915545578129185
1.997015667744342,0.017270254885717484,0.46816616697791025,-0.007124051227783923,0.46853876436480923
1.9995026112907237,0.0032212929141752222,0.47754514370391066,0.007274083755085314,0.47761140406998615
2.001989554837105,-0.00603861459474464,0.48213503032192273,0.007307038911550379,0.48222820857701815
2.0044764983834864,-0.02487468318238334,0.47714742970245183,0.0025516204123903208,0.4778021874184013
2.006963441929868,-0.034133305151844706,0.46258234804055176,-0.01178057553245182,0.4639895399674166
2.0094503854762498,-0.048179696052232324,0.44322819485563425,-0.030901146072285002,0.4469087117692497
2.011937329022631,-0.07180226479569879,0.42387337967097904,-0.04523328503598023,0.4322849260599262
2.0144242725690127,-0.09542421033699455,0.40930631201354606,-0.05477699289287763,0.42383718091143874
2.016911216115394,-0.12383394159520589,0.3851617881325451,-0.05474386679186338,0.4082662600311097
2.0193981596617756,-0.14745465753173675,0.3514398142414423,-0.054710713842592185,0.3850273773006632
2.0218851032081573,-0.18065157371269813,0.32250560651774407,-0.045100727873292,0.37239620429718817
2.0243720467545385,-0.2042710824649548,0.2983591711810236,-0.04506752263387703,0.3643843461999798
2.02685899030092,-0.22310159271982472,0.2742121111332545,-0.045034291952188,0.3563631434617135
2.0293459338473014,-0.24193151341131663,0.2548528359196389,-0.045001036296485,0.35426814480775726
2.031832877393683,-0.2511840435150727,0.23549294844716373,-0.04496775613480786,0.34723544112996296
2.0343198209400644,-0.250859188649806,0.22092085826563457,-0.04493445193496726,0.3372765380478746
2.036806764486446,-0.27447577767871034,0.20634816828628066,-0.04968952748484412,0.34696623499859913
2.0392937080328277,-0.29330339630307845,0.19656328806280277,-0.04486777329081981,0.3559173015983593
2.041780651579209,-0.29776524350749317,0.21071983711150155,-0.03525759314026189,0.3664834073562113
2.0442675951255906,-0.2974381315596571,0.2057221917861125,-0.016070584179644243,0.36200735624411967
2.046754538671972,-0.2971104694087283,0.20551237492604058,-0.0016719568364020887,0.361265501701559
2.0492414822183536,-0.2872054560445425,0.2148787960905656,-0.0016385182173568325,0.3586956310481536
2.0517284257647352,-0.28208830705998045,0.21466784823834661,-0.0016050588274687527,0.35448367277081644
2.0542153693111165,-0.28175902808833286,0.21445634425067883,0.012793630828626945,0.35432097099723975
2.056702312857498,-0.2718524148031649,0.22382109700943564,0.01282713036381189,0.3523693434085739
2.0591892564038794,-0.2571568761603689,0.23318530611563926,-0.001504560686818479,0.34714162765024886
2.061676199950261,-0.2520376277574044,0.24254897781115625,-0.011047829506559026,0.34996432243819187
2.0641631434966428,-0.2325526586300357,0.26148892497851817,-0.015802676559591333,0.3502954774312196
2.066650087043024,-0.21785558769752295,0.27085154057823235,-0.020557505630046435,0.34820141464727616
2.0691370305894057,-0.22231163055933711,0.27542523417205844,-0.02531231718135274,0.3548552297793761
2.071623974135787,-0.21240196961223928,0.2943636252821844,-0.030067111676531866,0.3642369720237059
2.0741109176821686,-0.19770341713607137,0.3037247035473065,-0.030033486257895703,0.3636445338362477
2.07659786122855,-0.19258118873112495,0.30829687852713583,-0.03478824802827418,0.3651639382024811
2.0790848047749315,-0.17788167675550826,0.3128685597803442,-0.039542994129138975,0.3620666720496034
2.081571748321313,-0.17275850012970018,0.3270165601846977,-0.03472091838121294,0.3714712265779551
2.0840586918676944,-0.16763485785204257,0.3459524826556337,-0.025110424565713885,0.3852468030296183
2.086545635414076,-0.15772235224079545,0.3553111234663886,-0.01071151314307528,0.3888921076200069
2.0890325789604574,-0.15259779557462938,0.35030408552907755,-0.0011009912138835176,0.38209979290003904
2.091519522506839,-0.14747279017061865,0.35008498835544843,-0.005855665878245375,0.37992369199014087
2.0940064660532207,-0.14234734166535956,0.35465383817389684,-0.020187134274829432,0.3826873802477699
2.096493409599602,-0.14200985901483898,0.35922223789022256,-0.02015338026055602,0.38679914036641894
2.0989803531459836,-0.14646034785367706,0.35421338708746264,-0.015331210934013129,0.3836050092400983
2.101467296692365,-0.1509104104950007,0.3444156953069504,-0.010509030072958225,0.37617358078766516
2.1039542402387466,-0.15536005257092833,0.33461757208721776,-0.005686838134305816,0.3689688409775977
2.106441183785128,-0.1454440697511985,0.324819023643502,-0.015229845535365882,0.3562208917814065
2.1089281273315095,-0.1451044842664762,0.3293852661488166,-0.019984439450722036,0.3604848717079905
2.111415070877891,-0.16391810838476928,0.31479748256972817,-0.01516221701533027,0.3552414588888792
2.1139020144242724,-0.16357772116914537,0.3241513089942849,-0.03428200192607456,0.3647012443653825
2.116388957970654,-0.15844853820413068,0.32392792838186457,-0.0629785846761397,0.3660622135274303
2.1188759015170353,-0.16768417839247163,0.31891575025048935,-0.05815633583623736,0.3649758880239734
2.121362845063417,-0.1721310340721982,0.3186915874344671,-0.053334079101487575,0.36611192931379416
2.1238497886097987,-0.1717891108602289,0.31367863948266406,-0.0580886215648313,0.3623259243183481
2.12633673215618,-0.17144681769132208,0.31345371922082377,-0.0628431570373369,0.36276232959924026
2.1288236757025616,-0.16631575685700173,0.3132284295092149,-0.058020879329435004,0.3593597118068293
2.131310619248943,-0.15639593396636914,0.31779117984401983,-0.04362178889154755,0.35686661739922637
2.1337975627953245,-0.16084096790691343,0.32235357307591395,-0.03401109613436759,0.3618541110617683
2.1362845063417057,-0.1604972510006344,0.3269156153708317,-0.024400398186690708,0.3650048856984236
2.1387714498880874,-0.1553647888476658,0.33147731288948545,-0.01957809881725936,0.36660432147945554
2.141258393434469,-0.16459720032614916,0.3264618651465736,-0.009967391833198391,0.36574435969696456
2.1437453369808503,-0.15946407110773236,0.3214460849324827,-0.00993348764249724,0.35896385565877864
2.146232280527232,-0.14954221342306934,0.3307951883521838,-0.009899580050880985,0.36316157825079926
2.1487192240736133,-0.14919684281950713,0.3401439715828758,-0.00028886286336060607,0.3714265778767518
2.151206167619995,-0.15363956155939845,0.3447040374363177,-0.009831756446731177,0.37752172352844854
2.1536931111663766,-0.14371676194028854,0.3492637953586648,-0.009797841323301526,0.37780379048593127
2.156180054712758,-0.13858206281823265,0.3490348481490497,-0.009763924577136152,0.37566693703403653
2.1586669982591395,-0.13823546976391338,0.33922879860004285,-0.009730006650928047,0.3664422136297964
2.161153941805521,-0.13788858502346302,0.3389992660990475,-0.004907684666296319,0.366002526855006
2.1636408853519025,-0.1519066241198982,0.3435578534250112,-0.004873765705028177,0.3756745595507541
2.166127828898284,-0.15634757600924803,0.3433277600295117,0.009525363073739967,0.3773714984899312
2.1686147724446654,-0.1464230429241813,0.33830899199752995,0.02392449126947227,0.3694117795199071
2.171101715991047,-0.1460750470145094,0.3285015554066595,0.019170005162122195,0.36002594401348564
2.1735886595374283,-0.1553035938236268,0.3234822629675702,0.0096271142746307,0.3589605299171639
2.17607560308381,-0.15974347892901436,0.31846271742228094,-0.004704181830183174,0.35631251840907785
2.178562546630191,-0.17375991782493044,0.3086545215049381,-0.009458673627730008,0.3543297746376457
2.181049490176573,-0.17819930275822754,0.3132112945432133,-0.009424764873841696,0.36047903229713807
2.1835364337229546,-0.18263844589229455,0.32255623593470917,-0.014179262643812862,0.37094525033681536
2.186023377269336,-0.17750054610381077,0.3175357384280444,-0.018933764051155322,0.3642717069267654
2.1885103208157175,-0.17715081886544043,0.31251501800550585,-0.023688269528834738,0.3600127542420524
2.1909972643620987,-0.18158926968320777,0.2979172740391536,-0.01886597286831382,0.34940705483328305
2.1934842079084804,-0.19081590405732407,0.3024729324546951,-0.00446687450080141,0.35765980634782313
2.195971151454862,-0.19525392084143467,0.30223998264541674,0.014720621823078872,0.3601246970430009
2.1984580950012433,-0.190114922203448,0.29721843059701936,0.019542902392648998,0.35336157709194543
2.200945038547625,-0.19934093022696642,0.3065618955671381,0.0004231601387694184,0.3656735994599175
2.2034319820940063,-0.1989899337861859,0.3111167702414499,-0.013908185444289956,0.36957282921780726
2.205918925640388,-0.19385034167076554,0.3204598672178811,-0.018662731462903537,0.37499437196954166
2.208405869186769,-0.19349896598415356,0.32501438580332964,-0.04257089826470306,0.3806421970763566
2.210892812733151,-0.18835900554190727,0.3247803319353899,-0.0521138630323037,0.37904779870215316
2.2133797562795325,-0.18321886911376462,0.3245461148618807,-0.052080029509882664,0.37631325268321086
2.2158666998259138,-0.17807856214227846,0.31952333717975456,-0.05204620476096444,0.3694806418842112
2.2183536433722955,-0.17772649338332608,0.30971200479588123,-0.05201238920749418,0.3608511064082931
2.2208405869186767,-0.17737426494505698,0.2999005269268973,-0.0519785832704418,0.3522835917760465
2.2233275304650584,-0.17223347892840318,0.2948773127787381,-0.04236798072917303,0.3441105151640356
2.22581447401144,-0.17188094738790294,0.29464236822617806,-0.04712259860424339,0.34435116455169773
2.2283014175578213,-0.1715282724097114,0.2896188924923666,-0.04708882403240011,0.33987999128092183
2.230788361104203,-0.16159865275211271,0.27501848810961294,-0.037478254110315135,0.3211758286430543
2.233275304650584,-0.15645730376728173,0.2747831775207996,-0.03744450253520526,0.31841289754132723
2.235762248196966,-0.15131582751835904,0.2745477565948571,-0.02783395644075881,0.31471841293445274
2.238249191743347,-0.1509626327012138,0.2695238278297394,-0.037377036162759225,0.3111749557281061
2.240736135289729,-0.1458209180427698,0.27407660699290437,-0.04213172551250999,0.31329987062595577
2.2432230788361105,-0.1358906889024567,0.27384088991803734,-0.022944411620578364,0.3065641178385061
2.2457100223824917,-0.14032556391272255,0.26881668238771894,-0.022910724780544456,0.3041029002284148
2.2481969659288734,-0.13997193513517803,0.2685807968129623,-0.01808864880054628,0.30340564638384987
2.2506839094752547,-0.12525300126360195,0.27313323895182506,0.0010986225514049153,0.30048508701325777
2.2531708530216363,-0.12968759086602838,0.272897207909256,0.0011322656255750019,0.3021473801553621
2.255657796568018,-0.13412209597838276,0.2678727094182034,0.0011658932967613111,0.2995761745998222
2.2581447401143993,-0.13376811858874849,0.2676365558394722,-0.003588898160703735,0.2992258607847863
2.260631683660781,-0.13341406731694627,0.2626119462397054,0.0012331008098716012,0.29456046612446807
2.263118627207162,-0.1330599474534881,0.267164096274052,-0.008310126796212458,0.2985810813859865
2.265605570753544,-0.1327057642797822,0.276504608303215,-0.022641774740337794,0.3075357999475633
2.268092514299925,-0.13713992638833816,0.2666914713933064,-0.022608230142134644,0.30073714834367454
2.2705794578463068,-0.13199722908109734,0.2616667078000878,-0.027363106682603444,0.2943492382584806
2.2730664013926885,-0.14121969421307656,0.2757955331250739,-0.022541194799419628,0.31066748073843187
2.2755533449390697,-0.15044211706726202,0.2707707264325818,-0.008142494890048368,0.3098643527473631
2.2780402884854514,-0.14529929291700455,0.27053430993709204,-0.012897427272669404,0.3073549104953
2.2805272320318326,-0.14015643694778473,0.2750862892374841,-0.008075572420549904,0.30883896809545697
2.2830141755782143,-0.13980195769461723,0.27484986327783956,-0.012830544008901157,0.308628672645072
2.285501119124596,-0.13944745704193623,0.28419024758948996,-0.02237393911019936,0.3173488352771208
2.287988062670977,-0.1343045368641254,0.2839538344471295,-0.03191735479571811,0.31573122470967424
2.290475006217359,-0.14352681562696717,0.29329424267336934,-0.03667238813555507,0.3285822935596614
2.29296194976374,-0.15274908854379832,0.30263467115422493,-0.03663903951890468,0.3409727957659597
2.295448893310122,-0.15718295745821526,0.302398318760857,-0.036605712654079525,0.34276989877119757
2.2979358368565035,-0.1664052341642845,0.3069504009509991,-0.022207197966919168,0.3498605582839989
2.3004227804028847,-0.16126231052363166,0.31150251988600797,-0.017385512444546336,0.3512002402244515
2.3029097239492664,-0.15133099830908242,0.31605468103230194,-0.007775446510352779,0.3505026248405124
2.3053966674956476,-0.16534172256394175,0.3158184865205964,-0.00774221050836843,0.35656576317998834
2.3078836110420293,-0.1649872618362767,0.32515915174733623,-0.022074208140759666,0.36528966752198305
2.3103705545884106,-0.1550560245459795,0.31534626221050255,-0.026829423186569556,0.3524279412683711
2.3128574981347922,-0.154701629063919,0.30553343659583687,-0.012431049384398207,0.34269199859624677
2.315344441681174,-6.3170223470657,2.6324615006027567,0.701074184371663,6.879398948852694
2.317831385227555,-5.090836787136323,1.1526089996436988,0.6580116683301949,5.260998579640448
2.320318328773937,-3.8119788410481417,-0.1979565316289209,0.6245259333655344,3.8678679029226655
2.322805272320318,-2.53312095036783,-1.376139457992629,0.5527329459003205,2.935298156324211
2.3252922158666998,-1.2925703466897827,-2.3484209508818292,0.45220951220224315,2.7185129219131277
2.3277791594130814,-0.13342266491596855,-3.110012601670145,0.3516860518214546,3.1326766620744864
2.3302661029594627,0.9251684766628796,-3.6609144050667513,0.25595096770803494,3.784671965878501
2.3327530465058444,1.859261056449592,-4.010703162439534,0.16500425949289443,4.423778694609771
2.3352399900522256,2.654489859498598,-4.1545904652118,0.08842273344897578,4.930999587061459
2.3377269335986073,3.3060664775170716,-4.121306728066197,0.021417985889605973,5.283531340939071
2.3402138771449885,3.7900488889435455,-3.944370769022833,-0.03600998355028828,5.470267640894664
2.34270082069137,4.1016486855093435,-3.6429361961582116,-0.06949596527343083,5.486286153474814
2.345187764237752,4.26959628220077,-3.2313682142459186,-0.10298197624375938,5.355539023894099
2.347674707784133,4.293891674094569,-2.7431856413583366,-0.15083322678321665,5.097580193985676
2.350161651330515,4.179323259600313,-2.197542085624574,-0.18910770064988114,4.725642374193425
2.352648594876896,3.9306794371401894,-1.6279563651524591,-0.20822859156140439,4.259558886873237
2.3551355384232777,3.5910558317115915,-1.0727357013880363,-0.2321379164762689,3.755040863128956
2.3576224819696594,3.170029245082436,-0.5270916859124668,-0.25604727242969183,3.2237356072970145
2.3601094255160406,2.6819648823541917,-0.01496633024729288,-0.25601464317427514,2.694198047423733
2.3625963690624223,2.1555931586017256,0.44927516070885964,-0.23682843238310447,2.2146145808753213
2.3650833126088036,1.5909140689915515,0.8704211953198016,-0.20806544704819174,1.8253580093868083
2.3675702561551852,1.0310232385855718,1.1910109387672252,-0.19366770412106504,1.5871430793681431
2.3700571997015665,0.47592066257713284,1.4349864126589065,-0.1792699939893705,1.5224402163397037
2.372544143247948,-0.04566324390619658,1.626289638584463,-0.1648723170002615,1.6352632819592858
2.37503108679433,-0.5241516790041651,1.7553438148722376,-0.1600514801400994,1.838908199804477
2.377518030340711,-0.9451794375227829,1.807783736511357,-0.13607706383132268,2.044495824014273
2.3800049738870928,-1.3135349275356971,1.7931862150734488,-0.09294906841681794,2.224753994738565
2.382491917433474,-1.6148529438216026,1.725916465431279,-0.04982110751928559,2.3641107881337846
2.3849788609798557,-1.839556684465677,1.6203397024383466,-0.011481584799051703,2.451448831497374
2.3874658045262374,-2.006799767461273,1.4764559309677137,0.026857902725657468,2.4915635191002417
2.3899527480726186,-2.102216987545283,1.303841962513797,0.05083214475676989,2.4742481752799916
2.3924396916190003,-2.116231542761123,1.1120746085511448,0.05565273763834,2.3912848230120867
2.3949266351653815,-2.0679970510598222,0.9203074871753154,0.03174287439554213,2.263754687287904
2.397413578711763,-1.9766671303782701,0.738117409821514,0.017409781258169943,2.110055296783225
2.3999005222581444,-1.8422417853576998,0.5559275746235648,0.027018667855907452,1.9244844172810214
2.402387465804526,-1.6647210206250171,0.38331479297663096,0.04141592057774446,1.7087836567286152
2.404874409350908,-1.463258454073885,0.23943268289632336,0.06060153909539956,1.4839561515079747
2.407361352897289,-1.2330656869818426,0.09555082917487745,0.06542190980083795,1.2384914112136585
2.4098482964436707,-0.9837195305727234,-0.024388746892386237,0.05587703236876784,0.985607005125035
2.412335239990052,-0.7343736026962592,-0.11559763731185058,0.04633211643632684,0.7448584208442801
2.4148221835364336,-0.4898163112264353,-0.18286424075108032,0.03678716168123053,0.5241303698065036
2.4173091270828153,-0.2500476607019971,-0.21661174593736554,0.017665361142087832,0.33129525514992697
2.4197960706291965,-0.03900967224843105,-0.2407821648609234,0.008120327780885006,0.24405684822866971
2.4222830141755782,0.15766285958655377,-0.2410102829703531,0.012940464600189827,0.2882897664061765
2.4247699577219595,0.3351815269889801,-0.20771928905550485,0.008183754682232092,0.3944121358694326
2.427256901268341,0.4696043088788704,-0.16006279184916128,-0.0013613989673615379,0.4961352211436896
2.429743844814723,0.5848732173946786,-0.10761759346461997,-0.01090659334142785,0.5947917119690173
2.432230788361104,0.671411441447979,-0.05038368939584048,-0.03960544203282268,0.6744630685982775
2.4347177319074857,0.719642169965887,0.006850521521628572,-0.06351592875006595,0.7224721833007223
2.437204675453867,0.7343538018519198,0.06887344707138388,-0.05869603720012151,0.7399082934991751
2.4396916190002487,0.7299115426658374,0.13568509169519372,-0.04908778429152072,0.7440369041867524
2.44217856254663,0.7063153880221422,0.20249705649289185,-0.03947957364999155,0.7358295468250373
2.4446655060930116,0.6492001235901647,0.2549441359019622,-0.010717792298144957,0.6975472628948016
2.4471524496393933,0.5681425516565886,0.2978147376193774,-0.005898070421077151,0.6414938535799466
2.4496393931857745,0.48708468448500264,0.3358972693201592,-0.020232004999213515,0.5920201005226784
2.452126336732156,0.40123811443306046,0.37876854197769827,-0.02498917640983045,0.5523423682856048
2.4546132802785374,0.30102603055414756,0.4120633499417474,-0.024957988270822185,0.510916604364086
2.457100223824919,0.18644842855848454,0.4309932941805106,-0.0392920541594286,0.47123465668450565
2.459587167371301,0.07665891745360531,0.44034678228059665,-0.034472551127878504,0.44829703888303574
2.462074110917682,-0.004400490416229974,0.4544890284468863,-0.015287882789326801,0.45476736982184435
2.4645610544640637,-0.08546021921394592,0.46863163358061133,-0.010468469356883503,0.47647523116233864
2.467047998010445,-0.18088548312511327,0.4636209885995699,-0.005649101159264092,0.49769055789652644
2.4695349415568266,-0.2619458664359429,0.4538223076411474,0.008747028156108172,0.5240675856768636
2.472021885103208,-0.33821817997859166,0.4248703848982256,-0.0055873082597184265,0.543081576970888
2.4745088286495895,-0.3953372179670993,0.4007072411034036,-0.02471009409002889,0.5634433403037125
2.4769957721959712,-0.4285145812393541,0.3813328803649325,-0.02946771633680534,0.5743760599888033
2.4794827157423525,-0.4616922905384032,0.3523820968071951,-0.05337899852385242,0.5832514301536192
2.481969659288734,-0.4852935433482487,0.32343170113317177,-0.0533483110483548,0.5856312242402277
2.4844566028351154,-0.4897415371359973,0.28969329406184663,-0.03895246082931436,0.5703387344599631
2.486943546381497,-0.4894014859533497,0.2607436862500063,-0.04371027138566319,0.5562478514090611
2.4894304899278787,-0.46511978059278103,0.23658288169060304,-0.04846812971126724,0.5240773128131143
2.49191743347426,-0.44562684503280425,0.2219992876736283,-0.03407242279836353,0.4990269519142626
2.4944043770206417,-0.4213458766722455,0.20741610150476264,-0.019676764200047714,0.470043574577423
2.496891320567023,-0.38270007289271396,0.18804492378657978,-0.010069557506851012,0.4265227252355646
2.4993782641134046,-0.34405464766008276,0.19261617834034084,-0.00046239966704497704,0.3943029375345735
2.501865207659786,-0.3054096049619288,0.18761104579967247,0.004356305732123644,0.3584576804989397
2.5043521512061675,-0.2571881421277822,0.18260633665737602,0.004386558425366616,0.3154521461860521
2.506839094752549,-0.2137554730712512,0.18239045806222842,0.009205164789673148,0.2811448319263026
2.5093260382989304,-0.1799000050477731,0.18217501049860463,0.023600527883369082,0.25711618226538985
2.511812981845312,-0.1364681286936148,0.19153680438797283,0.023630630844566625,0.23636476957957536
2.5142999253916933,-0.08824825122893726,0.19611063352632963,0.014083876734913403,0.21551215745509167
2.516786868938075,-0.05918239313742368,0.20068490496694524,-0.00025133138227850793,0.2092296582861238
2.5192738124844567,-0.03490534832246439,0.2052596224187444,-0.014586590442025482,0.2087167088608899
2.521760756030838,-0.01062871731024545,0.20504638624623395,-0.024133497377674118,0.20673513450785058
2.5242476995772196,-0.0007177138902730307,0.21441041007100603,-0.02410364912090479,0.2157621953934214
2.526734643123601,-0.005172341873163344,0.22856329420918575,-0.024073852562660036,0.22988580416680013
2.5292215866699825,-0.004838991770268142,0.23313983231197666,-0.024044107951585403,0.2344263559819945
2.5317085302163638,0.005070735964205819,0.23292843128749396,-0.02401441553464778,0.23421797245032716
2.5341954737627455,-0.00896198566831058,0.2231406913788243,-0.02877317887744546,0.22516656314571262
2.536682417309127,-0.013418337163829674,0.22771863272646486,-0.03832039822357913,0.23130992279421672
2.5391693608555084,-0.013086725562618196,0.23708545220421362,-0.05265607381496373,0.24321479425075
2.54165630440189,-0.02712076784758033,0.24645274998160493,-0.047838189290269284,0.2525133390074858
2.5441432479482713,-0.041155257741079254,0.251032126203548,-0.03823195484897468,0.2572402884417267
2.546630191494653,-0.05519019890802068,0.2604003909512138,-0.033414177368547016,0.26827379468048795
2.5491171350410347,-0.06443719167452772,0.2745575476404136,-0.023808050443534512,0.2830208859839495
2.551604078587416,-0.07847304630915092,0.28392679302154855,-0.018990380948039842,0.29518312512928496
2.5540910221337976,-0.0877209597806427,0.2693545171795715,-0.009384362473221941,0.2834340998696276
2.556577965680179,-0.10175774232038354,0.2883015632995436,0.005010004750831243,0.3057736575813974
2.5590649092265605,-0.12058339750046942,0.28809549817441127,0.005039107214480865,0.3123535887782265
2.561551852772942,-0.12983271891334702,0.2926783416971439,0.014644961292596292,0.32051773974350306
2.5640387963193234,-0.12950571009363981,0.3068385004544276,0.009885550158628575,0.3331956158323792
2.566525739865705,-0.14833279447903763,0.31621076772664436,-0.004450723090398512,0.34930169836441055
2.5690126834120863,-0.14321834568368608,0.3303719533706171,-0.013998648715121575,0.360351334505838
2.571499626958468,-0.1381043837872019,0.32059164065551116,0.00039538634583458077,0.34907302561183046
2.5739865705048492,-0.1425677188893149,0.3251770593096732,0.010000961952444598,0.3551981047395435
2.576473514051231,-0.14703154778950495,0.33933980915338546,0.010029674567942237,0.3699599660687253
2.5789604575976126,-0.15628427722915283,0.3295610700597873,0.014846733938529866,0.36504205198392176
2.581447401143994,-0.15117229732898657,0.3102060550798158,0.0005101232496151908,0.34508132420291165
2.5839343446903755,-0.14606082143279198,0.3100051871999878,-0.013826544428859222,0.3429696094107533
2.5864212882367568,-0.15052665954486838,0.31938166281892544,-0.004221252704931899,0.3531016011760884
2.5889082317831384,-0.14541620172842284,0.30960506502856955,-0.008981228348984516,0.3421722234184457
2.59139517532952,-0.1403062579492777,0.2998290100985157,-0.004164454965630782,0.33105984957639584
2.5938821188759014,-0.13998523483364173,0.30441871095254447,0.010229067240681289,0.3352182145499451
2.596369062422283,-0.14445313566806883,0.3042205572467158,0.010257321465646285,0.3369303614984696
2.5988560059686643,-0.1345563504384798,0.284869341931834,-0.00407969249176432,0.31507554222253825
2.601342949515046,-0.11508328571293508,0.28467229445654274,-0.01362836154960334,0.3073568123861326
2.603829893061427,-0.1147643646415955,0.2940526110407311,-0.01838868590546916,0.3161897234585441
2.606316836607809,-0.11444597715199556,0.2986450845583182,-0.027937472395853646,0.321040917300255
2.6088037801541906,-0.09497451315213118,0.303238121138786,-0.03748631789460255,0.3199667799781105
2.611290723700572,-0.08029199241323437,0.29825491692496486,-0.03745841595351607,0.3111365173703518
2.6137776672469535,-0.07518682140567418,0.29806068463550384,-0.03264217008361747,0.3091257690750511
2.6162646107933347,-0.0748705999395452,0.297867023682036,-0.0278259837942052,0.3083904277156108
2.6187515543397164,-0.06976652448494441,0.28809713013009164,-0.01822145395222563,0.2969837465452215
2.621238497886098,-0.0694514047734981,0.27353940998032567,-0.01819379070414584,0.2828043854992055
2.6237254414324793,-0.06434843723583256,0.27334747916849267,-0.02295459091346963,0.2817560629098656
2.626212384978861,-0.07361123820465293,0.2683677270419884,-0.027715451441975958,0.27965692831814104
2.6286993285252422,-0.08287460075066405,0.25381175288326885,-0.03247637247003965,0.268967135762108
2.631186272071624,-0.08256172124502553,0.23925636590983057,-0.022872144215364543,0.25413221248855583
2.633673215618005,-0.08703781264057459,0.23906677863357118,-0.0228447834564367,0.25544155810411934
2.636160159164387,-0.08193766794835644,0.2388777836185798,-0.027605887048141042,0.2540442125596544
2.6386471027107685,-0.07204969344071865,0.2339009800436198,-0.02279024520301931,0.2458052523171161
2.6411340462571498,-0.0717391020106562,0.2241363703818049,-0.027551471374071212,0.2369444974252435
2.6436209898035314,-0.08100589657021967,0.2239491670412055,-0.03231275909070597,0.24033164397900017
2.6461079333499127,-0.0711196600895489,0.22376256580233944,-0.03707410852123516,0.23770187510481186
2.6485948768962944,-0.07081081536246958,0.20921135909940736,-0.03704711651194259,0.2239554714454826
2.651081820442676,-0.07529096192052842,0.2186027758640332,-0.037020186548023304,0.2341503721424112
2.6535687639890573,-0.07498329595484082,0.22799480183775245,-0.051358528753571164,0.24544209666032976
2.656055707535439,-0.07467622359731468,0.22781063269700486,-0.04654332004784045,0.24421405238364458
2.65854265108182,-0.07436974763937487,0.23720388401406334,-0.04172817387180139,0.2520670197585888
2.661029594628202,-0.07885227417256285,0.2465977514132751,-0.03212468706314908,0.2608833602650305
2.663516538174583,-0.08333540262757427,0.24162702717261908,-0.03209806973910645,0.25760181612782557
2.666003481720965,-0.0782423290945482,0.23186852014557235,-0.02728311209329881,0.24623005686173405
2.6684904252673465,-0.07793826624491862,0.2364758458001721,-0.008103007637949133,0.24912016723852617
2.6709773688137277,-0.08242321676889114,0.250660602976819,0.001500226874243893,0.26386848092924686
2.6734643123601094,-0.08690878001605018,0.25526918052891423,0.006314994614184499,0.26973203318990274
2.6759512559064906,-0.09618336195626709,0.2503015805650235,0.02549490871541593,0.26935499015419523
2.6784381994528723,-0.10067015857812106,0.25491141844889365,0.030309549110079104,0.2757407856140025
2.680925142999254,-0.10036917249044613,0.25473348627601267,0.02075891565390009,0.2745797741929915
2.6834120865456352,-0.10006880960199116,0.24497938275642372,0.025573428126179465,0.2658621162501397
2.685899030092017,-0.10455747580109259,0.25916793313659303,0.03038787642512375,0.28111155498452606
2.688385973638398,-0.1090467703150304,0.2781455261134922,0.01604864713032761,0.29918838695344463
2.69087291718478,-0.1183250989912607,0.27797014703772005,0.006497756705904578,0.3021761945251023
2.6933598607311615,-0.13239246433645968,0.2825838144369448,-0.007841601624512862,0.3121584013139034
2.6958468042775428,-0.12730685223526234,0.28719812689090896,-0.0173926213543254,0.3146304212775244
2.6983337478239244,-0.12701028175492468,0.27744787631269263,-0.007790092654923697,0.3052369920004141
2.7008206913703057,-0.14107956198125493,0.2676982745112131,-0.007764435578804907,0.30269802682700286
2.7033076349166874,-0.14078427541703215,0.2675261299490521,-0.022104053575194627,0.3031155416580795
2.7057945784630686,-0.14527803774761766,0.2673546377815259,-0.00771331688850907,0.3043742857938425
2.7082815220094503,-0.14498404471594223,0.26239539645826104,-0.007687855527080956,0.29988467854708345
2.710768465555832,-0.13032549204436972,0.2526484077232043,-0.02202766961474545,0.2851336003180508
2.713255409102213,-0.13960960863780159,0.24769047993495397,-0.022002339351770317,0.2851762956687642
2.715742352648595,-0.14889438021649465,0.2331564048245749,-0.012400268178918594,0.2769209494091847
2.718229296194976,-0.1390261958004087,0.21862299069875135,-0.002798262855574052,0.25909867899278993
2.720716239741358,-0.12437026763107911,0.2184554491585442,-0.012349936780054804,0.25168088460619903
2.7232031832877395,-0.1336570178903551,0.22307697517753589,-0.012324870145882016,0.2603448438318196
2.7256901268341207,-0.12857922225508295,0.22769916702371962,-0.012299869707391053,0.26178390678923824
2.7281770703805024,-0.11392528626427534,0.22753362293921464,-0.0170633388969339,0.2550326997711341
2.7306640139268836,-0.09927201875661534,0.23215715110121238,-0.01703847118424484,0.2530655765127713
2.7331509574732653,-0.10377303519074493,0.22241613973919394,-0.026590476638949312,0.2468700781728534
2.7356379010196465,-0.10348632112184664,0.22704101025994206,-0.03135414540712489,0.2514758863855543
2.7381248445660282,-0.07925826540473829,0.22687815084132223,-0.016964267633165164,0.2409218843120636
2.74061178811241,-0.0837613066782506,0.22671596623698997,-0.01693966666293001,0.2422870986038487
2.743098731658791,-0.09305343043554148,0.22655445785453843,-0.016915132637487673,0.24550353358298083
2.745585675205173,-0.08798102546939501,0.22160522375552683,-0.012102262336867398,0.23873835215996153
2.748072618751554,-0.0876977071144095,0.21665666861644128,-0.01686626582069728,0.23434050185965213
2.7505595622979357,-0.0778382674423081,0.22128560040840917,-0.02163033654536939,0.23557161179903735
2.7530465058443174,-0.07276791842599079,0.2211268104753592,-0.03118287792655039,0.23487147153036533
2.7555334493906987,-0.07248666205673615,0.22575710673715976,-0.03594708341730346,0.23981822329562738
2.7580203929370803,-0.06262929034418402,0.22559968380685325,-0.04071135642996815,0.23764481876349877
2.7605073364834616,-0.06234941851946779,0.2254429462328611,-0.040687293734611885,0.23741825512650674
2.7629942800298433,-0.07164704851177417,0.22528689521777157,-0.02629808877934181,0.23786356213333273
2.7654812235762245,-0.07136856894835192,0.22034312861837124,-0.021485758252810072,0.23260740480639466
2.767968167122606,-0.056725578396684184,0.21540005090661563,-0.011885092279531051,0.22306104230345544
2.770455110668988,-0.05644849864575674,0.21524606652903833,-0.0022844942636268684,0.22253656119753387
2.772942054215369,-0.07532573486230199,0.2246695799067866,-0.0022607709278865684,0.2369715121132204
2.775428997761751,-0.08462686895017868,0.2340937854747196,0.002551287608103081,0.24893395994651676
2.777915941308132,-0.0795634993941256,0.23873028096269078,-0.002213528695477862,0.2516493536523589
2.7804028848545137,-0.07928924125976605,0.24815587403621553,-0.006978413275266604,0.2606085567476016
2.7828898284008954,-0.07901569299048944,0.2671589690152585,-0.006954962886585037,0.27868578358577406
2.7853767719472766,-0.08831966296994798,0.27658595359301685,-0.006931580923762226,0.2904276147445114
2.7878637154936583,-0.10241274960020474,0.29080203867972587,-0.006908267459195372,0.308385993748495
2.7903506590400395,-0.0973529379814102,0.2954420152386197,-0.011673425883969912,0.3112874038147667
2.792837602586421,-0.08271703643525619,0.3000826908094214,-0.016438652946940024,0.31170813071006703
2.7953245461328025,-0.08244706322373091,0.2999356629458809,-0.011627142075024466,0.3112781884004014
2.797811489679184,-0.08696621334600274,0.29978933581737977,-0.006815699974794143,0.31222303230177395
2.800298433225566,-0.08669768178061649,0.29964371024803915,-0.01158113335120703,0.3121489448437113
2.802785376771947,-0.08642987344644043,0.3042871903573907,-0.006769828985751403,0.3163963460978318
2.8052723203183287,-0.09095119324173884,0.3137197769197959,-0.01632380354113394,0.32704538606247324
2.80775926386471,-0.0906848360832449,0.3039994540832427,-0.021089443795652585,0.3179373715340249
2.8102462074110917,-0.09520761014835905,0.299068239174082,-0.016278346486956252,0.3142789927392495
2.8127331509574733,-0.0949427103126661,0.2989261328923831,-0.006678914991729457,0.31371254210339805
2.8152200945038546,-0.0994669447124345,0.29399632927293595,-0.0018679560054000177,0.310372363421786
2.8177070380502363,-0.09920350818214624,0.29864403892747005,-0.006633872901497639,0.31475960079436915
2.8201939815966175,-0.09894080549668527,0.2889272458806569,0.0029653508698856967,0.30541288399524996
2.822680925142999,-0.09867883809010669,0.2839995640154682,0.017352908618034846,0.30115509108314176
2.825167868689381,-0.09841760737596306,0.28864939722947147,0.022163590333487804,0.30577070608385154
2.827654812235762,-0.09815711474731958,0.2932999394348914,0.0221857992895913,0.31008367151165417
2.8301417557821438,-0.08832055493614699,0.2883743845196056,-0.001734077840310988,0.30160124850080877
2.832628699328525,-0.07848473593520466,0.26908432966749585,-0.025654024498516392,0.28146822062249743
2.8351156428749067,-0.08301486903713601,0.25937179196008087,-0.02084362080544544,0.2731293676522492
2.837602586421288,-0.08754574559228223,0.25923677185312544,-0.020821690044032337,0.2744111955231196
2.8400895299676696,-0.09207736689152102,0.25431405981732347,-0.025588232253477727,0.27167745608405364
2.8425764735140513,-0.09660973420534752,0.24939205958054345,-0.006412827549560518,0.2675275022913226
2.8450634170604325,-0.1011428487838884,0.23489396488571268,-0.001602702530899336,0.2557491334398877
2.847550360606814,-0.09131150189599352,0.21081977609241198,-0.015946260552388125,0.23029774552904636
2.8500373041531954,-0.0766925013917471,0.20111151013789863,-0.03507829168614762,0.21807811863478574
2.852524247699577,-0.0812278650618678,0.20098076401371623,-0.03505677936215079,0.21959100925423294
2.855011191245959,-0.09055238411429206,0.19127392472669813,-0.025458530251034617,0.21315155479536085
2.85749813479234,-0.09030084973669605,0.20072141246308295,-0.015860351021938612,0.22066916327136316
2.8599850783387217,-0.08526166637776833,0.20059280754172004,-0.006262241701845639,0.2180510074778737
2.862472021885103,-0.0802232384659829,0.18609970685942523,-0.01581781559749018,0.2032709329279771
2.8649589654314846,-0.07518556708930996,0.1763957238910563,-0.025373459451598634,0.19342216354423505
2.867445908977866,-0.07972545995617786,0.1714808588067629,-0.020563963325722412,0.19022279172063145
2.8699328525242476,-0.07947770815331023,0.18093191839392286,-0.02054294052210004,0.19868336012938392
2.8724197960706292,-0.07923071602856407,0.1855952894947217,-0.034887197700863126,0.20479315029670211
2.8749067396170105,-0.07898448458939306,0.19025937552963157,-0.039654718278464784,0.2097848313499378
2.877393683163392,-0.07395061150287369,0.1997125798959427,-0.044422308912066555,0.21754803846374096
2.8798806267097734,-0.07370590437698188,0.20916649932719134,-0.04440156629641123,0.22617401236745863
2.882367570256155,-0.07346196083874573,0.21383273053385832,-0.02043887716382642,0.22702168186663815
2.8848545138025368,-0.07800718513583665,0.21371127352374764,-0.015629871409231555,0.22803929978016482
2.887341457348918,-0.08255317485534386,0.20880212828174827,-0.020397742402646912,0.22545381644321166
2.8898284008952997,-0.07752312424412527,0.21347050473083096,-0.0060120702313959384,0.22719074842755602
2.892315344441681,-0.07249384081038618,0.22292799948994846,-0.020356888106329407,0.2353011959285496
2.8948022879880626,-0.06267692208153508,0.23238620915534236,-0.0347017761118682,0.24317886428002655
2.897289231534444,-0.0576491755260794,0.2226915203396871,-0.01073950769034937,0.23028303822789262
2.8997761750808255,-0.07177581191303739,0.22257435283621918,0.003645883951698181,0.23388972227532093
2.902263118627207,-0.08111481542914811,0.21766949653287826,0.022819608773238187,0.23341027729632025
2.9047500621735884,-0.076089380202358,0.2175537578967499,0.05157007009404424,0.23617515424803115
2.90723700571997,-0.07106471694246153,0.23180394337258559,0.07074365463375365,0.25256271860298946
2.9097239492663514,-0.06604082637864339,0.25084324610161923,0.05639834579311831,0.26545149890662095
2.912210892812733,-0.0562293059001312,0.2650948592029123,0.03726456349773244,0.2735428063585277
2.9146978363591147,-0.05120696283748882,0.2745587824140192,0.013342307752747473,0.27961168648659473
2.917184779905496,-0.050973797861079584,0.28881182209108847,-0.010580018114971779,0.29346640937468443
2.9196717234518776,-0.055529811621730985,0.3030655746073867,-0.015348800816228803,0.3084929305143745
2.922158666998259,-0.055298198110144414,0.3125316363142896,-0.024906056943221344,0.3183617848988398
2.9246456105446406,-0.05506736125849376,0.31242160354137516,-0.029674979844569904,0.31862246792107
2.927132554091022,-0.05483730165921191,0.3075238792371233,-0.020078762867495215,0.3130195244271535
2.9296194976374035,-0.0641848265259653,0.2978384630080608,-0.005694212639086871,0.30472916837866276
2.932106441183785,-0.05437951649056694,0.2881537577594626,-0.005674942425676122,0.29329494522780586
2.9345933847301664,-0.04936338868895179,0.2784697630548103,-0.024809355531280275,0.28389726522200986
2.937080328276548,-0.05392484695652794,0.28794009171743085,-0.029578628696057763,0.29443552912830795
2.9395672718229293,-0.06327548846884107,0.29262272666652134,-0.02477116522129741,0.3004088184942994
2.942054215369311,-0.058261700421301355,0.2925176674016039,-0.03911738500849893,0.3008175215773841
2.9445411589156927,-0.06282549987297847,0.2924133167213516,-0.04388686811403808,0.3022890147245349
2.947028102462074,-0.07696688726224171,0.2779444641221369,-0.01992600123360333,0.28909180617261027
2.9495150460084556,-0.07674384640685239,0.2586879156808739,-0.0007536075849277069,0.2698325844019316
2.952001989554837,-0.07652158766801653,0.24900888077389682,0.01363031285776728,0.2608577419056282
2.9544889331012185,-0.08108851474732715,0.23933055215517118,0.028014163441886453,0.25424250976611945
2.9569758766476,-0.08565622468680162,0.23922973583916063,0.028032734234935575,0.25564367687458445
2.9594628201939814,-0.0902247178298608,0.2295528178977997,0.023262831907310044,0.2477421144267687
2.961949763740363,-0.08521718786043997,0.19593458770279293,0.018492859810409712,0.21446285839061374
2.9644367072867444,-0.0849988450452111,0.18625907776938933,0.013722817976644208,0.20519640212182896
2.966923650833126,-0.08478128635082349,0.20052628738934208,0.0041643031194062985,0.21775215238872758
2.9694105943795073,-0.07977610872519497,0.20042898927159092,-0.00539428140596776,0.21578949357105504
2.971897537925889,-0.08434852237880386,0.20990919926891527,-0.014952935563174563,0.22671597969080434
2.9743844814722706,-0.08892172090193085,0.21460170665146094,-0.029300062634906254,0.2341355560701749
2.976871425018652,-0.09349570450688038,0.2097181073099561,-0.043647259261941684,0.23372679464705648
2.9793583685650336,-0.08849366674679032,0.20004680375578854,-0.04841771876346712,0.224040461161499
2.981845312111415,-0.07870401111723174,0.1999530051211056,-0.048399844418325344,0.22026817873360716
2.9843322556577965,-0.07370354441563615,0.19985990391670994,-0.0435936361837701,0.21743182556550245
2.986819199204178,-0.06870386346009072,0.2045559025946475,-0.03878749733609688,0.21924371847387425
2.9893061427505594,-0.06370496837064166,0.19488738698580477,-0.03876983115033994,0.2086684365415267
2.991793086296941,-0.07786047253027106,0.19000796946404286,-0.03396383093933508,0.2081317454271728
2.9942800298433223,-5.804581923874018,4.9831093727353695,1.0769632670165965,7.7255679538860536
2.996766973389704,-4.74134825313121,2.5648760685098932,1.0482503055399341,5.4916118951861215
2.9992539169360852,-3.673326965231579,0.27114194254060253,0.9860184516731643,3.813014730307513
3.001740860482467,-2.629248480126557,-1.8454205696324713,0.8950561087881717,3.334613933718485
3.0042278040288486,-1.6378432177483977,-3.7034086125687473,0.7801516802579922,4.12388195778955
3.00671474757523,-0.718264791371469,-5.274091767368542,0.6604587794178869,5.36359525695766
3.0092016911216115,0.11033318574800188,-6.533528018471743,0.5407658096433874,6.5567971938219864
3.0116886346679927,0.8335855036920043,-7.443410140376082,0.41149596435031377,7.501236447312905
3.0141755782143744,1.4562805658416276,-8.003738134160495,0.28701445355726385,8.140206047958104
3.016662521760756,1.9544763556738833,-8.219300404242825,0.1816864872840469,8.450437085721433
3.0191494653071373,2.318596066644465,-8.128404178301622,0.06678164566885947,8.452887198720251
3.021636408853519,2.5917353287501936,-7.7454146674322875,-0.04812326458639582,8.167671408263285
3.0241233523999003,2.7547405288414666,-7.1038506960298005,-0.1582398400989362,7.620913983225331
