Time (s),Acceleration x (m/s^2),Acceleration y (m/s^2),Acceleration z (m/s^2),Absolute acceleration (m/s^2)
0.0,0.050878514777021544,0.018669898648056016,-0.00927419411987529,0.05498362536262421
0.002486943546381497,0.051264847821921866,0.028325595675536164,0.00039985064585223995,0.05857118637280406
0.004973887092762994,0.04686363773742841,0.03319306713696557,0.0004972096779027879,0.05743019645977043
0.007460830639144491,0.052040093677812815,0.033272312738775955,0.010171495705305844,0.06259934081015152
0.009947774185525988,0.047640601548601835,0.03814013882562417,0.02463430485414264,0.06581144339092833
0.012434717731907486,0.048030370490971364,0.04300814177883616,0.024732023288187577,0.0690528038872854
0.014921661278288981,0.04842099635833774,0.047876321297654734,0.0152530537714064,0.06978101947294722
0.01740860482467048,0.03923567167732034,0.05274467707893171,0.010562605707024275,0.06658083456561147
0.019895548371051976,0.03005120224932767,0.052824805496820115,-0.003704531424954638,0.06088725963192423
0.022382491917433474,0.03044439386933273,0.05769351288402236,-0.017971551544308184,0.0676637215343617
0.02486943546381497,0.03083843904465,0.05777399228960611,-0.02266164857213404,0.06929930608452703
0.02735637901019647,0.031233336916834165,0.0482778400805719,-0.008198016430846167,0.05808165503156891
0.029843322556577963,0.017263876660145727,0.053147072543412666,-0.008099478926972381,0.0564646288942021
0.032330266102959464,0.02723728396594649,0.058016479399746856,-0.012789229985523676,0.06535553475724512
0.03481720964934096,0.032423138034919474,0.04373244704850654,-0.017478866853108954,0.057177771829187096
0.03730415319572246,0.03282143798334125,0.024660185128440038,-0.041322003379184125,0.05824842903574787
0.03979109674210395,0.033220586241546335,0.010376499955614626,-0.04601141357072258,0.057691674272263606
0.04227804028848545,0.024043775272705292,0.0104581978437297,-0.026758694678147066,0.037463379083863255
0.04476498383486695,0.024444617455661066,0.010540068502561173,-0.012294267195310127,0.02932202879171171
0.04725192738124844,0.02484630524120801,-0.008531501680787201,-0.007406535015739735,0.027294361432499834
0.04973887092762994,0.030037241034930107,-0.018026093118446607,-0.026460708674829192,0.04390153739539856
0.05222581447401144,0.035229020595666016,-0.017943706146775096,-0.031149562185744273,0.05033245182558887
0.05471275802039294,0.026056433035536397,-0.02264955106541988,-0.031049902765984072,0.04643313825036512
0.05719970156677443,0.021673090702783337,-0.02735522489512565,-0.03573853763425028,0.04995272026535391
0.059686645113155926,0.03165579929898499,-0.02727232465898588,-0.050003870690119356,0.06516330566781373
0.062173588659537427,0.041639347918146496,-0.022400850702746222,-0.0546922892327828,0.0722971639054918
0.06466053220591893,0.032470122327977746,-0.027106013335425505,-0.04980379384386069,0.06534112551965936
0.06714747575230041,0.023301734852732903,-0.03659940958712937,-0.044915191746751404,0.06244887572183322
0.06963441929868192,0.03807620113105081,-0.04609263649029316,-0.030449676884755306,0.06709330110811766
0.07212136284506342,0.043274696951922764,-0.050797291079681894,-0.01598405648354806,0.06861890584222352
0.07460830639144492,0.03889722134065632,-0.060290180353318235,-0.006306734449626816,0.07202551335796059
0.0770952499378264,0.03452057995734148,-0.060206094709985614,0.0033706919500176014,0.0694824139264093
0.0795821934842079,0.04450998177656651,-0.05533343783203426,-0.0061053911542714445,0.0712755471477318
0.0820691370305894,0.04971181252494683,-0.06482582336506493,-0.006004564430124759,0.0819127979834017
0.0845560805769709,0.04533766788427862,-0.059952831753862235,-0.005903635108747807,0.07539694338624942
0.0870430241233524,0.03617595017125497,-0.05507967332833141,-0.010591007102108918,0.06674308365805214
0.0895299676697339,0.05095707829843221,-0.04541794513942854,-0.005701471041987816,0.06849759369089777
0.0920169112161154,0.06573903464925956,-0.030967647560725897,-0.010388640803421723,0.07340667360536371
0.09450385476249688,0.07573341488279384,-0.03088239424933681,-0.0007105003796681331,0.0817910582837168
0.09699079830887838,0.06657500801185867,-0.03558537894279645,0.008967739672470998,0.07601954512567592
0.09947774185525989,0.07178263624681713,-0.04028819870124245,0.009069272115489468,0.08281387273783575
0.10196468540164137,0.08177949190966854,-0.0354140472667841,0.018747709632741305,0.09106874687449663
0.10445162894802287,0.07741196067626555,-0.020962925024439638,0.02842624498468993,0.08508881997802983
0.10693857249440437,0.06825684813884192,-0.011300042322437864,0.018951264290191006,0.07173450140995255
0.10942551604078588,0.06867936320447976,-0.006425399550342714,-0.00010042641102359084,0.06897935035224978
0.11191245958716736,0.06910269817326653,-0.001550593779676035,-0.019152021080190096,0.07172438321345949
0.11439940313354886,0.06952685198051134,-0.006252432045159129,-0.03341511699982824,0.077392803909094
0.11688634667993036,0.06516342023583799,-0.0061657047822123445,-0.03810131145340456,0.07573636634248539
0.11937329022631185,0.06558920850446393,0.0034979909308607837,-0.02842220172533949,0.07156816166222463
0.12186023377269335,0.06122740906504476,0.0035850414119447116,-0.004377788421290774,0.061488317379850874
0.12434717731907485,0.05686642415189125,0.008460656218859608,-0.009063702030660536,0.05820243632338021
0.12683412086545634,0.0525062526737502,0.008548028305619848,-0.00417271659843621,0.05336091192590549
0.12932106441183785,0.057723700174772796,0.008635560584938862,-0.004070042693950171,0.0585078090173764
0.13180800795821934,0.06294195891266985,0.01351165596729098,-0.008755680926489262,0.06496858461771456
0.13429495150460083,0.058584221139994064,0.008811104079668564,-0.008652825265594188,0.05987167866996368
0.13678189505098234,0.04943888906510674,-0.0006776921719122697,0.0058153303183203775,0.04978434578643148
0.13926883859736383,0.054659574852208626,-0.000589523243036183,0.00591836529148182,0.05498221265465491
0.14175578214374532,0.05509266409793512,0.009075610447552673,0.015598295642702098,0.05797305554618262
0.14424272569012683,0.04594975235482379,0.01395249851795688,0.02048991079745832,0.052210041187984356
0.14672966923650832,0.051172855092282754,0.009252737224690666,0.020593210141331753,0.05593169538258245
0.14921661278288983,0.05639676121224846,0.009341536103313341,0.020696596379405463,0.06079644787068483
0.15170355632927132,0.05683306625234108,0.009430491405930663,0.025588472215957836,0.06303730243393327
0.1541904998756528,0.052481769065584105,0.019096409343388743,0.025692030393528853,0.0614742983677372
0.15667744342203432,0.048131271820435306,0.019185676202467583,0.016218866974179846,0.05429328820696627
0.1591643869684158,0.05335838000081872,0.019275098189633688,-0.012407825301115949,0.058074092805956115
0.1616513305147973,0.06337468912490618,0.014576271548233155,-0.021880820489027286,0.06861187374791165
0.1641382740611788,0.07818019802639864,0.009877599160059258,-0.02177692585009794,0.08175539632400038
0.1666252176075603,0.07862129225299563,0.014755887225045061,-0.031249755286248515,0.08588126110380317
0.1691121611539418,0.06469797062892768,0.010057522019077947,-0.021568889497011412,0.06893618894891214
0.1715991047003233,0.06514065189561302,0.019724519698693932,-0.031041555667016496,0.07480601168995765
0.1740860482467048,0.07994933486793965,0.02939166985576991,-0.03572573781754329,0.09236933877290866
0.1765729917930863,0.08518200175460977,0.024693762080027604,-0.030833033251827402,0.09389585319967887
0.1790599353394678,0.08083865136129786,0.024784409201227042,-0.021151845914415546,0.087158218654092
0.18154687888584928,0.07649608912974348,0.03924041740635875,-0.02104738639117265,0.08851245383713097
0.1840338224322308,0.08173112049716014,0.044119769638085504,-0.016154445346753477,0.09427351820686596
0.18652076597861228,0.09175534093532844,0.048999272079123024,-0.0256266366886706,0.10712934127686682
0.18900770952499377,0.09220353927094382,0.06345573091005363,-0.0207335411219578,0.11383322084028691
0.19149465307137528,0.09744092424814532,0.06833553238746415,-0.011051965914802508,0.11952666922320271
0.19398159661775677,0.09310228468480142,0.06842707936738268,-0.0061587183360174436,0.11570752099938143
0.19646854016413826,0.08397602267566617,0.07330717802403575,-0.006053799014420491,0.11163585094752791
0.19895548371051977,0.08442734695178611,0.06382221460766635,-0.0011604019388276043,0.10584232859968606
0.20144242725690126,0.09445625627896947,0.054337398608601095,-0.01542054434085216,0.11005603311748317
0.20392937080328274,0.08533232949688507,0.05921793951506338,-0.02489221024957189,0.10680820637424615
0.20641631434966426,0.0809975819644031,0.06409862689131085,-0.019998593655570218,0.10521019913312726
0.20890325789604575,0.08624041575494201,0.04982584697920078,-0.0007396951906368798,0.09960206567012068
0.21139020144242726,0.08669561965650174,0.04034161590131857,0.004154064591004314,0.09571223899680002
0.21387714498880875,0.0727863857732588,0.04043433649692352,0.013836298337706054,0.08440519340402046
0.21636408853519024,0.06845472944747233,0.0357387983219537,0.03788381205665203,0.08601450403953771
0.21885103208157175,0.06412384277514371,0.026255000891218128,0.028412571910726214,0.0748896957306638
0.22133797562795324,0.06458212780917427,0.026348153678401598,0.01894140050761095,0.0722762276811049
0.22382491917433472,0.0698295832781477,0.02165304623325559,0.014258700532591817,0.07448715092455478
0.22631186272071624,0.06550099794573827,0.012169678064421596,-0.009577545251421071,0.06730684340482988
0.22879880626709773,0.06596158049355538,0.017051661959745168,-0.023836917558586634,0.07217955330626577
0.2312857498134792,0.06163452299773864,0.012356980822220365,-0.023731013705102555,0.06719129714234769
0.23377269335986073,0.05251982417117851,0.012450844115308612,-0.014048237648271567,0.05577372527613281
0.23625963690624222,0.05298269268386213,0.007756444698881815,-0.023519009947424507,0.05848480133595773
0.2387465804526237,0.06302312724103021,-0.011303024569208286,-0.032989717959207354,0.072027733705006
0.24123352399900522,0.06348751326289825,-0.011208740950313878,-0.018518345720409002,0.06707629493508505
0.2437204675453867,0.054375849447188984,-0.015902721551546595,-0.023200523752622715,0.06122004457892364
0.24620741109176822,0.05484174776916495,-0.030173370200770044,-0.023094236093486487,0.06671876279122028
0.2486943546381497,0.05530840027853745,-0.03007867080597393,-0.02777629002324211,0.06881328262973893
0.2511812981845312,0.055775805661998024,-0.03477223715995059,-0.05161189614284467,0.08356935322121743
0.2536682417309127,0.056243962602626985,-0.03946566645591343,-0.061082231850519975,0.09193454848910605
0.2561551852772942,0.05192446645961368,-0.03937055588906002,-0.04661049114643134,0.08011696932011782
0.2586421288236757,0.05239412254953979,-0.04885211593781191,-0.02735028795300032,0.07667927725565522
0.26112907237005717,0.05286452622453586,-0.06312194380130487,-0.008090026232059344,0.08273141148702311
0.2636160159164387,0.05333567615356527,-0.0678148300400152,0.01595869669482397,0.0877395322777112
0.2661029594628202,0.06338437764276872,-0.06771917849762277,0.030430670224490086,0.09761911777856672
0.26858990300920166,0.0734338227136222,-0.072411796340071,0.044902700354990444,0.11248220777839343
0.2710768465555832,0.07869560670453213,-0.06273907081337216,0.03543276984187216,0.10669897234644209
0.2735637901019647,0.0743813249505565,-0.05785461572797779,0.03075129796380338,0.09912305679755275
0.27605073364834615,0.07964458938499852,-0.048181624974395376,0.026069880756953268,0.09666627274370343
0.27853767719472766,0.0896969953363137,-0.03850850240599435,0.011811710936878939,0.09832584728936507
0.2810246207411092,0.09496173480939396,-0.014470038596817947,0.011918804461041432,0.09679447812134537
0.28351156428749064,0.10501561308716179,-8.250685313626605e-06,-0.0023392592368196574,0.10504166408584414
0.28599850783387215,0.10549341884779051,0.004876860789720272,-0.007020464199797516,0.10583918040564332
0.28848545138025367,0.11076036068817385,0.00018529528758781666,0.0026635922475026774,0.11079253836689061
0.2909723949266352,0.10645122728020973,0.014647472187569122,-0.016382720422894792,0.10869593257984961
0.29345933847301664,0.11650803385520464,0.024321374343623692,-0.030640579614203745,0.12290035118689673
0.29594628201939815,0.12177716575859593,0.024418597889074523,-0.03053317933143873,0.12789926138625923
0.29843322556577967,0.11268181497342078,0.019727545595996432,-0.030425730181399047,0.11837268493203003
0.30092016911216113,0.11316399672190869,0.029401830195532774,-0.030318232810159884,0.1207880499621306
0.30340711265854264,0.1088584996608295,0.029499434534151714,-0.020633881223375283,0.11465664673529345
0.30589405620492416,0.10455372572527366,0.01523195473771688,-0.015737886028455605,0.10682310173746251
0.3083809997513056,0.1098264801677461,0.015329810172428626,-0.010841844551755742,0.11141994623604635
0.31086794329768713,0.10552314831601217,0.02021619364014482,-0.0011573541198011128,0.10744844710081926
0.31335488684406865,0.09643213209656665,0.025102701261198845,0.008527181300102882,0.10001007215387607
0.3158418303904501,0.09213023675341458,0.029989332474408492,0.01821176106080813,0.09858503348600538
0.3183287739368316,0.09261746088716616,0.030087683396454956,0.02310798119472146,0.10008617061435943
0.32081571748321314,0.09310539977538068,0.0301861567828281,0.013639034413785112,0.09882227880590162
0.3233026610295946,0.09359405201322224,0.015919542105959472,0.013746936671999777,0.09592839340352333
0.3257896045759761,0.09408341619317873,0.01601825871928675,0.013854880681055448,0.09643770804858012
0.3282765481223576,0.08499668426446838,0.025693902732264018,-0.0051907474880952265,0.08894693267928883
0.3307634916687391,0.07591066145494596,0.02579286029161887,-0.02423633520210622,0.08375619444900323
0.3332504352151206,0.07161374966957124,0.021103534143859903,-0.019339866507410264,0.07712275106362275
0.3357373787615021,0.06731754417012692,0.011625923713407538,-0.004866552013021774,0.06848720452597264
0.3382243223078836,0.08696406013775004,0.016513641704165583,0.004818397671973784,0.08864911208862188
0.3407112658542651,0.0922460695870243,0.021401477576085792,-0.009438631381879503,0.09516537373991044
0.3431982094006466,0.08316357109257422,0.01671262410767893,0.0002463933802836493,0.0848266000210551
0.34568515294702806,0.07408177318753295,0.00723548403664509,0.024296664669535062,0.07829935671458263
0.3481720964934096,0.08415428772294675,0.0073352667395685245,0.019616551954717565,0.08672115884194156
0.3506590400397911,0.0894390966646822,0.0026467616694225704,0.0053596678687259924,0.08963862671411328
0.3531459835861726,0.08514779525751703,-0.0068300317616101225,0.005468028364747468,0.08559611968587318
0.35563292713255407,0.09522239866579407,-0.016306710822752812,0.015153229474082153,0.0977897458275585
0.3581198706789356,0.09572088884845531,-0.025783276105256103,0.015261657267092943,0.1003004689480384
0.3606068142253171,0.09622007100438013,-0.016106114920825476,-0.008571898865531224,0.09793460293528373
0.36309375777169856,0.1015083470099154,-0.020794051106301836,-0.008463406369022763,0.10396136937085865
0.36558070131808007,0.09722050545797023,-0.020693471976782174,0.0012219241473534481,0.09940593323629618
0.3680676448644616,0.10251015818147946,-0.020592781450613717,-0.01782313452720352,0.10606629673293716
0.37055458841084304,0.117377303729995,-0.020491980127508302,-0.027291356478452045,0.12223817251130532
0.37304153195722456,0.11309152072909567,-0.010814261968223882,-0.022394339034290667,0.11579355225365359
0.3755284755036061,0.1183832276460336,-0.010713240857057826,-0.02707409944442496,0.12191131603867032
0.37801541904998753,0.1284640197038308,-0.0010353041174626654,-0.041330638356933846,0.13495294691140877
0.38050236259636905,0.128968685482868,0.018219547644206635,-0.04122193981825539,0.13661669763948442
0.38298930614275056,0.12947403016310077,0.013532490577767398,-0.031536407796608046,0.13394475654025
0.385476249689132,0.12998005228190046,0.01842234731577541,-0.031427656221055145,0.13498849746321892
0.38796319323551354,0.14006355701533185,0.028100713926658027,-0.03131887909867359,0.14624746943100356
0.39045013678189505,0.1405709296156809,0.037779186477223003,-0.02163327043643193,0.1471579137310437
0.3929370803282765,0.14107897525523233,0.04266936103266472,-0.011947637522416343,0.14787392492379917
0.395424023874658,0.1463760957841097,0.04277123697688223,-0.0022619810039632426,0.15251379179468907
0.39791096742103954,0.14688548308967786,0.03808481369217498,-0.0021531081688888065,0.15175781380621775
0.400397910967421,0.14739553901844504,0.03339849387956395,0.0027441902966973686,0.15115698758689824
0.4028848545138025,0.14311785877452726,0.03828908355879879,0.0076415104255893596,0.1483481314394037
0.40537179806018403,0.13884084420092452,0.05275658210742762,0.017327254891362998,0.14953351041205917
0.4078587416065655,0.1345644938186108,0.05764737562017874,0.027013019727151644,0.1488641197445926
0.410345685152947,0.13507720946718405,0.05774986679177729,0.02712199764595269,0.14938708909479628
0.4128326286993285,0.13559058634395604,0.06264086163570814,0.027230994642209794,0.15182296177049698
0.41531957224571003,0.1408930262852272,0.057955149562344044,0.03212841339024486,0.1556980384063263
0.4178065157920915,0.1414077211647496,0.05326953658208167,0.027449043283333197,0.1535813696704376
0.420293459338473,0.13234626617500256,0.04858402206316015,0.01798128699621948,0.14212412902930546
0.4227804028848545,0.1184970631475305,0.053475412012919055,0.018090353844485207,0.1312571314891498
0.425267346431236,0.11422532055296852,0.06315530247624235,0.0229878398626866,0.1325309656942354
0.4277542899776175,0.1099542302588774,0.05847007953556549,0.02788534108562324,0.12761769156421507
0.430241233523999,0.11047219409227027,0.058573355834323326,0.0327828568686499,0.1292658477159566
0.43272817707038047,0.11099080723807364,0.06346513073320681,0.018526773286126286,0.12918987359208065
0.435215120616762,0.10672166487977619,0.0731454035914183,-0.0005177003451333206,0.12938327494274549
0.4377020641631435,0.1072415721603891,0.06846056048543048,-0.005196951387734572,0.12733660685418668
0.44018900770952496,0.10776212426059562,0.06856421405274427,-0.01945299708681958,0.12919808810306133
0.4426759512559065,0.10349491635971142,0.07345636364814423,-0.03370903144505455,0.13131387540422276
0.445162894802288,0.09443994695601965,0.06877179866401972,-0.03359984514450254,0.12156238507973928
0.44764983834866945,0.09017402118710716,0.05451051845225008,-0.02870224546848732,0.10920883487117354
0.45013678189505096,0.09548554086894867,0.045037732324211266,-0.028593039700025358,0.10937754690625584
0.4526237254414325,0.1055861011756154,0.04035343962890492,-0.02848382516087078,0.11656823386817705
0.45511066898781394,0.106110490639299,0.02130402643265672,-0.004432585891207097,0.10831872222122557
0.45759761253419545,0.09705870775189462,0.0022547020425625064,0.005253450905049917,0.09722692619938263
0.46008455608057697,0.1119495742462695,0.002359079084615523,0.0005742845868290658,0.11197590022337461
0.4625714996269584,0.10768745872910257,-0.002324859699406101,0.015048737755593677,0.10875871573437562
0.46505844317333994,0.09384916632933649,-0.011797114967559974,0.019946389849112123,0.09666796992945521
0.46754538671972146,0.09916511545601336,-0.011692477418355107,0.015267240227396783,0.10101248821677569
0.4700323302661029,0.09969328799360655,-0.01637615767355749,0.0010112882508259702,0.10103441450838249
0.47251927381248443,0.10979889238797769,-0.021059753075055365,-0.008456256758893943,0.11211966039719058
0.47500621735886595,0.11032831384170849,-0.020954860966105215,-0.008346992120298324,0.11261045826529456
0.4774931609052474,0.10606995415787013,-0.035215095292882026,-0.0034493217921482966,0.11181608083082335
0.4799801044516289,0.1209658284197287,-0.03511003679978986,-0.003340053053120684,0.12600238999222
0.48246704799801043,0.1262855151860769,-0.039793299435701535,0.00634602342007895,0.13255870412402368
0.48495399154439195,0.12681741625687692,-0.05884169051019672,0.020820503669911616,0.14134530406503276
0.4874409350907734,0.12734993343109047,-0.05873638745137466,0.030506580418951046,0.1435221941185373
0.4899278786371549,0.1278830651863837,-0.0538426008917785,0.035404253030824506,0.1432011353478975
0.49241482218353644,0.12362840667914332,-0.06331394478557684,0.05466713415085245,0.14926866415494586
0.4949017657299179,0.1145859563851197,-0.06320840320542942,0.0643532065419965,0.14583065119757765
0.4973887092762994,0.12948613270100362,-0.04873757350654362,0.05967406624892568,0.1506751599164535
0.4998756528226809,0.14438691749913113,-0.039055069646979135,0.04541811595738743,0.15631917882061042
0.5023625963690624,0.1401346959712496,-0.04373769894545143,0.021585355033304054,0.14838007573765183
0.5048495399154439,0.14067148319103084,-0.034055042159451876,0.007329396124308829,0.14492043378072517
0.5073364834618254,0.1459972776297127,-0.024372309930549285,0.007438641917588029,0.14820441275554605
0.5098234270082069,0.14653527111705045,-0.014689502940633314,0.007547881819565561,0.14746300450605393
0.5123103705545884,0.1518622687632052,-0.005006621872845951,0.0028687118778005782,0.151971854118858
0.5147973141009698,0.1571898657165709,-0.009688877372508564,0.0077663414216093685,0.1576795620485106
0.5172842576473514,0.14815285048409965,-0.009582656843992066,0.012663963179264215,0.14900157845526152
0.5197712011937329,0.13911643149381447,-0.004687960974144367,0.0031963665592371626,0.13923209130387035
0.5222581447401143,0.13486901053232137,0.00020680622865310028,-0.020636449068536677,0.1364388353839988
0.5247450882864959,0.14498739270575922,0.005101644075117484,-0.039680871052334865,0.15040592522688478
0.5272320318328774,0.13595275323668643,-0.004368658086173927,-0.04436009338052216,0.14307359704305295
0.5297189753792588,0.13649551051096687,0.005314722295282959,-0.034674116681536304,0.14093106481670475
0.5322059189256404,0.1370388563512176,0.014998171245365732,-0.024988151544215853,0.14010353674462206
0.5346928624720219,0.13758278921994427,0.010316478109082983,-0.010513795275583604,0.13836904820519538
0.5371798060184033,0.13812730757892588,0.02000006211307781,0.008748951497597801,0.13984169526946347
0.5396667495647849,0.13388400656891164,0.029683712600015788,0.008858071547571456,0.13742094250952658
0.5421536931111663,0.1392180946111925,0.029790622231713026,-0.0006096291106452156,0.14237110201082284
0.5446406366575478,0.13976436020448402,0.0346860002703977,-0.0005005378208320366,0.14400501913557343
0.5471275802039294,0.13073439848743507,0.04436984601621585,0.004396941472259996,0.13812856068780507
0.5496145237503108,0.12649341787925972,0.044476948807237626,0.023659614785419336,0.13615638477050238
0.5521014672966923,0.13661822347818253,0.044584114581966094,0.018980254932911222,0.14495700168226028
0.5545884108430739,0.14195520045988208,0.04947974595747118,0.014300877893669295,0.15101006359230112
0.5570753543894553,0.13771594396030873,0.05437543890908314,0.014409886366005153,0.14876160258116175
0.5595622979358368,0.13826566239600324,0.059271192731339184,0.009730473087921965,0.15074863114508164
0.5620492414822184,0.13881595090160181,0.06416700671767872,0.0146278473996162,0.15362697320252394
0.5645361850285998,0.13936680793140244,0.05948607351982327,0.009948395399723253,0.1518574024103648
0.5670231285749813,0.13991823193905661,0.06438200571028663,0.005268923109404966,0.15411007701952473
0.5695100721213628,0.14047022137757337,0.0644895926183171,0.034108253152027146,0.15828507062582922
0.5719970156677443,0.1362343713790093,0.050232026892407244,0.05815915834692831,0.15641466737610138
0.5744839592141259,0.1367874870357203,0.04076292110186053,0.058268024795362194,0.15416742541748824
0.5769709027605073,0.1373411634784898,0.04565908117430162,0.053588465161757526,0.15433428160230514
0.5794578463068888,0.14268380247809243,0.04576689311443616,0.03933207550965534,0.15492026387420318
0.5819447898532704,0.1432385958437321,0.03629795288686655,0.015498855223587071,0.14857675200482384
0.5844317333996518,0.14379394534491696,0.036405873056725824,-0.017911196311224842,0.14940849127201117
0.5869186769460333,0.1443498494302089,0.0413022495865607,-0.03216765978700842,0.1535497091746098
0.5894056204924149,0.1401179032272234,0.03183346847696189,-0.04163574577810358,0.14959923745315729
0.5918925640387963,0.1454633151441892,0.03672994893063386,-0.022373438295650416,0.15168795582495648
0.5943795075851778,0.15080927698713587,0.04641488358677792,-0.007899561193834614,0.15798791887613417
0.5968664511315593,0.15615578720207723,0.0465230617632848,-0.012579325044871581,0.16342357409846162
0.5993533946779408,0.16150284423438388,0.041842886058307105,-0.007682310537457937,0.16701201664753967
0.6018403382243223,0.17642725316940533,0.04195116238932961,0.006791481718567027,0.1814734137846395
0.6043272817707038,-3.4765647375488644,-4.018506528913052,-0.33786500454997537,5.324382580035415
0.6068142253170853,-5.22856006795334,-3.5539230352536704,-0.3904289183889613,6.334085890246301
0.6093011688634667,-6.611847802101503,-3.022301848569435,-0.41905084634352896,7.28192580529642
0.6117881124098483,-7.612062731590253,-2.4523733895092357,-0.43809599898151497,8.009342193686189
0.6142750559562298,-8.243570067939123,-1.8728680787228833,-0.4523527802293863,8.465737141153289
0.6167619995026112,-8.52552342598863,-1.2933627235798786,-0.4474559807316041,8.634671602123579
0.6192489430489928,-8.477076420580005,-0.7473761480522165,-0.43298240773344077,8.520966465867444
0.6217358865953743,-8.131747876516089,-0.24448515951125316,-0.40893206183877595,8.145693460451657
0.6242228301417557,-7.532633425241074,0.2057334346707398,-0.37530494365073785,7.544782724898655
0.6267097736881373,-6.722828698199869,0.5937028271205818,-0.3464662637326139,6.757880409135364
0.6291967172345188,-5.755006133478736,0.9242114204251273,-0.3176276193656573,5.8373923673679835
0.6316836607809002,-4.691414975805307,1.168528793928148,-0.2600585912287734,4.841741885759853
0.6341706043272818,-3.5703624533064,1.3362317535350274,-0.19770119652353024,3.817340580854978
0.6366575478736632,-2.4110021808283544,1.4368971051502673,-0.14970904913037053,2.8106969965010133
0.6391444914200447,-1.294737016382348,1.475313251357183,-0.08735172972584415,1.9648214819435539
0.6416314349664263,-0.23114376817566495,1.4562685947382237,-0.02978285218879506,1.4747991998478254
0.6441183785128077,0.7366819323414173,1.4084935544765416,0.02778598620429129,1.5897567183281824
0.6466053220591892,1.5847980669990491,1.3032577099106861,0.08535478485743653,2.0536190033459536
0.6490922656055708,2.29883942426717,1.169291480222113,0.12376992989422675,2.5820968726659066
0.6515792091519522,2.869229195935178,1.0065948646695655,0.15260822736095037,3.044503025362961
0.6540661526983337,3.291178977111915,0.8391098791125149,0.1718696766640928,3.400809261685264
0.6565530962447153,3.5551119595850245,0.6668365228080493,0.186342680531272,3.621907727693071
0.6590400397910967,3.6897585617037474,0.4945631983327483,0.1864504317300124,3.7274219997611664
0.6615269833374782,3.680753571933591,0.32228990494206844,0.18655813963023782,3.6995434285316544
0.6640139268838597,3.537673795340685,0.15959344853129265,0.2010310136027158,3.546973275834541
0.6665008704302412,3.3084032635527016,0.01126223167459095,0.18677342317530687,3.3136902848264325
0.6689878139766227,3.002518781633837,-0.11791534305465134,0.15815057772047325,3.008992300991306
0.6714747575230042,2.615231944686351,-0.23272767972445818,0.15825810653341144,2.6303319040952653
0.6739617010693857,2.1896383810146154,-0.31880956912237624,0.1535771857851742,2.2180490826332036
0.6764486446157671,1.7305264923594625,-0.38573781863828005,0.13453100824924036,1.778092854061992
0.6789355881621487,1.261838293741918,-0.4287240257018681,0.11548478330150758,1.337675934201452
0.6814225317085302,0.8075158001819283,-0.4525565943842147,0.08686170371718838,0.9297495330661646
0.6839094752549116,0.38192422005771515,-0.4572355254368281,0.05823857555361478,0.5986001731295275
0.6863964188012932,-0.019724851534871912,-0.44276081961195235,0.039192204868992775,0.44492947988868264
0.6888833623476747,-0.3830662062198773,-0.41392088098287694,0.020145784441167436,0.5643368379718627
0.6913703058940561,-0.6697926190209501,-0.37550411362361524,0.005887717009807503,0.7678933240071749
0.6938572494404377,-0.899057704806679,-0.32272211496827463,-0.017947207965770318,0.9553933338346131
0.6963441929868192,-1.0708614651656163,-0.260363289092294,-0.03220537778316945,1.10252914076761
0.6988311365332006,-1.1804154983672392,-0.1980044433921293,-0.03209838970003709,1.1973373856227576
0.7013180800795822,-1.2325082093229107,-0.14522238526492748,-0.03677985757467361,1.2415791497740352
0.7038050236259636,-1.2319280029452808,-0.08765190550695845,-0.03188457202227468,1.235453797967691
0.7062919671723452,-1.1930400907889314,-0.03008140819641847,-0.017412533618067272,1.1935462897080036
0.7087789107187267,-1.1062676678082335,0.008335492626880825,-0.012517356217609077,1.106369882761583
0.7112658542651081,-0.9716107355995216,0.056329216125597714,-0.021987443714600374,0.973490549416208
0.7137527978114897,-0.8177997156824,0.10432295489922927,-0.03624599004088935,0.8252232580842381
0.7162397413578712,-0.6448346096560389,0.13795149822630925,-0.04571618912739872,0.6610085170566803
0.7187266849042526,-0.4670806290819388,0.15242644202536137,-0.036032831583808544,0.49264236444304876
0.7212136284506342,-0.28453777556215276,0.17647820545645931,-0.026349531261065096,0.3358580064858781
0.7237005719970157,-0.09720605070025345,0.18137636783530509,-0.031031498688866677,0.2081090027191166
0.7261875155433971,0.08054933393777752,0.18627454168010482,-0.030925121153778434,0.2052870263663259
0.7286744590897787,0.24393997342500717,0.18638432290689222,-0.02603039922267314,0.3080964266974637
0.7311614026361601,0.38338905951259705,0.17212890411078385,-0.02113573678178149,0.4207876542314922
0.7336483461825416,0.5036849939110781,0.15787349448785948,-0.01145273107576017,0.5279713802869477
0.7361352897289232,0.6000393716887025,0.14840649659298633,-0.006558189309251006,0.6181543056993075
0.7386222332753046,0.6772405945526768,0.13415110301951527,-0.006452112045314706,0.6904295554951722
0.7411091768216861,0.720923450927287,0.11031890968053482,-0.0015576932054237602,0.7293170163503198
0.7435961203680677,0.7502415524772723,0.08169831912919534,-0.0014517399913334117,0.7546781499162714
0.7460830639144491,0.746041284303126,0.05786613723840528,0.0034425536774165266,0.7482900098887953
0.7485700074608306,0.7274762580660618,0.04361076656020524,0.01791359056194608,0.7290024017358167
0.7510569510072121,0.6897580688239221,0.029355399685160766,0.05153817674467476,0.6923034859514628
0.7535438945535936,0.652040328234272,0.01988843916424088,0.05643227846524823,0.6547799185291393
0.7560308380999751,0.5903810180699948,0.015209884227572967,0.042172701808048885,0.5920807578813639
0.7585177816463566,0.5239337499848848,0.005742927464142511,0.04706667278030885,0.526074925534083
0.7610047251927381,0.45748692566986815,-0.0037240285766388936,0.037595367585559814,0.45904418873524633
0.7634916687391196,0.38146373685297086,-0.008402581345862359,0.01854718899083707,0.38200678544571465
0.7659786122855011,0.3102293918617884,0.0012840750251967847,0.013864153045407335,0.31054168667551196
0.7684655558318826,0.2437838890609556,0.0013939231625919035,0.018757855877653995,0.2445084553642151
0.770952499378264,0.17733882349273988,0.01108057557470854,0.018863086976327992,0.17868310922729236
0.7734394429246456,0.1108941935176353,0.020767224847586085,0.028545055753054882,0.11637705955961405
0.7759263864710271,0.0683920140955806,0.030453870207427514,0.028650148378268625,0.08016069363944991
0.7784133300174085,0.030678670301552025,0.030563704239357836,0.023966767624967744,0.04949471465410698
0.7809002735637901,-0.007034242830718185,0.03546193612961668,0.014494912946847904,0.038950378529601246
0.7833872171101716,-0.030381516988462698,0.04514856510306808,0.005022987118934452,0.054650342222013634
0.785874160656553,-0.0345747505017856,0.05962359038414666,0.009916199557888916,0.06963272877195828
0.7883611042029346,-0.038767558304631855,0.06931020455623793,0.010020936439207873,0.0800452821823324
0.790848047749316,-0.03817153873169521,0.06942000352262845,0.01970240718159566,0.08163570362884395
0.7933349912956975,-0.02320988679970104,0.06474138982682343,0.029383804603218877,0.07479006869179756
0.7958219348420791,0.006117395831623185,0.055274362691620116,0.02948832152326375,0.06294631688180737
0.7983088783884605,0.0306566942188905,0.06017253462067762,0.029592764043190556,0.07373125868194001
0.800795821934842,0.05040800669752121,0.06028229155477316,0.029697131624873307,0.08400500842840901
0.8032827654812236,0.08931334820202264,0.06039203603587495,0.03937823037184529,0.1147811709769171
0.805769709027605,0.12343070046126836,0.0652901706055875,0.03469404314649438,0.1438805783416125
0.8082566525739865,0.14797165848284055,0.07018829116453551,0.034798182695061186,0.16743034805446375
0.8107435961203681,0.1820898338733088,0.07029799361299638,0.054055858444520766,0.20253530886785184
0.8132305396667495,0.20663161167413435,0.0560424705305973,0.058948246619772604,0.22206367831270526
0.815717483213131,0.23596220016632458,0.05615214105913591,0.04947534668896303,0.24754602154518823
0.8182044267595125,0.25571638770633665,0.0658386010979024,0.04957917472284734,0.26867021960445264
0.820691370305894,0.26589417260885606,0.0659482365849362,0.044894520230741364,0.2776047529902168
0.8231783138522755,0.28086076314676267,0.05648104673922205,0.04020978600427583,0.28929172785727864
0.825665257398657,0.2910393509885977,0.04701383742007392,0.0211597615548893,0.29557053344656176
0.8281522009450385,0.2964299344407185,0.037546607845893476,0.016474866277899736,0.29925219299469913
0.8306391444914201,0.29224410848632676,0.023290953914491652,0.026155099647823477,0.29433514352996054
0.8331260880378015,0.2832702747463741,0.013823681484348427,0.031046847858993587,0.28530168153490876
0.835613031584183,0.2742968348388979,-0.005220420187882269,0.031150110388063368,0.2761092822901183
0.8380999751305646,0.26053538373836665,-0.02905294856454743,0.040830096673690974,0.2653108682175971
0.840586918676946,0.24198591973658484,-0.033731887826986995,0.04572159623374361,0.2485668722281688
0.8430738622233275,0.2425904577239017,-0.043199255359902544,0.03145939858716673,0.24840692341762222
0.845560805769709,0.22404176942356024,-0.052666648626343626,0.03156232645711121,0.23230297194688607
0.8480477493160905,0.21028186971978713,-0.05255726176926245,0.031665169364687884,0.21905116627954
0.850534692862472,0.206099160212441,-0.05244790221306861,0.02219112015241187,0.21382257154108827
0.8530216364088535,0.19234002589667276,-0.057126974062058355,0.012716984945146947,0.20104700553232555
0.855508579955235,0.19294648164726336,-0.05222926813946671,0.01281956986884758,0.2003012296568953
0.8579955235016165,0.19355331577327883,-0.04733159187026992,0.0033452611286932665,0.19928461156803737
0.860482467047998,0.1941605265414732,-0.04243394603899153,-0.006129135147157072,0.19883791424412567
0.8629694105943795,0.1947681122153171,-0.04711313807094042,-0.01081521614977099,0.2006769399188061
0.8654563541407609,0.18101086109402675,-0.042215555469706345,-0.010712982389424752,0.18617693989668277
0.8679432976871425,0.19119599799690634,-0.0373180056608966,-0.01539924101591339,0.19541156521661124
0.870430241233524,0.19180469793518817,-0.032420489429631605,-0.015297185896672616,0.19512594440827952
0.8729171847799054,0.182836959158874,-0.027523007561154333,-0.010406817538653357,0.1851895554046122
0.875404128326287,0.18823479651607822,-0.02741396416113906,0.004060266872617291,0.190263895202307
0.8778910718726685,0.20799820824986404,-0.027304956694742533,0.023315663512107676,0.21107447846735378
0.8803780154190499,0.21339677267790524,-0.012830775986594656,0.028205758594960884,0.21563482144514823
0.8828649589654315,0.21879569799713328,0.0016433672167073254,0.02351895493900713,0.22006226246061533
0.885351902511813,0.252925402361833,0.011329068809114329,0.023620462003831832,0.2542784559990311
0.8878388460581944,0.25832504415704527,0.02101473132513121,0.023721875968895745,0.2602617428107529
0.890325789604576,0.26372504152978427,0.0354887572992002,0.014246389694472228,0.2664832246950167
0.8928127331509574,0.2595485860608796,0.04517433930477477,0.019136019284154315,0.2641446132175863
0.8952996766973389,0.2649492892493184,0.05485987987620211,0.009660344319236458,0.27074167493409007
0.8977866202437205,0.27992714930908613,0.06933378154779968,0.0049729775852718205,0.28842869602397925
0.9002735637901019,0.28532855116913536,0.07901923689292367,0.014650725228339212,0.29643054103977573
0.9027605073364834,0.28115349303585147,0.09349305176616651,0.005174763512838965,0.29633598423449264
0.905247450882865,0.26740197311177083,0.11754362870180302,0.005275511868379823,0.2921440584676145
0.9077343944292464,0.26322760287679814,0.12244054699192741,0.019741373124153583,0.2909814088163964
0.9102213379756279,0.26863038052567334,0.13212582245208448,0.01984192686831321,0.3000220264611505
0.9127082815220094,0.2644566909679409,0.13702264765566063,0.015153979252668037,0.29823177304819587
0.9151952250683909,0.25549493571072784,0.1419194251370106,0.020042739750479655,0.29295135572608977
0.9176821686147724,0.2513219195774632,0.15639296075084674,0.039296611195538844,0.29860624421463483
0.9201691121611539,0.25193764074690606,0.1565012371097496,0.039396769860298164,0.2991944476714507
0.9226560557075354,0.24776529075311515,0.14224425342792424,0.039496828541800255,0.2884112799460236
0.9251429992539169,0.24359327108697848,0.13756402552121116,0.04917359339762939,0.2840415200707284
0.9276299428002984,0.2298447732743074,0.13767214928365723,0.04927345066466238,0.272415332590334
0.9301168863466799,0.23046181207892968,0.12820341396877577,0.05416160982313478,0.2692252628535938
0.9326038298930613,0.23107917569796954,0.1283114320723664,0.06383807039350842,0.27191305278210004
0.9350907734394429,0.21254324900400834,0.11884258952784466,0.06393762193648733,0.25176618772535136
0.9375777169858244,0.20837285338879474,0.10458528887030871,0.05446026397487813,0.2394227412542248
0.9400646605322058,0.20899118035697073,0.0855395293146759,0.044982802673272815,0.23025589477518
0.9425516040785874,0.20003301808853868,0.07607052003694426,0.04029364087714171,0.21776939601201278
0.9450385476249689,0.20065197800133017,0.06660145361169922,0.026027568151874902,0.2130126855446363
0.9475254911713503,0.20127125158691261,0.05234392593400017,0.006972987345298165,0.2080832185690717
0.9500124347177319,0.19710243365274638,0.04766314618032652,0.0022835112673647018,0.20279634927520426
0.9524993782641133,0.19772232896277842,0.0334055002851521,-0.007194473833289194,0.20065345068925267
0.9549863218104948,0.18876572567491667,0.009570987464396108,0.002481048175976497,0.18902449203918797
0.9574732653568764,0.19896304182536817,0.004890026856049001,0.02173327018681981,0.20020624218058086
0.9599602089032578,0.20437225892236377,0.004997407715504387,0.05056219173271259,0.21059327988737025
0.9624471524496394,0.2049933750711268,-0.009260484021938353,0.06023739242645476,0.21386113212482288
0.9649340959960209,0.215191598333215,-0.02351843917855634,0.05554727512422453,0.22348610862495566
0.9674210395424023,0.2062365068827513,-0.03298805521701187,0.05085704932402457,0.21496080578595256
0.9699079830887839,0.21164692205325553,-0.02809252627940584,0.05095511788444185,0.21949950725683484
0.9723949266351654,0.2218460352907502,-0.042350676390384034,0.041476270384009695,0.22962910131321618
0.9748818701815468,0.21768023139591708,-0.051820489730576735,0.027208909683722027,0.22541155929249448
0.9773688137279284,0.21830312172719146,-0.04213675712095544,0.022518245286404337,0.22346997701545063
0.9798557572743098,0.22371470435698426,-0.03724149594469939,0.02261587341483562,0.2279181337586981
0.9823427008206913,0.22912657403259185,-0.03713470698312271,0.022713390293008118,0.23322493753721468
0.9848296443670729,0.2393271321371031,-0.04181639101722734,0.018022392146129107,0.2436203878031248
0.9873165879134543,0.24473957008781144,-0.04649814550738096,0.022908088481864652,0.25016857360644895
0.9898035314598358,0.2501522892580611,-0.04639156791361598,0.0277936722075367,0.2559313064267682
0.9922904750062174,0.24598848105534166,-0.04149665901593513,0.018313932911366848,0.2501353746675608
0.9947774185525988,0.2466133534837629,-0.04617862955492491,0.013622483424979848,0.2512691465316469
0.9972643620989803,0.24723850126121394,-0.04128386702861686,0.02808453326091076,0.2522300045419082
0.9997513056453619,0.24307551910058678,-0.017235565575294043,0.028181258729789604,0.24530991836922397
1.0022382491917432,0.2532780183113068,-0.0027641458953571174,-0.00045255057527171516,0.25329350537322637
1.0047251927381249,0.2634807869555651,0.0069187945533832895,-0.005144458575569999,0.26362181295718223
1.0072121362845063,0.26410701641078327,0.021390061633832058,0.00931713096509057,0.2651355498297531
1.0096990798308878,0.2647335113305278,0.04543805788899702,0.004624991041955795,0.26864444842254365
1.0121860233772693,0.2749370763632334,0.05512076594043869,0.009509541135873434,0.28056928942711806
1.0146729669236507,0.27556409623030276,0.06959179829296591,0.014393974166431178,0.2845799993203604
1.0171599104700322,0.2761913755698304,0.0840627508502716,0.019278289695076722,0.2893438689055589
1.0196468540164139,0.2768189123740765,0.08895681619619378,0.02895089060481304,0.29219886971468917
1.0221337975627953,0.27744670463006604,0.09385080019629033,0.05298858310019483,0.29764481609215604
1.0246207411091768,0.2780747503195635,0.09874470207596886,0.05308414018389129,0.2998232961135983
1.0271076846555582,0.27870304741904717,0.10363852106113036,0.053179578023888396,0.30206687869940463
1.0295946282019397,0.26496638393874783,0.09895544973754822,0.06285170282849073,0.2897407499796624
1.0320815717483214,0.26080677444606126,0.09427229397275694,0.06773530420568363,0.2854741852491764
1.0345685152947028,0.2662242169014586,0.09916585963481017,0.06304197840532844,0.2910042824825154
1.0370554588410843,0.25727669265846587,0.10884774263135633,0.05834853163947784,0.2853833891551922
1.0395424023874658,0.2531178129480106,0.10895273222996016,0.04407815684019134,0.279073841487134
1.0420293459338472,0.24417076907371216,0.10905763430029936,0.029807660222044063,0.2690751357467626
1.0445162894802287,0.24480076893529545,0.10916244807198927,0.025113848000865246,0.26921099884995825
1.0470032330266104,0.24543100382544092,0.09969036613459403,0.04436192971405539,0.2685936103982517
1.0494901765729918,0.23648466503133148,0.10458340432044455,0.04445627505652894,0.26237196048003375
1.0519771201193733,0.23711536375648767,0.09989954525934497,0.025396883607271548,0.25855099413724303
1.0544640636657547,0.23774629127701108,0.08563878818326387,0.01591417486841351,0.2532006358981228
1.0569510072121362,0.23837744550405393,0.08095474560603533,0.0016429384605398667,0.2517541987891388
1.0594379507585177,0.23900882434317283,0.07148220679993322,-0.003051616072625052,0.24948794833327875
1.0619248943048993,0.23964042569430544,0.0572211709988002,-0.007746295787654844,0.24649908952337268
1.0644118378512808,0.2354838441314383,0.04774844407775447,-0.0028642944586003694,0.24029306885865756
1.0668987813976623,0.24090428750414294,0.04306402527193942,0.011594387501123293,0.24499758331874869
1.0693857249440437,0.24632494705474794,0.024014300535919464,0.026052943038774146,0.24886024594686762
1.0718726684904252,0.2565342239808076,0.01454128570775337,0.02614616178255602,0.25827287670103743
1.0743596120368066,0.2619553095132181,0.019433383344932498,0.02145084996353397,0.2635495769955912
1.0768465555831883,0.2625882015177481,0.014748576083774001,0.026332217134360292,0.26431698721806635
1.0793334991295698,0.26800970449502004,0.00048686316286961073,0.026425052927093517,0.26930971419807165
1.0818204426759512,0.26864300965861754,-0.00419814289722753,0.021729356936008415,0.26955306712237215
1.0843073862223327,0.2692765181772486,-0.004094846176793787,0.01703353207697411,0.2698457934115168
1.0867943297687142,0.28427543785441467,-0.00878005407568061,0.002760771306215659,0.2844243937764415
1.0892812733150956,0.2849093466049526,-0.008676960711738513,-0.006723715817196663,0.2851207354515706
1.0917682168614773,0.2951202588612647,-0.01336237348330993,-0.0066315263735177155,0.2954970344309567
1.0942551604078588,0.3101197691279862,-0.01804788982702732,-0.011327870722968925,0.3108509581557057
1.0967421039542402,0.3059658586225901,-0.013156703858431484,-0.011235942622922934,0.30645464901956193
1.0992290475006217,0.31138894508005555,-0.008265622973519626,0.0032210641705514576,0.31151528196157735
1.1017159910470031,0.31681221966691053,-0.017739857887801413,0.017677939301117718,0.3178005579386043
1.1042029345933846,0.3318124868249622,-0.017637392753471648,0.0369230856949887,0.33432606582997
1.1066898781397663,0.3324477277478409,-0.00795822832346671,0.056168099639037905,0.3372531400888832
1.1091768216861477,0.3235063435450449,-0.012644381951450345,0.06583617410113796,0.33037953406513265
1.1116637652325292,0.3241419452809827,-0.007753837787123796,0.07550411533168777,0.3329098888933602
1.1141507087789106,0.3247777240921421,0.0019250000987951488,0.08038351962145107,0.3345830030330055
1.116637652325292,0.3349904843901974,-0.0027614823244848097,0.07089757994218182,0.3424218410940891
1.1191245958716736,0.32604980401824135,-0.007448075844695978,0.07098831250912951,0.33377131249856656
1.1216115394180552,0.3171092940163922,0.007018832071628012,0.0662905069763493,0.3240401204641268
1.1240984829644367,0.3273225654186509,0.02148562739634352,0.061592566280451067,0.33375940172206875
1.1265854265108182,0.32317079272944726,0.031163906063150115,0.05689449003903668,0.32961725275126946
1.1290723700571996,0.30465397368924696,0.03605366732697357,0.037831067910088834,0.30910370478464055
1.131559313603581,0.3052909292745336,0.03615491044366337,0.01876750947476502,0.3079966695572908
1.1340462571499625,0.3011396406118534,0.041044441310630564,0.00449221767491359,0.3039570846846259
1.1365332006963442,0.29220010542311514,0.055510662505914965,-0.0002064045463114894,0.297426256177833
1.1390201442427257,0.28326072474431474,0.06518836332726918,0.009460045755554702,0.2908189356999638
1.1415070877891071,0.283898302925528,0.06050073639371778,0.0191263582450496,0.2909027381925013
1.1439940313354886,0.2845360310293271,0.06060139424713773,0.024004129228643478,0.2919066291789973
1.14648097488187,0.2803855034323274,0.06549033614913835,0.019304955014114,0.2885787517334285
1.1489679184282517,0.2762351211454831,0.06559075472169651,0.024182448512119592,0.28494346820950783
1.1514548619746332,0.2672964785328261,0.06569105254872953,0.029059802712747995,0.27678004616430235
1.1539418055210147,0.2727231865536278,0.07536803553547822,0.03393701724803044,0.28497368019544383
1.1564287490673961,0.27336162959833066,0.08504489630696055,0.03402568843099907,0.28830012555966744
1.1589156926137776,0.254846595371345,0.0899332308095322,0.043691025857251375,0.2737584316814108
1.161402636160159,0.26027371141445976,0.0900330383109087,0.05335622252214023,0.28052671766301185
1.1638895797065407,0.2561241521380897,0.0901327214001677,0.0486560681020336,0.2758457934038605
1.1663765232529222,0.24239791518844744,0.09023227934713551,0.0439557721964956,0.2623561004308371
1.1688634667993036,0.24303701480689233,0.09033171142270913,0.03925533444547469,0.26223613392747247
1.171350410345685,0.2340994320252412,0.10000782353949011,0.034554754490235595,0.25690103133605124
1.1738373538920666,0.22516197111106007,0.10010700168929532,0.04421924193430549,0.2503490890318618
1.176324297438448,0.23537824296608756,0.10020605178691477,0.03951837649972134,0.25885492492455714
1.1788112409848297,0.24080622860278234,0.09551656978730971,0.03481736779265354,0.26138726812497654
1.1812981845312112,0.24144592562868472,0.09082695828718412,0.03969302210029291,0.2610003972369555
1.1837851280775926,0.24208573496515196,0.08134881324374588,0.030203322468954852,0.25716798630068116
1.186272071623974,-1.2656213916917176,-6.742027387548726,-0.568260129889655,6.883287759260613
1.1887590151703555,-1.9976070729648492,-6.215204623326054,-0.6735181849343856,6.562989354951756
1.191245958716737,-2.5859405495540173,-5.549518295197909,-0.7500459650837037,6.168209690364164
1.1937329022631187,-3.030621823884323,-4.7545452105227195,-0.8074202773250718,5.695813928012762
1.1962198458095001,-3.326862495067031,-3.892534613181406,-0.8216991054024252,5.1860417657128535
1.1987067893558816,-3.49860458214196,-2.9682749072098256,-0.8216128695818306,4.661109058412891
1.201193732902263,-3.5602132975148715,-2.020073319884647,-0.7784311502842787,4.1667457322524974
1.2036806764486445,-3.5021118369965345,-1.0910254818018243,-0.7113075611325534,3.736453180129049
1.206167619995026,-3.3386654130059643,-0.19549660363446675,-0.6346073124278373,3.4040611191666024
1.2086545635414077,-3.098604447929632,0.6329944906648284,-0.5387535978683733,3.208159439485114
1.2111415070877891,-2.8010825575201963,1.3705057837847314,-0.433323224432403,3.148351729756982
1.2136284506341706,-2.4652533575367994,2.0170372750171817,-0.332681402417089,3.202591201069753
1.216115394180552,-2.086328447143796,2.572588963655097,-0.2368281321573722,3.3207029270114785
1.2186023377269335,-1.6834614421137646,3.0132188323911477,-0.14576341398686665,3.4546746781451843
1.221089281273315,-1.28059436154629,3.3197732672395786,-0.06906405487848488,3.55887430353742
1.2235762248196966,-0.8729388046257928,3.516194284098715,0.007635154797737798,3.6229411664749356
1.226063168366078,-0.4748599838246642,3.5833282689853454,0.06518060143089599,3.6152430068185413
1.2285501119124596,-0.11987672490328027,3.5403288344800443,0.14666791457546147,3.545392807939662
1.231037055458841,0.2063761795743635,3.4111379964849955,0.21857827066222768,3.424358336822399
1.2335239990052225,0.5182639370375124,3.1957557543021213,0.2473928461233008,3.2469455754449794
1.236010942551604,0.7822677217055172,2.884605300594033,0.2762072705171068,3.0015297741191977
1.2384978860979856,0.998387531033134,2.5207822645481,0.3193867534815169,2.7300419018180193
1.240984829644367,1.1666233624683253,2.1234402587514603,0.33383566481197313,2.4457013009449504
1.2434717731907485,1.310917230053818,1.673425669230046,0.3291308108286586,2.1510891532260423
1.24595871673713,1.407327114622363,1.2186225284956755,0.3148489978530904,1.888052002980213
1.2484456602835114,1.4510646102811848,0.7638192391784657,0.28620182224714164,1.6646080068314104
1.250932603829893,1.46607173105251,0.3185926072303733,0.2671313002958797,1.523885396468815
1.2534195473762746,1.4523484743501618,-0.0979037547546846,0.24806062504350201,1.4766297131777082
1.255906490922656,1.40510643426079,-0.4713046375017207,0.228989796176144,1.4996294474584353
1.2583934344690375,1.3387108181454233,-0.8016100416952927,0.1955536034203078,1.5725668587939226
1.260880378015419,1.2579500267175845,-1.0936083713388705,0.17169406306631707,1.6756778899518394
1.2633673215618004,1.1628240573635915,-1.3281460138329502,0.1334691582026739,1.770295353503254
1.2658542651081819,1.0581213107831826,-1.4956461632172218,0.09045569516138308,1.8343283203033873
1.2683412086545636,0.9342649777082092,-1.6056856268112578,0.07138409355698982,1.8590785538898928
1.270828152200945,0.8151970721058459,-1.6582644052924767,0.03794712652098653,1.8481956305113252
1.2733150957473265,0.7057059946550496,-1.6581709026572253,-0.0050668029310312335,1.80210359463686
1.275802039293708,0.5914265327465966,-1.6101935229003823,-0.009773661899352248,1.7154020080709733
1.2782889828400894,0.47714708704556485,-1.5191206700153637,-0.028845887209531185,1.5925542496106375
1.280775926386471,0.3772328648506911,-1.3849523446737866,-0.052706672521765086,1.4363758646918274
1.2832628699328525,0.2821070568522108,-1.2220537575067645,-0.06220240485431816,1.2557344133740538
1.285749813479234,0.19655806369430318,-1.035213312503278,-0.06690989114604484,1.055830766894221
1.2882367570256155,0.13973949597509583,-0.8292194136507849,-0.05246392173293479,0.8425463938527806
1.290723700571997,0.092497737723228,-0.6088604649352163,-0.04280651351216136,0.6173324022308481
1.2932106441183784,0.05004438292130153,-0.3885016769817078,-0.03314926345775504,0.39311177411439197
1.29569758766476,0.021956235505827815,-0.1681430504528425,-0.023492171862752542,0.17119008099771324
1.2981845312111415,-0.006131917195241754,0.0378502040293025,-0.018623642339212765,0.04262720267068961
1.300671474757523,-0.01506646461880412,0.21511287584429972,-0.008966868536957051,0.21582620888454176
1.3031584183039044,-0.009635812810333766,0.3923753842560114,0.0006897459345367452,0.39249428888586724
1.305645361850286,0.0005832288573465183,0.5409073086861258,0.015134604107712946,0.5411193149273689
1.3081323053966674,0.025167464285624663,0.665497051800088,0.029579302375672967,0.6666293290444163
1.310619248943049,0.04496327744697126,0.7565678063039876,0.044023840453112584,0.7591802423552937
1.3131061924894305,0.07912427886929307,0.8189079748664132,0.04889141141538644,0.8241730964527926
1.315593136035812,0.10849685251095764,0.8525175568372734,0.04897041830007609,0.8607879260242111
1.3180800795821934,0.13786939892482009,0.8669733582086763,0.044260860825731996,0.8789822517005424
1.3205670231285749,0.16724191533635802,0.8574869750134129,0.02039752875124279,0.8738820456687416
1.3230539666749563,0.19661439896397637,0.8336352132468279,0.010899245039910355,0.856576724051903
1.325540910221338,0.22598684701900573,0.7714760556636984,0.03491962269537119,0.8046519368877431
1.3280278537677195,0.2697244666666133,0.6949515182235966,0.03499782159753906,0.7462799395109345
1.330514797314101,0.30388523850241844,0.6088500036064226,0.01592224479166049,0.6806600347827233
1.3330017408604824,0.33325756303678555,0.5179599144937974,0.025576925207067447,0.616439174166184
1.3354886844068639,0.3482646308120648,0.4174928469283543,0.04959665261029933,0.5459380535016338
1.3379756279532453,0.36327164896507336,0.302660396954356,0.044885796847299986,0.47495719974013334
1.340462571499627,0.3830670179848871,0.1878277738990759,0.05453998753089273,0.4301095478544811
1.3429495150460085,0.3980739283925506,0.08736018709141513,0.05940561111111897,0.41185395638018346
1.34543645859239,0.4130807806629362,-0.01310757405991092,0.05948266732052687,0.417547275841193
1.3479234021387714,0.4232991686231764,-0.10878710686320936,0.05477115589292225,0.4404732685357722
1.3504103456851528,-2.104336267031707,-8.71345951546102,-0.3617432056631955,8.971257771303119
1.3528972892315343,-3.114047916863808,-7.908919575869171,-0.40955067640056875,8.509761162490436
1.355384232777916,-3.9130698901923897,-6.9367856969141535,-0.4334162956441272,7.9761495382028125
1.3578711763242974,-4.496613786578004,-5.8353651057804985,-0.44291687029566695,7.380189483840949
1.360358119870679,-4.864679608908947,-4.6381766263300825,-0.4332639972947874,6.735392179058401
1.3628450634170604,-5.012478956760114,-3.402681099024986,-0.4331880968220272,6.073782666580451
1.3653320069634418,-4.9591654463151436,-2.176762557684802,-0.4139587492129184,5.4316644780872165
1.3678189505098233,-4.704739080483545,-0.989151422846106,-0.38036435804393953,4.822620387052853
1.370305894056205,-4.301872298705394,0.14578709491724418,-0.3419817302106427,4.317905818242346
1.3727928376025864,-3.760141910545073,1.180168961790991,-0.2988108659667059,3.952309944757894
1.3752797811489679,-3.1082783388554045,2.094840563884468,-0.24127495892395956,3.75605708498916
1.3777667246953493,-2.3798004098163403,2.85628307734826,-0.16937400933356628,3.7216247209445763
1.3802536682417308,-1.6034385462952736,3.478861711537178,-0.07831961412522048,3.8314002586132405
1.3827406117881123,-0.8174999778067675,3.948211255886596,-0.011207403430436358,4.031972710809851
1.385227555334494,-0.0363499172709989,4.249966499833583,0.041539429143929496,4.250324939386038
1.3877144988808754,0.6969160024625067,4.393704249418418,0.08949768999223195,4.449532422891166
1.3902014424272569,1.3535673584983234,4.417731730605263,0.13266737886945812,4.622347766125435
1.3926883859736383,1.9431809544963372,4.302895329516349,0.16147168889120245,4.724080179781486
1.3951753295200198,2.417872754265569,4.058771852197646,0.18548742645553595,4.728016834718842
1.3976622730664012,2.777642754811052,3.7093033146579324,0.2095029946414435,4.638762966379117
1.400149216612783,3.027279356451022,3.302373749509435,0.23351839320882561,4.486047650595159
1.4026361601591644,3.1715709594966093,2.8236179462022073,0.23838000863754516,4.253058391999274
1.4051231037055458,3.2009407542909036,2.292189517430391,0.23845305065088063,3.9442381208115336
1.4076100472519273,3.1106003344902113,1.741607285850976,0.22894911569206755,3.572316905963971
1.4100969907983087,2.9340685203062424,1.1814480575213042,0.19550299356493994,3.169037553416775
1.4125839343446904,2.68571051866234,0.6308654451412314,0.15726829731673497,2.763288895006761
1.4150708778910719,2.3607379231936605,0.11858986805340122,0.14297544663653916,2.3680348555607362
1.4175578214374533,1.987881150770142,-0.3601670776402779,0.12868242469119728,2.02433963549291
1.4200447649838348,1.5910822149347723,-0.7718865692728334,0.13354284453159337,1.773466994852488
1.4225317085302163,1.1703411126215921,-1.1309338173788703,0.1336146893270076,1.6329612684896857
1.4250186520765977,0.7543882606794441,-1.422943612569096,0.11932115220886352,1.614963686825991
1.4275055956229794,0.36237726930979464,-1.6479159554129492,0.0906622329504092,1.6897230311209441
1.4299925391693609,-0.015268671215033502,-1.7962740398374417,0.06679154460735859,1.7975802260109652
1.4324794827157423,-0.3498191440672753,-1.8728062697284837,0.03813228031474125,1.9055788696068923
1.4349664262621238,-0.6269089423870274,-1.8966662589308763,0.014261246490049118,1.9976388820212518
1.4374533698085052,-0.8465380692823721,-1.8582772013655324,-3.315376834223116e-05,2.0420139228120884
1.4399403133548867,-1.0039181245480848,-1.7624275009122692,-0.0239045339624262,2.028441205337727
1.4424272569012684,-1.1182027245875035,-1.623482368089466,-0.03341087771018536,1.9715954502690611
1.4449142004476498,-1.1654498559281172,-1.4366534001322633,-0.04291739519090676,1.8504292101035462
1.4474011439940313,-1.1360827150653545,-1.2210942108752005,-0.05721248994207073,1.6688403986926275
1.4498880875404128,-1.0731969350250241,-1.0007468174711236,-0.05235414557808049,1.4683278961406745
1.4523750310867942,-0.957638905675826,-0.7708228171489016,-0.03313076563403605,1.2297714164562699
1.4548619746331757,-0.8037738401355836,-0.5169570004946848,-0.02348436692509992,0.9559542049369505
1.4573489181795574,-0.6163901448884009,-0.2630913846549956,-0.018626546343373462,0.6704482348577768
1.4598358617259388,-0.4098530330659905,-0.028379583454013257,-0.00898049745946139,0.4109325477557535
1.4623228052723203,-0.19373931448655568,0.1919668058878794,0.0006653761962720495,0.2727391047613046
1.4648097488187017,0.03195100766546599,0.38358257287119324,0.0007342677743320536,0.38491167331023796
1.4672966923650832,0.2624295268782809,0.5464677169593704,0.005591387027966022,0.6062404521848087
1.4697836359114647,0.4737542233521759,0.6949874475790998,0.010448330430355313,0.841165729238488
1.4722705794578463,0.6611366905618552,0.8195649575576636,0.02009350109647734,1.053181936822832
1.4747575230042278,0.815000118654692,0.8866814231228481,0.020161688861245253,1.2045063857099552
1.4772444665506093,0.9592865210136859,0.9202788603485037,0.015441296841995467,1.3294292925353512
1.4797314100969907,1.0748422811321148,0.9395108819903069,0.010720728157242121,1.4276139396558558
1.4822183536433722,1.1281485725355815,0.9300122775639683,0.029941999207926173,1.4623742891101297
1.4847052971897536,1.1718778285085696,0.8917830465483565,0.03958628655240659,1.4731400887709347
1.4871922407361353,1.1916648358444593,0.8343999950651906,0.049230396633019424,1.4555796318668506
1.4896791842825168,1.1683559780096215,0.757863122597835,0.06845113589326779,1.3943090625645518
1.4921661278288982,1.1163164617059167,0.6717492352724928,0.09246010081689526,1.3061234045862078
1.4946530713752797,1.0546998969488623,0.5760583325770314,0.10210367792786634,1.206092963333162
1.4971400149216612,0.9739294738254557,0.45642520404065046,0.09259346371225874,1.0795536746228562
1.4996269584680426,0.8644283824160742,0.35115707571827226,0.09265987789949648,0.9376212311620448
1.5021139020144243,0.750138636036685,0.23631193050305432,0.08793771033736064,0.7913812877952296
1.5046008455608058,0.63584863471543,0.1262549778529607,0.059273347554482214,0.6509663089841458
1.5070877891071872,0.5119815685129632,0.030563023907962172,0.054550822565037294,0.5157858249020758
1.5095747326535687,0.3929026440849862,-0.05555233515057001,0.06419332854060755,0.40196931860376733
1.5120616761999501,0.2881886647603352,-0.13209109981864398,0.07862405865393995,0.3266228830729134
1.5145486197463316,0.19305122390053198,-0.18947646394922435,0.07868939943830355,0.28171284497543936
1.5170355632927133,0.1170671248214935,-0.2516504446351635,0.06917775402969006,0.286038842907111
1.5195225068390947,0.05065955755150908,-0.2898826224434674,0.05966592888555944,0.3002637984103198
1.5220094503854762,-0.0013830779265974202,-0.3041729978606389,0.04536552050358722,0.307540494866352
1.5244963939318577,-0.029483978316057313,-0.3184635879723472,0.031064932023232572,0.3213306581127464
1.5269833374782391,-0.0432199536076896,-0.3183891832993524,0.026340969905422895,0.3223871634036285
1.5294702810246208,-0.03780260383768341,-0.2991613810006166,0.04077044061224555,0.3042840737975315
1.5319572245710023,-0.01802033568914052,-0.27514539151393036,0.050411327364741965,0.2803052280931958
1.5344441681173837,0.011338444148610072,-0.2511296186339891,0.05047522666635729,0.25640279674368627
1.5369311116637652,0.05506213562061424,-0.2127488528718211,0.04575054166230963,0.2244705442586475
1.5394180552101466,0.10357392870482685,-0.1743683046578326,0.04102567549898062,0.20691778663698038
1.541904998756528,0.16645062665428134,-0.14077637777934093,0.03630062800358935,0.2210012109643964
1.5443919423029098,0.23411541943464909,-0.09760786273991506,0.041152205645126116,0.2569646444847511
1.5468788858492912,0.28741469036487033,-0.04965116332188835,0.04600360161248673,0.29527745192965804
1.5493658293956727,0.3407136460000466,-0.006483086625365342,0.046066412416024605,0.3438748803499906
1.5518527729420541,0.39880068624862286,0.0366847702129971,0.055705847848498635,0.40434008112289954
1.5543397164884356,0.4568874043724197,0.06548719677782389,0.06055669778193895,0.46551239173864906
1.556826660034817,0.5053969903070288,0.08950099925786636,0.06061896205046757,0.516828022885404
1.5593136035811987,0.544329440622739,0.12787979048505438,0.046315833848719734,0.5610641114955291
1.5618005471275802,0.568896348563642,0.16146995673137177,0.03201252297404977,0.5922334032820507
1.5642874906739617,0.5982513239695814,0.17590628759173077,0.022497432584318133,0.6239822137838127
1.5667744342203431,0.6132407501120856,0.19034239590580748,0.01298215919792689,0.6422328096061715
1.5692613777667246,0.6186530268584918,0.20477828123464104,0.013043509295352251,0.6517943274080601
1.571748321313106,0.609699747429794,0.20006032986064204,0.013104676076965305,0.6418174585775817
1.5742352648594877,0.600746118322556,0.20013055795166457,0.02274246602554264,0.633612940734788
1.5767222084058692,0.5822153294261481,0.19541215843602178,0.032380072343757504,0.6149870491062475
1.5792091519522506,0.5541073772649603,0.17153992092436976,0.037229091555744276,0.5812460195719692
1.581696095498632,0.5307874683187723,0.15245586159253666,0.03250112018678486,0.5532038042815417
1.5841830390450136,0.4978903891399766,0.13815998001746665,0.03734977136488027,0.5180521451527761
1.586669982591395,0.46020453955674845,0.11907546913817324,0.056563448258232896,0.4787134939167442
1.5891569261377767,0.42730672271215075,0.09999073185730811,0.06620013411432701,0.44381487073904347
1.5916438696841582,0.40398533842356343,0.08090576775993741,0.06625982878336067,0.41730116442256215
1.5941308132305396,0.38545197986239577,0.07139738307446564,0.061530935436996614,0.39680835563968986
1.596617756776921,0.35734143355415315,0.05710036743048663,0.05680185724804687,0.3663056143196024
1.5991047003233025,0.33880730926128455,0.04280312374159312,0.04249578742954263,0.34413426472841485
1.601591643869684,0.3202727968191763,0.028505651603833115,0.052131549078477946,0.32573752464992156
1.6040785874160657,0.3065262960189967,0.0142079506160262,0.05219031880861991,0.31126205260066386
1.6065655309624471,0.29277940000619906,0.014275230340722533,0.05224890311771091,0.2977473881434975
1.6090524745088286,0.28382050856181207,0.014342280421397735,0.04751889854370184,0.28812814476683507
1.61153941805521,0.2748612148212417,0.014409100465278879,0.04757711158663547,0.2793204094515015
1.6140263616015915,0.27547832187588406,0.014475690082421,0.028481525505521077,0.27732480726043446
1.616513305147973,0.2904602294919255,0.009753645565403257,0.014174156763649748,0.29096938883373635
1.6190002486943547,0.2958649175088329,0.009819773170595347,0.023808618505150037,0.29698371617439606
1.6214871922407361,0.31084599564408943,0.014674072516603243,0.028654490672199273,0.3125086258775443
1.6239741357871176,0.3354034603291881,0.01952813990459301,0.023923369809693895,0.33682214456887777
1.626461079333499,0.3599605013503179,0.029170378279247178,0.028768869065245894,0.3622845861041011
1.6289480228798805,0.3749403084890278,0.038812383947516516,0.04319098830639234,0.3794101969483948
1.631434966426262,0.38034287816291656,0.038877349898950087,0.04324771080026579,0.38476293713646587
1.6339219099726436,0.39053341674599795,0.043730485727583535,0.06245785965890782,0.39790663378542146
1.636408853519025,0.41030032396719396,0.0437949844288239,0.08645622479239812,0.4215910759421491
1.6388957970654066,0.42527838626976666,0.058224458922902844,0.08651238615103729,0.4378769078207115
1.641382740611788,0.44983281001450004,0.07265369889082596,0.08177995688941841,0.4629428455834427
1.6438696841581695,0.46002157499538215,0.08708270397750573,0.07704734020236081,0.47448871369667395
1.646356627704551,0.4797866942052934,0.10629987715115874,0.06273772932491717,0.49540988938417624
1.6488435712509326,0.48039774410949343,0.10636320146111533,0.058004737415188856,0.49543886881547067
1.651330514797314,0.4762199310519396,0.096849483201908,0.058059961030881624,0.48942436004197654
1.6538174583436955,0.48640686469284344,0.10648914195234038,0.05811499673087539,0.5013072193965468
1.656304401890077,0.4870165248056064,0.10655175745050016,0.04380463443459881,0.5004570095897038
1.6587913454364585,0.47326050444094436,0.09703732935939735,0.03428248730483929,0.48432121292455044
1.6612782889828401,0.4738692198878872,0.09709947062634905,0.03433695854462471,0.4849323370070997
1.6637652325292216,0.4744774575488411,0.0971613742798687,0.0248144347566015,0.48495870602171337
1.666252176075603,0.4607200038224636,0.09243463667186536,0.03923373906802574,0.47153618128420277
1.6687391196219845,0.4517504683459145,0.07334245083702928,0.0440760481229443,0.45978288219949126
1.671226063168366,0.44278044415117435,0.0734036396959703,0.03934136180878234,0.45054451366351866
1.6737130067147474,0.42423312094635224,0.06867618632866668,0.03939488997508711,0.4315577792517258
1.6761999502611291,0.42005051167825735,0.05916009041978976,0.04423663251165699,0.42649645756514193
1.6786868938075106,0.42065580604808717,0.06400896493840014,0.03950137934854148,0.4273275251196541
1.681173837353892,0.4212605970739949,0.05928079297390543,0.03476593701853403,0.4268294430326127
1.6836607809002735,0.4218648810911565,0.04976397754075235,0.039607112055628946,0.4266323413480503
1.686147724446655,0.4081034444705891,0.04982372829719095,0.03487129107313436,0.41260978203539816
1.6886346679930364,0.3943414935020313,0.04988323830309804,0.03971208724806097,0.3994628904349112
1.691121611539418,0.39973263779245005,0.04515410394186459,0.04934109715705226,0.40528954919657684
1.6936085550857995,0.3955464537426725,0.045213131561033126,0.044604707417025935,0.40061303555640565
1.696095498632181,0.39135974431308174,0.05006032087074708,0.054233337849220575,0.39825838362644744
1.6985824421785625,0.3967493124611865,0.05490726826407322,0.05907337507295729,0.4048635432947222
1.701069385724944,0.39256154121981723,0.054965570137327724,0.05912481899001243,0.40077614919802984
1.7035563292713254,0.39316163686126016,0.05502362953071316,0.05917607282367676,0.40137947144938996
1.706043272817707,0.3937611923738935,0.0550814461673923,0.06401553979844898,0.4027155716722269
1.7085302163640885,0.4039370107044443,0.06471582641443474,0.07364321981972388,0.41566401170989264
1.71101715991047,0.40932387819556704,0.07434996336095834,0.0593286928722474,0.42023070819582514
1.7135041034568514,0.41949859778903764,0.08877226006032357,0.0545907821060414,0.43224962833313785
1.715991047003233,0.42009595582270376,0.09840590960827011,0.05942948743016352,0.4355412714320355
1.7184779905496144,0.4254811585539984,0.09846250842418058,0.049902792153329045,0.4395672536874567
1.720964934095996,0.42607739563657654,0.09851886289171485,0.030799099507341055,0.43840221024578263
1.7234518776423775,0.4266730666828916,0.09857497275726024,0.030848829326782123,0.43899724527326
1.725938821188759,0.44163337794395785,0.09384243445025486,0.0356867715646505,0.4529017428564927
1.7284257647351404,0.4470163091063022,0.0843212477238251,0.026159312854861838,0.45565114185499667
1.7309127082815219,0.45239866309672916,0.0795882189751067,0.026208469715378158,0.46009316323562044
1.7333996518279033,0.4529920328792737,0.06527813800307003,0.026257435423204356,0.45842389779356896
1.735886595374285,0.42964280145528444,0.07012142449290826,0.03588301653783432,0.4368037796209118
1.7383735389206665,0.4206581916681783,0.07975286825041827,0.0502968096590557,0.43109581681290954
1.740860482467048,0.41646139315665465,0.06544204912389473,0.06949881470822739,0.42726202619629616
1.7433474260134294,0.42184080551883485,0.06549619344944668,0.07433541832670443,0.4333187867782251
1.7458343695598109,0.4128544084295275,0.055973284402573764,0.06959502375864624,0.42240411747338946
1.7483213131061923,0.4278094247262473,0.05123853172473547,0.06964284089009887,0.4364589514549484
1.750808256652574,0.43797543076085876,0.04650353187961809,0.06969046632711517,0.44591682803447685
1.7532952001989555,0.4385640194855953,0.04176828465470184,0.07452630331762933,0.4468077424089125
1.755782143745337,0.4487288004531407,0.041821193161271975,0.06020833518895152,0.454677459502637
1.7582690872917184,0.45410455997296206,0.041873853873496625,0.04110177183216379,0.4578795984472334
1.7607560308380998,0.4546912943145178,0.03713786326905666,0.04114862978023126,0.45805742407081795
1.7632429743844813,0.460065806387028,0.037190027790094504,0.03640689236427086,0.46300011467082586
1.765729917930863,0.4606512858176819,0.03724194392135294,0.04124176947917846,0.4639907898464134
1.7682168614772444,0.46123613219391,0.037293611471433064,0.031711244458616505,0.4638266768124645
1.770703805023626,0.4570319384619056,0.0325566269321782,0.0269689305203471,0.45898306062953936
1.7731907485700074,0.45761550752827096,0.023030990119309536,0.012649617641214306,0.4583692747803911
1.7756776921163888,0.4677752389788531,0.027870314133374485,-0.0016698875990890372,0.46860774335920835
1.7781646356627703,0.4587807091569548,0.0231325821956907,0.017529237981973367,0.45969786777602895
1.780651579209152,0.4545739309290401,0.023183004093670245,0.03672817108385473,0.4566441381538273
1.7831385227555334,0.45515490055982977,0.02802157965739349,0.041561701688541675,0.4579067235555419
1.7856254663019149,0.4605236143139412,0.028071502079927146,0.05118344302150568,0.4642087390488623
1.7881124098482963,0.4658916651356667,0.028121174518897174,0.07517020166889132,0.4727540621910596
1.7905993533946778,0.46647064596937293,0.023382193494935866,0.08479155765563817,0.4746906348069109
1.7930862969410595,0.45747214975958717,0.033008172133878855,0.08004751092986595,0.46559414863091325
1.795573240487441,0.4484729794120269,0.037845497002710005,0.08009167472225087,0.45713780336556864
1.7980601840338224,0.44904993783274094,0.03789416795332512,0.07055883902258486,0.45613634408658815
1.8005471275802039,0.44962621464695607,0.05709620144284733,0.0610258104235335,0.45732686194318595
1.8030340711265853,0.45020180612103644,0.06672117740864492,0.046704185558127165,0.4575091941131753
1.8055210146729668,0.44598830520163824,0.07634590235425742,0.027593964381042113,0.45331632670043737
1.8080079582193485,0.44177411147673185,0.08597037614630221,0.03242556677014541,0.4512279784390123
1.81049490176573,0.447136027855379,0.08601779201446913,0.027680169440570168,0.45617527303613176
1.8129818453121114,0.4477088406459542,0.08606495647340928,0.03729978895252373,0.45742940108962943
1.8154687888584928,0.44349254611872513,0.08611186940086402,0.056496021945672936,0.4552940731112881
1.8179557324048743,0.4488523505059482,0.09094693399861198,0.04696164181883766,0.46037503533617374
1.8204426759512558,0.45421144343945663,0.09578174683154161,0.04221547177686524,0.46611621344338533
1.8229296194976374,0.44999301455231866,0.09582790446828193,0.04225751178374182,0.4620199105263955
1.825416563044019,0.45535067340079116,0.09108540680152721,0.047087761804787576,0.46675265870751936
1.8279035065904004,0.455919206300366,0.09113106036834662,0.04234101184574435,0.46686181480341304
1.8303904501367818,0.45648701284928084,0.09596486506895019,0.03759406851525071,0.46797752319453406
1.8328773936831633,0.4426888793661262,0.09601001416669064,0.03763533510299766,0.4545412909550019
1.8353643372295447,0.4336784154133526,0.09126650756932353,0.03288800493908717,0.4443964044276363
1.8378512807759264,0.4486092305552014,0.09131115182901439,0.018563674675297293,0.4581840003809839
1.8403382243223079,0.45396249783433895,0.09614394686109273,0.013815957566322368,0.46423753471848356
1.8428251678686893,0.45452661685789575,0.09139968262374909,0.023433256907297917,0.46421704508267453
1.8453121114150708,0.4503015839147423,0.08665516568054032,0.03305036271347639,0.4597531519095219
1.8477990549614522,0.4460757986162073,0.09148720259883003,0.04745567828274844,0.4578270063590856
1.8502859985078337,0.4514260638961701,0.09153058334823783,0.061860800273741745,0.46474734798959916
1.8527729420542154,0.451987166089281,0.08678530786314154,0.07147732534647488,0.46576077122167064
1.8552598856005968,0.45254750481386075,0.0868281827223707,0.07630525348265671,0.46707694134604116
1.8577468291469783,0.4531070763704337,0.08687080454765228,0.06676777802474376,0.4661657382541963
1.8602337726933598,0.4536658770621319,0.08691317328486248,0.057230108918158606,0.46544807773561836
1.8627207162397412,0.45422390319478834,0.09653209552434738,0.06684585943002475,0.46915473846351463
1.8652076597861227,0.4547811510770291,0.10615076457904404,0.07167301294605188,0.4724731748791968
1.8676946033325044,0.464914423660994,0.11576918040638606,0.07171156945490154,0.4844486284980955
1.8701815468788858,0.4798353139408541,0.12538734296764398,0.057384722306021985,0.4992563676462653
1.8726684904252673,0.4803902049529295,0.12542844558734378,0.03826927813151215,0.4979674503678748
1.8751554339716487,0.4761558996585691,0.12546929487512104,0.033518850205496165,0.4935488811204214
1.8776423775180302,0.48149760434269284,0.12072148748354827,0.04313343852227902,0.49827112503811427
1.8801293210644117,0.48205010537169724,0.11597342670969901,0.05274783311661757,0.498602520741876
1.8826162646107933,0.46823659243573224,0.1064367092138987,0.06236203398564477,0.48421410847572044
1.8851032081571748,0.4783642884316023,0.10168814162130335,0.06718763780757975,0.49364668465131
1.8875901517035563,0.4837027697753741,0.09215091727969371,0.048071031301139655,0.4947433527539432
1.8900770952499377,0.47946362948820354,0.07782503618065961,0.048107844350465,0.48811522507146904
1.8925640387963192,-1.6268853870604398,-7.842154980193109,-0.4785799015571133,8.023415078267657
1.8950509823427006,-2.9000530481700713,-7.07118322364059,-0.6078303655971737,7.666902739557783
1.8975379258890823,-3.986473805729739,-6.166136427555233,-0.7131390067484009,7.377111839327031
1.9000248694354638,-4.895724470021943,-5.165321818492217,-0.7801406150426935,7.159419456506412
1.9025118129818452,-5.594286221443535,-4.121411832962397,-0.7992583838309208,6.994346845019874
1.9049987565282267,-6.063005450346775,-3.0775021008338093,-0.7896459263843241,6.845041633228141
1.9074857000746082,-6.340189386924223,-2.0575346386876814,-0.7465148393711534,6.707364210840764
1.9099726436209896,-6.425838034801033,-1.0902398664228268,-0.6794419294191663,6.552988535873239
1.9124595871673713,-6.319951397597952,-0.20434820393352338,-0.6027924064749612,6.351921169359318
1.9149465307137528,-6.0416830922122715,0.5666215255695177,-0.5069894638821122,6.089337636923235
1.9174334742601342,-5.619763542177275,1.2226693221212384,-0.3968215049437269,5.764905016392472
1.9199204178065157,-5.0685579610603515,1.7637951857609924,-0.26750012632078146,5.373342496018987
1.9224073613528971,-4.407219965744197,2.185210713211551,-0.1429673445946662,4.921297933392091
1.9248943048992788,-3.674056786388283,2.4869159045196767,-0.02801156306416175,4.436691180758925
1.9273812484456603,-2.893010443185735,2.673699163056662,0.08215562161412748,3.9401682940040037
1.9298681919920417,-2.078446149683256,2.740772085557093,0.1779574028241857,3.444334312943803
1.9323551355384232,-1.2543059260640401,2.7168650920014774,0.26418218391225423,3.004069158756538
1.9348420790848047,-0.4541085991457543,2.611554989093087,0.33125315826519497,2.671359716649141
1.9373290226311861,0.3125690208609324,2.4296301802187217,0.3887471325525773,2.480307750763899
1.9398159661775678,1.0313617204299046,2.1950326820505097,0.4175104935235332,2.4609328487060047
1.9423029097239493,1.6783274794009793,1.931704511264237,0.4271200478505861,2.594358684189011
1.9447898532703307,2.2486778909002285,1.6252804579773237,0.4319410055280244,2.8079640055319515
1.9472767968167122,2.728047741419263,1.3092793455140876,0.41760815662974515,3.0546445712285797
1.9497637403630936,3.1164370274163264,0.9884895772810158,0.3841215011920749,3.2919357098708297
1.952250683909475,3.409057342035541,0.6724879600086449,0.3506346525340476,3.492399844977761
1.9547376274558568,3.6011202784269685,0.38042810707215446,0.3123592073746462,3.6346060417575035
1.9572245710022382,3.692625833067168,0.11709842188968578,0.2692951657546576,3.7042836648592234
1.9597115145486197,3.7027276157202325,-0.1270779020777253,0.22144252771636097,3.7115195516789514
1.9621984580950012,3.626637219554958,-0.33294725144324167,0.16401288998320496,3.6455797375157726
1.9646854016413826,3.4739314477076215,-0.4957212227769239,0.10179465592080383,3.5105984370271477
1.967172345187764,3.2493987000006137,-0.6153998159654441,0.0587298421774598,3.3076816714155206
1.9696592887341458,2.97698098954411,-0.706348240852454,0.02045323884049388,3.0596996559207326
1.9721462322805272,2.6662551194943136,-0.7542012873557917,-0.022611960680920973,2.7709650385460667
1.9746331758269087,2.3172210863732547,-0.7637473586707162,-0.04173533641365168,2.440197825856523
1.9771201193732901,1.9442440966708323,-0.7589284712698148,-0.05607050158615756,2.0878700709314844
1.9796070629196716,1.571266163524852,-0.7253794150593149,-0.06561745614414427,1.7318655556886422
1.982094006466053,1.1934988801576911,-0.6583117865821515,-0.07037620003181289,1.3648321489551618
1.9845809500124347,0.8157306464400108,-0.5864560056196095,-0.08471194315279718,1.0082277755455205
1.9870678935588162,0.46190347553073086,-0.5050236687069076,-0.09904787880764232,0.6915303384218556
1.9895548371051976,0.13201736399450203,-0.40443796905507723,-0.09423039365477415,0.4357499538700907
1.992041780651579,-0.15477407831544032,-0.31342932643376153,-0.07983629427297778,0.3585621171712888
1.9945287241979606,-0.4032592581398431,-0.21284412740565228,-0.07023079055982251,0.4613599633574935
1.997015667744342,-0.6182265822120159,-0.11704758177172936,-0.06541388245044466,0.6326003630803579
1.9995026112907237,-0.7900992472965553,-0.026039689368233088,-0.0558087632378097,0.7924957438719222
2.001989554837105,-0.9140888534707321,0.06975635661310475,-0.031838626213374965,0.917299340153762
2.0044764983834864,-0.9854070008039815,0.14161013642188536,-0.017445487909270696,0.9956830484744206
2.006963441929868,-1.0184189026390895,0.20388686019436264,-0.00784094493422316,1.0386570143362939
2.0094503854762498,-1.00833615902961,0.24700972146906208,0.011340212745189149,1.0382120267709851
2.011937329022631,-0.9503703700210275,0.28055552706958764,0.03052117856234382,0.9913862952068851
2.0144242725690127,-0.8684635555725495,0.30931268050305327,0.0497019525927751,0.9232407951175214
2.016911216115394,-0.7578273157132716,0.3237043753194562,0.07367093823385495,0.8273537152768449
2.0193981596617756,-0.623250057104618,0.32851901503353975,0.1120049422047984,0.7133796212381013
2.0218851032081573,-0.47909699304010545,0.32375659984354543,0.1311851413435594,0.5929264760420587
2.0243720467545385,-0.30621451356284335,0.31420553327182876,0.15036514901299647,0.463791034295472
2.02685899030092,-0.11896783194927618,0.29986581552422287,0.16954496529631413,0.36444251620255125
2.0293459338473014,0.0682778385326891,0.285525850130667,0.15999417035632924,0.33434265189405044
2.031832877393683,0.24115728462378905,0.27118563730457845,0.13607797424023893,0.38757670322239013
2.0343198209400644,0.4044589063550136,0.24726837062250961,0.12173839363737393,0.4894373203236678
2.036806764486446,0.5629711037661305,0.2137740503054153,0.11218702531673408,0.6125534563685483
2.0392937080328277,0.7119054702652704,0.18985628985926484,0.09305865940823566,0.7426403729151809
2.041780651579209,0.8464735992697352,0.16593828287189183,0.08829531260580481,0.8670923423784165
2.0442675951255906,0.9475218742448943,0.12765481961458436,0.06437816176118005,0.9582473599520835
2.046754538671972,1.0437807118685063,0.0941595136045641,0.06440283685262038,1.0499961494527679
2.0492414822183536,1.116096495624589,0.07502917172212964,0.0787925313364859,1.1213870995999586
2.0517284257647352,1.154892415647105,0.05589858424976679,0.05487480878786144,1.1575458470746798
2.0542153693111165,1.1936872919623174,0.04155615475492347,0.011803282588060071,1.194468744869534
2.056702312857498,-0.6780918034408376,-6.829780074519368,-0.6250304455988189,6.891760835818441
2.0591892564038794,-1.4389623786419206,-6.255149385545125,-0.7255631920758905,6.459407752133916
2.061676199950261,-2.041816697570157,-5.565597261462543,-0.7877889020509787,5.980426377564592
2.0641631434966428,-2.4866547634028526,-4.799430928572055,-0.8021307687772428,5.464558803847506
2.066650087043024,-2.783053385947858,-3.985380806530369,-0.7829540021078873,4.923582363636588
2.0691370305894057,-2.926224165042461,-3.1282352983880957,-0.7542006185351724,4.34942094067228
2.071623974135787,-2.911378700513716,-2.261513227114642,-0.6967170046670326,3.7517972491609433
2.0741109176821686,-2.786401028702068,-1.4043682057146827,-0.6248683703520381,3.1822541115128806
2.07659786122855,-2.560867959375285,-0.5711654438689393,-0.5625967320778464,2.6834287306670936
2.0790848047749315,-2.234779495650253,0.22372984874549795,-0.49553687976808014,2.299967660339764
2.081571748321313,-1.8272892539147814,0.9467988491739088,-0.399746796704191,2.0964759907389205
2.0840586918676944,-1.3814928671478308,1.5836763477464335,-0.29916849936921963,2.1227470662814842
2.086545635414076,-0.9165439517163201,2.14872755471869,-0.2129556009243636,2.345726541564508
2.0890325789604574,-0.4420193173359821,2.627587260428013,-0.12195448796676978,2.6672961562595545
2.091519522506839,0.013350613006832157,2.9963134485746914,-0.0453187736545555,2.996685888147567
2.0940064660532207,0.45435423957873533,3.274059732745434,0.031316752097906075,3.30558401006089
2.096493409599602,0.8378959294537245,3.456037709928816,0.10795208941678602,3.5577970564177193
2.0989803531459836,1.173552486240441,3.537458977117144,0.16064522182830387,3.7305024246130785
2.101467296692365,1.451747100277173,3.532688744587445,0.20376135942269258,3.8247847130121952
2.1039542402387466,1.6629029619129216,3.432150206018656,0.24687730897137428,3.821760026885207
2.106441183785128,1.816596874789255,3.264573781655795,0.2899930706067142,3.74720724838758
2.1089281273315095,1.903252029277584,3.0347478751457637,0.32832024114229696,3.59720129175373
2.111415070877891,1.9228684224011534,2.7522492934594753,0.3570704173932153,3.376358752590288
2.1139020144242724,1.8945996644757717,2.412289633610089,0.36666679285581694,3.0891898132095372
2.116388957970654,1.804080542586412,2.0579645258175727,0.3571093676685724,2.759973132865441
2.1188759015170353,1.6848298770326342,1.6701203571413155,0.342763351932426,2.39696483856305
2.121362845063417,1.5320592615629192,1.2822759511673212,0.3284171491092138,2.0246715831738733
2.1238497886097987,1.3457686932577333,0.8944313082431998,0.30449395270136037,1.6443288321226892
2.12633673215618,1.1642653957717353,0.5209516386809212,0.2805705694940741,1.3059955459732937
2.1288236757025616,0.9683957529273782,0.1666253461549192,0.23270498303188347,1.0098049066017156
2.131310619248943,0.7677365684809065,-0.17333597229731978,0.18962761338429956,0.809582256248814
2.1337975627953245,0.5814414528410139,-0.4797787030334151,0.165703670661415,0.771828655490946
2.1362845063417057,0.41908720978769465,-0.7431260390482248,0.1274143317717158,0.8626151002967498
2.1387714498880874,0.27588543315199865,-0.9681663832941698,0.09391321014864573,1.0110779440808721
2.141258393434469,0.1470477167770371,-1.1548997353999928,0.05562349930529109,1.165551544768089
2.1437453369808503,0.056516074439925124,-1.303326094991082,0.026910409357814302,1.3048283974096393
2.146232280527232,-0.014863109952839348,-1.3990802517285474,-0.0018028661776714472,1.3991603600519635
2.1487192240736133,-0.0623014358809344,-1.4517390118717304,-0.04009313378354307,1.4536282492025667
2.151206167619995,-0.08101050281170918,-1.4708791816766564,-0.05444157005785577,1.4741140231359176
2.1536931111663766,-0.06620191020011124,-1.4565007607554108,-0.04005977151903828,1.4585547450436653
2.156180054712758,-0.027452467449593954,-1.4038153453965105,-0.040043367887120596,1.404654631306763
2.1586669982591395,0.016084209408331107,-1.3176113385257613,-0.04960395567750986,1.318642822610731
2.161153941805521,0.08356173091721386,-1.2026771430657375,-0.049587921443173144,1.2065959701903946
2.1636408853519025,0.16061488439107607,-1.0685895652560609,-0.03999526501681672,1.081332706101994
2.166127828898284,0.24724366711759294,-0.9153486046924846,-0.03519119619058131,0.9488049954187412
2.1686147724446654,0.33387126975659465,-0.7621078742487812,-0.030387311473852208,0.8325874281176037
2.171101715991047,0.4252860929416912,-0.5897137602330071,-0.035160417335470484,0.7279195249510525
2.1735886595374283,0.5214881339990853,-0.41253147219220265,-0.03035690032087146,0.6656227391308123
2.17607560308381,0.5841701637054462,-0.2545030263108421,-0.011188356934972887,0.6373003608157847
2.178562546630191,0.6468510026551593,-0.09647480888741011,0.012768406357894335,0.6541304461548686
2.181049490176573,0.7095306482135108,0.06155318050152525,0.027148179774560077,0.7127128162515459
2.1835364337229546,0.7578438877979985,0.2147925389622336,0.036739366814593666,0.7885511867599752
2.186023377269336,0.7870023154799546,0.34887805696349883,0.0511187742993755,0.8623813960698056
2.1885103208157175,0.8017943319846066,0.4638097349381822,0.06549799909081777,0.9285922726961329
2.1909972643620987,0.8117967413708149,0.5595875733221884,0.05593502477108281,0.9875631263433396
2.1934842079084804,0.8074327344295863,0.6314231692343095,0.06552548140816938,1.0271009823713102
2.195971151454862,0.7887023086059846,0.6984701363979227,0.07990415922780691,1.0565493541250428
2.1984580950012433,0.7699706713195316,0.7415748619769582,0.07991744513688914,1.0719957596210923
2.200945038547625,0.7464494167220226,0.7511605397790957,0.06556533932503861,1.0610031583207835
2.2034319820940063,0.703773332338275,0.7559575901774842,0.07036666522554036,1.0352392230940792
2.205918925640388,0.6610960289489469,0.7416008036655222,0.08474461639034914,0.9970964654919616
2.208405869186769,0.6232059073874859,0.7176669873411732,0.09912238637287807,0.9556446804133163
2.210892812733151,0.5805261585401822,0.6793677383444652,0.09913476540769928,0.8990989079990778
2.2133797562795325,0.5426335865884091,0.6314914604590305,0.08957015701209059,0.8374099873739568
2.2158666998259138,0.5047397857664891,0.569249750830843,0.08000536802509473,0.7649891431055796
2.2183536433722955,0.4716331569633109,0.5117962232103959,0.07522880196690274,0.7000232721024208
2.2208405869186767,0.4481021010817542,0.4351888614683026,0.07045205571853863,0.6286082486691756
2.2233275304650584,0.42935821239811844,0.3633696826812285,0.08004033944372502,0.5681482700702618
2.22581447401144,0.4106130852027984,0.2963386873271836,0.09920525002638492,0.5160052373565179
2.2283014175578213,0.40144352376127135,0.22451906924644627,0.0992163677503175,0.4705418183910153
2.230788361104203,-1.1926887799514774,-4.357976695491262,-0.1832884897945437,4.521953347255835
2.233275304650584,-1.948851748204029,-4.027570872024297,-0.2503153770871478,4.481295354432994
2.235762248196966,-2.546998654813173,-3.591820393456918,-0.2886120234096783,4.412671842152977
2.238249191743347,-2.982341098776671,-3.0746672758983644,-0.3077552351913244,4.294490723208094
2.240736135289729,-6.740836699585706,-7.829546430962874,-0.7387013110473415,10.357912741089686
2.2432230788361105,-8.478627354060777,-6.785669381590008,-0.8200941228337442,10.890591587952521
2.2457100223824917,-9.737578933617055,-5.646024481771439,-0.8679682894754102,11.289437757865533
2.2481969659288734,-10.527268247156078,-4.453707360885877,-0.8871122140755254,11.46498382398997
2.2506839094752547,-10.886002523485345,-3.2518136483105065,-0.8775258964154826,11.395147855273647
2.2531708530216363,-10.842512184758016,-2.0594969568173997,-0.8248441263143551,11.067157088633083
2.255657796568018,-10.444681266393486,-0.9150645124571777,-0.753008920152272,10.511695022799055
2.2581447401143993,-9.75475901375801,0.1431764587212978,-0.6763854876674067,9.779229020876452
2.260631683660781,-8.82062946224093,1.1056491505956152,-0.594973828635446,8.909543086552006
2.263118627207162,-7.699753453858659,1.943623143762891,-0.5039855395105057,7.957253018423807
2.265605570753544,-6.440015023971547,2.637944825464465,-0.39384381342492425,6.970484872700541
2.268092514299925,-5.108451821206449,3.198191002865998,-0.26454865015028695,6.032801313543887
2.2705794578463068,-3.7529478808940713,3.619573273174833,-0.1448304693786504,5.216023805682765
2.2730664013926885,-2.4118104317095517,3.902091636921226,-0.029900867558509958,4.5873786374480074
2.2755533449390697,-1.1233467023130457,4.040957691317707,0.08024015554272701,4.194959518181176
2.2780402884854514,0.07413607865009197,4.055325050180931,0.1664389868777807,4.059416135004576
2.2805272320318326,1.1519074891910432,3.9404053107285577,0.24306083664299472,4.112513033022732
2.2830141755782143,2.0812371073347973,3.7297172967432606,0.3101057050750633,4.282348019357286
2.285501119124596,2.866913334364625,3.4519914286898645,0.3675735924121355,4.5022824474198355
2.287988062670977,3.499359361617357,3.0928624971531424,0.42025290221398137,4.689128583207618
2.290475006217359,3.954633170484759,2.671484115962153,0.44899002144023115,4.7934896405739025
2.29296194976374,4.261465178896813,2.2357403188705534,0.44899654701277925,4.833240956501429
2.295448893310122,4.41506698155669,1.7712658964703278,0.4537913024173825,4.778715923109533
2.2979358368565035,4.429803786464094,1.3020028659183112,0.44422067461771064,4.638502458465332
2.3004227804028847,4.329617608274751,0.8423164377334604,0.415496260539749,4.4303185842195685
2.3029097239492664,4.114508445058085,0.4113602257569542,0.38198327039204294,4.152626662565336
2.3053966674956476,3.808418311500605,0.013922633871818135,0.34368170442357737,3.8239195845444427
2.3078836110420293,3.440077625624319,-0.3499963373572319,0.3005915628846374,3.4708769488649347
2.3103705545884106,3.0238515955060876,-0.6708198807220795,0.24792444270659075,3.1072728096046007
2.3128574981347922,2.5741054292379575,-0.9389711890125958,0.20962236074396579,2.7480224141647627
2.315344441681174,2.109992738248196,-1.1448734550161133,0.18568531725108528,2.4077548921149114
2.317831385227555,1.6506671339801198,-1.2933150814788215,0.14259448924139306,2.1018323138501622
2.320318328773937,1.2104938245726473,-1.389084471144479,0.09950349025310068,1.845196984572596
2.322805272320318,0.7990496148599102,-1.441758430074923,0.06598912718510874,1.6496976155061054
2.3252922158666998,0.4259113096917462,-1.4513369576891142,0.027686190336087435,1.512794081695509
2.3277791594130814,0.09586731061303244,-1.4178200534037682,-0.010616916712772095,1.4210970987228584
2.3302661029594627,-0.18150557749474538,-1.33641931331312,-0.05370859701951858,1.3497575593608717
2.3327530465058444,-0.4157841630161898,-1.2214999467903707,-0.07764683371910053,1.2926591279260566
2.3352399900522256,-0.5782380277573846,-1.0874271632065908,-0.08722002986700517,1.2346920205598986
2.3377269335986073,-0.6880207867117869,-0.929412558649443,-0.10158179847837445,1.160818318646338
2.3402138771449885,-0.7499208448961869,-0.7522445358449503,-0.11115533264518618,1.0679928011432744
2.34270082069137,-0.7639382039911082,-0.5702883041577953,-0.11115222877842612,0.9597839065845737
2.345187764237752,-0.7348612689816019,-0.40269747627074093,-0.11114929324875078,0.8453049789476996
2.347674707784133,-0.6674784448368107,-0.22553003498166202,-0.11114652578490514,0.713263500534446
2.350161651330515,-0.5713665398302721,-0.04836278632853608,-0.11593232943466525,0.585011954533602
2.352648594876896,-0.4513139588992676,0.10486225369179314,-0.09677628400234717,0.4733350091552016
2.3551355384232777,-0.3216859136057335,0.2341450856860976,-0.06804359917380509,0.40365291966221534
2.3576224819696594,-0.1729055988940189,0.3538509202241391,-0.04409948463363911,0.39629734343964756
2.3601094255160406,-0.009761419653506076,0.4496145479557554,-0.010578730143313564,0.44984490280379436
2.3625963690624223,0.1581698159223318,0.5262243728141431,0.0037882446541654957,0.5494944331020128
2.3650833126088036,0.3021576863747023,0.5836803954140959,0.0277318599607721,0.6578382228807872
2.3675702561551852,0.4461442067845004,0.6267710196927525,0.05646371273756223,0.7714108601971933
2.3700571997015665,0.5709757623656875,0.6459194396281904,0.08040699662648976,0.8658467120715801
2.372544143247948,0.6766523516298577,0.6459140591614259,0.0899849052707804,0.9397662794361148
2.37503108679433,0.7775391830656,0.636331685555684,0.0947742455961258,1.0091914351959064
2.377518030340711,0.8688478518964697,0.5980187061542233,0.10435182452945391,1.05991144249796
2.3800049738870928,0.9314247434013051,0.5549171381850049,0.11871764235829119,1.0906782117007445
2.382491917433474,0.970058259476751,0.5070269822763023,0.1378716993713862,1.1032216427458406
2.3849788609798557,0.9991136086763409,0.44477143241762995,0.1522371892180736,1.1041855785682542
2.3874658045262374,1.0090139829683555,0.38251569920184947,0.1474489022286125,1.0891137023883077
2.3899527480726186,0.9997593809779913,0.3106829766222021,0.14266045197663146,1.0565958245112013
2.3924396916190003,0.9809266079874189,0.23406166863455358,0.14266024207603678,1.0185056797342311
2.3949266351653815,0.9429388560139168,0.18138219579817605,0.1426598695013137,0.9707651752610071
2.397413578711763,0.9049497370130497,0.12391413883039659,0.12829412458753708,0.9223600830075795
2.3999005222581444,0.8573824430348758,0.061657498372116315,0.10435141095221567,0.8659073378241333
2.402387465804526,0.8098137794271627,0.008977485026957499,0.09956214881562175,0.8159605223687593
2.404874409350908,0.7622437449135018,-0.02933749724036261,0.09956112851640775,0.7692779950808085
2.407361352897289,0.7098839349136497,-0.06765265774466478,0.09477154371472096,0.7193703695916831
2.4098482964436707,0.6527343481841775,-0.096391189197512,0.08040499139220181,0.6646941802777527
2.412335239990052,0.6051601934591193,-0.11076468762909641,0.05646147185197492,0.6177989750531651
2.4148221835364336,0.5623730662078061,-0.11077315238825935,0.04688300199990536,0.5750931861555353
2.4173091270828153,0.5291613685567583,-0.1203585994237586,0.04209277550083179,0.5443066674012671
2.4197960706291965,0.5007366960084855,-0.12036741479990498,0.022937179380152273,0.5155110740546939
2.4222830141755782,0.4675222407617693,-0.12037640450126696,-0.0010069794137237409,0.48277172491261133
2.4247699577219595,0.443883211633613,-0.11559716454987212,0.003779122670360735,0.45870392606811067
2.427256901268341,0.4298196074967381,-0.10124129096616175,0.0037766627003286146,0.44159818519361815
2.429743844814723,0.4205430239202368,-0.08209718640962782,0.0133508509483935,0.42868943094669393
2.432230788361104,0.4112650564899143,-0.06774165685852873,0.018136477766043768,0.41720116321667805
2.4347177319074857,0.41156251076923245,-0.05817470164894445,0.02292194678717685,0.41628525295418817
2.437204675453867,0.4214353856977856,-0.03424270683418884,0.022918855006205163,0.42344494471462163
2.4396916190002487,0.4313068735913156,-0.0007340750676263497,0.02291560605931231,0.43191582869163936
2.44217856254663,0.4459653767432995,0.018409177717620295,0.018123796943195103,0.44671298066394954
2.4446655060930116,0.45583408750309506,0.04234066547271409,0.02290863793694342,0.45836912305976457
2.4471524496393933,0.47527821483847144,0.0662719855487337,0.04205853268014614,0.48171597206219213
2.4496393931857745,0.4899325478121773,0.09499154193880655,0.0420546582510255,0.5008252077584094
2.452126336732156,0.5093738921054175,0.10455731871563412,0.04205062825236183,0.5216917194972933
2.4546132802785374,0.5288138434553725,0.10933452651583275,0.05641165296774986,0.5429368234970239
2.457100223824919,0.5578292075770717,0.12368837597740967,0.06119571611940522,0.5746452426056963
2.459587167371301,0.5916315802415923,0.13325365781789866,0.04682601139159104,0.608257461445282
2.462074110917682,0.5967021373150903,0.13324196939681965,0.051609765672809615,0.6135718629451176
2.4645610544640637,0.5921944912041701,0.1284417147156791,0.06597017264954452,0.6095438074257505
2.467047998010445,0.6020506576527636,0.13800650773826062,0.0516000060875097,0.6198171917480724
2.4695349415568266,0.6119054258593537,0.14278273586717827,0.04680649287851146,0.6300841274253935
2.472021885103208,0.6121819883598001,0.14755880310791447,0.0563780366732658,0.6322332403994042
2.4745088286495895,0.6316107642695534,0.152334710146941,0.06594942784234803,0.6530599884309671
2.4769957721959712,0.6366729295571116,0.14753365103138627,0.07552066671835078,0.6578920644901183
2.4794827157423525,0.6321568867706138,0.13794402977058073,0.06593814035372247,0.650383520081935
2.481969659288734,0.6324278451159782,0.1283542503751085,0.07072067232542878,0.6491850324534264
2.4844566028351154,0.6183321905741177,0.12355271685679226,0.07071464968809416,0.6345081035127854
2.486943546381497,0.6138119390259633,0.12353942990836675,0.07070847609898756,0.6301006077009752
2.4894304899278787,0.6236554930884244,0.10437237362221108,0.0754905552164562,0.6368191190297202
2.49191743347426,0.6287092387940934,0.10435877525596293,0.08506088737960127,0.6429629969755477
2.4944043770206417,0.5906659489115906,0.0947682155840659,0.08505426296766316,0.6042362994206738
2.496891320567023,0.5861400759143298,0.0899659052649433,0.0802590856422043,0.5984108735067568
2.4993782641134046,0.5911896025664816,0.08516344167692003,0.08025216238617006,0.602659412561215
2.501865207659786,0.5818725116495584,0.08036082551977142,0.07545668690231544,0.5922222502488899
2.5043521512061675,0.572554012524938,0.07555805749439415,0.0706610628554003,0.5818248044854979
2.506839094752549,0.572810911251074,0.070755138302796,0.05628848395029884,0.5799025979161989
2.5093260382989304,0.573066400622581,0.07074047196839173,0.046704160494504876,0.5793018146910363
2.511812981845312,0.5733204800921332,0.07072565587505197,0.0466964961559313,0.5795507346602808
2.5142999253916933,0.5687847458095492,0.06592228740771411,0.05626549128323077,0.5753500156878786
2.516786868938075,0.573824407223378,0.06111877059299209,0.051469129624548415,0.5793608769569866
2.5192738124844567,0.5740742538777966,0.05152670281791716,0.056249428132192136,0.5791202364223111
2.521760756030838,0.5647458819751412,0.061088101392413385,0.05624117719701793,0.5708176042766343
2.5242476995772196,0.5697813076571632,0.056284143783678964,0.04186757053124168,0.5740832142287015
2.526734643123601,0.5748153205206985,0.056268443983335636,0.03707062509029413,0.5787512606795809
2.5292215866699825,0.5702711135004872,0.056252599382432766,0.04185034122909492,0.5745650084118922
2.5317085302163638,0.5753022994707684,0.05623661069329833,0.03705310602233958,0.5792307181292494
2.5341954737627455,0.5755436680812407,0.05143207530890592,0.027467323147325473,0.5784896075815623
2.536682417309127,0.5757836222805157,0.056204203904416605,0.02266979960268145,0.5789642579961448
2.5391693608555084,0.5712337583942757,0.05618778723405082,0.013083729106812214,0.5741395807038991
2.54165630440189,0.5762592860471674,0.06574803597481393,0.008285918660396518,0.5800570880854601
2.5441432479482713,0.5860718016003245,0.065731337562426,0.017853175265125643,0.5900165262395987
2.546630191494653,0.5910944981123378,0.06571449935536844,0.036997095962780335,0.5958857996578559
2.5491171350410347,0.5769621653392636,0.05133231211143219,0.06571768111645326,0.5829572541027352
2.551604078587416,0.5819820295784095,0.046526793151771884,0.08007291448867804,0.5893042481332572
2.5540910221337976,0.5917888806214844,0.04172113655619958,0.07048598980395049,0.5974303367099909
2.556577965680179,0.5872291049577387,0.032126939725675374,0.07526413399089193,0.5929037458399155
2.5590649092265605,0.5778795090161806,0.01774420338229188,0.08004213745569722,0.583666280902821
2.561551852772942,0.5781053025640361,0.03209175149113763,0.0704547906055506,0.5832662332809063
2.5640387963193234,0.578329678784899,0.046439164854020554,0.06565570709083524,0.5838942415107217
2.566525739865705,0.5785526375209418,0.0320560242735457,0.06564488728167994,0.5831466319039225
2.5690126834120863,0.5691973719916885,0.0320379603577603,0.07042233154921007,0.5744313570540495
2.571499626958468,0.5742058986768521,0.03680816719203195,0.0704112336249203,0.5796766314661228
2.5739865705048492,0.574424604191359,0.03200143554215762,0.0703999972022249,0.5796066574697288
2.576473514051231,0.5794302950900563,0.031982976096534,0.08954223593645416,0.5871798614092967
2.5789604575976126,0.5844345679849314,0.03675278958333461,0.0847423203198776,0.5916889323378349
2.581447401143994,0.5846490195060641,0.04631087673143419,0.06078865404886358,0.5896222805950506
2.5839343446903755,0.584862052942279,0.051080431629772605,0.05120006074264616,0.5893167889067744
2.5864212882367568,0.5898620716005452,0.051061455008590606,0.046399734138621085,0.5938833816740587
2.5889082317831384,0.5948606721653744,0.055830754239416525,0.04638767461578297,0.5992729835093877
2.59139517532952,0.5807042413785326,0.05581152341317974,0.05116388255409987,0.5856194028366262
2.5938821188759014,0.5761231992031257,0.05579216658238195,0.046363148373570695,0.5806722380475154
2.596369062422283,0.5811175456986233,0.06056108780014924,0.055927489057667756,0.5869353723423256
2.5988560059686643,0.5956872809427574,0.07969509444052925,0.07028009834864157,0.6050900238631894
2.601342949515046,0.5958903884299827,0.08446376731567007,0.0606905567084528,0.6048990218920619
2.603829893061427,0.5960920782355632,0.07965551048049369,0.05588928444377039,0.6039821008943373
2.606316836607809,0.5915039471718457,0.09400074459205454,0.0558762819403551,0.6015274045188734
2.6088037801541906,0.5821259953898459,0.07961543718296982,0.05107474294429615,0.5897609021572049
2.611290723700572,0.5823234330198948,0.07480681555203006,0.05106147448388754,0.5893249650859702
2.6137776672469535,0.5873078569294756,0.08436328375637414,0.051048073627445234,0.5955279911795288
2.6162646107933347,0.5922908640044937,0.074766019291169,0.051034540764552716,0.5991685485528141
2.6187515543397164,0.5924840511493081,0.06995703949583021,0.06059768292637102,0.5996694234470873
2.621238497886098,0.602252628567994,0.07472474842902921,0.07494909718406717,0.6114813029141174
2.6237254414324793,0.5880777732800092,0.06991553354836055,0.08451197728945203,0.5982189595480059
2.626212384978861,0.5834783088076774,0.06031779891344646,0.06534430703434779,0.590216106334476
2.6286993285252422,0.5980310420903252,0.05550835190468684,0.05575331337558076,0.6031838329955227
2.631186272071624,0.5934287468827031,0.06027559658261472,0.06052740002874302,0.5995451536993731
2.633673215618005,0.5936134401222113,0.0602543237269475,0.046147744147866376,0.5984455815790228
2.636160159164387,0.5937967188429818,0.06502134071938892,0.04134476605198323,0.5987751729468509
2.6386471027107685,0.5891901800977759,0.06499984166080308,0.04611846613918935,0.5945561038780198
2.6411340462571498,0.5941590342392551,0.06976663393369975,0.036526828206939754,0.5993551120641438
2.6436209898035314,0.5943380717168785,0.0793217182803474,0.031723465936448036,0.6004465478076338
2.6461079333499127,0.5897272929597364,0.07929988548244804,0.036496783048910686,0.5961533083629306
2.6485948768962944,0.5946919083765736,0.07448953960331473,0.04126997330551774,0.6007581610727589
2.651081820442676,0.5852899018323732,0.07925589134723321,0.05561984374963025,0.593244749255252
2.6535687639890573,0.5854632904140009,0.0840221348172614,0.05081597486303835,0.593640671503326
2.656055707535439,0.5856352679849135,0.08399986743709231,0.04601198033158482,0.5934153243481708
2.65854265108182,0.5905942383883049,0.08397749327135529,0.04120786056078529,0.5979564044021936
2.661029594628202,0.5955517988455654,0.08395501306466713,0.04598042259770985,0.6031953154568934
2.663516538174583,0.5861427399563015,0.08393242756192887,0.05075286020909431,0.594292702983406
2.666003481720965,0.5863090789014811,0.09348654414894186,0.05073677048291714,0.5958794255705189
2.6684904252673465,0.5864740096387657,0.09825215361020723,0.055508960469,0.5972323621197732
2.6709773688137277,0.5818491294650314,0.09344085337110064,0.055492623936826746,0.5919113395174387
2.6734643123601094,0.5772228423366959,0.09341785413848269,0.03632255133647888,0.5858604210242265
2.6759512559064906,0.5773835522291222,0.08860635001788086,0.021940759681461586,0.5845547438723001
2.6784381994528723,0.5775428564960032,0.08379474507597173,0.03150086266585994,0.5844395732157461
2.680925142999254,0.5729123525100113,0.07898304005931545,0.036272440781567994,0.5794674919577621
2.6834120865456352,0.57785725094406,0.07895963903497405,0.031467091122937774,0.5840751705807217
2.685899030092017,0.5875891492088319,0.08372454274987273,0.03623842738678462,0.5946293223060073
2.688385973638398,0.5829544347730986,0.07891254199016329,0.03622124002863991,0.5893853073619876
2.69087291718478,0.5783183183668683,0.07888884746402303,0.02662712614555396,0.5842812092303291
2.6933598607311615,0.5784692040985902,0.07407665327820778,0.04097490939797055,0.584630578956941
2.6958468042775428,0.5786186894551708,0.06926436350054077,0.05532257360346904,0.5853697352853713
2.6983337478239244,0.578766775262928,0.078817188839579,0.05051650590084655,0.5862892176846276
2.7008206913703057,0.5789134623672938,0.08836992008210931,0.0600755299532203,0.5886927118493711
2.7033076349166874,0.5742703483125189,0.07876894469469686,0.07921124286209036,0.5850345294040814
2.7057945784630686,0.5696258373026213,0.07874468334710105,0.09355843508923734,0.5826040683470161
2.7082815220094503,0.5697683335607846,0.07872033014665725,0.08875189709730691,0.5819877520578961
2.710768465555832,0.5746978380090534,0.07390748252106061,0.08394524259202996,0.5854799097652419
2.713255409102213,0.5844143515886555,0.07388294785898442,0.07913847199876045,0.5943582438878262
2.715742352648595,0.5845526652990944,0.07385832358819,0.07911998906405238,0.594488724149608
2.718229296194976,0.5799011834403338,0.06904520713645423,0.08388979421501119,0.58999162770115
2.720716239741358,0.5752483103315678,0.06423200257218387,0.06471746795773292,0.5824300124071706
2.7232031832877395,0.5801708536315451,0.0642071139637741,0.05991023728356559,0.5867793532653359
2.7256901268341207,0.5803036044167051,0.05939373541866377,0.05510289266127977,0.585931922569203
2.7281770703805024,0.5900117737046275,0.054580271005189473,0.05508383784176907,0.5950858158992356
2.7306640139268836,0.5901417492899808,0.04976672147133465,0.03591105665491057,0.5933242071676463
2.7331509574732653,0.5854819355882825,0.04495308756501748,0.031103372775179494,0.5880283129066335
2.7356379010196465,0.5808207370343468,0.044927773354401346,0.04544918995605407,0.5843259897141044
2.7381248445660282,0.5905233647229203,0.044902376266930055,0.031064475428404847,0.5930422154549693
2.74061178811241,0.6002246098461832,0.025723283769029326,0.026256456189596378,0.6013490426403796
2.743098731658791,0.5907708602953352,0.02090931985043154,0.04060193931595535,0.5925334813383246
2.745585675205173,0.5908925371840257,0.020883678617945822,0.045370505322157584,0.5929996638157401
2.748072618751554,0.6005896417233685,0.030434764139180004,0.050138961286219086,0.6034468560299843
2.7505595622979357,0.5959201585422593,0.03519736720034272,0.06927251760730968,0.6009645344864556
2.7530465058443174,0.5912492988514434,0.030383085228108175,0.07882915812295543,0.5972544695778139
2.7555334493906987,0.6057306772013282,0.030357128930220245,0.07880888327305868,0.6115897715482268
2.7580203929370803,-3.244030797892995,-6.84581607223576,-0.5197619149000658,7.59335801610462
2.7605073364834616,-4.843244085084576,-6.242503363226536,-0.6155504722829672,7.924945671203629
2.7629942800298433,-6.11684731781156,-5.5194806466163415,-0.6682435071832273,8.266017003532195
2.7654812235762245,-7.064840494728002,-4.715055148221307,-0.6969946324388872,8.522295335434315
2.767968167122606,-7.6728584045062815,-3.843592077257016,-0.6970154442855616,8.609981804947568
2.770455110668988,-7.936112642440939,-2.9386102562200422,-0.6826711522393367,8.490191635856773
2.772942054215369,-7.883333627049105,-2.0288401042870396,-0.644384949213908,8.165682654065122
2.775428997761751,-7.543251776828523,-1.138223637314629,-0.5869452380831017,7.651189785234506
2.777915941308132,-6.944597510257573,-0.28112606451909894,-0.5247172283605632,6.9700641756992505
2.7804028848545137,-6.14004326239682,0.5137221949220199,-0.4193936930356994,6.175753624248478
2.7828898284008954,-5.158319451685705,1.2319559317919269,-0.3332238748236591,5.313851064366494
2.7853767719472766,-4.071252126427886,1.878363550154274,-0.2518425633138577,4.490742497648719
2.7878637154936583,-2.902783301703372,2.429003034151187,-0.1608845480948169,3.788415298562088
2.7903506590400395,-1.7103738158157713,2.859932367923969,-0.07950344199651127,3.333303546966087
2.792837602586421,-0.5323308937678977,3.195093568816793,-0.007699244566859775,3.239144697651073
2.7953245461328025,0.5834614328161603,3.4249098309312567,0.0545280446469949,3.474680978341246
2.797811489679184,1.608272745612905,3.539804348368558,0.12633203937994075,3.8900791551309233
2.800298433225566,2.522949432958799,3.568507541791982,0.20771274008639473,4.375233079447034
2.802785376771947,3.2939726732486942,3.4966542019815705,0.2507861140184122,4.810378390036378
2.8052723203183287,3.8974004515373877,3.3529747495997424,0.27470577491319226,5.14855642038309
2.80775926386471,4.338021172820858,3.1422575887068946,0.2986253365086977,5.3648287522746765
2.8102462074110917,4.61104643547371,2.8453491067614554,0.31296799262178787,5.427311464606461
2.8127331509574733,4.726053047850965,2.5005565310648348,0.3081569370700805,5.355681196077378
2.8152200945038546,4.69261781832665,2.131821878957603,0.30813418691414185,5.163358712081152
2.8177070380502363,4.520317555294216,1.7247799412167093,0.30332293597310134,4.847694446828506
2.8201939815966175,4.218729067166274,1.3225263484625773,0.28893478138713213,4.430602012416214
2.822680925142999,3.8309479856171285,0.9202726981121958,0.2649697236174742,3.94883188573894
2.825167868689381,3.3521859091366712,0.513230587581508,0.24579297308702408,3.4001426721628416
2.827654812235762,2.8111732594768544,0.1349188408489539,0.21703932029757134,2.822765355988517
2.8301417557821438,2.241428861728589,-0.21945094467051174,0.18349716903285085,2.259609096801871
2.832628699328525,1.6668947343613163,-0.5403019616015663,0.15953172971795127,1.7595211388155543
2.8351156428749067,1.1019360892235273,-0.8228458058894867,0.12120098621619846,1.3805897450230968
2.837602586421288,0.5609181381824456,-1.0575056701601047,0.08765855227442643,1.200263063644667
2.8400895299676696,0.07257130308545778,-1.2490699570007535,0.05890442835893772,1.2525622073149416
2.8425764735140513,-0.36310441412288896,-1.3975386656791118,0.03972701825705016,1.4444851586649392
2.8450634170604325,-0.7413206081583805,-1.4885465855025086,0.02533791911617378,1.6631203177872087
2.847550360606814,-1.0285584537962693,-1.5268821190602868,0.006160324764087122,1.8410158739084796
2.8500373041531954,-1.2391831589956217,-1.5221220722627171,-0.008228957689485839,1.9627781892390113
2.852524247699577,-1.3636179150949908,-1.488631654341095,-0.02740673441537922,2.018967347374798
2.855011191245959,-1.4162279300154894,-1.4120456546055267,-0.04179619830250303,2.0003303233813283
2.85749813479234,-1.392224798378028,-1.29715247564817,-0.04660894555939343,1.9034355329522132
2.8599850783387217,-1.2963969214251658,-1.1583173267024205,-0.05621018567517311,1.7393974796444103
2.862472021885103,-1.147897910341497,-1.0051170136821885,-0.05623470821642762,1.526791461257222
2.8649589654314846,-0.9515161663317759,-0.8279747292208774,-0.06104772267095804,1.2627953086159354
2.867445908977866,-0.71204009058189,-0.6364672792339141,-0.05628401860403187,0.9566919979186125
2.8699328525242476,-0.4486232942198696,-0.4545366795984829,-0.04194359554122329,0.6400200922033833
2.8724197960706292,-0.17563098503438312,-0.27739452627053574,-0.03239166296837048,0.32991390685883365
2.8749067396170105,0.10214843584482947,-0.10504081852746916,-0.013263010448842039,0.1471182651768027
2.877393683163392,0.3655613573463279,0.06731284767311774,0.010653959173422933,0.37185969436445104
2.8798806267097734,0.6241845883390227,0.23008966641169115,0.03457084305508751,0.6661402240511662
2.882367570256155,-2.1530411706878745,-7.3404049172555474,-0.4682367235606151,7.663966092124705
2.8848545138025368,-3.5607848627813867,-6.535982133077782,-0.5448764794532934,7.4629177712732755
2.887341457348918,-4.705167652648789,-5.568753674672962,-0.6119395130112633,7.316015998909556
2.8898284008952997,-5.562247521386086,-4.496180381166902,-0.6550606137941823,7.182154267133241
2.892315344441681,-6.122447660031464,-3.3517810750846935,-0.6790281846423412,7.012836872525934
2.8948022879880626,-6.4001332762054455,-2.1834397889142667,-0.6838422250750966,6.7968195101681115
2.897289231534444,-6.409669577510679,-1.0342521518234162,-0.6647143312909343,6.526514134562252
2.8997761750808255,-6.174998578171771,0.05747461033940526,-0.6168560994877463,6.205998889681846
2.902263118627207,-5.724850695715554,1.0582216750443734,-0.5402675291832146,5.846848519062069
2.9047500621735884,-5.092744750970331,1.967989043003937,-0.45889063649593176,5.479015476176633
2.90723700571997,-4.30262275810578,2.7293158750850828,-0.3631486143017959,5.108189959333008
2.9097239492663514,-3.4263107644765007,3.342202171997597,-0.26740667207772617,4.79389477789664
2.912210892812733,-2.482962380894793,3.816224741091304,-0.17166480933907913,4.556110431741263
2.9146978363591147,-3.617782292374423,-3.7925775253245746,-0.559551760952349,5.271156530952186
2.917184779905496,-3.454946155590185,-2.8971755249811393,-0.5500013154943684,4.5423320450648115
2.9196717234518776,-3.1819779914565602,-1.9826199407659586,-0.5165089314633278,3.7845141357799323
2.922158666998259,-2.8323966206747757,-1.101583208498013,-0.45907460837253744,3.073549361586221
2.9246456105446406,-2.425355653967154,-0.278007344075494,-0.3872751523754303,2.471764587341959
2.927132554091022,-1.984797105358071,0.49768445984506826,-0.3106873696248833,2.069694666527767
2.9296194976374035,-1.525086182213799,1.1728197674410752,-0.2245228563124151,1.936957558411305
2.932106441183785,-1.0653764952027622,1.7378217727721856,-0.13835841858995224,2.0430845901348027
2.9345933847301664,-0.6248216549756396,2.211844089818629,-0.05219405596830029,2.298995562777475
2.937080328276548,-0.20342165888409203,2.57094470267666,0.02439342540157874,2.5790952046652245
2.9395672718229293,0.1653046724957481,2.829488822003845,0.09619242933013794,2.835945276632479
2.942054215369311,0.49572255180853897,2.9874764484956198,0.16320295630797332,3.0327201624342517
2.9445411589156927,0.7926203850760041,3.040119179525878,0.19669458690427177,3.1478977844073293
2.947028102462074,1.0129025451339864,2.992205419107982,0.22539774153236358,3.167028414455098
2.9495150460084556,1.1852994546409614,2.862888781214918,0.2636776306451427,3.1097576856856604
2.952001989554837,1.3145995196711016,2.6665344764980823,0.27801543149279695,2.9859455104908594
2.9544889331012185,1.4008027429955539,2.4079309089671037,0.28277635452903027,2.800061080373737
2.9569758766476,1.4534859340435515,2.1062316925911775,0.297114013528299,2.5762589233950934
2.9594628201939814,1.467860692300639,1.7758020380178565,0.28272118242171906,2.321210709353983
2.961949763740363,1.453503827230533,1.42621875257332,0.253963071664252,2.0521380430504053
2.9644367072867444,1.4056269383531639,1.0622702402617499,0.22520489171123081,1.776210121697462
2.966923650833126,1.3577488517680802,0.698321711726869,0.2012350463777679,1.5400099679668788
2.9694105943795073,1.3002927637090755,0.3535267809313667,0.17247672951841864,1.358488379933833
2.971897537925889,1.2380470803878292,0.03746225519570734,0.1437183449490167,1.2469237973894238
2.9743844814722706,1.1614349980720606,-0.2546602681216288,0.11017148984516645,1.1941192838578276
2.976871425018652,1.0896101329682442,-0.5036871750620495,0.08620137466406952,1.203487303291164
2.9793583685650336,1.0321492946589677,-0.7096184649498136,0.06223119326169524,1.254098582120843
2.981845312111415,0.9746872761420539,-0.8820309437510352,0.02389573617407237,1.3147489791647906
2.9843322556577965,0.9268008870335572,-1.0017709975114153,-7.457617963346763e-05,1.364736246028078
2.986819199204178,0.878913323684896,-1.0784154321999686,-0.004891339981494269,1.3912197526504182
2.9893061427505594,0.8453897990656316,-1.1167526504668113,-0.014496571335133268,1.4007250070122086
2.991793086296941,0.8262303162008431,-1.1215710549635538,-0.03367867306262973,1.3934534149947977
2.9942800298433223,0.8022812648508115,-1.0880822417026215,-0.04328403138419468,1.3525722531576965
2.996766973389704,0.7735426480734254,-1.01628621001824,-0.043312645800973826,1.2779209186596665
2.9992539169360852,0.7591680822241198,-0.915759765886732,-0.03855291913415648,1.1901421988395062
3.001740860482467,0.7495807637526929,-0.8152333285672471,-0.03858165752496845,1.1081359328585447
3.0042278040288486,0.7304154858047871,-0.6907648807969049,-0.029033650512806375,1.00573647408648
3.00671474757523,0.7064606548234003,-0.547142825236298,-0.014697300918067313,0.8936822358508318
3.0092016911216115,0.6825046772675624,-0.4130975811491031,-0.005149414881206127,0.7978024583297284
3.0116886346679927,0.6585475562919543,-0.2646871312771095,-0.005178395222122489,0.7097682559391388
3.0141755782143744,0.6154356817859039,-0.12585349156679015,0.01873458180201304,0.628451401709097
3.016662521760756,0.5771110735373799,0.0034033386353713446,0.06180111337174132,0.5804206677292952
3.0191494653071373,0.543573734748548,0.1278717633016213,0.09529078006625902,0.5664838265334561
3.021636408853519,0.5100352653169521,0.23797497644167276,0.104838372425899,0.5725025289134188
3.0241233523999003,0.4764956684760694,0.3385013820245706,0.11438590755370015,0.5955799220557088
3.026610295946282,0.4381665441546152,0.415085770736495,0.12393338595132875,0.6161538782136078
3.029097239492663,0.3998362989374109,0.4773049498635604,0.1047503881987577,0.6313966462850535
3.031584183039045,0.3710817427450004,0.5347357266902457,0.0807789313995837,0.6558728481616467
3.0340711265854265,0.34711447555232944,0.5634360852571905,0.07117262933724433,0.6655931373404428
3.036558070131808,0.3231460973496111,0.5825596394861909,0.06156627255315961,0.6690213297845257
3.0390450136781895,0.30396501478287974,0.5873179866958047,0.0759018781513916,0.6656562497380148
3.0415319572245707,0.3039364411539188,0.5729227242029213,0.09023743003301199,0.6547981383207873
