Time (s),Acceleration x (m/s^2),Acceleration y (m/s^2),Acceleration z (m/s^2),Absolute acceleration (m/s^2)
0.0,0.1851586934806519,-0.18006918248087223,0.011449333905035886,0.25853382660236296
0.002486943546381497,0.18118714692564908,-0.1855166889301274,0.006597384473895573,0.2594007508943465
0.004973887092762994,0.18200455763602708,-0.18617570118985904,-0.003042957017722614,0.26037724612806185
0.007460830639144491,0.18761091700421495,-0.18204621085881945,0.006470326602144638,0.26149673839945803
0.009947774185525988,0.1740641998022069,-0.17791661284804272,0.015983622622375293,0.24941560290454448
0.012434717731907486,0.17488322062703698,-0.17857530206072036,0.006343318331534675,0.25002703263930803
0.014921661278288981,0.18527956749470154,-0.17923386675176278,0.006279834221018632,0.25786184952345276
0.01740860482467048,0.1860996184418916,-0.18946910512954895,0.011004767539704474,0.26580578378096414
0.019895548371051976,0.1869201714089722,-0.185338992152992,0.0013645055751823065,0.26323288998016775
0.022382491917433474,0.18774121767765584,-0.18599713265673223,0.010877872138154387,0.26449957707691907
0.02486943546381497,0.18377434519148705,-0.1962319215075743,0.020391254515502055,0.2696215500100662
0.02735637901019647,0.18938475515757625,-0.1968897369640592,0.034693056595324734,0.27538293735051544
0.029843322556577963,0.19499563216396237,-0.19754737720008908,0.0394180689840713,0.2803605659933126
0.032330266102959464,0.19103016078134982,-0.19341643042231071,0.048931502209681454,0.2762186268048427
0.03481720964934096,0.19664194548515807,-0.1892852914718719,0.04886814687781005,0.27728157542658793
0.03730415319572246,0.19267736417132453,-0.185153951863676,0.044016406874936465,0.27082096785316606
0.03979109674210395,0.19350161796116772,-0.18102240310689233,0.0343762827667895,0.2671960242912424
0.04227804028848545,0.19911469799844056,-0.18167904002545932,0.03910138839989585,0.27236529719915153
0.04476498383486695,0.19993978876982227,-0.19191225743797302,0.03424970773750147,0.2792476968004647
0.04725192738124844,0.19597688138634828,-0.19256843355631892,0.02460964466424187,0.27585353768033044
0.04973887092762994,0.18722596694296523,-0.19801276982961769,0.03891161966582146,0.27527574149994216
0.05222581447401144,0.1976290531202749,-0.2034568544209856,0.048425213383708865,0.28774456648103075
0.05471275802039294,0.22239772766127897,-0.18974706552804976,0.048362023060406045,0.29631669446708814
0.05719970156677443,0.21364794841062706,-0.17603700790658472,0.04829885589883176,0.28101112699305886
0.059686645113155926,0.204898529642922,-0.18148028630821234,0.03387050249980206,0.2758001318127517
0.062173588659537427,0.21051467233634275,-0.19171168223841173,0.014653770065160998,0.28510441833244554
0.06466053220591893,0.2209195608525178,-0.18278917055828448,0.0050138691164978155,0.28677948344358994
0.06714747575230041,0.22653637953827432,-0.17865475932850217,-0.004626006426720508,0.28854402475271285
0.06963441929868192,0.2273651193664502,-0.18409684332514065,-0.009477452684686583,0.29270525676214293
0.07212136284506342,0.22819417461576907,-0.18953860736018946,-0.009540469098501703,0.2967970443909973
0.07460830639144492,0.2338119395507171,-0.19498004288331972,0.009550154851059034,0.30459226132147316
0.0770952499378264,0.23943000178110674,-0.20520954466177566,0.02864080644039646,0.3166354035270698
0.0795821934842079,0.24025994890289304,-0.21065029749932673,0.04294308290623938,0.3224011464819376
0.0820691370305894,0.2315133684983638,-0.20651388951772853,0.04766858148466113,0.31387691858108896
0.0845560805769709,0.23713226805820675,-0.20716552211786032,0.02845209277045413,0.31616259692097265
0.0870430241233524,0.23317462185670246,-0.20781678341743381,0.023600843881187217,0.31323349051448657
0.0895299676697339,0.22921722739722983,-0.21325606817307285,0.023538028730612837,0.3139629384892982
0.0920169112161154,0.23004847884996116,-0.2043297545383349,0.03305205119272969,0.30945983471029653
0.09450385476249688,0.23087996373174413,-0.2001914472279802,0.01862408857833664,0.30615197185610027
0.09699079830887838,0.23171167286723543,-0.21520634763536695,0.013772964681885824,0.3165339886356845
0.09947774185525989,0.22775519374847286,-0.22064402727016041,0.028075486695545493,0.3183464276579705
0.10196468540164137,0.22858732381631996,-0.21171607424292072,0.03280123524824674,0.31329184754179584
0.10445162894802287,0.22941965053879165,-0.21715289990593245,0.027950210890050897,0.3171276908119118
0.10693857249440437,0.23025216469250187,-0.22258928572842107,0.023099220810880894,0.32108507201167347
0.10942551604078588,0.2310848570425501,-0.22802522314050844,0.018248265559259735,0.3251595189112195
0.11191245958716736,0.22712931502241013,-0.23824910689279832,0.0038205390423069474,0.3291883339311086
0.11439940313354886,0.2231739326950674,-0.23410731513472083,-0.0010303449117774477,0.3234407223044235
0.11688634667993036,0.2240071041125969,-0.23954185589911647,0.0036956142431474603,0.3279834462059618
0.11937329022631185,0.22005201335542823,-0.24976431729775816,0.013210013732104287,0.3331360191270154
0.12186023377269335,0.21609705445442362,-0.25519788412313504,0.02751285409959081,0.33553070522011624
0.12434717731907485,0.2217190247504559,-0.251054144489284,0.032238925928336215,0.3364919876409426
0.12683412086545634,0.22734110829305187,-0.2516982997929431,0.036965036401781504,0.34117799981059216
0.12932106441183785,0.23296329576247193,-0.24755353483095321,0.04169118606188782,0.342480371371937
0.13180800795821934,0.23858557782929102,-0.2434082443629748,0.04162897212943584,0.34337096949590207
0.13429495150460083,0.23941954183429348,-0.23447401651014,0.03677839514464054,0.3371237632976289
0.13678189505098234,0.23067677510899237,-0.23511605267714275,0.041504665607766,0.33198489433764616
0.13926883859736383,0.23151088157739969,-0.2357575376696439,0.036654170775978656,0.332449143617596
0.14175578214374532,0.24192185187342335,-0.23161005961636105,0.027015314507107036,0.33600480554194284
0.14424272569012683,0.24754446666138918,-0.2274620132895988,0.022164903978364237,0.336910245366328
0.14672966923650832,0.24837871655812555,-0.22810179346484194,0.0173145364050864,0.33767174621496265
0.14921661278288983,0.2444245921722364,-0.23352939160066155,0.017252615642297187,0.33849226098456087
0.15170355632927132,0.2404704874246259,-0.2293795891983086,0.012402335583116653,0.33255806890066314
0.1541904998756528,0.24130479622839712,-0.22522918436442874,0.002763696760316847,0.3300966952153218
0.15667744342203432,0.2517159124890652,-0.22586657188940906,-0.002086493653679966,0.33820254634322783
0.1591643869684158,0.25255021350320794,-0.22650333992728422,0.007428571512559046,0.33932367588107964
0.1616513305147973,0.25338449648211736,-0.2319278832772076,0.012155279507583217,0.3437179031107482
0.1641382740611788,0.24464194534888922,-0.22298658014148343,0.00730522753989149,0.331098267432333
0.1666252176075603,0.25026456726207547,-0.21883303528985154,0.012032029418493906,0.33266352474079697
0.1691121611539418,0.2558871428112127,-0.22904404685658486,0.01675887902950457,0.3438317397839429
0.1715991047003233,0.25193285589985137,-0.22967758973914387,0.011908970257985985,0.34112136063700754
0.1740860482467048,0.24797850370670965,-0.22073365544215173,0.021424320230128302,0.3326795551920741
0.1765729917930863,0.24402407676401644,-0.2261542520776163,0.030939719508563,0.3341418291932112
0.1790599353394678,0.244857968918668,-0.22199735456045966,0.021301555334542144,0.33119783609572145
0.18154687888584928,0.2600569773324459,-0.2082629544134349,0.02124024815135428,0.3338476265930789
0.1840338224322308,0.25131386595880095,-0.20889305976734818,0.04033260511995529,0.32927448834959155
0.18652076597861228,0.2521474485508819,-0.20952245219721943,0.03548299687676604,0.32975299369802896
0.18900770952499377,0.26734611893519566,-0.2005743166053202,0.011479827260222564,0.33441858534675906
0.19149465307137528,0.26339104437120686,-0.19641385450264126,0.001841920029507449,0.3285675534268941
0.19398159661775677,0.26422423195780287,-0.19704105744662437,0.0017808723801895354,0.32961006443949686
0.19646854016413826,0.2602688655475832,-0.1880907070413831,0.0017198781863836388,0.321124515460482
0.19895548371051977,0.2563133389502064,-0.19350481146136778,0.0064473412820014175,0.3212198748398198
0.20144242725690126,0.25714604597167584,-0.19891815232658638,0.025540068820085082,0.32610552801083414
0.20392937080328274,0.2627669770942509,-0.20433072122627172,0.030267641390029354,0.3342359316462166
0.20641631434966426,0.2635993161563599,-0.21931931639878988,0.03499526946285059,0.3446885999108624
0.20890325789604575,0.2644314569543861,-0.23430712280999222,0.025357743586507553,0.354212984497061
0.21139020144242726,0.27005179328195583,-0.2301405187940646,0.025297080870259947,0.35571417141598094
0.21387714498880875,0.26609510564891536,-0.22118470593657147,0.030024878500292118,0.3473194102256773
0.21636408853519024,0.24777298120343305,-0.2265932891528042,0.020387523700639676,0.33638017186833
0.21885103208157175,0.24860423365409778,-0.2320010501255081,0.029903840217547994,0.3413543494813511
0.22133797562795324,0.2542236435045254,-0.23740798050823342,0.03942021527258888,0.3500659416422155
0.22382491917433472,0.24547758793639818,-0.23323726532400046,0.044148246047020834,0.3414790414416653
0.22631186272071624,0.24630807401281574,-0.23385410620771596,0.04887633636147548,0.3431389027350768
0.22879880626709773,0.25671509219415056,-0.23447009152358733,0.044027680074391284,0.3504529911301423
0.2312857498134792,0.25754501965859,-0.22550840632628866,0.03917908432417505,0.34455548047193624
0.23377269335986073,0.25837465350549027,-0.22612265560337397,0.029542146287022675,0.3446181297587927
0.23625963690624222,0.2639923875134197,-0.23152442775206916,0.0007516564972149808,0.3511354529215876
0.2387465804526237,0.26960980882007607,-0.2273485045404331,-0.023250367949762207,0.3534365164192413
0.24123352399900522,0.2656501012428306,-0.23274849099040162,-0.028098716600363005,0.35430407028881666
0.2437204675453867,0.27126686852114573,-0.23335916889364094,-0.02337019560391873,0.358592222038578
0.24620741109176822,0.27209489115274604,-0.23875733665553067,-0.004276401150139719,0.3620206944430996
0.2486943546381497,0.2633457562766621,-0.24415458273289126,0.014817457288685887,0.3594189820514512
0.2511812981845312,0.2593846643140876,-0.2591277055560859,0.014757766918606308,0.3669405449831312
0.2536682417309127,0.26978841236705003,-0.26452308364643873,0.024274948147448683,0.3786126283378773
0.2561551852772942,0.27540337761708217,-0.2603407088195855,0.019426984858247565,0.37947557604181054
0.2586421288236757,0.2762295505285797,-0.2657341861857079,0.01936749081548861,0.3837870789819398
0.26112907237005717,0.27705532488809875,-0.27591510426694166,0.03846167646196719,0.3928970582324997
0.2636160159164387,0.2778806911639647,-0.2765182449585457,0.043190719035978375,0.394392515810787
0.2661029594628202,0.2787056398268198,-0.2819088100916298,0.03834302233691922,0.3982707599617189
0.26858990300920166,0.27953016134985814,-0.2825099849099475,0.0478606034440503,0.4002994379712831
0.2710768465555832,0.28514264952937296,-0.2831101646326255,0.05258984955240109,0.40524484965868146
0.2735637901019647,0.2811778848834308,-0.2789209378528299,0.033377147855592426,0.39745682346538747
0.27605073364834615,0.2772126645349193,-0.2747306998192438,0.018952918748947667,0.3907467618942291
0.27853767719472766,0.2828237856102211,-0.2705394424753651,0.014105566024786853,0.3916373968796357
0.2810246207411092,0.2788576253175777,-0.27113556110035564,0.009258283513057464,0.38905241742543045
0.28351156428749064,0.27967938411138565,-0.26694224102802266,0.009199475003194735,0.3867342088338208
0.28599850783387215,0.2805006491689987,-0.2579594742486089,-0.00043606899806825083,0.3810825300312512
0.28848545138025367,0.28610981431283783,-0.26334086604964524,-0.005283138063580495,0.38888963617677264
0.2909723949266352,0.27735325676844436,-0.27350960181305783,-0.000553328408292586,0.3895287377027881
0.29345933847301664,0.2829613869694016,-0.27888886693726667,-0.0006118495298768067,0.397299032187403
0.29594628201939815,0.29814579211226244,-0.2842670567983583,-0.005458700966554986,0.4119811529078627
0.29843322556577967,0.29417604279741527,-0.28485576014874825,0.004059731023206226,0.40951047564360143
0.30092016911216113,0.2806289361933817,-0.28544337239866246,0.013578236937242139,0.4005182732331628
0.30340711265854264,0.27665807611518023,-0.29560669229605274,0.0278852205531539,0.40583320851707555
0.30589405620492416,0.2774750497823799,-0.2961920986846387,0.037403875686077726,0.40757970078413436
0.3083809997513056,0.27829144442090126,-0.29198798702757056,0.042134202790260034,0.4055593713022238
0.31086794329768713,0.27910725058356844,-0.2829943494857843,0.05644141227935151,0.40146269090575376
0.31335488684406865,0.28471086215034835,-0.2787879848791688,0.06596029464359532,0.4038982248151782
0.3158418303904501,0.2903138663676548,-0.2841572887258539,0.06111404369201168,0.41080704969334925
0.3183287739368316,0.3007046571298373,-0.2895254466018131,0.04669106319300376,0.4200337253502931
0.32081571748321314,0.2919412084169211,-0.2805272407817112,0.046633370194671286,0.40755352189405214
0.3233026610295946,0.29275393074015993,-0.2763162768016372,0.041787351860740785,0.4047242660934314
0.3257896045759761,0.2983544113766519,-0.2673157402952695,0.03694141195492584,0.4022906010768086
0.3282765481223576,0.28958902765083017,-0.27267923683784856,0.05124916420030701,0.40105142808554467
0.3307634916687391,0.2903997867784536,-0.28282995210265893,0.03682657583400406,0.4070393281428974
0.3332504352151206,0.30557508270278433,-0.2786142651425032,0.0319808738571723,0.4147587445761438
0.3357373787615021,0.30159608281357947,-0.2743973782727416,0.041500462027183715,0.40984924877315465
0.3382243223078836,0.3024047943535812,-0.2797560905090184,0.02228971089667553,0.4125638872184273
0.3407112658542651,0.3127896112937577,-0.27553678096592904,-0.0017093624989410472,0.4168462312634231
0.3431982094006466,0.30402010437260735,-0.26652784538067964,-0.011343144446181341,0.40446753040500727
0.34568515294702806,0.30003828086202483,-0.2575176795117544,-0.011400037834754073,0.3955607236650168
0.3481720964934096,0.3056325347628545,-0.25808308245945266,-0.02103365551692704,0.4005752593729983
0.3506590400397911,0.30643764680513236,-0.273012450025488,-0.025878787104419487,0.41122930448884903
0.3531459835861726,0.30724201101082554,-0.27836375811164826,-0.02114702885120323,0.41512797061779644
0.35563292713255407,0.30804561809251124,-0.26934859592314675,-0.011626783653532868,0.4093604170531073
0.3581198706789356,0.308848458773931,-0.27469737592978083,0.012258755551627587,0.413516983831879
0.3606068142253171,0.3144389271105442,-0.2800448807411602,0.026567572583468646,0.4219037923801333
0.36309375777169856,0.3200286105288307,-0.2806026996303661,0.04087647450170451,0.4275828256192617
0.36558070131808007,0.3208290964671584,-0.28115922853417175,0.050397058403437,0.4295598729229527
0.3680676448644616,0.32162877901664755,-0.2769260567720151,0.0455525180637828,0.42685845934336136
0.37055458841084304,0.32242764896047527,-0.26790317700716093,0.035919660537421905,0.4207397331817299
0.37304153195722456,0.32322569709442905,-0.2732441952078575,0.031075292877350336,0.4243853382297537
0.3755284755036061,0.324022914227147,-0.2737954908038067,0.045384625455184846,0.42663167247223677
0.37801541904998753,0.3200308878600461,-0.264768653209825,0.030963625476768897,0.4165104500606192
0.38050236259636905,0.32082641546881263,-0.255740481826062,0.0069659066306257955,0.4103429136251534
0.38298930614275056,0.32162108458176797,-0.26586458271790914,0.006910292564498377,0.41733901151779196
0.385476249689132,0.32720328938167087,-0.25683372213183997,0.0020663637603579588,0.4159685363888364
0.38796319323551354,0.332784617424708,-0.24301310286282485,0.0020109272609492024,0.41207403896141764
0.39045013678189505,0.3287882529610454,-0.24834473437173088,0.006743983466673598,0.4120950177912137
0.3929370803282765,0.32000259021631944,-0.24409818962148355,0.011477129455894186,0.40263793713730794
0.395424023874658,0.33036963671218744,-0.23985026816321575,0.001845155664607745,0.40825929578974174
0.39791096742103954,0.3359473667821945,-0.25475457621461484,-0.017363534191689567,0.42197395615109273
0.400397910967421,0.31758215809545093,-0.26008068681638674,-0.017418519797674392,0.41085739086377576
0.4028848545138025,0.3279464381412419,-0.2606169962777858,-0.012685010722600865,0.419083517375016
0.40537179806018403,0.3383097779792712,-0.2659403042549582,-0.007951409896845618,0.43039630135835405
0.4078587416065655,0.3247301520055234,-0.27126220046990346,0.015935896349024148,0.42342272709167517
0.410345685152947,0.32551477779624965,-0.2717942746716271,0.030246488479543032,0.4251433268597319
0.4128326286993285,0.3262984364207097,-0.2771133265972914,0.006249946957488817,0.42813727614561714
0.41531957224571003,0.3270811189257829,-0.27285413940993086,0.006195515329793011,0.4259927513010965
0.4178065157920915,0.3374396230158919,-0.26380510958147196,0.010929580696306118,0.4284601390521605
0.420293459338473,0.3382203264907425,-0.26433144025232513,0.01566374011603422,0.42954563472557333
0.4227804028848545,0.33900002708930843,-0.2648563179894068,0.053916817208685686,0.43356304123318956
0.425267346431236,0.33020190928694676,-0.2701681393488493,0.06822797250623402,0.4320638617707754
0.4277542899776175,0.3405563841393787,-0.2659016876340252,0.06338560970292129,0.4366922185957999
0.430241233523999,0.3556982328376178,-0.2616337627785694,0.0585433424521149,0.44542202641421147
0.43272817707038047,0.3421086233097682,-0.24778755146377573,0.03454755784287933,0.42382840225287555
0.435215120616762,0.34288317662750367,-0.24351666032192298,-0.013390147076599135,0.4207713544280833
0.4377020641631435,0.34365667403755895,-0.2536094860536804,-0.027808932095895855,0.4280081982056922
0.44018900770952496,0.33964070344633746,-0.26848921542830473,-0.02307400681108618,0.4335604640983165
0.4426759512559065,0.3404120627404562,-0.2785790352447921,-0.03270419410131886,0.4410852702697611
0.445162894802288,0.3411823398651067,-0.2838789389726948,-0.018392267042878885,0.444219446349514
0.44764983834866945,0.3419515261055375,-0.29875413007264884,0.0054965647626783465,0.454109115373785
0.45013678189505096,0.34750801608728554,-0.30405098879344683,0.01980868839164529,0.4621701084741322
0.4526237254414325,0.3482749944951594,-0.3093463153363083,0.010178894238789482,0.4659337125500563
0.45511066898781394,0.3346756460344073,-0.3242169099331993,0.0005491992595398898,0.46596640904147457
0.45759761253419545,0.33544038199344944,-0.329509152925167,0.005284813766841978,0.4702387276585401
0.46008455608057697,0.3457807904394201,-0.3300114412859734,0.014808931470250641,0.47821669865014776
0.4625714996269584,0.341754846179338,-0.3257237687004211,0.009967939436826612,0.4722199786117532
0.46505844317333994,0.34251615392439466,-0.316646128884865,0.01949225793490683,0.4668640431178343
0.46754538671972146,0.3576415117667481,-0.3171437255483438,0.01465146738721046,0.47822824999166114
0.4700323302661029,0.36797729789850186,-0.3224281491505945,0.009810778097397943,0.4893500326966753
0.47251927381248443,0.3543698905338073,-0.3181341835428695,0.009758593726642673,0.4763219585605438
0.47500621735886595,0.3551265077528406,-0.3090502258900094,0.009706511293614994,0.4708726951022827
0.4774931609052474,0.3606703344551556,-0.30954148003000936,7.772449480647481e-05,0.4752883588478258
0.4799801044516289,0.3518477489224108,-0.3052427299117122,2.5846946696717055e-05,0.46580034698761974
0.48246704799801043,0.35260075934206053,-0.31051917943867124,0.028704492263882386,0.4707158422700374
0.48495399154439195,1.6749518670886543,3.1797404078818534,-0.46455272105805,3.6238131918219603
0.4874409350907734,0.3636799212166901,4.165666677689374,-0.4071434489395518,4.201286439023433
0.4899278786371549,-0.8326715807585017,4.902597599808487,-0.3593108795294704,4.985770702228398
0.49241482218353644,-1.9045258405163639,5.380956373522305,-0.3066898025410474,5.71628977623839
0.4949017657299179,-2.8470944630325254,5.6390502312832025,-0.2492802176503801,6.321943927248756
0.4973887092762994,-3.6268586333365738,5.672090775626726,-0.17271691457449734,6.734727050574357
0.4998756528226809,-4.234241553035079,5.504020028976042,-0.08657669963390191,6.944820626462418
0.5023625963690624,-4.70755045691294,5.163568417040276,-0.0052247824713251845,6.987381297753037
0.5048495399154439,-5.027631739886476,4.655524348892305,0.07612724054987119,6.85250196875541
0.5073364834618254,-5.175331796846753,4.0421370734140325,0.15269096642376745,6.568580201150675
0.5098234270082069,-5.179381055862589,3.3521370162102087,0.21488958882223486,6.173247786429695
0.5123103705545884,-5.0493563316959476,2.6046777962098084,0.26272310805585875,5.687650588600961
0.5147973141009698,-4.799622842403284,1.8284898389471267,0.296191524433306,5.144655862115404
0.5172842576473514,-4.439757402694703,1.0475151666006477,0.3200832415816386,4.572875145964758
0.5197712011937329,-4.008067247175932,0.30963781791475364,0.31524464652444095,4.0323514012707005
0.5222581447401143,-3.5093407871840494,-0.38035379828482974,0.2960409495255618,3.542284858147246
0.5247450882864959,-2.9483664340294498,-1.0128828698880827,0.2816257641672415,3.1301931902786824
0.5272320318328774,-2.3634514222378358,-1.5496421648992968,0.2624222841079167,2.8383373512865315
0.5297189753792588,-1.7641725663859278,-2.004996887882561,0.2336421063244174,2.6808405395053203
0.5322059189256404,-1.155318277702826,-2.3550050168759973,0.20486203775257827,2.6311171404590636
0.5346928624720219,-0.5512537740307364,-2.5996665465559894,0.16650527204504328,2.6626811454404877
0.5371798060184033,0.028867323495550212,-2.7437698749561,0.11857180949314738,2.7464824272310366
0.5396667495647849,0.5611029904488649,-2.7968918034672394,0.0610616503862893,2.853273357275952
0.5421536931111663,1.0406648157114313,-2.7590323268768944,0.008340004972875903,2.94878147632109
0.5446406366575478,1.4723411948344447,-2.6541334566114805,-0.03001631982093933,3.035311183217714
0.5471275802039294,1.8513437167570275,-2.4965603974943193,-0.054007323711562805,3.1085694727522504
0.5496145237503108,2.1585187604861216,-2.2623711278239256,-0.07799821637827975,3.1278762892959877
0.5521014672966923,2.3842895116982525,-1.980296062460107,-0.08762378758045308,3.1006591071479046
0.5545884108430739,2.552597979341296,-1.6790656163006832,-0.09724924700123694,3.0568734360491225
0.5570753543894553,2.6682325591112397,-1.3634681876800863,-0.10687459436481639,2.99832164172518
0.5595622979358368,2.702462823491449,-1.0478689816117026,-0.09255781279575714,2.899983045413689
0.5620492414822184,2.674442378198176,-0.727479589866157,-0.09260612858463979,2.7731650659536267
0.5645361850285998,2.6129016356182633,-0.4310304274949073,-0.10701954146149006,2.6503764579956686
0.5670231285749813,2.4986869749655884,-0.15373308634602179,-0.10706763123641672,2.505700289012781
0.5695100721213628,2.3413751954062603,0.09962403505285433,-0.10711560760430494,2.3459404313444012
0.5719970156677443,2.145754692816631,0.2955221182131029,-0.08800985701980579,2.1677966369174024
0.5744839592141259,1.9166138631037892,0.45311478113029624,-0.06890399250201895,1.9706520406462185
0.5769709027605073,1.6683179088464375,0.5867672384402671,-0.03543280382981706,1.7688515824318922
0.5794578463068888,1.4152320326543482,0.6821142848174597,-0.016326710666834998,1.5711232177280658
0.5819447898532704,1.15735622720772,0.7343675215372243,-0.011585712756794209,1.3707309444545621
0.5844317333996518,0.9090556951792432,0.7339501465147604,-0.011633003204746473,1.1684179052335757
0.5869186769460333,0.660753622671692,0.7048041808674674,-0.011680178438011168,0.9661680546418259
0.5894056204924149,0.4220268091010268,0.6421412257507351,0.0026379717547602155,0.7684132614053651
0.5918925640387963,0.20724045723563855,0.5603264955609446,0.021744640981387064,0.5978187167982073
0.5943795075851778,0.016394559915202667,0.4497831880524803,0.03606302284772589,0.45152435091186566
0.5968664511315593,-0.16008769662873334,0.3296649208610578,0.05995832755922237,0.3713516281126553
0.5993533946779408,-0.30305270621007996,0.1999716983004749,0.08385374871780193,0.37264067684091795
0.6018403382243223,-0.4125004758911983,0.06070352464366602,0.09338407660311887,0.4272729177910138
0.6043272817707038,-0.5027962226623445,-0.06898598259612321,0.10291452141473023,0.5178363699435348
0.6068142253170853,-0.5643631468790022,-0.18430841590766578,0.10286827674867105,0.6025423106229176
0.6093011688634667,-0.5924128521836006,-0.29962898110224456,0.08366853619900816,0.6691269966892404
0.6117881124098483,-0.5965221521459279,-0.40537086743092043,0.050103703318781,0.7229623774780835
0.6142750559562298,-0.5814794569817152,-0.5015340708268701,0.03569260158093179,0.7687188984925097
0.6167619995026112,-0.537707966911831,-0.5881185872648862,0.035646827893939914,0.7976741356630541
0.6192489430489928,-0.4699960920839774,-0.6507592028005678,0.011659155922128406,0.8028199066544486
0.6217358865953743,-0.39749745257251434,-0.689455913492325,0.0020368124528520326,0.7958378164275324
0.6242228301417557,-0.30105844185484554,-0.7233623287218109,0.01635660434962105,0.7836815568403781
0.6267097736881373,-0.20462108325655404,-0.7429016379909212,0.006734498630219576,0.770595863546178
0.6291967172345188,-0.10818538346685924,-0.7432854341640986,0.0019009154354598934,0.7511197822690312
0.6316836607809002,-0.0021745424993752094,-0.7388789234293967,0.0066442583026269375,0.7389119963105605
0.6341706043272818,0.10862302970649373,-0.7057400854548455,-0.002977489154829982,0.7140566477823014
0.6366575478736632,0.21463051992635052,-0.6678109331541924,-0.022175923403572995,0.701804441495585
0.6391444914200447,0.32063632493222327,-0.6298798662026459,-0.03179743095127385,0.7075078623793565
0.6416314349664263,0.42664043821148445,-0.5775816710369917,-0.017476801627898553,0.7182813437855058
0.6441183785128077,0.5182776433263926,-0.525281554058826,0.0016323514924341254,0.7379262098460859
0.6466053220591892,0.5907595305158204,-0.4873447217127933,0.011164818653950803,0.765915369902033
0.6490922656055708,0.6632397066563575,-0.43504075060388514,0.020697406700479704,0.7934580932952464
0.6515792091519522,0.721352955418723,-0.3779464439428599,0.02544171251294358,0.8147643104088267
0.6540661526983337,0.7555224638304299,-0.33042700830416605,0.025397736290607043,0.8250098461096885
0.6565530962447153,0.7944786455181321,-0.28769403702447915,0.006200268269829223,0.8449867575591856
0.6590400397910967,0.8286446875827851,-0.24495912348406002,-0.017785481393119085,0.8642761791150069
0.6615269833374782,0.8340785672013662,-0.22137587770841938,-0.0130406892626862,0.8630552676812204
0.6640139268838597,0.8251454881504706,-0.20257908652466527,-0.013084178389659584,0.8497497035223835
0.6665008704302412,0.8209990575642808,-0.17899194012410424,-0.02749275522522865,0.8407338572584683
0.6689878139766227,0.8072740593722214,-0.1745564519842162,-0.01795919301942739,0.8261258345303891
0.6714747575230042,0.7791820841819255,-0.17490740906406144,0.0011512984523189829,0.7985728817983481
0.6739617010693857,0.7462999325997007,-0.18483321164812505,0.015473509412609943,0.7690034687958309
0.6764486446157671,0.7038391953088053,-0.19954545342453578,0.025007440043031792,0.732006402221221
0.6789355881621487,1.8297470831477232,3.276490292382025,-1.167347739554911,3.9301480594762856
0.6814225317085302,0.259782110704063,4.300865508166494,-1.0572570926801284,4.436521545580561
0.6839094752549116,-1.1569557523181058,5.08582253077145,-0.9040706923991184,5.29353201975576
0.6863964188012932,-2.386947688519981,5.640938169651102,-0.7413073617803363,6.169865420427526
0.6888833623476747,-3.3870980738235104,5.947058814293074,-0.5929091172535728,6.869605747325117
0.6913703058940561,-4.157406913994679,5.999396064101131,-0.43493394204744895,7.312041638039805
0.6938572494404377,-4.707451021401189,5.817103535035729,-0.2530166260331761,7.487510004618724
0.6963441929868192,-5.018076788449807,5.4432768596139365,-0.09504120224797497,7.404011781143519
0.6988311365332006,-5.1084378340706085,4.892281250385906,0.03899232947210152,7.073335375846331
0.7013180800795822,-4.997687777154336,4.19284712981762,0.158660775929663,6.525490281485086
0.7038050236259636,-4.695403429911635,3.4072237435720645,0.2783293472456805,5.808050811926957
0.7062919671723452,-4.254257234396333,2.540199497423174,0.38363283361730716,4.969757766144315
0.7087789107187267,-3.69819121270074,1.6252932170215901,0.47457123520065814,4.067359603511011
0.7112658542651081,-3.046358983556834,0.7199657445738739,0.555932955470233,3.17926330791193
0.7137527978114897,-2.337067778937897,-0.1566293043212612,0.6037759779766922,2.4188765933597334
0.7162397413578712,-1.5990480241365632,-0.9853383141105247,0.6324655128312475,1.981882640740897
0.7187266849042526,-0.8706069510456254,-1.727854056005202,0.6372131568619217,2.037026438056346
0.7212136284506342,-0.1565329682753982,-2.3602345112230543,0.6132305068947836,2.443616412760372
0.7237005719970157,0.5048666923620508,-2.86811446766814,0.5796711763555304,2.9693416188443695
0.7261875155433971,1.0944384123767255,-3.2562823265716903,0.5365351653866561,3.476929681849392
0.7286744590897787,1.5978169766396095,-3.51037287592944,0.4933992807693528,3.888338934450363
0.7311614026361601,2.0102139767031577,-3.620809307103344,0.43589831268131185,4.164279962915238
0.7336483461825416,2.326841004160948,-3.6306872480247803,0.3736090678998405,4.328471172045791
0.7361352897289232,2.547698053967932,-3.520853083507043,0.30174314323937956,4.356399974098455
0.7386222332753046,2.682361927760928,-3.300883618331406,0.24424255543431883,4.260346535101933
0.7411091768216861,2.716467410616595,-2.994720867286132,0.17237688469367107,4.046883005014814
0.7435961203680677,2.6548029009342935,-2.6119416352447247,0.08135772782607731,3.7251626311627053
0.7460830639144491,2.5308872170768795,-2.181276340408213,-0.004872898439863604,3.3411645161420895
0.7485700074608306,2.3447203542066983,-1.7123017877425162,-0.07194978401813401,2.9042843736723953
0.7510569510072121,2.1058791141685598,-1.2289599922208636,-0.1342381387464915,2.441943771642784
0.7535438945535936,1.8239402988491973,-0.7456161622221793,-0.18216115586306536,1.9788593587818206
0.7560308380999751,1.5228459201383195,-0.29100071613270195,-0.20614202860791941,1.5640446442574005
0.7585177816463566,1.2265379899677784,0.12052113757585126,-0.23491117678552875,1.2546330325698976
0.7610047251927381,0.9206512937491762,0.4985262069868708,-0.26846860028044084,1.0808342023970594
0.7634916687391196,0.6339162468192807,0.8190724768950717,-0.2828722823775447,1.0736602155831017
0.7659786122855011,0.35196763467450476,1.0677947386892712,-0.2829106262855081,1.1593555288590782
0.7684655558318826,0.10353587273663145,1.254269800313296,-0.29252564849617,1.2920850064718636
0.770952499378264,-0.10180223681114686,1.3641324530628238,-0.27341012233921447,1.394981770460279
0.7734394429246456,-0.2688351017038182,1.4021711014681695,-0.2399292576696741,1.4477300018948571
0.7759263864710271,-0.3927743229928894,1.3779625533333268,-0.22560187762572248,1.4504994568698313
0.7784133300174085,-0.48319671164785516,1.3010836164156188,-0.1969091588630718,1.4018098501211238
0.7809002735637901,-0.5257370619936023,1.1619574851444323,-0.16821631124247816,1.2864063833038395
0.7833872171101716,-0.529972184913443,0.9797377738243234,-0.1538885446265681,1.1244724569358973
0.785874160656553,-0.5054788912474595,0.7735780967131212,-0.12519543899708374,0.9325266104282111
0.7883611042029346,-0.4522571851517899,0.538690051420347,-0.08692539757982587,0.7087168389174109
0.790848047749316,1.1236747651983356,4.024393438633758,-1.1643532005556256,4.3375230146370525
0.7933349912956975,-0.16864888899288022,4.881265456455271,-1.0111612208806413,4.9877491836253
0.7958219348420791,-1.3460528831964056,5.5130845724712625,-0.843603901825416,5.7373885532319555
0.7983088783884605,-2.375018398152042,5.91506238410412,-0.6664696466233213,6.408810902911274
0.800795821934842,-3.236391824516783,6.111140908651294,-0.47497005186898456,6.931512951539719
0.8032827654812236,-3.9349615695053557,6.101320146761854,-0.2930471340807941,7.266079184096407
0.805769709027605,-4.451574023687018,5.9095421156396135,-0.12070089317744603,7.399578907647189
0.8082566525739865,-4.80538280414954,5.559748832441553,0.05164547756110238,7.34882155380057
0.8107435961203681,-5.005964721296002,5.066305507637201,0.18568475164990872,7.124718458617891
0.8132305396667495,-5.043742972204106,4.44836575496957,0.3149357524068339,6.732494752154536
0.815717483213131,-4.923505963868272,3.7442368014160907,0.42503326994474655,6.200070441687333
0.8182044267595125,-4.697926136441765,2.9922258739073677,0.5064004976949601,5.592885402724525
0.820691370305894,-4.352638283549121,2.221063392686556,0.5686142423681755,4.919543147323101
0.8231783138522755,-3.902007618692325,1.4259609547078118,0.6020976973919847,4.197802965586748
0.825665257398657,-3.374764565289815,0.6452257867612916,0.616427669473369,3.4907499564892714
0.8281522009450385,-2.794851143395154,-0.10198849769089469,0.6116041586768368,2.8628053049953026
0.8306391444914201,-2.1766325663766333,-0.8108934951943882,0.5972039717056621,2.3983181968581477
0.8331260880378015,-1.5536276608392225,-1.4336051724586756,0.5636503019800241,2.1878492548498847
0.835613031584183,-0.9258364301007893,-1.970123529443296,0.5253083595198067,2.239309868943839
0.8380999751305646,-0.31241249071573174,-2.415660162834118,0.48696654770243697,2.4839790669891313
0.840586918676946,0.26749054080634094,-2.7797918793246335,0.41510604334101053,2.823314914953391
0.8430738622233275,0.8186610646024584,-3.0289998557723212,0.3240920564498886,3.1543750135357547
0.845560805769709,1.3075802542920436,-3.187226108925028,0.23307820036192162,3.45289760032234
0.8480477493160905,1.7246713001410643,-3.2640474456163195,0.15642968508781507,3.6949921606332756
0.850534692862472,2.074722602421621,-3.230733446163918,0.07978130071455958,3.8403746605123095
0.8530216364088535,2.3625225614508842,-3.1255913374165076,-0.006443759352345424,3.918019344507139
0.855508579955235,2.5737059643099403,-2.9677747329881283,-0.08309188178734672,3.929192476490084
0.8579955235016165,2.708272808086104,-2.7285532133362023,-0.14537466322766512,3.8471909276424614
0.860482467047998,2.790165106513496,-2.436657198808432,-0.2076573135935771,3.710180748427133
0.8629694105943795,2.795440840168445,-2.130393916439676,-0.2459978162446692,3.5232914519922973
0.8654563541407609,2.7336768129148403,-1.8001865601080345,-0.2603961711439169,3.2835143877571555
0.8679432976871425,2.614449828661977,-1.43645832373806,-0.2700059915373476,2.995273553098792
0.870430241233524,2.4521250946849444,-1.0727280311835465,-0.27961568071186704,2.6910681592576835
0.8729171847799054,2.2658562216245954,-0.7281492963835956,-0.298802045276485,2.398663894162795
0.875404128326287,2.036489593604834,-0.4027221200424087,-0.27968105199826354,2.094682902417235
0.8778910718726685,1.783178821357673,-0.10123490623079334,-0.250983120771064,1.8035985534730503
0.8803780154190499,1.515500709020036,0.17152394093430967,-0.23186186484989335,1.5426998365610658
0.8828649589654315,1.2430320607745335,0.4203428239303668,-0.1983752676087498,1.3270906301161132
0.885351902511813,0.9657728742088125,0.6164913219465493,-0.15531173234528595,1.1562441475731018
0.8878388460581944,0.7028767602374759,0.7791230473290804,-0.12182487231986627,1.0563663012786022
0.890325789604576,0.4639205231802359,0.8986611924562835,-0.08833788087276062,1.0151934652330379
0.8928127331509574,0.23932735412131956,0.9559521430198883,-0.054850757986613985,0.9869805914133948
0.8952996766973389,0.029097250831370602,0.979726317868828,-0.026151906966159544,0.98050712907593
0.8977866202437205,-0.1380393689512751,0.9795605225249218,-0.007029731117889071,0.9892639191789792
0.9002735637901019,-0.29081292728619024,0.9267243359016795,0.016880979531185503,0.9714294214708056
0.9027605073364834,-0.42443502294489477,0.840371370069982,0.04558022499137415,0.9425744985123437
0.905247450882865,-0.5101752380514589,0.7252900270940796,0.06949119863059394,0.8894680565428476
0.9077343944292464,-0.5576103812465452,0.591057112312908,0.09340230377595837,0.817925325222448
0.9102213379756279,-0.5858940677655134,0.43767262437920973,0.10773673379190285,0.7392133579569246
0.9127082815220094,-0.5710842829149709,0.27950177186113256,0.1316481019629876,0.6492994081442522
0.9151952250683909,-0.5466998517993048,0.11654455332047275,0.1411943916892362,0.5765407332622248
0.9176821686147724,-0.4983755662738155,-0.046410629406032466,0.1315871996501805,0.5175397015615196
0.9201691121611539,-0.411746218147804,-0.20457537452698427,0.12676854244550562,0.476923783612888
0.9226560557075354,-0.31554222906737583,-0.3483728769759109,0.1267384200716002,0.4868194602309226
0.9251429992539169,-0.204975197390458,-0.4825915416924098,0.10755481592156713,0.5352358976061269
0.9276299428002984,-0.08962193138987717,-0.6024429670205746,0.0787945366289744,0.6141483518671851
0.9301168863466799,0.020940760707559347,-0.7031387513495138,0.06439959878662016,0.706392190947948
0.9326038298930613,0.14586649064298063,-0.779890493113303,0.07394680902465645,0.7968527749251669
0.9350907734394429,0.2803668536019458,-0.861428614033036,0.0691289407684117,0.9085392892579246
0.9375777169858244,0.4004998315348425,-0.9190226960308796,0.05952280064464155,1.0042638073115477
0.9400646605322058,0.5062654230396703,-0.9383075310346456,0.054705195278415886,1.0675759269261922
0.9425516040785874,0.6120288367213981,-0.9432251375792668,0.0307341080509147,1.1248100028616654
0.9450385476249689,0.7034248613091758,-0.9337755176426639,0.01633995886506945,1.169192134386975
0.9475254911713503,0.7708766888984944,-0.9195354798878503,0.0019459410596329718,1.1999167283383847
0.9500124347177319,0.8335379315527892,-0.8813514131003406,-0.01723634870801405,1.2132035642991055
0.9524993782641133,0.8866201847799511,-0.8192233193911873,-0.026841700500911614,1.2074529705041643
0.9549863218104948,0.915758237493269,-0.7618816208375367,-0.041235324305645804,1.191963550481894
0.9574732653568764,0.9305288952536339,-0.7093263196387531,-0.05562881682921805,1.171376292186258
0.9599602089032578,0.9309321570273174,-0.63761540143667,-0.06044537145997353,1.1299742138950402
0.9624471524496394,0.9169680218265948,-0.5611140784795441,-0.0652617948691745,1.0770043936725944
0.9649340959960209,0.8982132953503655,-0.4846107564188662,-0.06528968376879973,1.0226912789242208
0.9674210395424023,0.879456380023189,-0.41289384094984705,-0.07489424815372914,0.9744403504906403
0.9699079830887839,0.8463320650343352,-0.3507517378113345,-0.07492187477829226,0.9191942304014138
0.9723949266351654,0.7988403495799747,-0.29818444946544354,-0.06058416035939196,0.8548276495917282
0.9748818701815468,0.7465580395428172,-0.2408267684567682,-0.046246314896817964,0.7858022400406353
0.9773688137279284,0.684696730890556,-0.18346710065450722,-0.031908338431065886,0.7095688355446688
0.9798557572743098,0.6228332295977115,-0.15004746525235335,-0.012781827683928881,0.6407798754944739
0.9823427008206913,0.5657559383643596,-0.13577946156526188,0.011133217300864473,0.5819276522944735
0.9848296443670729,0.5134648566161172,-0.11672107566997303,0.03025998983732947,0.5274330625494771
0.9873165879134543,0.46117158050410906,-0.09287231028771625,0.03502168323787025,0.471731927030225
0.9898035314598358,0.41366451286586814,-0.08817518478409081,0.025418297453908778,0.4237207597719516
0.9922904750062174,0.3709436532644025,-0.09305289532522698,0.015815042396196688,0.3827638316136236
0.9947774185525988,0.3330090013084557,-0.10271704144015414,0.011000321333259677,0.3486642978914078
0.9972643620989803,0.30464895997278707,-0.1267444326613245,0.03491615081327737,0.3318045774409349
0.9997513056453619,0.27628672231689655,-0.1507698619620017,0.05404370753910115,0.3193534507864708
1.0022382491917432,0.257499094727193,-0.1795817356389371,0.03486416821199789,0.31586530956331926
1.0047251927381249,0.23870927035443024,-0.21796846003103587,0.02526156597695639,0.3242383568257369
1.0072121362845063,0.23907086231682007,-0.26593003819889915,0.015659094133638973,0.35793696324138147
1.0096990798308878,0.25379546717654666,-0.2947360533231542,0.0012683493004459478,0.38895126815298947
1.0121860233772693,0.254152664939729,-0.3283285251496446,-0.0035454586245382558,0.41521773541091095
1.0146729669236507,0.2640844721813812,-0.371495860184619,0.0012176702942667816,0.4557973950151254
1.0171599104700322,0.29316769556099576,-0.405084448374295,0.01076933267058422,0.5001566620184333
1.0196468540164139,0.30788351190062246,-0.42430588966723004,0.010744318475955694,0.524350250582636
1.0221337975627953,0.32738553459108477,-0.45310220397514644,0.015507837602253716,0.5592167634591468
1.0246207411091768,0.36125057042784214,-0.4866849913290219,0.025059889978869876,0.6066236506312003
1.0271076846555582,0.38553660300942294,-0.4915354318790044,0.015458458932094743,0.624887603497685
1.0295946282019397,0.414608842542026,-0.5059607556208072,-0.003719648971120648,0.6541487707936819
1.0320815717483214,0.43410207935511325,-0.5060189494268412,-0.013320820524727495,0.6668412380311592
1.0345685152947028,0.45838152374509367,-0.5060752267726434,-0.01334505580544132,0.6829376596573853
1.0370554588410843,0.4874471760924788,-0.5157063978539265,0.000996048428804741,0.7096187922965942
1.0395424023874658,0.5165106335024304,-0.5061820463442577,0.005760475496678907,0.7232127499154658
1.0420293459338472,0.5359950898047141,-0.4918673858402287,0.010525031957540065,0.727554147707077
1.0445162894802287,0.5554773521552007,-0.4871276299785072,0.010501314408308815,0.7388901773945384
1.0470032330266104,2.763257738496306,3.8511190290488946,-0.5976494955946539,4.77743613508823
1.0494901765729918,0.27361227482476325,5.019444584556211,-0.5354237116137153,5.055330470436494
1.0519771201193733,-1.981403618289435,5.8956794282567815,-0.46362099193923356,6.236981693376003
1.0544640636657547,-3.939540696987724,6.49418876627673,-0.3774529333396579,7.605060114959258
1.0569510072121362,-5.581645347250254,6.7958189814608545,-0.27691953590521123,8.798556974903898
1.0594379507585177,-6.869410341731453,6.843665699778802,-0.19553962296979144,9.69859754797399
1.0619248943048993,-7.783682066322645,6.656882530559567,-0.11415958134531756,10.242696126766372
1.0644118378512808,-8.367556150034678,6.292930309655869,-0.032779411126446334,10.46986352804861
1.0668987813976623,-8.61145578531099,5.747020629717463,0.034235677629794736,10.353095621232667
1.0693857249440437,-8.520169374511617,5.086191133160062,0.11082770142741971,9.923452483526356
1.0718726684904252,-8.160734563116588,4.315230219197395,0.17784304688613162,9.233115866469229
1.0743596120368066,-7.552304963358681,3.472445110246494,0.22091650394455264,8.315286489650374
1.0768465555831883,-6.737976204028284,2.610508238647438,0.24962487914139864,7.230310447718266
1.0793334991295698,-5.756055510551928,1.7581500201010134,0.2687565756936525,6.0245743941555725
1.0818204426759512,-4.678368931553999,0.9249472569884856,0.29746520677781163,4.778195144317946
1.0843073862223327,-3.5336468857327215,0.1396303649350319,0.30223194904551853,3.5492958601508984
1.0867943297687142,-2.350619791742601,-0.5690702404717367,0.2830568023891935,2.4350309027405346
1.0892812733150956,-1.1819600847961649,-1.1963661602830924,0.263881783301418,1.7023381647252709
1.0917682168614773,-0.06597499010155372,-1.7422573989077768,0.2399184883514902,1.7599359148618612
1.0942551604078588,0.9686050738170826,-2.178013540869644,0.22074372406824594,2.393881067419858
1.0967421039542402,1.8834728818382405,-2.508422993971556,0.17762707041662118,3.1418477667528806
1.0992290475006217,2.6642632254851586,-2.7334857627327156,0.13451054388360006,3.819468030518242
1.1017159910470031,3.306187702964786,-2.857990255029117,0.11054775763447822,4.371636562180687
1.1042029345933846,3.790092702566125,-2.8963016854136874,0.08179669495035746,4.770750134546973
1.1066898781397663,4.125555032542916,-2.853208461834868,0.043468952392222704,5.016262792462966
1.1091768216861477,4.312574694551197,-2.738287395597343,0.01950654644153893,5.108512392304114
1.1116637652325292,4.36551690025044,-2.5659037013619805,-0.018820942944993035,5.0637884867881935
1.1141507087789106,4.284381651381926,-2.340845787184529,-0.06193670924957395,4.882552743189811
1.116637652325292,4.0931109663309435,-2.0679020611562313,-0.08111033267449308,4.586540657543481
1.1191245958716736,3.8012816535642386,-1.7758029480051312,-0.10028382994683227,4.196817266264591
1.1216115394180552,3.418470521590844,-1.4645484525724701,-0.11945720119344827,3.720902162088512
1.1240984829644367,2.9781963955635327,-1.1676574029765705,-0.12905363990192242,3.2015203299753607
1.1265854265108182,2.504401294036526,-0.8755529974876497,-0.11949633956115768,2.6557293288567547
1.1290723700571996,2.0018736223247586,-0.5882352410510752,-0.10993891358327268,2.0894030877965926
1.131559313603581,1.5041322057068929,-0.3296461552481187,-0.10038136210044968,1.543099704416954
1.1340462571499625,0.9968118363001673,-0.10936255173325149,-0.08124687860555291,1.0060790525564405
1.1365332006963442,0.5421617593886117,0.09176917772689164,-0.07647747983495634,0.555166425719289
1.1390201442427257,0.1353935738131512,0.26417222141012786,-0.06691955264352245,0.30429690915398405
1.1415070877891071,-0.24264633150466397,0.38390455759967246,-0.06214990380929031,0.45839127618441383
1.1439940313354886,-0.553650727758292,0.4749081977484795,-0.05259172683034308,0.7313226472405957
1.14648097488187,-0.8119848226234635,0.5419715399950418,-0.05261023180761626,0.9776606460456029
1.1489679184282517,-1.0224370170942503,0.551575755882332,-0.062205418882392394,1.1633927894482103
1.1514548619746332,-1.1371232756003198,0.5372396634048768,-0.047858464955050195,1.258557202718748
1.1539418055210147,-1.1895624189759069,0.4941748539620683,-0.019146176810059146,1.2882678723831795
1.1564287490673961,-1.1941196547332877,0.43674653220209514,0.009566235446555993,1.2715190899359399
1.1589156926137776,-1.1364297704223132,0.36495469278001114,0.019125158387163665,1.193746339289716
1.161402636160159,-1.026069570153953,0.2740109269984625,0.009530591864145066,1.0620694812919518
1.1638895797065407,-0.8917694712801246,0.14955001948763957,0.02387816561144085,0.9045375420782455
1.1663765232529222,-0.7191642612298151,0.029879191369562186,0.04301426619768023,0.7210688093404468
1.1688634667993036,-0.5274075506340631,-0.08021315950745134,0.05257368351057501,0.536056776490942
1.171350410345685,-0.32128774012311634,-0.19030384528722122,0.06213322403816157,0.37855237816436726
1.1738373538920666,-0.09601642364679941,-0.3003928715039974,0.06690448430631157,0.32238368581650073
1.176324297438448,0.11967598164252258,-0.3865382271213078,0.06688746415998992,0.41013177695703984
1.1788112409848297,0.32578947855387386,-0.4678935310161334,0.062082163442944704,0.5735131521777918
1.1812981845312112,0.522324069935657,-0.5348819821740118,0.03812337203677707,0.7485816992045716
1.1837851280775926,0.6997029520348916,-0.5875035862513327,0.02852991302500918,0.9140889677059524
1.186272071623974,0.8483493211377006,-0.63054675225482,0.028513382927464193,1.0574019058332869
1.1887590151703555,0.9778399868504204,-0.668799889221011,0.018920168301837847,1.1848300740925835
1.191245958716737,1.0785981455369618,-0.6831093896144855,0.009327075626519132,1.2767534578277009
1.1937329022631187,1.14104699359992,-0.6782636625307843,-0.005054298582230388,1.327424341891939
1.1962198458095001,1.18434014740229,-0.6734163270555698,-0.009858744528076002,1.3624420461573996
1.1987067893558816,1.2084776100642265,-0.6542021790612971,-0.024239875658039978,1.3744039423280956
1.201193732902263,1.1990941747831927,-0.6397748376913621,-0.024255675537496302,1.3593112302698653
1.2036806764486445,1.1657666513963072,-0.6109806955552148,-0.009906144334539846,1.316209492271071
1.206167619995026,1.1228602530989742,-0.5678197585719054,-0.009921702140312405,1.2583055536663226
1.2086545635414077,1.056009773202497,-0.5294456459698247,-0.0051487358439654685,1.1813110693701236
1.2111415070877891,0.9700036183371308,-0.5006467670443593,-0.00037564893735364535,1.0915834123195622
1.2136284506341706,0.8887838084518345,-0.4574811111966892,0.0043975584068363105,0.9996224106070483
1.216115394180552,0.7979851369704489,-0.4143138944179774,-0.000405920625849987,0.8991309396884815
1.2186023377269335,0.7167612205961933,-0.37593352608601505,0.0043675270708884995,0.809377377172555
1.221089281273315,0.6163816428662039,-0.3519168189259414,0.0043526913600402395,0.7097821658984326
1.2235762248196966,0.5207884238779414,-0.3231101657678406,-0.0004504279355757035,0.6128792414114848
1.226063168366078,0.4491351804452832,-0.2895135727496405,-0.005253427673926225,0.5343857386029344
1.2285501119124596,0.38226830285617686,-0.27506906263720765,-0.014844711354719209,0.4711819288171595
1.231037055458841,0.3153993913959189,-0.26062302833974726,-0.010070665877188745,0.4092707628271371
1.2335239990052225,0.26289365966730593,-0.24617547607364454,-0.010084904704186215,0.3603014662976649
1.236010942551604,0.2295395146685979,-0.2317264120809921,-0.01967583133870221,0.32676085626814955
1.2384978860979856,0.21054855679335527,-0.23164105259030476,-0.024478236003547593,0.3139863946905255
1.240984829644367,0.196343983150587,-0.24113100057410497,-0.024492118883561176,0.31192143729585736
1.2434717731907485,0.20129100748646078,-0.2506194557096375,-0.019717480164642254,0.3220511765219193
1.24595871673713,0.20144761702007408,-0.2648948276598855,-0.019731126674374266,0.3333762581286602
1.2484456602835114,0.21596742888859966,-0.27438031615148173,-0.014956251960153821,0.34949989657342534
1.250932603829893,0.24006204366274164,-0.29822954085727815,-0.0006044528907391822,0.3828459340397546
1.2534195473762746,0.268943061948128,-0.3172888949117487,0.008959060382805362,0.4160323042352554
1.255906490922656,0.3026104877054516,-0.3315583847545076,0.013734287669315393,0.44910210468014167
1.2583934344690375,0.34585272825029845,-0.3554032268097709,0.004144422135965442,0.49592614319050904
1.260880378015419,0.3747277710107858,-0.3888234275642475,0.004131480191082559,0.5400200267750177
1.2633673215618004,1.864063842707076,3.729303491823717,-0.5369709201955271,4.203662250104315
1.2658542651081819,-0.113406069164248,4.715816074625849,-0.49388799894569857,4.742964003840365
1.2683412086545636,-1.9376490503156174,5.443756306474303,-0.4220745414119662,5.793713272589168
1.270828152200945,-3.5464158534168897,5.946643004032898,-0.3454725643931926,6.932458417872297
1.2733150957473265,-4.92534126430823,6.210110950740413,-0.2640820680876743,7.930586606871452
1.275802039293708,-6.0552716654759715,6.2389485432947644,-0.18747985933532796,8.69631775904333
1.2782889828400894,-6.9218418426936,6.0810398082548724,-0.1204543416567514,9.214415276796915
1.280775926386471,-7.515474985021964,5.736384738954948,-0.053428708612589304,9.454698765730727
1.2832628699328525,-7.85532470141088,5.22413694198925,0.023173846235515327,9.43388944075571
1.285749813479234,-7.960544600777701,4.606545653813711,0.0901997094030822,9.197753485999579
1.2882367570256155,-7.831134678726049,3.888399271019595,0.1332836707249765,8.744374407817485
1.290723700571997,-7.4814601407881955,3.0888514001384113,0.16679093995698402,8.095743821786314
1.2932106441183784,-6.945039805745688,2.270151277564451,0.22424034013516625,7.3100922331092075
1.29569758766476,-6.2553924923481015,1.4418757031481095,0.24817103120870065,6.424214320629803
1.2981845312111415,-5.441248615993327,0.637543493321818,0.2529482229304989,5.484307705664406
1.300671474757523,-4.531338592047341,-0.11890334214269149,0.2625139316931637,4.540493475921233
1.3031584183039044,-3.5543928358451264,-0.8178880034537346,0.25771454400554994,3.6563733403322867
1.305645361850286,-2.5630837792920618,-1.4450452875185422,0.24333846297714246,2.9524173062447834
1.3081323053966674,-1.5669882243798154,-1.9716447813023223,0.2385393016774522,2.529769996941709
1.310619248943049,-0.5756829730692689,-2.416840104992107,0.22895184993287465,2.4949841538911257
1.3131061924894305,0.36773634946667755,-2.756689248910423,0.18105728428765744,2.78699612091065
1.315593136035812,1.2297509247265639,-3.0007690266403495,0.15231644437106873,3.2465523848131195
1.3180800795821934,2.005572354160578,-3.1299258318609073,0.1523061366083649,3.720477568803763
1.3205670231285749,2.6808354326082777,-3.168101688151651,0.1283539242598355,4.1521345899513245
1.3230539666749563,3.2555401648998687,-3.1200850058283316,0.09961342038956644,4.5103652892412995
1.325540910221338,3.705744539293535,-2.9906641952238804,0.07087302809981466,4.762524320694855
1.3280278537677195,4.02666015735787,-2.7846276666882748,0.018190730570104563,4.895760836439804
1.330514797314101,4.237440637292428,-2.5163406372286388,-0.020126245856904035,4.928313953363542
1.3330017408604824,4.342874387364434,-2.2193219371499886,-0.029712691440929362,4.877174453428322
1.3354886844068639,4.333384605909021,-1.8839947668906765,-0.05845263960664582,4.725576698719186
1.3379756279532453,4.2137597012507015,-1.5390895534673854,-0.09198088061551069,4.486984282998509
1.340462571499627,4.017518501664199,-1.1846063039909136,-0.0967785914485777,4.189643553147682
1.3429495150460085,3.7350842055694957,-0.830121832227968,-0.0872109822908751,3.8272133510516984
1.34543645859239,3.390398834656556,-0.5091549685620067,-0.09679687660953995,3.429783181977146
1.3479234021387714,2.993039200682154,-0.2217057201493695,-0.10159425802876854,3.0029582874944225
1.3504103456851528,2.5573705187508065,0.05137951912015826,-0.09681472345485354,2.5597181321072107
1.3528972892315343,2.102546407314591,0.2909471287798229,-0.10161188639646745,2.1250121416391403
1.355384232777916,1.642932081532268,0.4826318916689698,-0.10162053712091534,1.7153676285125188
1.3578711763242974,1.1833159499489634,0.6312222038941675,-0.09684067585724598,1.3446398122148235
1.360358119870679,0.7428516310971094,0.7415064615483389,-0.08727230283530751,1.0532221195852998
1.3628450634170604,0.3311159368950788,0.8039078507499418,-0.07291541828576165,0.8724805180558957
1.3653320069634418,-0.05189112735322998,0.8232147675651587,-0.05377002244004814,0.8265993333825951
1.3678189505098233,-0.39659274967731717,0.8185808180081331,-0.0537781321319617,0.911181898526898
1.370305894056205,-0.6790469081199825,0.7804291881584078,-0.05378613431326684,1.035889651170077
1.3727928376025864,-0.908830403940666,0.7039714674033664,-0.04421722257712091,1.1504363054152271
1.3752797811489679,-1.0811548284125214,0.5987844550791146,-0.03943660711901664,1.2365249017408264
1.3777667246953493,-1.1912317727836528,0.474444950509735,-0.029867481533646156,1.2825845835681293
1.3802536682417308,-1.263003248199021,0.34052975300769184,-0.0059330394164724964,1.3081180828203067
1.3827406117881123,-1.2821040392164986,0.18746204859263393,0.008424702394107086,1.2957637757894906
1.385227555334494,-1.243745737010085,0.0391838465151797,0.022782550301132076,1.2445713626613415
1.3877144988808754,-1.167081949331087,-0.11388166722713944,0.04192890738658406,1.173374340890202
1.3902014424272569,-1.0569010739458489,-0.252580886725688,0.04671016013014828,1.0876666876881023
1.3926883859736383,-0.9084147019562775,-0.381702222683848,0.05149151825296627,0.9866940934170518
1.3951753295200198,-0.7264112310813116,-0.5012456824949036,0.07063819147544947,0.8853870706960717
1.3976622730664012,-0.530044268977455,-0.6064228702417913,0.0706313563141645,0.8085075219952599
1.400149216612783,-0.3193138099968096,-0.6972337933374737,0.05625941584746741,0.7689352337472511
1.4026361601591644,-0.1085850584294833,-0.7641016525637538,0.05146438643425988,0.7734924908723089
1.4051231037055458,0.11171879805868778,-0.8118148586725864,0.05145786451085321,0.8210800000129626
1.4076100472519273,0.31286734526185556,-0.8307966124639483,0.05623984983317243,0.8895346579656304
1.4100969907983087,0.4948605889183127,-0.8449889379887181,0.03707992223457168,0.9799327672962074
1.4125839343446904,0.6768521480696595,-0.8448150360640425,0.003554888110208765,1.0825220148966386
1.4150708778910719,0.8540536251776738,-0.8254865108355962,-0.010816429543869077,1.1878352450566243
1.4175578214374533,0.9881577994837087,-0.7917917730976156,-0.010822434294823324,1.2662966373285596
1.4200447649838348,1.0983182900940405,-0.7580960402927013,-0.015616739671404645,1.3346372373122721
1.4225317085302163,1.1845351028549729,-0.7100341099490097,-0.006045732640528101,1.3810533653953725
1.4250186520765977,1.251596646954023,-0.6476059895628339,0.00831377990832749,1.4092397962449736
1.4275055956229794,1.2899261216384177,-0.5947537032390189,0.0035197811240994525,1.4204413946590047
1.4299925391693609,1.3043119361368392,-0.5323236452062834,-0.0012741159621239007,1.4087582167874726
1.4324794827157423,1.2947540963778885,-0.46989262962166567,-0.006067911601142839,1.3773975726025096
1.4349664262621238,1.2660410116304968,-0.4074606640078038,-0.020438412685033214,1.3301510307318998
1.4374533698085052,1.2229610911833886,-0.34981615921359754,-0.030020409504937007,1.272362527262675
1.4399403133548867,1.1703027443448535,-0.29695912277334147,-0.04917911227450844,1.2083922455492326
1.4424272569012684,1.093700767161263,-0.24410115890647566,-0.05397250464553238,1.1219089870066696
1.4449142004476498,1.0123087789403165,-0.2103958884392232,-0.044400586871946146,1.0348946351712998
1.4474011439940313,0.9165499790866759,-0.18626651228087532,-0.049193779130195736,0.9365784033737795
1.4498880875404128,0.811212776984626,-0.16692463466575846,-0.03962166175357851,0.8291561247928646
1.4523750310867942,0.7106623886774948,-0.15715866647328625,-0.02526104163848686,0.7282705523039673
1.4548619746331757,0.6244756269064956,-0.14739180862614987,-0.02526553232254436,0.6421312178783164
1.4573489181795574,0.5382872878292397,-0.14241247201194662,-0.010904714140833605,0.556914202740068
1.4598358617259388,0.4473089742617352,-0.161374277482925,0.0034562026881506114,0.4755406620103515
1.4623228052723203,0.37069430563902106,-0.17075840937137787,-0.00612479869527327,0.4081791466541335
1.4648097488187017,0.3036548848118539,-0.18971848853626083,-0.010917298627935779,0.35821583071092084
1.4672966923650832,0.24619071796840641,-0.21346611923793546,-0.010921297369110405,0.3260320972121126
1.4697836359114647,0.20309021463392918,-0.23242450241919732,-0.006136795178631971,0.3087141798815392
1.4722705794578463,0.1743533810299569,-0.2513820489862697,0.0034362076831104815,0.30594745227302367
1.4747575230042278,0.14561501343348504,-0.28470397648821066,0.022586114275464197,0.32057794516076427
1.4772444665506093,0.13602873137977844,-0.31323667923392984,0.03694771437600508,0.3434911448289499
1.4797314100969907,0.1360177344981489,-0.34655697145593933,0.027367394441435877,0.3732981822099256
1.4822183536433722,0.1407936257538821,-0.37987645742732834,0.022575574131044718,0.4057568539258546
1.4847052971897536,0.1503564114480107,-0.4084067414224499,0.017783849861404022,0.43556788474211494
1.4871922407361353,0.17428290453739959,-0.4225710243963654,-0.0013729885920739093,0.4571024902262729
1.4896791842825168,0.21257311135324697,-0.4415229272267833,-0.0013761182513807313,0.49003236284836243
1.4921661278288982,0.24607342496026197,-0.4508972475497668,-0.001379152662455141,0.5136753453122854
1.4946530713752797,0.27957225503921046,-0.45069399296259904,-0.0013820920904930034,0.5303655637942826
1.4971400149216612,0.32264641460545074,-0.4552783810235499,-0.0013849368011964458,0.5580152606650829
1.4996269584680426,0.36571910340713465,-0.4598620160094451,0.008189119579862236,0.5876143276373397
1.5021139020144243,0.41836713448747587,-0.4309260822747967,0.017763270145362497,0.6008692714478114
1.5046008455608058,0.4758021109423284,-0.4163546206187547,0.008183901346876965,0.6323019809624341
1.5070877891071872,0.5092936192793295,-0.41135923531610885,-0.006183777122322098,0.6547019552574981
1.5095747326535687,0.5475720858629768,-0.40157472399986816,-0.010974555569443822,0.679130244534764
1.5120616761999501,0.5810607105081628,-0.39657790090320066,-0.025342047544370416,0.7039515609434934
1.5145486197463316,0.6001826930423997,-0.39158037029671,-0.03492104335525248,0.7174774774850813
1.5170355632927133,0.6193032499071989,-0.3674285264881809,-0.025346333310722002,0.7205433186389231
1.5195225068390947,0.6432107909156176,-0.33848758702547244,-0.001406321001116595,0.7268396974982718
1.5220094503854762,0.6575401126114118,-0.3191227694540917,0.01295697670150986,0.7310035738095408
1.5244963939318577,0.6575028181906756,-0.30933408135602036,0.008166752885598427,0.7266802774740402
1.5269833374782391,0.6622525274625461,-0.2995447236697846,0.003376620561027721,0.7268540796991864
1.5294702810246208,0.6622124403255314,-0.2897547039714743,0.027316999377859474,0.7233459221219832
1.5319572245710023,0.6573825633297797,-0.279964029833883,0.02731545254041201,0.7150369406669467
1.5344441681173837,0.6429744997158997,-0.27496111214657537,0.012948786416634661,0.6994193960332075
1.5369311116637652,0.6285650626959912,-0.265169151834423,-0.0014177893056199764,0.6822101782098519
1.5394180552101466,0.6093658555315176,-0.26495336641984935,-0.006207468259244564,0.6645039991806361
1.541904998756528,0.5901652881346495,-0.26952536013979733,0.003368152602149621,0.6488068522522652
1.5443919423029098,0.5709633671070858,-0.2645199305861148,-0.0014213469176453941,0.6292630455402607
1.5468788858492912,0.5517600990601407,-0.26909069858813695,-0.006210757132423694,0.6139117074023477
1.5493658293956727,0.5373438939348054,-0.27366086504839027,-0.011000078317319861,0.6031166811911605
1.5518527729420541,0.5181379517202789,-0.2782304375048592,-0.02536611738849537,0.5886616628237297
1.5543397164884356,0.494142279055298,-0.2827994234901343,-0.011001648059369984,0.569449859194239
1.556826660034817,0.48929889918882097,-0.28736783053118176,-0.006213897168763083,0.5674788941358206
1.5593136035811987,0.47487739885491786,-0.2967240694690556,-0.015791268313780193,0.5601812934224486
1.5618005471275802,1.0494281997563866,1.7625104898754262,-0.6430725801305162,2.1497174504293732
1.5642874906739617,-1.0192209326453898,2.1601696534712156,-0.5520933065295583,2.4515201937645204
1.5667744342203431,-2.862816402803579,2.423754072995461,-0.4467487358745217,3.777550263799119
1.5692613777667246,-4.438262574148121,2.5676289509136963,-0.3318272717638706,5.138190580830992
1.571748321313106,-5.731194230023562,2.5870058764171957,-0.2216941244370485,6.291926175002564
1.5742352648594877,-6.7416113637284205,2.4914616486653753,-0.1259261008135244,7.188362978397005
1.5767222084058692,-7.459937161913533,2.309726680106409,-0.04931160449283567,7.809477026717703
1.5792091519522506,-7.890960021184498,2.051377769914796,0.012937767565823322,8.153255067558126
1.581696095498632,-8.04425674146064,1.7547221371948676,0.06082201508258933,8.233639269412729
1.5841830390450136,-7.919827316014618,1.4006061612153102,0.11349475105851603,8.043521827709764
1.586669982591395,-7.575132577957,1.022548657776586,0.16137916857246637,7.645540044182313
1.5891569261377767,-7.0389029404707735,0.6444916360470629,0.19968686402329539,7.071166729611612
1.5916438696841582,-6.320715203452547,0.26164668528214996,0.23320624045015137,6.330425327074019
1.5941308132305396,-5.473241796676197,-0.1020441853320655,0.24278368429031616,5.479574134729901
1.596617756776921,-4.534789939949998,-0.4226389666001369,0.2427844052229471,4.560908655408481
1.5991047003233025,-3.519724836475815,-0.7145028758797349,0.21405478968470604,3.5978878160848873
1.601591643869684,-2.4807189160139256,-0.9728475172375233,0.17574845067447598,2.670446807180214
1.6040785874160657,-1.465656204999521,-1.1833076880898046,0.1518074045111426,1.8898176324742144
1.6065655309624471,-0.47932509998135775,-1.3363065891630073,0.12786644095080568,1.4254184222304813
1.6090524745088286,0.4591207925347135,-1.431844227813896,0.12786757631179313,1.5090791602608287
1.61153941805521,1.3113742527651158,-1.4890742246699613,0.1470224069902759,1.9896381745304663
1.6140263616015915,2.0630700775311235,-1.5032081837463906,0.13265849617903314,2.556069495357057
1.616513305147973,2.7046314669773786,-1.4646693057271047,0.10392945687527266,3.077513424716408
1.6190002486943547,3.2360584278920057,-1.3878228078864139,0.08956570871655067,3.5222362656412627
1.6214871922407361,3.6334089504640423,-1.282245504166965,0.07041363813705281,3.8536699670190107
1.6239741357871176,3.906259848127185,-1.1623026118201143,0.05605005149257458,4.075899283692716
1.626461079333499,4.073764740957889,-1.023205734804146,0.03689814185741547,4.2004607620212715
1.6289480228798805,4.1119816191516305,-0.8649548803856786,0.0033811023056227185,4.201969920548774
1.631434966426262,4.001756876225888,-0.7162804757409802,-0.02534745416711992,4.065434578219364
1.6339219099726436,3.848435392027697,-0.5771825281120178,-0.039710721205990396,3.891679788824853
1.636408853519025,3.6041331401553034,-0.43329583476719113,-0.03970869909702657,3.6303027082016595
1.6388957970654066,3.2880037406923006,-0.29898561288393566,-0.04928340472805104,3.3019372873359867
1.641382740611788,2.9287776203636526,-0.1886170796266451,-0.05406962842462626,2.9353429573029177
1.6438696841581695,2.531243189293316,-0.09261343554491663,-0.07322098375468222,2.533994996887175
1.646356627704551,2.10976566424602,-0.0061862844951749985,-0.07321864776296572,2.1110448594304057
1.6488435712509326,1.669133455346143,0.051510753078194416,-0.07800463733815555,1.6717489562983716
1.651330514797314,1.233288585999008,0.08526607334625336,-0.08757895276757388,1.2393309132702153
1.6538174583436955,0.8261730796095819,0.09986807249410568,-0.07799957773719512,0.8358346268864728
1.656304401890077,0.4429985396603384,0.10010514672110826,-0.07320852913628784,0.46003068949750053
1.6587913454364585,0.09813018291415898,0.08597728892075285,-0.06362900061214383,0.14515604268451626
1.6612782889828401,-0.20364358050779008,0.05269608868085962,-0.05404939577316625,0.2171840759073698
1.6637652325292216,-0.4527459371652329,0.014626748885357976,-0.04925811822793236,0.4556524855785792
1.666252176075603,-0.6491768802601681,-0.0473843508089935,-0.03967836162428107,0.6521121613243396
1.6687391196219845,-0.8168784195978173,-0.10460679752706614,-0.025310126250822407,0.8239378234941813
1.671226063168366,-0.9271201284619099,-0.15225219497985254,-0.006153412396358249,0.9395585814410569
1.6737130067147474,-0.9799020000602923,-0.2046857601440033,0.01779177965015677,1.0012096371644699
1.6761999502611291,-0.989589237564112,-0.26190750001940577,0.03694864295898448,1.0243278771397595
1.6786868938075106,-0.9466050275456034,-0.3047638083086843,0.036951967279916786,0.9951419521431508
1.681173837353892,-0.8605261698610744,-0.3571967085811112,0.027378558964162636,0.9321182130652228
1.6836607809002735,-0.7600830776511627,-0.4048409978270602,0.027382031003400087,0.8616102913006229
1.686147724446655,-0.6261221308566614,-0.428543069700031,0.03217397978761127,0.7594163879663023
1.6886346679930364,-0.46822012934373924,-0.45224494771958357,0.03696600170663267,0.6520138553303384
1.691121611539418,-0.2959538729822846,-0.4807350421070944,0.03696969315016929,0.5657398994719585
1.6936085550857995,-0.114111758325807,-0.48528293982463255,0.027396650507796494,0.49927107019342876
1.696095498632181,0.058152608107094106,-0.48504226102008907,0.027400486770533306,0.489283667702489
1.6985824421785625,0.21605082975439316,-0.4848014158629286,0.022615991687088055,0.5312455712194243
1.701069385724944,0.39310173661198344,-0.4749836045440139,0.0034663583263654374,0.616563391350012
1.7035563292713254,0.5653633188272156,-0.46037723719729984,-0.006106397000666064,0.7291228777710054
1.706043272817707,0.6993167599018185,-0.4457707239387143,0.0082629353762389,0.8293514002529055
1.7085302163640885,0.8141156798557101,-0.42637566822536277,0.0034787252834664883,0.9190172208240428
1.71101715991047,0.9289136987033995,-0.40219207681627855,-0.0013054142886357312,1.012245439801576
1.7135041034568514,1.0101919999303397,-0.3732199564519356,0.008275726329879163,1.0769630914119255
1.715991047003233,1.0531621869379795,-0.34424771717439695,-0.001296676394259677,1.1079976372472293
1.7184779905496144,1.1009198963248459,-0.3200637690068193,-0.010869009470967583,1.1465529075108745
1.720964934095996,1.1151579082378875,-0.2910913119923464,-0.006076063230571194,1.152539904197381
1.7234518776423775,1.1102414393410214,-0.27169556275644746,-0.006071451245636794,1.1430185453315242
1.725938821188759,1.095747302971172,-0.24751131798328885,-0.010855173807561513,1.1234063553749438
1.7284257647351404,1.0573102958568212,-0.23769219757964777,0.003514785393740283,1.0837042937219754
1.7309127082815219,1.0092956346412432,-0.21350778822942473,0.003519602824558987,1.0316373594168318
1.7333996518279033,0.9517033259994624,-0.20368851644034702,-0.0012639151660724934,0.9732573297590189
1.735886595374285,0.8749565699584327,-0.21781119541882088,0.008317844411456221,0.9016983435156432
1.7383735389206665,0.7934205831389503,-0.21756860514788423,0.0035344613435732697,0.8227179420138696
1.740860482467048,0.7214605821539064,-0.21732596211360145,-0.0060372580208412074,0.7535067311543183
1.7433474260134294,0.6542881703268736,-0.22187167614084258,-0.015608910653259755,0.6910598299677216
1.7458343695598109,0.5727497410121893,-0.22162894707281122,-0.020392093525186894,0.6144733464426857
1.7483213131061923,0.49599891411820474,-0.23096299133338327,-0.010810000287852617,0.5472437137860298
1.750808256652574,0.4336125029039568,-0.2498738153644502,-0.010804647834710579,0.5005731382068492
1.7532952001989555,0.36643690069775914,-0.2592078123054473,-0.006010826496730459,0.44888842955497216
1.755782143745337,0.3040489207406689,-0.2685417951963345,-0.010793746526776005,0.4058040745666804
1.7582690872917184,0.275178989545788,-0.2778757704149215,-0.02036500489649562,0.3916033113950409
1.7607560308380998,0.24630829045266844,-0.3015749542782955,-0.015570988616595116,0.3896892129379132
1.7632429743844813,0.2222252333537197,-0.3252741431598509,-0.010776907939980873,0.3940856052842291
1.765729917930863,0.2125066314518259,-0.3346081334110109,-0.02992477976019714,0.3975137278126371
1.7682168614772444,0.21236408797890716,-0.3439421412829553,-0.029918974486394134,0.4053268402755176
1.770703805023626,0.2122208028363557,-0.3580645763639736,-0.005971089090230919,0.41627342445578086
1.7731907485700074,0.22165358919641254,-0.36261023493869393,-0.010753560387104955,0.425126022664981
1.7756776921163888,0.2502392602207323,-0.3767327365113755,-0.025112775387722053,0.4529656649270925
1.7781646356627703,0.264458999177384,-0.38127847400107484,-0.015529911141818786,0.46427687334452133
1.780651579209152,0.2834664258469253,-0.3810358569055654,-0.005946984542864797,0.47494937146536154
1.7831385227555334,0.3216267566784564,-0.38558169801994513,-0.020306012484311964,0.5025229851484012
1.7856254663019149,0.350209578226953,-0.385339196834936,-0.020299768695503317,0.5210999193133546
1.7881124098482963,0.39315691355932914,-0.3803083594586174,-0.01550506010888597,0.5472177024206938
1.7905993533946778,0.44089196248863605,-0.37527759529597704,-0.029863903617806997,0.5797506781863266
1.7930862969410595,0.46947271485513564,-0.36545850708784,-0.025069072951522386,0.5954771270292193
1.795573240487441,0.49326438704955144,-0.3604279075122929,-0.005908971722055512,0.6109443084208835
1.7980601840338224,0.5314205987707268,-0.3649742059032959,0.00846278649769161,0.644736878523235
1.8005471275802039,0.5552109365019897,-0.3647321982896181,0.03241141137705483,0.6650859042770688
1.8030340711265853,0.5790006165969422,-0.35012508399626396,0.05157169266355588,0.6785933450507855
1.8055210146729668,0.5980012421151923,-0.33551807892560204,0.051578420104767986,0.6876323147422199
1.8080079582193485,0.6074244161034732,-0.3304879956353459,0.03721999672958276,0.692511418457677
1.81049490176573,0.6072701449157591,-0.3206696300571954,0.037226842168520236,0.6877440500105149
1.8129818453121114,0.6119036448537325,-0.3108513913795017,0.03244534284904432,0.6871006901324194
1.8154687888584928,0.6165365189244302,-0.3106100920862169,0.027663901800250912,0.6909133085533063
1.8179557324048743,0.6115919668010111,-0.31036893135521115,0.042036132012251315,0.6871249113521183
1.8204426759512558,0.6018583981038477,-0.30533951165970397,0.032466403311181224,0.67566250161799
1.8229296194976374,0.5921242224394142,-0.30031024208845736,0.0276851353279568,0.6645026734489757
1.825416563044019,0.5776010427595288,-0.3048579350253422,0.027692327771706715,0.6537034420608678
1.8279035065904004,0.5582888653220845,-0.3141941928679781,0.013334367070411801,0.6407669258940799
1.8303904501367818,0.5485529063315558,-0.31395381134791345,0.0037648662146523293,0.6320533687294864
1.8328773936831633,0.5244511554153964,-0.31371360277270854,-0.005804578406461758,0.6111455899469895
1.8353643372295447,0.5051372320691658,-0.3182619761039436,-0.010585563763083172,0.5971317801091044
1.8378512807759264,0.4953995458126681,-0.3084453236758584,-0.010578090145569874,0.5836703895864778
1.8403382243223079,0.4808728928694549,-0.3034172643593003,-0.0201473678051034,0.5689522755358255
1.8428251678686893,0.4615572794088666,-0.2983894003975518,-0.02492818707086286,0.5501752184127935
1.8453121114150708,0.4566063248662068,-0.30772694728903227,-0.02970895155316633,0.5514234596007311
1.8477990549614522,0.44686642209882343,-0.30748789394344866,-0.029701258221582094,0.5432500058546953
1.8502859985078337,0.43233757722972865,-0.29767224584574503,-0.024905107365862378,0.5254948249075593
1.8527729420542154,0.4225966030068099,-0.30701042837630776,-0.015320499275620847,0.522568665060156
1.8552598856005968,0.42243190884176063,-0.31156043036555436,-0.010524240880954494,0.5250041704818956
1.8577468291469783,0.41747829084899046,-0.3065338538985185,-0.005727929150900479,0.5179613268270424
1.8602337726933598,0.41252415840798484,-0.3062959143147488,0.003856838945671015,0.5138173251290549
1.8627207162397412,0.4027811142412876,-0.3156350202863347,0.008653256479082216,0.5117938753720104
1.8652076597861227,0.4074027776565472,-0.3201859671771823,0.008661323160437107,0.5182384541293199
1.8676946033325044,0.4120239447026347,-0.3199487602851123,-0.005695767939634777,0.5216928042332214
1.8701815468788858,0.41185621805230876,-0.31971180820112766,-0.015264403828464168,0.5216073107959894
1.8726684904252673,0.426053216963018,-0.3194751161687037,-0.024832988114779297,0.5331063410186114
1.8751554339716487,0.4354613341127195,-0.3240270927243185,-0.03440152108683847,0.5438782905942209
1.8776423775180302,0.4400805754434697,-0.3285793397364234,-0.05354680967335135,0.5518175026315072
1.8801293210644117,0.44469935020037665,-0.3283434590459815,-0.05353843424035354,0.555367718820446
1.8826162646107933,0.4493176642908382,-0.3328962624273091,-0.04874160503650948,0.5613216805392264
1.8851032081571748,0.4635123302453351,-0.32787254502549956,-0.04394472566970187,0.5694516880167659
1.8875901517035563,0.47770654729546014,-0.3324259252000732,-0.024782586466358225,0.5825158518581591
1.8900770952499377,0.477535111334706,-0.3321911980405283,-0.005620397674597655,0.581740804382048
1.8925640387963192,0.47736323816052856,-0.32237996524906665,0.003965033777948435,0.5760383881599864
1.8950509823427006,0.4867677402320451,-0.31256903846082285,0.023127320885725666,0.5789448244058205
1.8975379258890823,0.49617181670897414,-0.31233522928285185,0.03750125340120114,0.5874913711316249
1.9000248694354638,0.5007870700530673,-0.30731333269249284,0.06145204099889767,0.5907668976219239
1.9025118129818452,0.5054019093483172,-0.29750335359977065,0.06146086015044361,0.5896751416724867
1.9049987565282267,0.5052279370195767,-0.287693700206721,0.04231611389017331,0.5829353197212004
1.9074857000746082,0.5050535621137009,-0.2778843773666644,0.027959818533865644,0.5771313362144213
1.9099726436209896,0.509667193658802,-0.2728637932247815,0.023180377116279516,0.578578108666676
1.9124595871673713,0.5142804340235163,-0.2582667426164629,0.01361257939113969,0.5756486580187734
1.9149465307137528,0.5141048855575149,-0.24367003695005174,0.008833231713952117,0.5689964378129774
1.9174334742601342,0.5091405539117039,-0.2434388909255394,0.004053930479518186,0.5643607282624351
1.9199204178065157,0.5089642513584303,-0.2527849059329177,-0.0007253245968215083,0.5682828027700049
1.9224073613528971,0.5135759835101269,-0.25255447337243275,-0.010292937119796619,0.5724071954591181
1.9248943048992788,0.513398949319201,-0.24753600121702135,-0.015072100732986371,0.5701576284511837
1.9273812484456603,0.5036447510388795,-0.2568831073716127,-0.01506281572032897,0.5655739160528312
1.9298681919920417,0.48431339422308384,-0.26144218314965384,-0.00547667904522342,0.5504011927379026
1.9323551355384232,0.4841353043279165,-0.2564248297964573,-0.005467304272395168,0.5478782507536081
1.9348420790848047,0.5031104868677925,-0.26098466512978247,0.004118921596178993,0.5667893108945927
1.9373290226311861,0.5029317207747297,-0.2703332903366489,0.008916788316579272,0.5710515850074774
1.9398159661775678,0.49317581816386363,-0.27010549993421273,0.013714698926390767,0.5624655204392077
1.9423029097239493,0.4882079944505443,-0.27945491165253156,0.008935846502517109,0.5626028286854443
1.9447898532703307,0.48802825506900005,-0.2696511099891974,0.004157037403368591,0.5575845943209624
1.9472767968167122,0.4926366054331721,-0.26942451925615085,0.008955077987614857,0.5615697552494179
1.9497637403630936,0.4972446476163137,-0.26919833717338726,-0.0006120486279854731,0.5654382007996204
1.952250683909475,0.492275580350904,-0.2689725680720296,-0.010179132763894927,0.5610571308956932
1.9547376274558568,0.4873062156301189,-0.2735356195739671,-0.005380964740314909,0.558854218691242
1.9572245710022382,0.4775481554655593,-0.2876758992714956,-0.0005827547990246984,0.5575033662798615
1.9597115145486197,0.48215501844966147,-0.28745139480540116,-0.005361309861214636,0.5613648633778142
1.9621984580950012,0.4867615999118716,-0.2920157236695968,-0.005351420246226368,0.5676607047503773
1.9646854016413826,0.47221429184043867,-0.3109456966876376,-0.005341489554364642,0.5654220505229582
1.967172345187764,0.4720319227260666,-0.3250877047314531,-0.014908324705961817,0.5733396985954924
1.9696592887341458,0.4718492878352967,-0.3344417519244094,-0.010109909378860138,0.5784420853712096
1.9721462322805272,0.47166639237447944,-0.33900784236002135,-0.010099857133432977,0.5809453588688606
1.9746331758269087,0.47627164484907464,-0.3387859801019242,-0.0005129582875511574,0.5844748780974843
1.9771201193732901,0.4712998404620183,-0.343352975824458,-0.0005028264009627748,0.5831081018657039
1.9796070629196716,0.47590459763707926,-0.34792043021107055,0.0042957482090688615,0.5895356352783455
1.982094006466053,0.4757207115344257,-0.35248834723554445,0.009094361944345764,0.5921494218006472
1.9845809500124347,0.46595978393335247,-0.33790311756038527,0.004316207886668977,0.5756002664616869
1.9870678935588162,0.47056383651347344,-0.33768356834149493,-0.005250310920912327,0.5792133305845872
1.9895548371051976,0.47995606769058696,-0.3374644935015727,-0.014816791435027454,0.5869068483121604
1.992041780651579,0.47977127253849083,-0.33724589689414897,-0.005229620651043376,0.5864662120338184
1.9945287241979606,0.4795862627107862,-0.3466045889832463,-0.005219218767146927,0.5917473825287981
1.997015667744342,0.47461263987831975,-0.34159855696054553,-0.009997182739001076,0.5848475662191915
1.9995026112907237,0.4792156189713088,-0.32701620790941455,-0.005198302881327166,0.5801846534116135
2.001989554837105,0.4742415916558453,-0.3220111588439627,0.004389017210252533,0.5732499778878087
2.0044764983834864,0.46926736949789966,-0.321795010146511,-0.005177239340804718,0.5690260946897456
2.006963441929868,0.47386976404138953,-0.3072141522082026,-0.019531862848200632,0.565079270771781
2.0094503854762498,0.48326037684718703,-0.30699900859304385,-0.00994443366434794,0.5726149446779237
2.011937329022631,0.4830740028133783,-0.3067843729519475,-0.005145371985079805,0.5722793186325401
2.0144242725690127,0.4828874534173986,-0.3017818455461567,-0.009923081404288325,0.5695182547677825
2.016911216115394,0.47791233015348233,-0.30635663988785744,-0.005123948913976051,0.5676978430191386
2.0193981596617756,0.472937041134177,-0.2965667428964167,0.01404042853328491,0.5584070303124217
2.0218851032081573,0.472749994449666,-0.2867773680233596,0.018839630743098468,0.5532528786631851
2.0243720467545385,0.47256279152710684,-0.28177692204926075,0.009273657443289451,0.5502725020004384
2.02685899030092,0.4723754370915168,-0.27677700508370284,0.009284524963607765,0.5475675908180702
2.0293459338473014,0.47218793584542196,-0.27177762052622656,0.018872233032611874,0.5451428096898052
2.031832877393683,0.476788695789122,-0.26199036842570145,0.02367157141829601,0.5445427043616856
2.0343198209400644,0.4813893182597214,-0.2522036554412388,0.01889413652964045,0.5437824454206692
2.036806764486446,0.4764130012513951,-0.2472058882015835,0.018905138057256465,0.5370637794227604
2.0392937080328277,0.4666481526966074,-0.2326318600238575,0.014127769090569231,0.5216106541979298
2.041780651579209,0.46645998714575393,-0.23242359075729624,0.014138836000643806,0.5213497404161482
2.0442675951255906,0.4662717025249593,-0.2370042769785834,-0.0002152747629509122,0.5230491126317764
2.046754538671972,0.4756601100188321,-0.22722030859340103,-0.004992546867443437,0.5271684118236141
2.0492414822183536,0.47547160086733364,-0.22701370535986376,0.014172229379703083,0.5270761972790566
2.0517284257647352,0.47528298620947895,-0.2315960670838506,-0.00018178613326469417,0.5287066183764919
2.0542153693111165,0.47988267384113026,-0.23617899354088,-0.014535770431772121,0.5350506389725563
2.056702312857498,0.4701170549337191,-0.24555089111673922,-0.01931291714240757,0.530733713114522
2.0591892564038794,0.46513974719828327,-0.24534655288562002,-0.019301629852298774,0.5262342333519308
2.061676199950261,0.464950755041693,-0.24035438517262886,-0.014501908827849519,0.5236026551166486
2.0641631434966428,0.46955008284787636,-0.24972800423348573,-0.01449056097568402,0.5320256880624068
2.066650087043024,0.4645725250168658,-0.26389060637171147,-0.004902376600464109,0.534312564355461
2.0691370305894057,0.4595948925272706,-0.27326538786054533,0.009474240712309623,0.5347814494508971
2.071623974135787,0.4641939963347049,-0.2778523515835549,0.009485677416616767,0.5410803762748632
2.0741109176821686,0.4640046307702033,-0.2776515003940401,0.009497143209040715,0.5408149857172853
2.07659786122855,0.4686036067433325,-0.28702804707598695,0.019085444466274026,0.5498533388564537
2.0790848047749315,0.47320252517967654,-0.3011935911018977,0.023885370963878216,0.5614345198715177
2.081571748321313,0.4730129869817631,-0.3153597319140595,0.023896922438771284,0.5690027322151993
2.0840586918676944,0.4776118029899885,-0.3151612622839419,0.014331695307994607,0.5724028765565006
2.086545635414076,0.4774221707404218,-0.3197517981950302,0.00955489927027564,0.5746863820063226
2.0890325789604574,0.4724440943866711,-0.3243429389991008,0.014354937384144506,0.5732432543229087
2.091519522506839,0.4770427880201895,-0.32414628401780865,0.009578196107012715,0.5768295908544341
2.0940064660532207,0.4816414491077707,-0.3287386425036516,0.009589885138913345,0.5832148373204805
2.096493409599602,0.48624008173372846,-0.33812001703842576,2.47942584614691e-05,0.5922453576189884
2.0989803531459836,0.4812618833186528,-0.3283483935723357,-0.004751866833412777,0.582621874061859
2.101467296692365,0.4810720678615845,-0.3233657912286829,-0.01910530835720259,0.5799661905844141
2.1039542402387466,0.4808822360572147,-0.3327490191398659,-0.043035530571996716,0.5863631055801029
2.106441183785128,0.4806923918974393,-0.3421328698067625,-0.02387009721300437,0.5904996678841156
2.1089281273315095,0.485290942671367,-0.34672894234096185,-0.01906984838216097,0.596734377770432
2.111415070877891,0.48988948900438123,-0.3465372391444843,-0.009481171055952586,0.6001413684753347
2.1139020144242724,0.4849112281784663,-0.3559229725504385,0.00010753118803030759,0.6015148154165825
2.116388957970654,0.48472137405408233,-0.35573253161993756,0.004907854772676856,0.6012691007827337
2.1188759015170353,0.4797431238670525,-0.34596591866557436,0.009708202761959939,0.5915573775862323
2.121362845063417,0.4795532881113801,-0.3505651525717641,0.004931768259391234,0.5940468034374606
2.1238497886097987,0.4745750639767678,-0.35037662231042743,0.00015535765019336623,0.5899027826228799
2.12633673215618,0.469596858590813,-0.3406119267847756,-0.009409432640865134,0.5801949945397843
2.1288236757025616,0.4741954823783924,-0.33084787482934086,-0.0046089895870053965,0.5782239311652368
2.131310619248943,0.47400572913980876,-0.3162960652881601,0.004979879917186736,0.5698679069557466
2.1337975627953245,0.4738160059336163,-0.3017449036163766,0.00020356233696361414,0.5617398292581417
2.1362845063417057,0.47362631647507636,-0.2919827952396603,0.009792477341193262,0.5564815657200086
2.1387714498880874,0.4686482611361763,-0.2822213389136343,0.028958221357040514,0.5478308638515446
2.141258393434469,0.47324705354721175,-0.2772489400051721,0.019393567569968795,0.5488222470784142
2.1437453369808503,0.4730574873936839,-0.27227719721119703,0.014617338970627003,0.5460145832292327
2.146232280527232,0.4680795662991347,-0.262517709199356,0.01462953530796618,0.5368687468398499
2.1487192240736133,0.46789010050485746,-0.24797047792838578,-0.004511860270122625,0.5295572310502187
2.151206167619995,0.4772774969089847,-0.2477891186090977,0.005077185189438893,0.5377908833052372
2.1536931111663766,0.46751133914463744,-0.2571852298216255,0.019454654835540097,0.533937803739335
2.156180054712758,0.4577452440252748,-0.2617936034764128,0.019466935137891994,0.5276794110182683
2.1586669982591395,0.45755602170095594,-0.2568258380955295,0.014690832488577499,0.5249122256791932
2.161153941805521,0.44779006237713714,-0.25664714545334366,0.019491556600504722,0.5164916436998577
2.1636408853519025,0.43323577283813175,-0.24689231737346118,0.005138687304278022,0.49867369827563823
2.166127828898284,0.4378351731268326,-0.232349758931909,-0.004425759045552979,0.49568703497857297
2.1686147724446654,0.43285784674005834,-0.23696148845719556,-0.004413379375167281,0.4934938099042364
2.171101715991047,0.4183037970739004,-0.24636229768662243,-0.013977787211787884,0.4856622560002093
2.1735886595374283,0.4276918507440718,-0.24618697832884529,-0.03311898280085046,0.49459601142077536
2.17607560308381,0.4418683978203193,-0.23643553202487633,-0.05226015974665543,0.5038656230513531
2.178562546630191,0.44167982834989894,-0.23147317034815185,-0.03788249505140051,0.5000959735826116
2.181049490176573,0.4367029522794914,-0.22651149156240358,-0.009139602240201938,0.4920370480650392
2.1835364337229546,0.4413029828536805,-0.22633890054360473,0.005238098521729739,0.4959889698884109
2.186023377269336,0.445903116693121,-0.230955398819102,0.01003901031192278,0.5022656343493674
2.1885103208157175,0.43613814707583143,-0.2355725845676795,0.029205149489676785,0.4965519778344966
2.1909972643620987,0.43595009382005123,-0.235402055939943,0.034006095891395915,0.4966115451741314
2.1934842079084804,0.4549157667608483,-0.24002062101932875,0.03401865591653497,0.5154760152640299
2.195971151454862,0.4643047491486005,-0.24942828122061478,0.029242829324468644,0.5278716800715065
2.1984580950012433,0.45454023749280414,-0.25883663461029416,0.014890212554803384,0.5232828578754753
2.200945038547625,0.4543526548433458,-0.26345727922698803,0.0005376120086211245,0.5252107786094602
2.2034319820940063,0.46374200430621193,-0.2728670230424224,-0.004238165912434866,0.538080868338838
2.205918925640388,0.46355467568413966,-0.27748906071934476,-0.009013928087428624,0.5403372715879383
2.208405869186769,0.463367478679803,-0.2869002001740899,-0.009001271433941582,0.5450707917742778
2.210892812733151,0.46796881965367676,-0.2915236360141593,-0.01856540615025004,0.551657068139705
2.2133797562795325,0.47735870162409033,-0.2913593694601744,-0.013764315871572563,0.5594202968966
2.2158666998259138,0.47717191762665845,-0.30556101498657906,0.000613595845541326,0.5666224045614439
2.2183536433722955,0.4626200673158991,-0.3101865571576563,0.005414715484160837,0.5570119801839647
2.2208405869186767,0.46722197688716605,-0.3100244004323023,0.010215849449801695,0.5608171432202667
2.2233275304650584,0.47661243931108044,-0.30986294924223357,0.005440190867300743,0.5685103871485779
2.22581447401144,0.4668494408960908,-0.30491380135144563,0.005452949463617074,0.557629412224135
2.2283014175578213,0.4714518077729082,-0.299965361137545,0.010254125005348058,0.5588838627249371
2.230788361104203,0.48084273616800466,-0.29022922631058456,0.0006901039784086294,0.5616433182847232
2.233275304650584,0.47586861564586225,-0.2852822045147123,-0.00887390388852971,0.5549014522775251
2.235762248196966,0.4756830623121606,-0.27075908676575855,-0.008861092186544184,0.547415178627375
2.238249191743347,0.4802860789700908,-0.2706018906153873,-0.008848267787374908,0.5513423552566258
2.240736135289729,0.47531245844073167,-0.2800222136668089,-0.013623834241887067,0.5518332919961269
2.2432230788361105,0.46555060680530413,-0.2798664435358025,-0.027976195100347212,0.5439165939796818
2.2457100223824917,0.46536573676461257,-0.274922984413311,-0.047116947271833354,0.5425568385279178
2.2481969659288734,0.4556042377562994,-0.2699802404639633,-0.03273886442266516,0.5306000235075039
2.2506839094752547,0.45541972575960027,-0.2794034224668014,-0.02793757666387009,0.5350270154739487
2.2531708530216363,0.45523539681103903,-0.2792505146122366,-0.037501487543408984,0.5353750815912818
2.255657796568018,0.4550512535669969,-0.28388672762714995,-0.027911774046140536,0.5370683239832245
2.2581447401143993,0.4548672986631585,-0.2885236589312328,0.0008315636014426531,0.538656525676807
2.260631683660781,0.44510672807395857,-0.2835845025980306,0.005632895290684559,0.5277991085629391
2.263118627207162,0.4449231576751549,-0.2834344692768962,0.010434237397840107,0.5276367954568568
2.265605570753544,0.44952818672046385,-0.2832851563102863,0.010447186377914974,0.5314463417365355
2.268092514299925,0.4445566078025719,-0.2783481610151046,0.005671742006811087,0.5245383159873186
2.2705794578463068,0.4443736334157107,-0.27820029064373575,0.01526151734227632,0.5244961789192826
2.2730664013926885,0.45376766939323226,-0.2780531424622712,0.02485130220047793,0.532762831887482
2.2755533449390697,0.4487967016264354,-0.277906717031855,0.044017902999749836,0.5297057660123086
2.2780402884854514,0.4438259425490184,-0.27776101488847393,0.044030899596531725,0.5254249411578018
2.2805272320318326,0.4388553946137157,-0.26803922990243123,0.04883230837130981,0.5165497851021905
2.2830141755782143,0.43388506025332185,-0.2774717824815789,0.058422129103620435,0.5183242042906481
2.285501119124596,0.433703345201075,-0.27732825316516196,0.03449313501110929,0.515945082353866
2.287988062670977,0.4335218485298027,-0.28197385235048555,0.0249293590776567,0.5177566218853153
2.290475006217359,0.4381289759332525,-0.29140858044927365,0.02494239776431506,0.5267808685952962
2.29296194976374,0.442736326444923,-0.2912672278877655,0.029743847532763823,0.5307887991107398
2.295448893310122,0.42819028911783297,-0.29112660166932436,0.03933370816560888,0.5192771538325176
2.2979358368565035,0.4375864961496052,-0.2909867021323582,0.029769962844513387,0.5263472742573272
2.3004227804028847,0.4469829332341044,-0.2956359329113569,0.015417821314255065,0.5361269034892863
2.3029097239492664,0.44201439268653675,-0.305074294296384,0.005854089999919765,0.5371045696623813
2.3053966674956476,0.44183449004508046,-0.3049365765925516,-0.00849803795403048,0.5369136327068345
2.3078836110420293,0.4416548242272287,-0.3047995866826336,-0.02285015944158353,0.5371069740671724
2.3103705545884106,0.4366869941314364,-0.3046633247849879,-0.008471854754509067,0.5325289143657589
2.3128574981347922,0.436507808598144,-0.3045277910942841,0.015483262612894677,0.5324621807575236
2.315344441681174,0.43632886648798863,-0.29481617914099933,-0.0036572440751871937,0.5266050081875563
2.317831385227555,0.44572697660376676,-0.2851052957133824,-0.018009341827417202,0.5294165691676138
2.320318328773937,0.45033693112802115,-0.2801835442560203,-0.0036310142533650946,0.5303954696961293
2.322805272320318,0.4501587321856296,-0.27526252154962894,-0.003617891446348054,0.5276603349422343
2.3252922158666998,0.4547691885235791,-0.2607654210314836,0.0011836396650242165,0.52422802351551
2.3277791594130814,0.459379898909497,-0.25584585603770327,-0.0035916310894066328,0.5258325716305973
2.3302661029594627,0.45441405877235996,-0.2509270199596445,0.0012099093630233426,0.5190934116673649
2.3327530465058444,0.44944847680414685,-0.24122050948616813,0.006011454173751929,0.510124891648719
2.3352399900522256,0.45884836499899573,-0.24109153456470978,0.01081300313548006,0.518443701030137
2.3377269335986073,0.45867170877047947,-0.2409632885185795,0.01561455604156059,0.5183501299319744
2.3402138771449885,0.45370691343607195,-0.2408357712892606,0.02041611268599297,0.5140706660463982
2.34270082069137,0.4535307876156768,-0.24549738611621397,0.02042926954311497,0.5161167474121091
2.345187764237752,0.4485665266301572,-0.2501597295760565,0.034807639689473646,0.5147848005675395
2.347674707784133,0.4531793423842403,-0.2596112048639281,0.03003239967882898,0.523136157310104
2.350161651330515,0.45300402684317265,-0.2690634085123551,0.025257162589030102,0.5274899908040579
2.352648594876896,0.45282898523593784,-0.27372793703199827,0.030058734857954406,0.5299854723696336
2.3551355384232777,0.4526542194537866,-0.27360479023207995,0.015706696361620587,0.5291522691417408
2.3576224819696594,0.4524797313706429,-0.2734823712205019,0.0061430635001542555,0.528742141217063
2.3601094255160406,0.45230552284319725,-0.2781490830836457,0.0013678360727720218,0.5309887657853534
2.3625963690624223,0.4521315957110007,-0.2828165222458785,0.010957820519992723,0.5334118848750725
2.3650833126088036,0.447169548476247,-0.2826962851102879,0.020547806681431524,0.5294336663445434
2.3675702561551852,0.44699618958511245,-0.28257677469943054,0.025349391037996938,0.5294315996700044
2.3700571997015665,0.4420347141856757,-0.28245799069450905,0.030150976711867727,0.5254391367694939
2.372544143247948,0.44186193069049523,-0.2871283360761212,0.03016416018527046,0.5278205412174262
2.37503108679433,0.4464778408548415,-0.28701100384312683,0.030177344581719723,0.5316281132779233
2.377518030340711,0.44630563977678667,-0.2821059936143282,0.015825319744148914,0.5282262360719115
2.3800049738870928,0.4413453291785519,-0.2772017083082843,-0.012891914522906944,0.5213374033548921
2.382491917433474,0.4363853140862891,-0.2722981475028048,-0.04160914845329877,0.5160520755879751
2.3849788609798557,0.44100240283017633,-0.2721837140756955,-0.05596117228021136,0.5212472986145871
2.3874658045262374,0.44083138712264075,-0.27685840756425595,-0.06552479283771184,0.5246678837015968
2.3899527480726186,0.44066067194125896,-0.28632222748570735,-0.05593480035763854,0.5284798460103732
2.3924396916190003,0.4404902589272986,-0.29578677001701603,-0.05113321163363871,0.5330441697072656
2.3949266351653815,0.44510855302643443,-0.29567522799500123,-0.041543220216503585,0.535976961793265
2.397413578711763,0.44493874920759485,-0.3003528108383353,-0.03674163293761268,0.5380820096563628
2.3999005222581444,0.4447692523849324,-0.3098195179851726,-0.031940046666722566,0.5429806517480055
2.402387465804526,0.4493884674569817,-0.31449854221357576,-0.022350058272916584,0.5489616132687255
2.404874409350908,0.45400799266612946,-0.30481307628227317,-0.003183264624594173,0.5468495241390097
2.407361352897289,0.44905102291902244,-0.30470513617296424,0.02556033409021019,0.543272833734219
2.4098482964436707,0.4488827697085379,-0.3045979146060662,0.04472712440289328,0.5443125445742772
2.412335239990052,0.45829163787169036,-0.2901262009627148,0.044740299486161206,0.5442482266634275
2.4148221835364336,0.46291241894910284,-0.27086680120676343,0.04475347243528738,0.538200339007985
2.4173091270828153,0.4627451144272899,-0.26118492460365283,0.03040143310403387,0.5322357117869116
2.4197960706291965,0.4673665324184354,-0.2610805704392902,0.016049391268724733,0.5355857754326885
2.4222830141755782,0.4719882710589335,-0.24661172137954157,0.011274153386059638,0.5326512702261718
2.4247699577219595,0.47661033179072376,-0.23214358663442214,0.011287315952483112,0.5302598011225897
2.427256901268341,0.4668675060801395,-0.22725297207540196,0.030454088746381558,0.52013136136169
2.429743844814723,0.461913408621125,-0.21757466695428818,0.04004405166400815,0.5121584313842013
2.432230788361104,0.45695963749158264,-0.21747388042677773,0.049634011164812364,0.5084983127097157
2.4347177319074857,0.466371404036271,-0.21737380502914716,0.05443556374799918,0.5174136529085552
2.437204675453867,0.4614182897028435,-0.222062843240876,0.04966030591346815,0.5144753545155865
2.4396916190002487,0.4564655058075625,-0.22196418756289704,0.04009664080243347,0.5091528249516546
2.44217856254663,0.44672465037133013,-0.22665464375990574,0.020956164916180242,0.5013725178301172
2.4446655060930116,0.4465609346822801,-0.23134580761829504,0.006604088037933664,0.5029723303181652
2.4471524496393933,0.45118595673336925,-0.23124927490722103,-0.0029595900093415395,0.5070046882145613
2.4496393931857745,0.4414461045427817,-0.24073025465996656,0.006630340558968939,0.5028614920040874
2.452126336732156,0.44128339599776906,-0.25021193929126406,0.01622026628598583,0.5075432466160961
2.4546132802785374,0.445909429050053,-0.25490592451928906,0.025810186996784168,0.5142746494078692
2.457100223824919,0.44095899499716923,-0.26438901600640197,0.025823295876501007,0.514794356674267
2.459587167371301,0.4264320950841113,-0.2690844061171038,0.021047996071917652,0.5046719404443469
2.462074110917682,0.42627074714405333,-0.2737804971603208,0.03063790069145078,0.5075442753641115
2.4645610544640637,0.43568654907499504,-0.2832656914286078,0.011497379680159625,0.5198022804152701
2.467047998010445,0.43552588880079607,-0.2688095679560756,-0.017219953852142922,0.5120917012129031
2.4695349415568266,0.43536557415452426,-0.2782961588852899,-0.017206873513753607,0.516999044201557
2.472021885103208,3.0400970125637334,1.9531893073665292,-0.5056109380681946,3.648668351180205
2.4745088286495895,0.5595444727735328,2.5326749324786486,-0.4672906437787905,2.6355061897822085
2.4769957721959712,-1.7294715850778053,2.978084570097317,-0.428970356048465,3.470457496730309
2.4794827157423525,-3.78385552996834,3.2846298180259312,-0.3762848650841697,5.024733427041524
2.481969659288734,-5.550934924246561,3.447522274083098,-0.32838778433437454,6.542639138789431
2.4844566028351154,-7.001979346875544,3.5002807626654064,-0.2709139040046402,7.832820343588906
2.486943546381497,-8.127411990112137,3.44769368826286,-0.19907482094046358,8.830687867286363
2.4894304899278787,-8.912867642905406,3.2945494553805865,-0.12244734194755402,9.503065772972883
2.49191743347426,-9.353557900857087,3.069578485140485,-0.0649734837918956,9.844571043713355
2.4944043770206417,-9.468636376183238,2.7823575853978886,-0.01707643999651154,9.8689857717095
2.496891320567023,-9.286833487752425,2.437675160702788,0.054762612517794906,9.60159025172794
2.4993782641134046,-8.832091251125116,2.06426163222139,0.09787123706530565,9.070644449734914
2.501865207659786,-8.14271689183475,1.6764822111735325,0.1409798534063249,8.314704222281076
2.5043521512061675,-7.242652425465809,1.2791253021528814,0.1984536713409195,7.357415276738303
2.506839094752549,-6.179781884216227,0.8913445197283747,0.2176202541854817,6.247524130755208
2.5093260382989304,-5.006777703616062,0.49398625192067325,0.24157523166336325,5.036884352758833
2.511812981845312,-3.7763123192071193,0.1301461299285953,0.25595339365486147,3.787213340578305
2.5142999253916933,-2.502750939980371,-0.190599038277242,0.25117793336129246,2.5225345617399357
2.516786868938075,-1.2339775981805685,-0.47303765467329173,0.2416140605862367,1.343444338193162
2.5192738124844567,-0.02266472938410191,-0.741111734503543,0.24162698513398162,0.779835811515374
2.521760756030838,1.0976688441016418,-0.9517256465138217,0.24642830352826728,1.4735621827135106
2.5242476995772196,2.1270231232010968,-1.1144561959600683,0.23686440233260875,2.4129535272023617
2.526734643123601,3.027090882264824,-1.2436685914050902,0.23687729799402746,3.281173818779387
2.5292215866699825,3.769141702271866,-1.329786024796704,0.24167858703839684,4.004143926357088
2.5317085302163638,4.367540794073532,-1.3775968980305928,0.2129610427501163,4.584597932980513
2.5341954737627455,4.807922948588839,-1.3918896129889458,0.16508987493753402,5.008066936565505
2.536682417309127,7.273800080746798,1.040691105215132,-0.7734243208474076,7.388463356559623
2.5391693608555084,5.33434653222633,1.730292352773009,-0.7494694597952787,5.657814862922403
2.54165630440189,3.485873021646706,2.328913276668302,-0.6967841895171389,4.249783050938869
2.5441432479482713,1.757109969765538,2.7982466518272844,-0.6249453168032097,3.3627632118997495
2.546630191494653,0.1911530072893619,3.1718113029937554,-0.543529648442961,3.2237169374390238
2.5491171350410347,-1.2072094616468654,3.4304536183999983,-0.45732558790489897,3.6653121839259364
2.551604078587416,-2.414035419637967,3.574173599572061,-0.3423911187349784,4.326605552316175
2.5540910221337976,-3.434113269212221,3.6269132646498123,-0.22745666100177253,4.999937030374111
2.556577965680179,-4.24828939630601,3.574307405222579,-0.12209902149196594,5.553246293191429
2.5590649092265605,-4.866140606788291,3.416356022852617,-0.02152979703059188,5.94569393864799
2.561551852772942,-5.3020321098587955,3.1913663456764776,0.06467420559712878,6.188743523459327
2.5640387963193234,-5.565540711407112,2.8945499719598575,0.13172458292693,6.274632604085284
2.566525739865705,-5.647089604052167,2.525906903300087,0.1939865447765765,6.189301855612428
2.5690126834120863,-5.575409206985448,2.1189559645484257,0.25624849432385055,5.969993760120415
2.571499626958468,-5.3792299394086776,1.702427577247191,0.31372202810664085,5.65091106882083
2.5739865705048492,-5.068128607252399,1.2523797264265029,0.37598395262448214,5.234094620031758
2.576473514051231,-4.646893613137228,0.787966027010838,0.4047270411744748,4.730572342687156
2.5789604575976126,-4.1490437796152335,0.3427053038962189,0.39516289029665685,4.181885330846611
2.581447401143994,-3.5937327192878388,-0.08340244125217966,0.39038712973487577,3.6158364089031214
2.5839343446903755,-2.990537238125692,-0.4759919967974273,0.39039975935087057,3.053243083302222
2.5864212882367568,-2.363399352070265,-0.8350633610527292,0.3568935524445891,2.531868938573904
2.5889082317831384,-1.7314726737525508,-1.1654049356409069,0.30423371884012695,2.1091999525050458
2.59139517532952,-1.1186992191336387,-1.45265150889294,0.2850926949247885,1.855522081215588
2.5938821188759014,-0.5250789875827961,-1.6728610624886875,0.26116325400064966,1.7726754702516652
2.596369062422283,0.04459961820070535,-1.8547640146210536,0.22765699261267436,1.8692154456247958
2.5988560059686643,0.5663945822266964,-1.99836036355078,0.18457391062685247,2.08526125314567
2.601342949515046,1.0355175017766554,-2.074919687606542,0.1271256045895548,2.322444644301615
2.603829893061427,1.4423915708021902,-2.0988071949897353,0.06488888100879286,2.5474881063786077
2.606316836607809,1.7965935965266446,-2.0700228839308323,0.012228949713586346,2.74096567623328
2.6088037801541906,2.074181562921701,-2.0077203659316654,-0.035642592747588964,2.8869431269352814
2.611290723700572,2.2847322771917993,-1.916688042523334,-0.07872574650523312,2.9832687398148963
2.6137776672469535,2.4330341432116915,-1.7873491052662729,-0.0978668984078972,3.020571120820362
2.6162646107933347,2.5238755648467164,-1.6244919556723676,-0.10743125854560631,3.003408639560601
2.6187515543397164,2.5572565426326856,-1.4376933985641407,-0.13614924696864072,2.936845237761553
2.621238497886098,2.542753883736686,-1.2413186420750981,-0.15050204056250216,2.83357021240601
2.6237254414324793,2.4660023787150918,-1.0353676843686512,-0.16485484941511963,2.679613982468198
2.626212384978861,2.3413672380368205,-0.8198405235986317,-0.1839960769731146,2.4875678048704812
2.6286993285252422,2.188002075482077,-0.6138907711913708,-0.1887721100808406,2.2803179319586526
2.631186272071624,2.001118488220313,-0.42230682860305535,-0.19833656214444595,2.0547884692262604
2.633673215618005,1.7902932833728422,-0.2211466773591062,-0.18874741668659034,1.8137479099099594
2.636160159164387,1.5698916713722353,-0.029563928858918676,-0.15521627051046316,1.5778231765203168
2.6386471027107685,1.3447020560014178,0.13328780550685515,-0.13126194698107874,1.3576520015219427
2.6411340462571498,1.1147244377140146,0.2721969309577821,-0.11688444622054739,1.1534139391510516
2.6436209898035314,0.8751704136343843,0.38237504608136197,-0.09771855838937249,0.9600431476868111
2.6461079333499127,0.6451935974795238,0.46861055611418756,-0.08334109024890068,0.8017582982757916
2.6485948768962944,0.4391591996372264,0.5356918663012298,-0.06896363859886279,0.6961196461069739
2.651081820442676,0.2474904138848606,0.5788305752551199,-0.04500939691796546,0.631127709442385
2.6535687639890573,0.08455245059252581,0.5884498782763758,-0.025843575285804832,0.5950548432944951
2.656055707535439,1.2288489966840184,4.5772317597361205,-0.7728223017500238,4.801913654895364
2.65854265108182,-0.6674901622928263,5.6115682137791305,-0.6578884475216427,5.689293290386464
2.661029594628202,-2.3387739615020444,6.353811488464351,-0.5333778037328667,6.791559169694131
2.663516538174583,-3.761060383967954,6.808749989085146,-0.3897135638589635,7.7882301126492015
2.666003481720965,-4.905619009403253,7.009902540864505,-0.26999135789793804,8.560182640059542
2.6684904252673465,-5.753296224169927,6.952480742470589,-0.17421118596431562,9.025949005771494
2.6709773688137277,-6.318457237880693,6.660426612501074,-0.08321943489066896,9.181019006721582
2.6734643123601094,-6.620255663477601,6.162470572881242,0.002983895209901277,9.044547391388091
2.6759512559064906,-6.653903097309088,5.511285062145516,0.08439880422491974,8.640359519300246
2.6784381994528723,-6.462495168935829,4.726023695593816,0.1466600820816666,8.00753725932695
2.680925142999254,-6.089127507926646,3.8402052984932884,0.19934453530973073,7.20169346654818
2.6834120865456352,-5.548165323937525,2.896925502760095,0.25202897043930683,6.264011049816667
2.685899030092017,-4.873127439913598,1.9440683436366362,0.2807713707591457,5.254103665993556
2.688385973638398,-4.092744275488552,1.0055758397714167,0.29514854280083824,4.22479007009742
2.69087291718478,-3.245323056945064,0.09581320317905995,0.3191025030576,3.2623807750322946
2.6933598607311615,-2.3835362205350363,-0.7517007408378631,0.3334796381405205,2.521409841226327
2.6958468042775428,-1.5073837659959821,-1.4986587636491877,0.33827994794261507,2.1523515584194883
2.6983337478239244,-0.6647497262760088,-2.1402724598610665,0.3287150290372658,2.2651074966408853
2.7008206913703057,0.11563547894901527,-2.676541827392844,0.30478488131885584,2.696319999861986
2.7033076349166874,0.8146182366355081,-3.0835248475558528,0.26170110136213864,3.200033722229759
2.7057945784630686,1.4465637569742218,-3.3468563082959113,0.22819410898470416,3.6532268479724657
2.7082815220094503,1.9875300235843236,-3.504843434075487,0.19947550076267895,4.034103812178818
2.710768465555832,2.403998213436594,-3.528755802866676,0.1659684699525208,4.273039955288267
2.713255409102213,2.724698746657216,-3.452112235799427,0.12767301645202345,4.399700279305567
2.715742352648595,2.9496316234425564,-3.2892779407162394,0.07501233351898406,4.418744497645774
2.718229296194976,3.059643230699226,-3.030676108852068,0.02714003433377954,4.306640332950262
2.720716239741358,3.0786755852084475,-2.709825561318707,0.003209732077447569,4.101391012097582
2.7232031832877395,3.0115170904619237,-2.3363031026204313,-0.011143783310492594,3.8115182745678364
2.7256901268341207,2.867744553263539,-1.9196855372560058,-0.0446509318507573,3.4512526842347717
2.7281770703805024,2.6569347804088066,-1.5030684929602027,-0.059004487079075574,3.053194859711891
2.7306640139268836,2.4078181919664314,-1.072086757618767,-0.07335806237420783,2.6367290089695063
2.7331509574732653,2.120394788074848,-0.6506823456739759,-0.0972884644736478,2.2201186043962626
2.7356379010196465,1.8138181821458277,-0.25800886824275215,-0.10685367687201541,1.8351900943051567
2.7381248445660282,1.4880883743014905,0.09635687020440198,-0.11163050630546678,1.4953772186658643
2.74061178811241,1.1623589779373265,0.41720327516297306,-0.11161895286885226,1.2399982891269474
2.743098731658791,0.850995203120022,0.6805883322121988,-0.11160741997668033,1.095376432953768
2.745585675205173,0.5587854532677379,0.8960888501784798,-0.1020191010818543,1.0609544321898896
2.748072618751554,0.28572972847014455,1.054128024612162,-0.09243080291787109,1.0960706288065583
2.7505595622979357,0.050981642090093704,1.1594942610295647,-0.08763092889724078,1.1639180593538756
2.7530465058443174,-0.14067040247879548,1.207399158311445,-0.07325426915055466,1.2177713568537871
2.7555334493906987,-0.29880321181156533,1.2026311219839867,-0.04451242044838821,1.2399944881036946
2.7580203929370803,-0.4329935924916726,1.149978557578284,-0.03492420612313296,1.2292899715697703
2.7605073364834616,-0.5240879311886121,1.0542298706301811,-0.020547609662783017,1.177493517608204
2.7629942800298433,-0.5577210179002725,0.9297502733208636,-0.020536244437499462,1.0843938592059315
2.7654812235762245,-0.5722000791560516,0.7717513645547998,-0.010948093933967229,0.9607980849477034
2.767968167122606,-0.5435830983292874,0.5993867598427074,-0.010936771521022237,0.8092383367310957
2.770455110668988,-0.457504865441997,0.4222332680590717,-0.025290680605904114,0.6230820596714798
2.772942054215369,-0.3905798336101487,0.23071408480155498,-0.015702594712394102,0.4539032571258464
2.775428997761751,-0.3092891795905348,0.04398282559403466,0.01782748607389628,0.31290909992957433
2.777915941308132,-0.20884450006982358,-0.13796050731659415,0.03699233510549327,0.2530169157290154
2.7804028848545137,-0.09403419838330163,-0.3007507017183033,0.05136875893870041,0.3192681701086788
2.7828898284008954,0.0303533221257809,-0.45396456199652135,0.060956757489847746,0.4590434336709774
2.7853767719472766,0.14516444814517915,-0.5880252792512715,0.05617952403529003,0.6082783778539739
2.7878637154936583,0.2647643895969921,-0.6885676412584267,0.060979075094213187,0.7402324136284543
2.7903506590400395,0.3795763397937163,-0.7795336623523417,0.051413393983331446,0.8685587289023896
2.792837602586421,0.4752350887196074,-0.8465581303010523,0.03227088394187305,0.9713652595597273
2.7953245461328025,0.5613174429525418,-0.8752758328688159,0.022705158170651885,1.0400483544405683
2.797811489679184,0.6330349991015254,-0.8848403810583678,0.027504619910198258,1.0883162748738944
2.800298433225566,0.6999645637285764,-0.8752517725875553,0.0275156558001175,1.1210589490332363
2.802785376771947,0.7477409267862354,-0.8512984084909663,0.022738265761912402,1.1332883581067308
2.8052723203183287,0.7763640881800727,-0.8081918831590638,0.02274925635834535,1.1209071531954495
2.80775926386471,0.8049876610890105,-0.7602974042601276,0.0227602241918774,1.1075086027817158
2.8102462074110917,0.8096696288012659,-0.6932497595372094,0.017982765865614425,1.0660598091897826
2.8127331509574733,0.795198394519049,-0.6214141566518787,0.0036284779832982395,1.0092121712432496
2.8152200945038546,0.7759391680773283,-0.5447905933016646,-0.005937429569433661,0.9481105611564551
2.8177070380502363,0.756680352662566,-0.4681674705011152,-0.0107149568672682,0.8898655779619892
2.8201939815966175,0.7278451414924344,-0.39154478594142805,-0.0011272973436060596,0.8264787596734483
2.822680925142999,0.6846451310970978,-0.3197109406311207,0.00846033896719156,0.7556623706587738
2.825167868689381,0.6366571279597628,-0.25266593225534706,-0.001105661288894666,0.6849624766301605
2.827654812235762,0.5934579385558668,-0.1904097584964659,-0.015460088223072432,0.623447844886424
2.8301417557821438,0.540682352751417,-0.1329424170339406,-0.020237731945918824,0.5571540708080205
2.832628699328525,0.4879071770061619,-0.07547550222416888,-0.015438592528315809,0.49395173342075444
2.8351156428749067,0.4542860244127188,-0.041951028342784635,-0.020216283321762063,0.4566665948666228
2.837602586421288,0.4206652814933713,-0.022792186420564242,-0.015417191114629247,0.4215642923654612
2.8400895299676696,0.37267973808293764,-0.008422167485739429,0.003747087344411426,0.37279372412406764
2.8425764735140513,0.3438482172115811,0.0011590307953275314,-0.0010306745755048752,0.34385171531060854
2.8450634170604325,0.3293823153392068,0.005951410758695541,-0.0010200570202467674,0.3294376564155348
2.847550360606814,0.3149168222773211,-0.008410235218150763,-0.0010094633772492756,0.3150307223525675
2.8500373041531954,0.30524014111094144,-0.03713750147419104,-0.010575700353649964,0.30767285092959235
2.852524247699577,0.3003522715970318,-0.0562883690649274,-0.010565154734090143,0.3057637814392704
2.855011191245959,0.3050416168051403,-0.09459325556714715,-0.0009778265838402689,0.31937318003663634
2.85749813479234,0.30973136983615435,-0.12811014203208382,0.003821074071504782,0.33520192505282725
2.8599850783387217,0.304844723783258,-0.16641583275116956,0.008619950488228056,0.3474173837837934
2.862472021885103,0.3047468883334954,-0.19514511541228785,0.02299560924353372,0.3626031991898367
2.8649589654314846,0.3238030731662235,-0.22387479430299662,0.018217630352751257,0.39408150904574196
2.867445908977866,0.3332828580703098,-0.24781646374808508,0.01822803035525311,0.41571952597725337
2.8699328525242476,0.33318624274883,-0.2717585247112009,0.03260361583009619,0.43119457774360653
2.8724197960706292,0.34745524349877066,-0.2957009748340069,0.03740237011476921,0.4577806789749587
2.8749067396170105,0.36651305336727324,-0.32443221507680065,0.04220109978955833,0.4912932050127392
2.877393683163392,0.3807828653938674,-0.35316383975773835,0.04699980479474597,0.5214683786585126
2.8798806267097734,0.39505308257138716,-0.36274223323251364,0.05658688839152681,0.5393059815702972
2.882367570256155,0.40932370456474954,-0.35316739313663836,0.04223193059952024,0.542269894661046
2.8848545138025368,0.4188063277109646,-0.35316973702613064,0.042242157923329415,0.5494651974309835
2.887341457348918,0.423500951659769,-0.35796085921351395,0.047040763665046725,0.5565086398536845
2.8898284008952997,0.4425611893345812,-0.353175547369454,0.037474134486746635,0.5674483979363086
2.892315344441681,0.4472566204481485,-0.34839060576499836,0.032695883613607535,0.5678763241457389
2.8948022879880626,0.4423756479478419,-0.348394435349781,0.02312920434954968,0.5635688569942531
2.897289231534444,0.4566486913750778,-0.338821823791136,-0.0008027100008973775,0.5686201719558217
2.8997761750808255,0.4709221370606273,-0.3196727687163574,-0.010369439570105499,0.5692678310861488
2.902263118627207,0.4660423713277627,-0.31488928435339236,-0.01514779105232833,0.5626546088384604
2.9047500621735884,0.45637460373445093,-0.30531775504652137,-0.0055609578599717935,0.5491153200674199
2.90723700571997,0.4658608504718148,-0.2909581784204973,0.004025849993592345,0.5492715185227316
2.9097239492663514,0.4705590945203924,-0.28617576206029405,-0.010329384145004283,0.5508440109536062
2.912210892812733,0.46568093213453177,-0.2861821002689786,-0.015107837084791242,0.5467971944052299
2.9146978363591147,0.45601476620177306,-0.27182357738809415,-0.01509791219669232,0.5310983629901508
2.917184779905496,0.45592580624287293,-0.24788859436024024,-0.024664819491651002,0.5195435009050399
2.9196717234518776,0.44626043852900377,-0.2478959720494096,-0.024654945737843548,0.5110857641372497
2.922158666998259,0.4413838725661472,-0.23832688483484432,-0.024645097624709678,0.5022218711222177
2.9246456105446406,0.4460845112122975,-0.22875813697826874,-0.01984687188016565,0.5017126415595987
2.927132554091022,0.4364203373962324,-0.22397812942082407,-0.005471865231525541,0.49056992841082786
2.9296194976374035,0.4411217705628352,-0.2191984564628413,-0.01025049764771424,0.492687986947326
2.932106441183785,0.44582360026687107,-0.21920751904514013,-0.0006639459329775832,0.4968008250647761
2.9345933847301664,0.4409490193761255,-0.23358212142878543,0.013710983226198792,0.49918397029649064
2.937080328276548,0.436074834032361,-0.24316864795296667,0.00414386986268056,0.4993089463258834
2.9395672718229293,0.43598944704977427,-0.2336018862772442,-0.010211672786958559,0.49473317805880207
2.942054215369311,0.4311160512743897,-0.23840065726442905,0.0041631784753910495,0.49265937026058065
2.9445411589156927,0.4262430495059548,-0.2623533618556504,0.00896119704372822,0.50059237587238
2.947028102462074,0.4261588445370227,-0.2575759644688622,0.004182382875146828,0.4979701101227956
2.9495150460084556,0.421286629192035,-0.26716409260826746,0.008980349208576044,0.49893859640951216
2.952001989554837,0.41641480624921384,-0.28154093725503326,0.02814349932258864,0.5034467665683567
2.9544889331012185,0.4211201817999649,-0.2815528827501437,0.023364606613535344,0.5071095918500822
2.9569758766476,0.4018839320457669,-0.2815651366772931,0.03295089760334413,0.49180827837840974
2.9594628201939814,0.40180168630601043,-0.2863660999801305,0.032960355650450524,0.4945063431148157
2.961949763740363,0.40650823404926506,-0.286378963642012,0.013816174074827714,0.4974462200405093
2.9644367072867444,0.39684996141674855,-0.28160372528763133,0.009037176079816689,0.48669520289791657
2.966923650833126,0.39676888442546565,-0.2864055925033986,0.004258151666221011,0.48935860360380284
2.9694105943795073,0.4014765991635464,-0.262477336353133,-0.0053093025239512315,0.479693652728753
2.971897537925889,0.40139629839183644,-0.2529145843468541,-0.0005115732465785783,0.47443127747356284
2.9743844814722706,0.4013163848251643,-0.2625057374330817,-0.0005022738194355725,0.4795459886115357
2.976871425018652,0.4108136644917402,-0.2577319699988574,0.009083805682440271,0.48505272993593224
2.9793583685650336,0.410734523491006,-0.2529584896354522,0.033035068543970425,0.48351025017029137
2.981845312111415,0.40586736451708194,-0.2673389072556178,0.033044288167833,0.48712455685706146
2.9843322556577965,0.40100059025723855,-0.25298918728896336,0.004323061199469791,0.474155766736964
2.986819199204178,0.4009226033919209,-0.24821655393201913,-0.00045617587134749726,0.4715406659587994
2.9893061427505594,0.4008449999541508,-0.2338673915389351,-0.005235439679278642,0.4641099876560556
2.991793086296941,0.41034458593111584,-0.2338837143480874,-0.019591536897488382,0.47272412605899683
2.9942800298433223,0.41505615070169594,-0.2339003100368524,-0.029159257596989008,0.4773166931652948
2.996766973389704,0.41497969359899184,-0.22912877292478706,-0.024361795168550415,0.4746594966345519
2.9992539169360852,0.4292688272306654,-0.22914590729400697,-0.019564359603927883,0.48699315911858176
3.001740860482467,0.4291931309945931,-0.21958650082676234,-0.014766950933376322,0.4823308386140704
3.0042278040288486,0.4243294108445197,-0.21960416444923325,-0.00039276254595144167,0.47778822946313837
3.00671474757523,0.42904287604790026,-0.22919889580817632,0.00440459224797074,0.48644560205639853
3.0092016911216115,0.43375671926405523,-0.2244286759506653,0.0044135167401524455,0.4883979946986891
3.0116886346679927,0.4384709397863885,-0.23402392244916026,-0.0003659890973981561,0.4970151861499493
3.0141755782143744,0.4383971335814798,-0.24840782631563618,-0.0003571186514914615,0.5038835405538152
3.016662521760756,0.4335352999297407,-0.24363836860320465,0.014016934691621685,0.4975027491370781
3.0191494653071373,0.4334622447457588,-0.23886916024993576,0.014025750983755358,0.4951209095051429
3.021636408853519,0.433389563976767,-0.24846540887579538,0.02361134680072219,0.5001190550954167
3.0241233523999003,0.4381056602042386,-0.24848509554052267,0.03319691547671333,0.504760782357289
3.026610295946282,0.4380337260423567,-0.24850502454838574,0.03320565034646883,0.5047087354021883
3.029097239492663,0.4283853574192975,-0.24852519356543112,0.02842595470623266,0.49607138719034694
3.031584183039045,0.42831416685851353,-0.2437571969398613,0.018857828532491183,0.49317969776607967
3.0340711265854265,0.4234549436350178,-0.2485662423036623,0.009289675122596819,0.4911064692770626
3.036558070131808,0.418596090298857,-0.25816392401016985,0.004509897774450877,0.4918248038191584
3.0390450136781895,0.4185260093938955,-0.25818502977476143,-0.0002699068541112126,0.4917556334081832
3.0415319572245707,0.41845629681722485,-0.262994767237418,-0.00026133546408502184,0.49423879677386096
3.0440189007709524,0.42317535510045,-0.26301632743936,0.004535611923778049,0.49827255738160386
