Time (s),Acceleration x (m/s^2),Acceleration y (m/s^2),Acceleration z (m/s^2),Absolute acceleration (m/s^2)
0.0,-0.14523129371364008,0.10376384949109418,0.03185300905132671,0.18131100165343508
0.002486943546381497,-0.1455475756536443,0.10411229196984273,0.022355119704853266,0.18034194602167683
0.004973887092762994,-0.14107535972845808,0.10924931305445496,0.02722250083572142,0.18049580071883944
0.007460830639144491,-0.1413914492654722,0.10959810381943003,0.01772473199222624,0.17977055490374783
0.009947774185525988,-0.15128424427168097,0.11473546862065831,-0.0013497840357228341,0.18987620240935615
0.012434717731907486,-0.1468117248321914,0.1150845985329747,0.003517775463109274,0.18657578115046952
0.014921661278288981,-0.151915904235286,0.11543389459239473,0.008385393355656134,0.19098099591876092
0.01740860482467048,-0.15701997252718358,0.12536016115553883,0.008464665789571058,0.20110219378293537
0.019895548371051976,-0.1573355230746063,0.12570978265750066,0.008543995552599881,0.20156987904188184
0.022382491917433474,-0.16243935920547248,0.1260595634556445,0.018200188752283353,0.20641900549205958
0.02486943546381497,-0.16754307428709114,0.11683269462653367,0.02306803489409326,0.2055546022572633
0.02735637901019647,-0.17264666500747994,0.11718278716910202,0.003993920162699283,0.20869745553118293
0.029843322556577963,-0.17296172473480909,0.11753303216095867,0.004073473906345271,0.20915631728889875
0.032330266102959464,-0.18285346011903103,0.10830662068031449,0.023306695589996096,0.21379643126117973
0.03481720964934096,-0.19274506120913737,0.0990803570872778,0.03775156807659741,0.21998353727790304
0.03730415319572246,-0.18827131473447822,0.10421944906296954,0.04261968750989631,0.21937233024763872
0.03979109674210395,-0.18379742734701598,0.09978187772675895,0.02833424671288931,0.2110467885537384
0.04227804028848545,-0.1841117990588943,0.09055604412069096,0.02362566507065189,0.20653262146576706
0.04476498383486695,-0.17484921660177344,0.09090715592836363,0.018917135405331464,0.1979752953203539
0.04725192738124844,5.398538174892865,4.0847867733730086,-0.10550142582851052,6.7705854961406775
0.04973887092762994,5.048670813301011,3.1130922818746374,-0.18682430627827173,5.9342500670229
0.05222581447401144,4.564728316184626,2.174916745564839,-0.2346283131230038,5.061823574171172
0.05471275802039294,3.9993831233702584,1.284625372131024,-0.2824322701436639,4.2101182526670335
0.05719970156677443,3.3909424647223116,0.4326413526601507,-0.3350245811997219,3.4348087005096337
0.059686645113155926,2.7394063435414027,-0.31399766863468015,-0.36846323022912664,2.7818531239038795
0.062173588659537427,2.0830819896892945,-0.9600800973438643,-0.3923250244123473,2.32699447654348
0.06466053220591893,1.4411230197450884,-1.5199711456971712,-0.406609964289558,2.133654026511967
0.06714747575230041,0.8470482602473379,-1.974517202680889,-0.392164437120023,2.184033398236499
0.06963441929868192,0.28649250452990904,-2.3189298672409104,-0.35856525008517615,2.3639125878302716
0.07212136284506342,-0.2213906308327549,-2.5532091416420424,-0.32975442032770097,2.5839173187450633
0.07460830639144492,-0.657447529267902,-2.691720238108596,-0.27221312514681095,2.784186610032822
0.0770952499378264,-1.0264665908060966,-2.7296747555821463,-0.20509497836543922,2.9234948064695208
0.0795821934842079,-1.3236594088391058,-2.6910147129246105,-0.14755359380679245,3.0025666485242777
0.0820691370305894,-1.529872366799644,-2.570951709074453,-0.10437737533340474,2.993525811742983
0.0845560805769709,-1.6786242846458208,-2.3838509562497614,-0.06598951684710741,2.916312652468749
0.0870430241233524,-1.7651267557752717,-2.1488660699872617,-0.022813212249984005,2.780974342447157
0.0895299676697339,-1.7845913735877226,-1.8659970525407115,0.02515153791503799,2.582120053489734
0.0920169112161154,-1.7418065381256802,-1.563974326083963,0.0635395231438789,2.3417820094766513
0.09450385476249688,-1.660714262715134,-1.2475862961875328,0.10671595285411684,2.079863390565342
0.09699079830887838,-1.541314544082797,-0.9311981750606633,0.13552721322094996,1.8058649425028734
0.09947774185525989,-1.4027609922389914,-0.6243867715903946,0.15955011034126443,1.5437141832587744
0.10196468540164137,-1.235476797274594,-0.32236368470088017,0.178784643671138,1.2892964013873738
0.10445162894802287,-1.0442503592439076,-0.03949412659552065,0.18844240934617318,1.0618517506962843
0.10693857249440437,-0.8673889014459828,0.21464509384463204,0.2028886167830688,0.9162967933390287
0.10942551604078588,-0.6857388073387487,0.4256887644203,0.19818124883587807,0.8310983355982609
0.11191245958716736,-0.5136652836250134,0.608002092856212,0.19347391824132742,0.8191158193801114
0.11439940313354886,-0.3511683270494051,0.7615850769183359,0.18876662445478232,0.859630072656511
0.11688634667993036,-0.21261314432031914,0.8816493110545416,0.19842457689242643,0.9283760927208644
0.11937329022631185,-0.08363452222716689,0.9634063897149692,0.18892895176722746,0.9853125158383308
0.12186023377269335,0.026190735836120194,1.011644713992689,0.16027974853425064,1.0245977648732159
0.12434717731907485,0.11207422979289683,1.0311526849831205,0.14599578989066941,1.0474498858644121
0.12683412086545634,0.18359276952436301,1.021930300463766,0.1221350586898513,1.0454495763013933
0.12932106441183785,0.23595795494762598,0.9935543648551897,0.07912074774603362,1.0242492495236482
0.13180800795821934,0.26438138597656546,0.9316596659788736,0.040894873115600916,0.9693088471224727
0.13429495150460083,0.2784398724827104,0.85539981490101,0.01703424089395611,0.8997376124647137
0.13678189505098234,0.2685566110529837,0.7743516160497252,0.0027504472155417403,0.8196039553216969
0.13926883859736383,0.24909681487244806,0.6741498572541977,-0.011533315105538122,0.7187908392382151
0.14175578214374532,0.22006048716174093,0.5883133595493719,-0.03539385325518829,0.6291199821038759
0.14424272569012683,0.18144763113794612,0.4976885074494497,-0.04967755449742661,0.5320572833010351
0.14672966923650832,0.14283505665515292,0.38791008879168,-0.054384419377518256,0.41693375429087004
0.14921661278288983,0.0946459602825157,0.2924969246192082,-0.07824486836257094,0.3172295196455877
0.15170355632927132,0.05124555518700041,0.19708380277487247,-0.08774007875559064,0.22173509794948112
0.1541904998756528,-0.006519768710428975,0.1112475277059275,-0.07808164778142768,0.1360708033524515
0.15667744342203432,-0.054707991609880546,0.03977650054221238,-0.06842318926642399,0.09621261440559789
0.1591643869684158,-0.09810751363727982,-0.026906087544429802,-0.05876470375562448,0.11748324215190808
0.1616513305147973,-0.14150673492256766,-0.07922343209793326,-0.044317788473657416,0.1681207143602998
0.1641382740611788,-0.17054044231850957,-0.1219639386201492,-0.020294040645074674,0.2106444703182031
0.1666252176075603,-0.20436224592420088,-0.15033920596924943,-0.010635477416204964,0.2539269930324828
0.1691121611539418,-0.23818373924138103,-0.17871444628155997,0.003811513949534273,0.2978000580713816
0.1715991047003233,-0.25285130581512427,-0.1879360484480821,0.013470126266962978,0.31533345122321116
0.1740860482467048,-0.257941749116716,-0.17321561131758,0.00876355235102011,0.31082856012812415
0.1765729917930863,-0.26303187262184335,-0.16328355697779084,-0.0007314017019766084,0.3095929923992511
0.1790599353394678,-0.27769847981065604,-0.13898627431007915,0.013715683485699515,0.31084039330374325
0.18154687888584928,-0.2875763575662743,-0.11947737875501563,0.03773959740910193,0.31368659945534205
0.1840338224322308,-0.27830029277641005,-0.10954527578890927,0.03782151628221264,0.3014658977413356
0.18652076597861228,-0.26423549225530835,-0.07567114432220512,0.0426918594832415,0.27815303758286364
0.18900770952499377,-0.25974716282193483,-0.04658540642600428,0.052350626468703254,0.26903415541077014
0.19149465307137528,-0.2504700913781676,-0.012711257605468873,0.052432606734377885,0.25621479464281943
0.19398159661775677,-0.23640427479167248,0.025951299997087673,0.047726203057496974,0.24256595303051265
0.19646854016413826,-0.2319149198959642,0.05982545760224145,0.05259662485613248,0.24521423366910375
0.19895548371051977,-0.21306000696703659,0.08891121307474226,0.04789025830639204,0.2357822029328525
0.20144242725690126,-0.1942047428484232,0.1084201609626132,0.04318390950648343,0.22657286573693083
0.20392937080328274,-0.18013752774813518,0.13750591241906296,0.038477577914243,0.2298650231234753
0.20641631434966426,-0.17085835855903836,0.15701485203845245,0.033771262987762896,0.23449251726640377
0.20890325789604575,-0.1520020222182923,0.1765237843407106,0.02427656086508634,0.23421061590767434
0.21139020144242726,-0.14751053223084737,0.20082111052917773,0.01478187432516087,0.249613660206658
0.21387714498880875,-0.1430186755445107,0.21554161852970832,0.019652412787840134,0.25942002274553905
0.21636408853519024,-0.12894964243282087,0.2302621128735094,0.024522965751394565,0.26504721609133947
0.21885103208157175,-0.12445704309667022,0.24019418813468096,0.019816726034699528,0.27124805293454046
0.22133797562795324,-0.13432927778155662,0.2405494388911844,0.02947570969913116,0.2770869987611214
0.22382491917433472,-0.12504752017608478,0.24090466968581614,0.024769496282949888,0.2725536096343829
0.22631186272071624,-0.1301305904588999,0.23168307178405056,0.024851698527868393,0.26688691096454226
0.22879880626709773,-0.14000167893156445,0.23203825637719921,0.03451071921500315,0.27319079828384496
0.2312857498134792,-0.13550716926080741,0.22760501141837963,0.02022773456332594,0.265660300740254
0.23377269335986073,-0.13580067168170912,0.21359493150536002,0.0155215672765312,0.25358536283607275
0.23625963690624222,-0.15524739311495095,0.20916162784152936,0.00602700685555746,0.2605506945719844
0.2387465804526237,-0.16511691060437744,0.1999398883921777,-0.0034675439170310796,0.2593290901511571
0.24123352399900522,-0.16540922112174383,0.19071811440796926,-0.003385278937978242,0.252477859839078
0.2437204675453867,-0.17527793492615135,0.17670790050309382,0.015850607896359392,0.2493978314718706
0.24620741109176822,-0.18514624236098481,0.16748605125686078,0.01114448616659125,0.24990979972367164
0.2486943546381497,-0.1902257370961593,0.15347575797154356,0.011226775258434074,0.2446766842619466
0.2511812981845312,-0.1905164161281806,0.13467701859428116,0.011309071315844577,0.23358574281363423
0.2536682417309127,7.312621323149482,3.9513892939671114,-0.16099114572772244,8.313472566699255
0.2561551852772942,6.900528792321336,2.6301447597801246,-0.242311693789933,7.388753212010938
0.2586421288236757,6.3639381965201185,1.332842193290241,-0.3092670265301969,6.509364314204675
0.26112907237005717,5.7028495387235925,0.09300041570403117,-0.3427035312012112,5.713894263017018
0.2636160159164387,4.965146855106142,-1.0558617517674471,-0.371351628258342,5.089737651728815
0.2661029594628202,4.174772165233845,-2.085013891229186,-0.3616924949924165,4.680472948235445
0.26858990300920166,3.3125718587833246,-2.9465719715003944,-0.3280913418969149,4.445566626591334
0.2710768465555832,2.4360067785495096,-3.63574759127859,-0.32322060602731817,4.388309598557045
0.2735637901019647,1.5881725573594618,-4.133387139295946,-0.2991962547120419,4.438096406577998
0.27605073364834615,0.7403387782287456,-4.4394906175613045,-0.24644148184149905,4.507539445632874
0.27853767719472766,-0.05961052270896777,-4.573211641360209,-0.20805191782901922,4.578329797164301
0.2810246207411092,-0.8068869392098474,-4.529761809372086,-0.15529714328272703,4.603686108438008
0.28351156428749064,-1.4823368550762108,-4.318717930232674,-0.09775396537269998,4.567078163396869
0.28599850783387215,-2.0811718640783248,-3.9688104258543624,-0.04978759458880333,4.481652745224296
0.28848545138025367,-2.579449946712427,-3.4991929115042444,-0.00660962813908661,4.347178021050027
0.2909723949266352,-2.9819595034038313,-2.9385958090853697,0.05093354672989037,4.186886914557999
0.29345933847301664,-3.307854144546063,-2.3301147504570277,0.09411150956900372,4.047244836690924
0.29594628201939815,-3.518826640696229,-1.66896133427066,0.13250106649221394,3.896810156420965
0.29843322556577967,-3.6340306022625772,-0.9982311923760885,0.16610221697343697,3.7722982223171315
0.30092016911216113,-3.677408042981108,-0.34665474665742657,0.19491496048718737,3.698849992874
0.30340711265854264,-3.6250169433922026,0.2761911942872515,0.21415089318827363,3.6418250947479205
0.30589405620492416,-3.4864341072859886,0.8463646119037471,0.2381752245133555,3.5955922013351316
0.3083809997513056,-3.285601548421149,1.3447118909630014,0.2382575340169062,3.558116672792021
0.31086794329768713,-3.0368844739233936,1.7712330295221004,0.21918622449620706,3.5224957563971464
0.31335488684406865,-2.730706074324628,2.11156281568201,0.18574969874917713,3.4568708595360875
0.3158418303904501,-2.386219960086404,2.3465476342283225,0.17625518281657193,3.351327705117331
0.3183287739368316,-2.027368144998405,2.490552693193734,0.15718385293510018,3.2152419934667997
0.32081571748321314,-1.6493622229363512,2.5340011840143037,0.13332411190463844,3.026439006795048
0.3233026610295946,-1.2522021911042518,2.476893104771684,0.11904116916634244,2.7779813857958606
0.3257896045759761,-0.8741952732765712,2.3575356801150007,0.09996981424018614,2.516383480829902
0.3282765481223576,-0.5057646600327446,2.1807173114561884,0.0713216432874404,2.2397349532085187
0.3307634916687391,-0.1612755585618788,1.9368611902512658,0.047461865751312615,1.9441434372986968
0.3332504352151206,0.15927203389968436,1.6355441212425355,0.018813674474145614,1.6433886051877014
0.3357373787615021,0.47024333006831376,1.3150733290992278,-0.019411334380707856,1.3967546134823763
0.3382243223078836,0.7189658961677208,0.9754488119331479,-0.028905934766369157,1.2121253638212348
0.3407112658542651,0.9102281382570296,0.6406125844627497,-0.04797735376022949,1.1140922643662579
0.3431982094006466,1.0823372856291607,0.31056464481003543,-0.07662559187646778,1.1286167993608378
0.34568515294702806,1.2209281310451527,0.004458604383376752,-0.08133182638632519,1.2236422051865457
0.3481720964934096,1.3020586606169129,-0.27770553868493986,-0.07167286444312815,1.333271960779677
0.3506590400397911,1.344882490330618,-0.5263509796168755,-0.06680231984007001,1.445758215082157
0.3531459835861726,1.3541880262028898,-0.72711251030889,-0.0715085964086466,1.5387109190225787
0.35563292713255407,1.3203984642807582,-0.8847785359334823,-0.057061274737401746,1.5904531276332032
0.3581198706789356,1.257879017204098,-0.9993490583376643,-0.04740237193754382,1.6072352494852857
0.3606068142253171,1.1618412843227557,-1.0468820627616522,-0.04253188851793155,1.5644955048927895
0.36309375777169856,1.0322852682980947,-1.0561079709638546,-0.023296211705373437,1.4769968297049525
0.36558070131808007,0.8931529883841389,-1.0318151880958715,0.0007278513522290808,1.3646850819190586
0.3680676448644616,0.7348676405838079,-0.9596385060227817,0.015175090187488749,1.2087873240487954
0.37055458841084304,0.5622176308519925,-0.8491547332059544,0.04877592421661703,1.0195741837404908
0.37304153195722456,0.39914497841577656,-0.7051522747811372,0.06322312637229466,0.8127444912958994
0.3755284755036061,0.22649607261036897,-0.5515731491600331,0.05851669615051058,0.5991307148783217
0.37801541904998753,0.06342452932432241,-0.3788405515068205,0.06338705296995606,0.38930804367521066
0.38050236259636905,-0.09485805216453763,-0.2013196935819268,0.0634689863673561,0.23142165264916478
0.38298930614275056,-0.2531400725876387,-0.019010577179478627,0.05397409252090846,0.25952745723300163
0.385476249689132,-0.3922679160841313,0.1489331826305027,0.05405598421122271,0.4230570414335184
0.38796319323551354,-0.5218183867243924,0.3025115840646331,0.0589262576182108,0.6060362951621205
0.39045013678189505,-0.6178494653459881,0.44651302866520615,0.06379650892265687,0.7649717910791333
0.3929370803282765,-0.6947263593584356,0.5713607080189891,0.06387833430622791,0.9017639461905343
0.395424023874658,-0.7620258728604354,0.6579010070775357,0.06396013659208677,1.0087656145484056
0.39791096742103954,-0.8197480033196021,0.7300759406806252,0.06404191528396908,1.0995903942015923
0.400397910967421,-0.8583159415725167,0.7735202971109687,0.049758459925564935,1.1565101858324989
0.4028848545138025,-0.8777296851060346,0.7930224779379751,0.0594169965849094,1.1844088948139473
0.40537179806018403,-0.8779892314167003,0.7837940780958781,0.049921894885635254,1.1780027346873299
0.4078587416065655,-0.8638829813311153,0.755411902485315,0.021273154335116118,1.1477776330567628
0.410345685152947,-0.8306225290450464,0.7078759493717675,0.016566404324461104,1.0914653412767679
0.4128326286993285,-0.7734194687641012,0.650763023666828,0.021436434401952198,1.0110043067935994
0.41531957224571003,-0.7114274113053383,0.5888615269672655,0.016729630796497474,0.9236702550398717
0.4178065157920915,-0.64464635421451,0.5125946509144192,-0.0023424103011198127,0.8236065110440505
0.420293459338473,-0.5826531016879699,0.4219623937957544,-0.01183767277729686,0.7194977617624932
0.4227804028848545,-0.5206592479711709,0.3217531572245709,-0.0021793504784088924,0.6120587359481052
0.425267346431236,-0.44429958067903463,0.2263321494603372,0.002690539507936407,0.49863373158436264
0.4277542899776175,-0.3631509040381544,0.1500645787680317,0.0027719966966639475,0.39294483184060575
0.430241233523999,-0.2867900222853102,0.0690084268556923,0.007641827244293964,0.29507469797178104
0.43272817707038047,-0.215216933026889,0.002317305319728735,0.002934820706773422,0.21524941657999022
0.435215120616762,-0.1580084405201591,-0.05000878751915172,-0.006560620077717516,0.1658631599860333
0.4377020641631435,-0.1007993324311458,-0.10233506329560749,-0.0064792856293856005,0.14378787063082824
0.44018900770952496,-0.05316641303780972,-0.14029631371684115,-0.006397983069003743,0.1501687627477584
0.4426759512559065,-0.005532873347260603,-0.1638925404454219,-0.006316712875712227,0.1641075207377324
0.445162894802288,0.03252448234168487,-0.17312374513832873,-0.0014470722073252063,0.17615835801996108
0.44764983834866945,0.05621725304002112,-0.16798992944694868,-0.010942674822203458,0.1774844727496494
0.45013678189505096,0.07512224770913334,-0.1676447082983219,-0.0012846979542526782,0.18371105238971197
0.4526237254414325,0.07966266201856917,-0.14335766341075917,0.008373244640212718,0.16421836256729072
0.45511066898781394,0.0937805148694269,-0.10470560305945975,0.02281955580747841,0.14240358284983762
0.45759761253419545,0.09353379194900083,-0.07563054547494641,0.046842638394862135,0.12908440036266472
0.46008455608057697,0.07413409221511319,-0.032190475678997466,0.061288878649174094,0.1014318342487812
0.4625714996269584,0.059523434536693065,0.016037798070043685,0.07573508274014173,0.09765271621227746
0.46505844317333994,0.04012501452967032,0.06905427416009102,0.07581604023699029,0.11012075884228277
0.46754538671972146,0.011150431119436865,0.11728214434406325,0.0711085573115664,0.13760763212490548
0.4700323302661029,-0.022611910138888858,0.1607214070211418,0.06161263349615709,0.17360525844949654
0.47251927381248443,-0.051585200380816876,0.20416046391646514,0.03775146168349863,0.21393387011914677
0.47500621735886595,-0.09013464735439691,0.2284457001592468,0.033043864650213806,0.24779747691607282
0.4774931609052474,-0.13826024885776522,0.2527307274468509,0.03312463197088533,0.28997578908114413
0.4799801044516289,-0.15765477613762596,0.27701554420104246,0.02362855322118662,0.3196106204357595
0.48246704799801043,-0.1866254535767865,0.28693493888829913,0.028497644540387057,0.3434717380250135
0.48495399154439195,-0.22996068232701095,0.2872773132620021,0.04294350214698461,0.37047849398849997
0.4874409350907734,-0.25414163698875397,0.2876194724015009,0.03823570565901413,0.3857134969677417
0.4899278786371549,-0.27832192869713457,0.28796141475117487,0.03831627121905612,0.40230959349650525
0.49241482218353644,-0.3025015553172881,0.28351473544075034,0.024031585087991303,0.41528943312256134
0.4949017657299179,-0.32189211140534296,0.26949102960561655,0.01932366341062952,0.4202539118086735
0.4973887092762994,-0.3460704014897135,0.2411018923868209,0.01461569909071514,0.42202898473880673
0.4998756528226809,-0.35588281018832174,0.22228933885295188,0.024272901634688537,0.4203026272925103
0.5023625963690624,-0.35132933541176364,0.213053367476697,0.033930060628241776,0.41228059416890844
0.5048495399154439,-0.34677518504303273,0.18466355681453095,0.038798772298831,0.3947898211820052
0.5073364834618254,-0.3517971636563099,0.1706387285926585,0.04366743951568175,0.39342809422586894
0.5098234270082069,-0.34245325259512366,0.15661367133981807,0.03417085186791624,0.37811336842393606
0.5123103705545884,-0.32832025645676377,0.13301157691072651,0.02946262218798701,0.355463523442709
0.5147973141009698,-0.3333401898110666,0.11419765376732283,0.03911955666888289,0.35452380171606135
0.5172842576473514,-0.32878263071607694,0.10017190041627355,0.0535648482234965,0.3478528724314322
0.5197712011937329,-0.3098591738430833,0.09572271869021654,0.05843328644557921,0.3295299613889389
0.5222581447401143,-0.2909350271563411,0.09127330046650961,0.06330167753160687,0.31141789894421
0.5247450882864959,-0.2672217853506074,0.08203524094848058,0.06817002103861292,0.28772280947440765
0.5272320318328774,-0.2482962530933629,0.07758534530604733,0.058673106563873034,0.26667029932168584
0.5297189753792588,-0.23415842842328355,0.08750041871478054,0.044387740307403334,0.2538833676445178
0.5322059189256404,-0.2295967127112118,0.09741524975433524,0.025313921829789976,0.2506894014730159
0.5346928624720219,-0.22503429737894026,0.11690664361157532,0.020605263974042387,0.25442518590107616
0.5371798060184033,-0.2156827771804939,0.13639779219775816,0.015896556342179124,0.2556875409406048
0.5396667495647849,-0.1967537468818502,0.14152348410946392,0.006399395178050327,0.2424497591773886
0.5421536931111663,-0.18261241454222127,0.14186052455047138,0.011267393328264319,0.2315138365694128
0.5446406366575478,-0.16847037495158507,0.14698571873019306,0.02092374371875927,0.22455483027128897
0.5471275802039294,-0.15911602955259185,0.15211066190272993,0.0353684459173067,0.22294952633202283
0.5496145237503108,-0.15454937647965705,0.16202375596843277,0.0306594828913358,0.2260026795406044
0.5521014672966923,-0.14519360723867902,0.17672499951295828,0.025950467492307894,0.2301876100030239
0.5545884108430739,-0.15020233326956856,0.19142598780726328,0.02602980261195853,0.2447083986127705
0.5570753543894553,-0.1504219394619033,0.21091512276853797,0.01653227786199274,0.25958671979755454
0.5595622979358368,-0.15542923063933117,0.21603878971801072,0.026188312738156583,0.2674263115776545
0.5620492414822184,-0.16043580167678628,0.22116219722469133,0.03584429353429641,0.27556701057982097
0.5645361850285998,-0.16544165078176626,0.22149694058192892,0.040711816506423304,0.2794446036405125
0.5670231285749813,-0.16565837285373464,0.2266198250495952,0.04079088123209118,0.28366025028852154
0.5695100721213628,-0.16587436944508527,0.2365308492525151,0.036081487290092085,0.29114089855598396
0.5719970156677443,-0.17087804212054336,0.24165320518045474,0.03616044090107984,0.29816631992748216
0.5744839592141259,-0.17109258249625414,0.2324100848287456,0.04581614496664166,0.29220923745656396
0.5769709027605073,-0.18567160212261702,0.2327435034404619,0.03152977582710825,0.29939540576339413
0.5794578463068888,-0.1763078727186923,0.22828824970172645,0.017243349667801056,0.2889590352320454
0.5819447898532704,-0.18130861914096913,0.22862112890576336,0.00774526939404474,0.29189111866402684
0.5844317333996518,-0.19109703305526476,0.22416533307007835,-0.006541272048520952,0.2946369984115316
0.5869186769460333,-0.1960963061398764,0.21013245753801302,-0.006462661791131197,0.2874911772387033
0.5894056204924149,-0.20109484004653694,0.20088771093967317,-0.006384110205951643,0.2843163097028478
0.5918925640387963,-0.20609263311918785,0.19643109194973007,-0.006305617702953015,0.2847790514156181
0.5943795075851778,-0.22066649035493985,0.18718579260772383,-0.0014387813705400987,0.2893687802987405
0.5968664511315593,-0.22566279684159068,0.1827286182399268,0.013004801704136426,0.29065885616923126
0.5993533946779408,-0.2115047443201497,0.1734827608968379,0.022659921153955764,0.2744886103739549
0.6018403382243223,-0.21171115442703803,0.1690250259156647,0.03231497989430565,0.2728283896888109
0.6043272817707038,-0.20712841228786444,0.16935541199844684,0.03718157420122914,0.2701220172628228
0.6068142253170853,-0.21212172628306408,0.16489711121203898,0.05162491363328314,0.27359059880600184
0.6093011688634667,-0.21711428820416928,0.1556501222693525,0.07085659446905268,0.27638059209108595
0.6117881124098483,-0.22210609649601176,0.16555646049027795,0.0709345997071349,0.2859576492181598
0.6142750559562298,-0.2270971496161152,0.17067410799699045,0.06143573558959936,0.29064947292532245
0.6167619995026112,-0.22729904271439855,0.1805798701592427,0.05672521168009936,0.2957899490614294
0.6192489430489928,-0.232288580914441,0.185696939070918,0.04722622094200801,0.30111734248962874
0.6217358865953743,-0.23727735939162192,0.18123691015157695,0.02815035966029278,0.2998996592698223
0.6242228301417557,-0.22311176337313443,0.19593020206832312,0.009074434082132043,0.2970687603769781
0.6267097736881373,-0.2233106146223739,0.22977681357172353,0.009152057096610378,0.3205444973904506
0.6291967172345188,-0.22350870171238807,0.23010430689423433,0.004441211711277759,0.3208174810603338
0.6316836607809002,8.864683478763173,4.554359702281435,-0.11997978215096872,9.966905268163572
0.6341706043272818,8.323397349143171,3.4533538383435785,-0.1917284053471917,9.0133986900582
0.6366575478736632,7.643248291714597,2.352347675766512,-0.24911188482692914,8.000927494212421
0.6391444914200447,6.829024711212552,1.289648439889787,-0.2873418176556175,6.955669408837332
0.6416314349664263,5.933399045562438,0.2652561294957061,-0.32557181749897524,5.948241929887004
0.6441183785128077,4.989890119395565,-0.6681568201047607,-0.35422507809955484,5.046871540454406
0.6466053220591892,14.590446078619463,2.9665666943733284,-0.6270869758158195,14.902176780608428
0.6490922656055708,12.856852154089735,0.9366087762201154,-0.7658736487236801,12.91365346281306
0.6515792091519522,10.883838840321014,-0.9353321382612592,-0.8615647602883953,10.957877894333166
0.6540661526983337,8.762385801736931,-2.610948823699989,-0.9285255208489378,9.190137014284886
0.6565530962447153,6.569107492787317,-4.042357248079496,-0.9619675274617414,7.772979280609602
0.6590400397910967,4.394983577870059,-5.205615395979633,-0.9571023771819593,6.87970619002113
0.6615269833374782,2.316628511409231,-6.071992848654828,-0.9330836836650196,6.5655548108831905
0.6640139268838597,0.3915031345347738,-6.64148960727629,-0.9090650605650659,6.7148386572016525
0.6665008704302412,-1.3372969215971922,-6.923682479650784,-0.8371624750505795,7.101167731096722
0.6689878139766227,-2.836252832484058,-6.932936676900335,-0.7461063474137699,7.527723146963815
0.6714747575230042,-4.0909993869173515,-6.70277102342318,-0.6406850813439995,7.878698671078641
0.6739617010693857,-5.072806163740548,-6.247550730331302,-0.5017450639277872,8.063312012574187
0.6764486446157671,-5.786461565052203,-5.6247366386145,-0.3628051187738084,8.07789745241961
0.6789355881621487,-6.241542396284066,-4.853482362695107,-0.23344205288789688,7.9099707788120455
0.6814225317085302,-6.433260252919836,-3.9816719369123854,-0.09450225335273643,7.566338584208518
0.6839094752549116,-6.404710763659222,-3.0380357823194233,0.01570705290651553,7.08873952775079
0.6863964188012932,-6.1894127505741885,-2.0608811266050315,0.11155107548940357,6.524454372390844
0.6888833623476747,-5.816096632429268,-1.1076688107343946,0.2169718306373678,5.924608595284497
0.6913703058940561,-5.299127618040929,-0.19755244910533953,0.3032388980696794,5.311471953398056
0.6938572494404377,-4.66723612619945,0.6551027472094475,0.36556387410844415,4.727143917119066
0.6963441929868192,-3.968306188989229,1.4072011472202104,0.41352356503798227,4.230682074695499
0.6988311365332006,-3.2358566285465877,2.053954346504475,0.4710599871048071,3.861527429591132
0.7013180800795822,-2.498617863700395,2.5762087306835872,0.4902891067520123,3.6221990642498865
0.7038050236259636,-1.7661667000111214,2.964387492024251,0.4951529402286461,3.4859883030949885
0.7062919671723452,-1.0815987662942428,3.232855839399445,0.4904398905037546,3.444088276421737
0.7087789107187267,-0.4497024648156873,3.3672485617649293,0.4569963439460967,3.427745737645864
0.7112658542651081,0.11036859218501524,3.377142464682717,0.41876431680847936,3.404796030004768
0.7137527978114897,0.5842491957757276,3.2721143537194193,0.38053221206371823,3.3455768158868127
0.7162397413578712,0.971939346972392,3.0856830510478477,0.32793481940463565,3.2517145064557904
0.7187266849042526,1.2878042567391836,2.8130601522828425,0.28012575176747845,3.1064799469561084
0.7212136284506342,1.5031135061446024,2.468610866325055,0.24189341212880855,2.900327954649918
0.7237005719970157,1.6370207094474756,2.0858540153609675,0.19408418686487217,2.658626045187323
0.7261875155433971,1.6943142709329497,1.6743664049798936,0.13669807563439385,2.3859778018025426
0.7286744590897787,1.679782594873374,1.2628784540569105,0.06973507809734336,2.1027112347818804
0.7311614026361601,1.598214085528358,0.8418133549090872,0.012348807196183031,1.806402635273683
0.7336483461825416,1.4831275670666186,0.4399015264202917,-0.045037544047275446,1.5476463140891268
0.7361352897289232,1.3345230404019532,0.06193137087727152,-0.0976355726490521,1.3395222824234467
0.7386222332753046,1.1332468931542183,-0.27294349946789787,-0.12150326234267617,1.1719683090874873
0.7411091768216861,0.917606352774256,-0.5599346823198479,-0.13579422674328256,1.08349819526066
0.7435961203680677,0.7115434367392979,-0.7990421786991779,-0.15966207946476985,1.0817829936387957
0.7460830639144491,0.48632772599048585,-0.975900779661268,-0.16437640091671035,1.1026860795298357
0.7485700074608306,0.26111283465935603,-1.0905104862182498,-0.15951399806994537,1.132624275104532
0.7510569510072121,0.06462918350545377,-1.1476597026983324,-0.16422848453473549,1.1611506016407958
0.7535438945535936,-0.11270003328682626,-1.166502043386497,-0.15936624735764937,1.1827197113114265
0.7560308380999751,-0.2804516215457146,-1.1326722993213958,-0.135350480224675,1.1746997072335927
0.7585177816463566,-0.4290487738308012,-1.050958874818817,-0.11133479674246693,1.1406107328321238
0.7610047251927381,-0.5441262793939564,-0.9261501741904652,-0.09210760055557365,1.0781054508535999
0.7634916687391196,-0.6208957341402519,-0.7869766183455569,-0.0872456986276422,1.0062084885475753
0.7659786122855011,-0.673722347268569,-0.6238614016267883,-0.0680186713586668,0.9207232968173498
0.7684655558318826,-0.7169713279903305,-0.44159292833380404,-0.03921492238961832,0.8429650109302675
0.770952499378264,-0.7314890622872958,-0.25453640940291633,-0.02477646864155325,0.7749057396587163
0.7734394429246456,-0.7220639527552921,-0.08184545908682406,-0.019914907112472235,0.7269605453991489
0.7759263864710271,-0.7030612086432582,0.0860567282875424,-0.0006882215179526696,0.7083087584036588
0.7784133300174085,-0.6888460392126005,0.25395855507680043,0.032903587826030645,0.7349057487374888
0.7809002735637901,-0.6458996205340479,0.4027064070398336,0.05691850400310372,0.7632813938351377
0.7833872171101716,-0.588587161893882,0.5227234765799458,0.07614493001993239,0.7908683395369044
0.785874160656553,-0.5264854692704797,0.6235865693854552,0.09537126888433534,0.8216707599759691
0.7883611042029346,-0.4595945420139789,0.7052956845077825,0.10980911696466578,0.8489565288063342
0.790848047749316,-0.40227958944782044,0.7726392243223601,0.11945847395073272,0.8792443153335727
0.7933349912956975,-0.3497522076265382,0.8208287845676616,0.1338961461741146,0.902227619991065
0.7958219348420791,-0.297223992616988,0.8259223477045414,0.14354532668628828,0.8894352629834495
0.7983088783884605,-0.25427175045926187,0.8118619294005791,0.1484060151804769,0.8635961213631034
0.800795821934842,-0.211318673924478,0.7834359320456672,0.1484782113510441,0.8249080074865733
0.8032827654812236,-0.16357635911632024,0.7406443547129138,0.13897351157316606,0.7711192659691734
0.805769709027605,-0.13977522539288856,0.6834871964789286,0.12468031886376707,0.7086868443087039
0.8082566525739865,-0.1351268688823013,0.6215412630644042,0.11517543956120058,0.6464040487680637
0.8107435961203681,-0.12090086912329495,0.5452297469122129,0.1200356800049267,0.5712276792549263
0.8132305396667495,-0.1066740322292622,0.449764243788938,0.10574221665268801,0.4741820752893438
0.815717483213131,-0.1068115676460395,0.37824038266764726,0.07708345252583015,0.40052010775599595
0.8182044267595125,-0.11173666823000655,0.30671614604036046,0.06757821056867463,0.33335670356640257
0.820691370305894,-0.12623773681056027,0.22561472636332658,0.0628612805234976,0.2660629841524463
0.8231783138522755,-0.14552636958852583,0.1540897360179243,0.05814425877429841,0.21977790111861198
0.825665257398657,-0.16481416277675548,0.09692957742781738,0.029485128424905582,0.19346427068162036
0.8281522009450385,-0.17931271260010073,0.049345846379228675,0.015191115744281447,0.18659804782592157
0.8306391444914201,-0.17944521197507396,0.001761735341220927,0.01526222043997727,0.18010170233773526
0.8331260880378015,-0.19394208039262917,-0.036245949932772525,0.010544828939359263,0.1975816106091618
0.835613031584183,-0.21801491411345342,-0.05988880700655885,0.029769360873986628,0.22804251100926548
0.8380999751305646,-0.23251009944918144,-0.06437843344089478,0.025051782751472018,0.2425553975016819
0.840586918676946,-0.24700444264518007,-0.06886844339508924,0.025122514205486723,0.25765325129352346
0.8430738622233275,-0.25192113667739974,-0.06857043442391442,0.015616344987934738,0.26155311852986896
0.845560805769709,-0.2520485844945259,-0.058696004079201725,-0.003466725187294628,0.25881601191596326
0.8480477493160905,-0.2617519956976379,-0.03924515323019184,-0.012973083324029133,0.2649954531585206
0.850534692862472,-0.2666661599776823,-0.010217882743249973,-0.01769113302661296,0.26744760644425847
0.8530216364088535,-0.271579480318563,0.018808999877463872,-0.012832471257747002,0.27253231904688313
0.855508579955235,-0.27170355307523725,0.04783549377120844,-0.007973904940037357,0.2759975332825211
0.8579955235016165,-0.28140358789555864,0.07207319475969953,0.006461372286159062,0.2905585552262802
0.860482467047998,-0.2767375678764949,0.10588731194862167,0.011319746859644653,0.2965197143106488
0.8629694105943795,-0.272070702689097,0.134912634524472,0.02096642846240826,0.30440676296452757
0.8654563541407609,-0.27219139537533954,0.16872596827797004,0.021036206855564288,0.3209347754397816
0.8679432976871425,-0.2627344357074635,0.19775050572119657,0.025894291723092877,0.32985627258451355
0.870430241233524,-0.23412301678951103,0.22198624600943662,0.025963876148399123,0.32367515084206444
0.8729171847799054,-0.24860638154165415,0.24143318830051852,0.02603336317680771,0.34752388889756014
0.875404128326287,-0.25830049652829806,0.25609133175477794,0.030891155854618546,0.36504271012682254
0.8778910718726685,-0.23926334492679407,0.27553748217563934,0.045325657229096095,0.36772580479550016
0.8803780154190499,-0.2345905564102107,0.2806180254470916,0.06454846370785106,0.37141043271523827
0.8828649589654315,-0.23470532413949396,0.2904865740180167,0.07419436505883326,0.38075430748795613
0.885351902511813,-0.2300308412868658,0.3003547237380966,0.07905176433218841,0.38649234075071065
0.8878388460581944,-0.2301439143170388,0.29585726381870714,0.07433225793839249,0.3821295937528004
0.890325789604576,-0.2350445430653052,0.28657100007507497,0.08397786221073211,0.380027836678172
0.8928127331509574,-0.2351559207375002,0.277284335004365,0.08404656028030644,0.3731604665444419
0.8952996766973389,-0.23047804719121506,0.2727856711059511,0.06974994856039629,0.3638642712907906
0.8977866202437205,-0.24016453557638495,0.2587097976001336,0.0554532367464553,0.3573301344535347
0.9002735637901019,-0.2306965625305638,0.2589987302718497,0.04594482789423715,0.34987451101227673
0.9027605073364834,-0.2260161445460741,0.24013364506438872,0.041224721740087844,0.3323355875766683
0.905247450882865,-0.24527689480590592,0.22126815444654113,0.036504514700954616,0.33234459660322146
0.9077343944292464,-0.24538318333992837,0.22155587088912565,0.02699580319467998,0.33170571894617934
0.9102213379756279,-0.24548862335297528,0.2122663736618251,0.027063796921250827,0.32565952571216955
0.9127082815220094,-0.2551700214201186,0.19818806527845956,0.02234328565967303,0.32386644078143145
0.9151952250683909,-0.2504853608850661,0.18410934825476621,0.01762267247109328,0.3113675106968292
0.9176821686147724,-0.2505882549851211,0.18439543174898132,0.0176903604175358,0.31162332653073904
0.9201691121611539,-0.25547870368707926,0.20862312160086827,0.027334752561898767,0.3309685235815354
0.9226560557075354,-0.2507914970075012,0.20890838380824484,0.04176744532732002,0.3290647463430367
0.9251429992539169,11.337044190260768,4.695927145308188,-0.058721644549702745,12.271257105835014
0.9276299428002984,10.709663856165829,3.456015123078565,-0.14005722435525847,11.254357221498996
0.9301168863466799,9.761461348354615,2.2161026874193013,-0.21660450430428568,10.012200371940878
0.9326038298930613,8.554685909971116,1.0192854674207594,-0.26442146804838984,8.619252438298716
0.9350907734394429,7.151586784149261,-0.11049452110584523,-0.29787332580081305,7.158640310047462
0.9375777169858244,5.638355230613816,-1.1253532457465036,-0.32174848113336907,5.758558128508732
0.9400646605322058,4.067663685836846,-1.9965602873669348,-0.3264701276561066,4.542986197031455
0.9425516040785874,2.5161266028818203,-2.6905968235109143,-0.33119187890014246,3.6986338571242814
0.9450385476249689,1.017262804918952,-3.226616468244255,-0.3263369284739088,3.3988782323440754
0.9475254911713503,-0.3858320782508834,-3.599830819029699,-0.2975400666647321,3.632654457764223
0.9500124347177319,-1.6213319969157338,-3.786297860047512,-0.2831085202825765,4.128549304959276
0.9524993782641133,-2.684448547857839,-3.8099596086795966,-0.2734654829335028,4.668708557644405
0.9549863218104948,-3.5608165212287783,-3.6899696789862872,-0.23030372830093349,5.133062471562497
0.9574732653568764,-4.221705497229678,-3.4311164750656946,-0.17277686991123709,5.442904501971612
0.9599602089032578,-4.671903879313686,-3.066918820936582,-0.13440373125096094,5.590236244984239
0.9624471524496394,-4.916200070943996,-2.611741927335217,-0.08645389264183478,5.567557211929066
0.9649340959960209,-4.973747685554667,-2.0943162149578063,-0.03371575764703216,5.3968012007215265
0.9674210395424023,-4.854123529949097,-1.543372104499285,0.028599076811653745,5.093655917329567
0.9699079830887839,-4.590846427542016,-0.9684864033721683,0.07654859389132618,4.692514946382034
0.9723949266351654,-4.1982815884768465,-0.40317793558979265,0.12449800331228822,4.219433670140919
0.9748818701815468,-3.7003710295472705,0.13818808811703365,0.15808209487372515,3.7063231986336316
0.9773688137279284,-3.140210380838013,0.6220928437370921,0.19645448161772272,3.2072597502384195
0.9798557572743098,-2.522588045880952,1.048536330502305,0.21088474338396246,2.7399546092219924
0.9823427008206913,-1.881022848139438,1.4223069509658086,0.22052649321596185,2.368509225694168
0.9848296443670729,-1.2538220144067926,1.7194626877596688,0.23974494083761755,2.1415179698209506
0.9873165879134543,-0.6601391582045801,1.9304267334777316,0.2254444561297717,2.052597448191
0.9898035314598358,-0.09997427978243839,2.0647758939959147,0.22072066873957397,2.0789449157333366
0.9922904750062174,0.3979422006784691,2.117721765229847,0.2112083684711017,2.1651125709582093
0.9947774185525988,0.8192450729485939,2.089264346416221,0.1969075550900481,2.2527673168811924
0.9972643620989803,1.1639343367500636,2.003345653393936,0.18260663168307545,2.3241088892676323
0.9997513056453619,1.403279571873849,1.869542492041551,0.16351719469689385,2.343314012109544
1.0022382491917432,1.5755880045859283,1.6782780549570457,0.1587928571804209,2.3074466324136282
1.0047251927381249,1.6760712312604356,1.4534943579810182,0.14928000562072619,2.2235433751154146
1.0072121362845063,1.6951524449419821,1.1999798036733962,0.12061342982583945,2.080394419400123
1.0096990798308878,1.6328316453067353,0.936888004555497,0.08715833952630092,1.8845410293076834
1.0121860233772693,1.5130508486233896,0.673795766508444,0.05370313781264002,1.6571685588664735
1.0146729669236507,1.3358100545500933,0.4107030887731309,0.03461303441663688,1.3979497813285142
1.0171599104700322,1.1250512793376233,0.1811287938329924,0.010734415828489219,1.1395890701379146
1.0196468540164139,0.8903513292669567,-0.014927119070388795,-0.003567508218802473,0.8904835964385135
1.0221337975627953,0.6460754139304439,-0.20140666729679557,-0.022657947913534926,0.6771199810378136
1.0246207411091768,0.3922235329509328,-0.35915623832279664,-0.03696009684181867,0.5331027594050227
1.0271076846555582,0.13837249258294634,-0.4833874295858476,-0.03689714858921178,0.5041544935426487
1.0295946282019397,-0.11068930424787321,-0.559735031882536,-0.027257506701612755,0.5712253492825843
1.0320815717483214,-0.33580824466361375,-0.6025642559312074,-0.008041171404043368,0.6898663059952532
1.0345685152947028,-0.5274075224354964,-0.6118751024891724,0.0015982437978010466,0.8078071491085735
1.0370554588410843,-0.699852347944932,-0.5780907656730645,-0.017492874601236608,0.90790321232074
1.0395424023874658,-0.8339891083395488,-0.5203648595213679,-0.027007300262003042,0.9833853843336958
1.0420293459338472,-0.934606207376975,-0.4386973847913338,-0.017368226766683037,1.0325917942688425
1.0445162894802287,-0.9969152421825784,-0.33787674556058755,-0.03645968754066331,1.053247361307934
1.0470032330266104,-1.0257046165306902,-0.2274797492271019,-0.036397649602557536,1.0512572404399343
1.0494901765729918,-1.0257627342038727,-0.11229479986879642,-0.02675891981419909,1.0322380291137312
1.0519771201193733,-0.9970895956726107,-0.0018987048839109733,-0.012331901716597926,0.9971676602651904
1.0544640636657547,-0.9492620080561667,0.1084969382899641,-0.002693402170566017,0.9554460738170284
1.0569510072121362,-0.8774915685209737,0.20931532225408267,0.011733385244822259,0.9021873581939798
1.0594379507585177,-0.7913550842024555,0.3053448495703637,0.026160056990072178,0.8486240009768444
1.0619248943048993,-0.700429362244029,0.40137392280042405,0.031009806205865686,0.8078761820221607
1.0644118378512808,-0.5999259998361571,0.47346052458363497,0.040647842634921716,0.7653288970954233
1.0668987813976623,-0.4898449974974669,0.5168162508402707,0.050285762739193274,0.7138457933196424
1.0693857249440437,-0.38455156571535287,0.560171520732371,0.059923566301408826,0.682101805548135
1.0718726684904252,-0.2840457050241464,0.5891611235386818,0.06956125310476757,0.6577473374826627
1.0743596120368066,-0.19311581928613408,0.5942082518578085,0.06004520965166371,0.6276803274251789
1.0768465555831883,-0.11176190905101119,0.5944665182096922,0.06010585564807691,0.6078600821490652
1.0793334991295698,-0.03998397487611782,0.5755707118715376,0.07931999751917118,0.5823847736828667
1.0818204426759512,0.007852772712731937,0.5470976387215112,0.07459200516712094,0.5522150482998294
1.0843073862223327,0.05090194642436535,0.5090472979965326,0.07465229829920972,0.5170039897222398
1.0867943297687142,0.08916354567889848,0.46141968893285723,0.08907768334188759,0.4783232180048187
1.0892812733150956,0.09869555328747184,0.4137916174066678,0.0843493368392032,0.4336809028536531
1.0917682168614773,0.09386317861636637,0.35658627601216697,0.08440927517935926,0.3782710592637217
1.0942551604078588,0.07945482438393289,0.2993804706240377,0.07489228818845639,0.3186700333245263
1.0967421039542402,0.06025889330127138,0.2469626037958519,0.07495198893517241,0.26502728640813406
1.0992290475006217,0.03148698143165951,0.19933267476003058,0.06064636060575701,0.2107200187010938
1.1017159910470031,-0.0020725085281427247,0.1660674893887526,0.036763806308714564,0.17010080475349718
1.1042029345933846,-0.045207980529088365,0.12322503031110532,0.03203474575448162,0.13510882478300792
1.1066898781397663,-0.07876582192759901,0.08517050671774573,0.02730556545074414,0.11917912494674845
1.1091768216861477,-0.13147645329021634,0.07584593443896814,0.02736466850711139,0.15423193126975615
1.1116637652325292,-0.1793978586669343,0.056944086140028105,0.0417888613538544,0.1928017883056481
1.1141507087789106,-0.21774163539590413,0.04761857432886751,0.032270917218472306,0.22521181253237635
1.116637652325292,-0.24650778414238456,0.04786939823111824,0.037118062453807,0.25384112647505047
1.1191245958716736,-0.2752731122190239,0.05290815375099367,0.03238828024896634,0.2821764691493103
1.1216115394180552,-0.29924921698423773,0.07231164675250934,0.022869973715268443,0.30871038825973474
1.1240984829644367,-0.3136476958030924,0.09171466649694793,0.013351545964351175,0.32705461457205237
1.1265854265108182,-0.3424105659691241,0.11590561552564083,0.008621400108161481,0.3615984457066963
1.1290723700571996,-0.36159581157928444,0.1544612996989958,0.008679535938638239,0.39330034121583785
1.131559313603581,-0.36641503001825976,0.178651298313655,0.013525953248016975,0.40787156314666545
1.1340462571499625,-0.3760218352787277,0.20284082054777564,0.027949055149138147,0.42815647696911824
1.1365332006963442,-0.36647421147693116,0.23660667225785792,0.03758363147389687,0.43783398039592764
1.1390201442427257,-0.3521373692979269,0.2655836426974938,0.04721808533570204,0.443581949257749
1.1415070877891071,-0.3521649227533512,0.2849833277594933,0.05206401320762666,0.4560112842792737
1.1439940313354886,-0.3426148559782353,0.3139593399368046,0.03775620492238119,0.4662412869756193
1.14648097488187,-0.31391036307470066,0.3189928551974792,0.03302508019574901,0.44876142173171035
1.1489679184282517,-0.2995702680337772,0.3240258893518351,0.047447445462523774,0.443831479889604
1.1514548619746332,-0.2900177649697274,0.3434236515680307,0.05229288059524784,0.45253138434290396
1.1539418055210147,12.332189894378889,6.846319026793357,-0.22058920054889697,14.106865399621999
1.1564287490673961,11.59475309987356,5.3286383570069535,-0.3689729192688471,12.765924455437887
1.1589156926137776,10.517340478668206,3.796591992972471,-0.517356762097501,11.193579388409386
1.161402636160159,9.171778079789853,2.3124291770549847,-0.6561639225989495,9.481529040040392
1.1638895797065407,7.625103548938572,0.8953035217349288,-0.7566639810557447,7.714681646593961
1.1663765232529222,5.95393133844985,-0.4260545538680005,-0.8188569376720896,6.025059962375528
1.1688634667993036,4.244452707293251,-1.627703033956863,-0.84753119597233,4.624186964142742
1.171350410345685,2.5589168978317804,-2.6761230960953855,-0.8378983528399733,3.796282940608631
1.1738373538920666,0.9547847491024437,-3.5665263377710836,-0.7947468117989711,3.776684594985139
1.176324297438448,-0.5248481098241728,-4.298912759793608,-0.7180765730527767,4.389960184269275
1.1788112409848297,-1.8512512598438469,-4.868493959654151,-0.6126760401249811,5.2444958377717885
1.1812981845312112,-2.971752265256163,-5.251327921564538,-0.4976988264999349,6.054375325973595
1.1837851280775926,-3.8719859169285233,-5.471356662941632,-0.4018753523024454,6.714873228348904
1.186272071623974,-4.55195221569452,-5.523791781282363,-0.29647519781340925,7.163828736077331
1.1887590151703555,-5.016439565713264,-5.427786890687189,-0.171921556594814,7.392908322763861
1.191245958716737,-5.251082757867762,-5.207284008578884,-0.06652165541163235,7.395546092521915
1.1937329022631187,-5.284612212928911,-4.862283135780648,0.024512908854134707,7.181192409080457
1.1962198458095001,-5.136181545032041,-4.421514693039722,0.1251241526018383,6.778333799530546
1.1987067893558816,-4.824944368317499,-3.889767084503825,0.23052367230909887,6.201896265864417
1.201193732902263,-4.393996313531999,-3.2861939242835994,0.3263462578130447,5.496614957527934
1.2036806764486445,-3.8529141881849855,-2.6682560530544244,0.3838614889899645,4.702327907420784
1.206167619995026,-3.240005219712781,-2.0311650683299662,0.4270113822396766,3.847805098901474
1.2086545635414077,-2.588788232235766,-1.374920970946003,0.4462191307199408,2.9650200168514784
1.2111415070877891,-1.9184168399185486,-0.7234657783425635,0.44148473422921697,2.0972922244344785
1.2136284506341706,-1.2576214635705971,-0.10552991128183864,0.44153861248794435,1.3370507298253056
1.216115394180552,-0.6351325240062164,0.46452141943240344,0.45116916861508116,0.907043047970065
1.2186023377269335,-0.06531523208325435,0.9866882129550842,0.4416459824874721,1.0829916356897276
1.221089281273315,0.44225360465626495,1.4513936617981602,0.4225458605445347,1.5750164496292263
1.2235762248196966,0.8588435653846334,1.8442725551509165,0.39386880258512136,2.072217691540953
1.226063168366078,1.194031455832263,2.1605364888408705,0.3508264050878278,2.4933327502835634
1.2285501119124596,1.457394081725239,2.4049738653337522,0.283841861210993,2.8263869169952374
1.231037055458841,1.629777828863499,2.5871614904131572,0.19291517075362208,3.0637879515460513
1.2335239990052225,1.7111826963240098,2.7023109598992767,0.11156515675694934,3.2004808276870933
1.236010942551604,1.7063970864998836,2.736057062969184,0.05894543230131255,3.225100592637079
1.2384978860979856,1.634574611741056,2.7123418153599324,0.015902383904577988,3.1668415133240067
1.240984829644367,1.4957152711121509,2.6168000062435315,-0.012775585313796967,3.0141283417423272
1.2434717731907485,1.3185494835956382,2.4685852480315935,-0.05103049215620992,2.7991230731461654
1.24595871673713,1.1126540548888555,2.2772743464925775,-0.09407393350316262,2.5363019142086705
1.2484456602835114,0.8684521774038738,2.052444107392234,-0.12275229627423023,2.2319955476315876
1.250932603829893,0.6194626734317966,1.8036713364937347,-0.15143079063115472,1.9130853557056833
1.2534195473762746,0.3608971386974071,1.5405328395575721,-0.17053261013413312,1.5914048968111327
1.255906490922656,0.10233237888267449,1.2582402123806178,-0.18005775498397725,1.2751710249802886
1.2583934344690375,-0.13228959037319382,0.9807354706789062,-0.1656410154205794,1.003384046693211
1.260880378015419,-0.3429687700362017,0.7128070168844931,-0.15122440824634076,0.805351005580406
1.2633673215618004,-0.5392819677165759,0.4592432534266826,-0.13680793366213706,0.7214193075009081
1.2658542651081819,-0.697287167785889,0.21525577609140045,-0.12239159186885473,0.7399487450220926
1.2683412086545636,-0.8169843712208305,-0.009578609377375535,-0.11755218970803405,0.8254536509591884
1.270828152200945,-0.9079503856420763,-0.21525990387897576,-0.1127129207400035,0.9399015541573081
1.2733150957473265,-0.9701852120331336,-0.3922113016750304,-0.0743549619235715,1.0491032890864722
1.275802039293708,-0.9941120447402181,-0.5356444003503209,-0.031208733381641096,1.1296670598736243
1.2782889828400894,-0.9797308847534696,-0.6455592008128168,0.011937361364402932,1.1733549287791156
1.280775926386471,-0.9509837496678384,-0.7315325106140151,0.06466012875405092,1.2015368652138962
1.2832628699328525,-0.9030822371596101,-0.7887759273473747,0.0982291486642275,1.203068558430157
1.285749813479234,-0.8216611382676036,-0.8172894519296214,0.10785601757337382,1.1639252531418944
1.2882367570256155,-0.7258740672759125,-0.7979194719991827,0.12227115520204812,1.0855960946565595
1.290723700571997,-0.6252978318310553,-0.7593964084005695,0.13668615802855122,0.9931582901939193
1.2932106441183784,-0.5342976429029164,-0.7065086653797343,0.13194741257015963,0.8955660696744968
1.29569758766476,-0.43371988822211227,-0.6296794372246812,0.14157374186751248,0.7775938911085669
1.2981845312111415,-0.3139877621628525,-0.5289087248671007,0.16556514571897196,0.636980825068952
1.300671474757523,-0.2086200889849653,-0.408984932561983,0.1704028006806304,0.4897225041496738
1.3031584183039044,-0.13198207966989595,-0.2938500778486586,0.16566351319130312,0.36223133106971644
1.305645361850286,-0.06013171863935707,-0.16913895170702142,0.175289299650645,0.25089867903814583
1.3081323053966674,-0.007434216880294331,-0.05879357168255339,0.14660772333322036,0.158132147878807
1.310619248943049,0.030898827898912518,0.05633967455898459,0.1179260105994242,0.13429609253747637
1.3131061924894305,0.06923262462785229,0.17147238274711185,0.09882096788766681,0.20967002182498193
1.315593136035812,0.07883675235072371,0.272239341967655,0.06056217507374484,0.2898228249911557
1.3180800795821934,0.07886482331228309,0.36821735790481736,0.0414568585177193,0.378843442778993
1.3205670231285749,0.06452843315321749,0.4450412196380942,0.04150501801703399,0.45160632456019256
1.3230539666749563,0.04061598415237236,0.512287732845373,0.022399426806513745,0.5143832362293491
1.325540910221338,0.016704281906479435,0.5699568965607384,0.008082101284927035,0.5702589037729611
1.3280278537677195,-0.02157188459165532,0.6228371131353674,0.008129847889973618,0.6232635960252678
1.330514797314101,-0.06942411307034796,0.6565631716360301,0.01296585977797271,0.6603506790669255
1.3330017408604824,-0.1076987912992382,0.6711350710871682,0.017801733425420352,0.6799545683378008
1.3354886844068639,-0.16033793693304488,0.6904948271115829,0.0178490653086687,0.7090909317007185
1.3379756279532453,-0.20818793774590505,0.6907004221257118,0.017896258544558563,0.7216159412162559
1.340462571499627,-0.2464603914750252,0.6765402584646143,0.013154909609157883,0.7201544956023082
1.3429495150460085,-0.27994370250039474,0.6480143351397913,0.01799022825963803,0.7061265491603678
1.34543645859239,-0.3230030818447172,0.6146994578000915,0.032402214292075016,0.6951520105645534
1.3479234021387714,-0.34690811064992505,0.5813840287707879,0.037237254221160754,0.6780407356836198
1.3504103456851528,-0.35644719330215135,0.5337028370926213,0.03249534784267638,0.642611288077879
1.3528972892315343,-0.37556234747074974,0.4860210917249215,0.022964898272562095,0.6146470247157256
1.355384232777916,-0.3898883642645059,0.43355038834246784,0.013434308626592895,0.5832318205216783
1.3578711763242974,-0.38984843811441106,0.3715023226167622,0.013480385340706391,0.5386812612285938
1.360358119870679,-0.39459618337518676,0.32381891013784436,0.01831472488973951,0.5107839696436373
1.3628450634170604,-0.4041316011221216,0.2809233432502789,0.0231489237483693,0.49272319661159797
1.3653320069634418,-0.399301079151034,0.23323881429531212,0.0327713850317366,0.4635899696735918
1.3678189505098233,-0.38010461854073524,0.18555372557180716,0.03760530189387978,0.424645575556964
1.370305894056205,-0.3704842369733057,0.12829126941436986,0.04243907744959863,0.3943580796033168
1.3727928376025864,-0.34649791892937043,0.0949702680370903,0.03290750153226796,0.36078118477897037
1.3752797811489679,-0.3177224721333788,0.07601391376792055,0.028164187217296188,0.32790075606267427
1.3777667246953493,-0.2985231076316794,0.0570569956111604,0.037785940939288665,0.3062667528004217
1.3802536682417308,-0.2793230198706439,0.047676319169353665,0.04740755253111395,0.28730098655623254
1.3827406117881123,-0.25533380661846733,0.043083480080762016,0.05702902178639846,0.26514872879963014
1.385227555334494,-0.23134387228546544,0.05285528394125372,0.061861945178273814,0.24523574075934373
1.3877144988808754,-0.21214162128342517,0.06741492306211638,0.06669472582032121,0.2323726011914466
1.3902014424272569,-0.1881502480646154,0.08197399307161612,0.08110417014626314,0.22067654565448427
1.3926883859736383,-0.17852336700457633,0.10610929955562298,0.09551347130838117,0.22858827445915184
1.3951753295200198,-0.17847257587864718,0.1206672281748018,0.09076901581816443,0.23377778878402317
1.3976622730664012,-0.16884426250255874,0.14480139114898627,0.09081282006973446,0.24025568910586206
1.400149216612783,-0.15921523461521425,0.17851178741343388,0.08606807721483811,0.2542118468808565
1.4026361601591644,-0.16395070327709593,0.20743320593914305,0.07174638372535647,0.2739633398995409
1.4051231037055458,-0.15910865298742105,0.2459308556156672,0.05742454603393199,0.2984880695882649
1.4076100472519273,-0.14947748816848672,0.25569750880580777,0.06704458053394546,0.30367698506411206
1.4100969907983087,-0.15899922652501441,0.2846171976346805,0.07666447041548352,0.3349106511430447
1.4125839343446904,-0.16852025588005926,0.31832471106003357,0.0719190055090646,0.367290132819747
1.4150708778910719,-0.18282898065934733,0.32808962807537156,0.0719617988872141,0.38242350963121435
1.4175578214374533,-0.1923485953287677,0.3282771575537291,0.05763923705977625,0.3848196407998674
1.4200447649838348,-0.20186750431618844,0.3476177183257749,0.04331652977860223,0.4043079137797388
1.4225317085302163,-0.23053932201145422,0.37174609933609704,0.05293569343597859,0.44061971018629226
1.4250186520765977,-0.2352684196413552,0.37193187956507767,0.04818950125995869,0.4427265299810209
1.4275055956229794,-0.23999681491801556,0.3721170745132625,0.04823156632215664,0.44541651552787054
1.4299925391693609,-0.24472450895295583,0.38666689303732404,0.06263869505337816,0.4618711698854919
1.4324794827157423,-0.2590283094992418,0.3868509141078853,0.06268046732176202,0.4697639150166985
1.4349664262621238,-0.2589662010686462,0.377457539934519,0.05314528623745396,0.4608276350205209
1.4374533698085052,-0.24932658809568703,0.37764038268451294,0.03882155491042205,0.45418401479048626
1.4399403133548867,-0.2540514882969773,0.38261103792037865,0.03407448309107508,0.46053711624834603
1.4424272569012684,-0.258775692827449,0.3827926978811149,0.029327263928099256,0.46298509388417375
1.4449142004476498,-0.24434558952252305,0.3829737647634719,0.019791493890314982,0.45471460812978814
1.4474011439940313,-0.23949159942150955,0.3735774308000872,0.024620786047927723,0.4444350414878248
1.4498880875404128,-0.23463691700197292,0.36418050150168746,0.029449930228787835,0.4342225453436196
1.4523750310867942,-0.23456994670313963,0.35478297573523054,0.03427892622151063,0.4266955173783276
1.4548619746331757,-0.23450228632431463,0.3358080457239141,0.04868458045517343,0.41246642801365235
1.4573489181795574,-0.23443393698579573,0.3120441136487573,0.048724876116491345,0.3933254545869947
1.4598358617259388,-0.22478809316791892,0.30264479164861724,0.04397661963420596,0.37954907431919205
1.4623228052723203,-0.2295067725938401,0.2884564652967665,0.03922821411657651,0.37070115163123146
1.4648097488187017,-0.23901316974515013,0.2646907301243435,0.03926806267170946,0.3587902711492764
1.4672966923650832,-0.23415367246341007,0.2409243916203887,0.04409616508723957,0.3388465383933521
1.4697836359114647,-0.2340818951532571,0.23631106191151652,0.04892411783033168,0.33620056651612773
1.4722705794578463,-0.2292210322980096,0.23169712655883412,0.04417511404768959,0.3289031480611153
1.4747575230042278,-0.21478268170184678,0.2175057777610898,0.04421436348742169,0.30886125308476503
1.4772444665506093,-0.2099204577710148,0.20810222431560232,0.039465059295924476,0.2982123828098433
1.4797314100969907,-0.2146343616310219,0.20348646505580525,0.03471560458038603,0.29779157787796057
1.4822183536433722,-0.20498237780629508,0.19887009549188628,0.029965999127533394,0.287167287823293
1.4847052971897536,-0.2049065240248532,0.1894647111311185,0.03000464604425801,0.2806845901295387
1.4871922407361353,-0.20961839809328975,0.19442392407944586,0.030043141796694428,0.28747717377674237
1.4896791842825168,-0.20954119449831882,0.20895932983837673,0.015716276210225644,0.2963418887977228
1.4921661278288982,-0.20946331768800902,0.20912891062533046,0.01575446899290256,0.2964084783022469
1.4946530713752797,-0.2093847687905176,0.22366308517833922,0.025369316610470705,0.3074260224805861
1.4971400149216612,-0.21409395225470024,0.23340823902951557,0.03498401220823588,0.3186526440327827
1.4996269584680426,-0.21880246588915875,0.2335759676691369,0.03502174893139198,0.3219608278191054
1.5021139020144243,-0.21393350418253915,0.22416626990504573,0.035059333206259424,0.31184486146131996
1.5046008455608058,-0.2138522782253927,0.23390956446423816,0.05425037809967037,0.32154250850237137
1.5070877891071872,-0.21855878914766258,0.2532290435085147,0.06386446347522678,0.34054597704995465
1.5095747326535687,-0.2232646347592951,0.2725478991970052,0.06868999243860685,0.35895371505546253
1.5120616761999501,-0.23275821951116737,0.2679241137252699,0.08788057805632832,0.36562646986370473
1.5145486197463316,-0.23746273789350603,0.27287650912999384,0.097494203512003,0.3746401751564979
1.5170355632927133,-0.23737819103744667,0.27303987424216336,0.08795406195009114,0.37233734102277116
1.5195225068390947,-0.23729298339470317,0.26362580453083106,0.0927789763977831,0.3666257809324205
1.5220094503854762,-0.24199551941724695,0.2781531220250262,0.09281533335874848,0.3801916317027347
1.5244963939318577,-0.24669739691667103,0.2926798089075331,0.08327472929750712,0.39173429352966366
1.5269833374782391,-0.2561870203454298,0.2928406539992987,0.0689455673191226,0.39514671867695206
1.5294702810246208,-0.2704643908358912,0.3025776726813372,0.05940465384891169,0.4101623429989559
1.5319572245710023,-0.26558749291907974,0.30752565376976015,0.049863585351179296,0.40938383122155053
1.5344441681173837,-0.2654983443293503,0.2933193860783141,0.05947597489173795,0.40007877309388457
1.5369311116637652,-0.27977375284031886,0.28868928830122,0.05951140233322327,0.40639446965465403
1.5394180552101466,-0.2796832996632987,0.2888469558882063,0.04518146413979629,0.4045944595990529
1.541904998756528,-0.28438059921290676,0.28900398428673624,0.05479338665837652,0.40914293757047104
1.5443919423029098,-0.2842888459820615,0.284371968942037,0.05482834643116519,0.405824730939551
1.5468788858492912,-0.26983123446385643,0.2749509086174542,0.040497939922204296,0.38735898128195606
1.5493658293956727,-0.27931499235466545,0.2703176087147945,0.04053258683768668,0.39080860421839
1.5518527729420541,-0.2887981041869616,0.25610685803217637,0.05493228696192176,0.3898879632201581
1.5543397164884356,-0.2791269578136843,0.24189546196719647,0.05975502347764028,0.3741603077952805
1.556826660034817,-0.264666764330101,0.24204862923570136,0.05500079616912679,0.3628513781634088
1.5593136035811987,-0.27414794479256066,0.24698955194996808,0.05503481478160488,0.37308144585931424
1.5618005471275802,-0.26926327377317627,0.247141422220293,0.055068675779045506,0.36961351738292153
1.5642874906739617,-0.25480115572700063,0.25208104543628584,0.04552557230512022,0.36130466390814103
1.5667744342203431,-0.2403383984295317,0.257020017024721,0.04555911742538399,0.3548203321283042
1.5692613777667246,-0.2450286162970169,0.2475931257698889,0.04080410096322673,0.3507226160206267
1.571748321313106,-0.24492979386301394,0.2477423870167601,0.03604892602332299,0.35023766118733674
1.5742352648594877,-0.22088831898151368,0.24789099286634242,0.050447205671320106,0.3358370354305559
1.5767222084058692,-0.22557662931131028,0.24803894205853316,0.05048011644945838,0.33905217094972206
1.5792091519522506,-0.23505270938631656,0.24818623333153456,0.04572446478284853,0.34487230866629615
1.581696095498632,-0.2301629470608706,0.24833286542189814,0.05054546041696639,0.34234345008654515
1.5841830390450136,-0.23006095675192417,0.24369043374425114,0.05057789317547545,0.3389265327444014
1.586669982591395,-0.2203815296343542,0.24862414699290625,0.0458217628430404,0.3353827947614067
1.5891569261377767,-0.2154898768050253,0.2487687939387806,0.03627706920439522,0.3311160304081652
1.5916438696841582,-0.2153859993999771,0.24891277663256828,0.026732215364679845,0.33024734737279177
1.5941308132305396,-0.20570468859442487,0.24905609380321758,0.026764007749422447,0.32412909292604014
1.596617756776921,-0.2055995588058851,0.2491987441782908,0.026795639503008672,0.3241746427122069
1.5991047003233025,-0.21507061117073933,0.24934072648400774,0.03640391705117807,0.331287504819601
1.601591643869684,-0.21496423354423527,0.24948203944529412,0.04601203353853833,0.3325176941749046
1.6040785874160657,-0.20049202374267627,0.2448342784655151,0.05083158543011734,0.3205069820978984
1.6065655309624471,-0.2003844028246738,0.24497424890777397,0.06043937915202591,0.32220988513019194
1.6090524745088286,-0.21942977524739937,0.2499019494933976,0.0652586078492483,0.3389086846396044
1.61153941805521,-0.22889772222596244,0.2644057822629202,0.07007767462785353,0.3566727707795311
1.6140263616015915,-0.22399984157716396,0.26933213265426037,0.06531977263313138,0.35634589853614235
1.616513305147973,-0.22388974771949954,0.2790462093465158,0.06056170829178775,0.3628513836211463
1.6190002486943547,-0.22377903847003922,0.2983364143772085,0.060591884710381905,0.37782674692877544
1.6214871922407361,-0.2332445216069286,0.30804913318138816,0.05583349503471524,0.3904031947631079
1.6239741357871176,-0.24749779494752083,0.31776117111512514,0.05586334569203011,0.4066300945137339
1.626461079333499,-0.24259684302807322,0.32747252689306405,0.05110462982850983,0.4107349112345153
1.6289480228798805,-0.22811847362718096,0.3323947959087783,0.04634575055147572,0.40579830821654844
1.631434966426262,-0.22800470448453836,0.33252797687545543,0.05595191760908591,0.40705235259865413
1.6339219099726436,-0.23267873009781848,0.3326604718259465,0.0559811141872224,0.4098002758674494
1.636408853519025,-0.23256374496486681,0.33279227947219514,0.05601014671417559,0.4098459872724469
1.6388957970654066,-0.23244815354464532,0.3377118018459133,0.05603901497785202,0.41378953151574094
1.641382740611788,-0.23712036029630124,0.342630634337699,0.05127931544609332,0.4198230401565899
1.6438696841581695,-0.2370035597182364,0.33797196901740234,0.04173104790731941,0.41489422690615807
1.646356627704551,-0.24167455959030204,0.33331261123574185,0.051336228751784674,0.41489673166272445
1.6488435712509326,-0.24155655441130647,0.3334409630227979,0.060941244487208834,0.4162286391879866
1.651330514797314,-0.24622635196152282,0.3287802164474418,0.06096928826222303,0.4152602813160783
1.6538174583436955,-0.24610714674019712,0.33369558017989265,0.06099716650700948,0.4190967933903574
1.656304401890077,-0.24598734320774424,0.3242450363277123,0.06581328233173167,0.41228146299929647
1.6587913454364585,-0.24586694250450636,0.31958219688117273,0.08020603884686928,0.4111159722601597
1.6612782889828401,-0.24574594577107428,0.3244954638695652,0.0850218225616608,0.4158330028347324
1.6637652325292216,-0.2456243541482967,0.32940802936125335,0.08504903658724139,0.4196120968023326
1.666252176075603,-0.23592536213666465,0.3199546821043606,0.061134067433533446,0.4022053571259172
1.6687391196219845,-0.22622577751819672,0.30092382412838825,0.03721893149361932,0.3783100569682129
1.671226063168366,-0.2308908113955092,0.2962574707442718,0.04203404848126624,0.37794962229164236
1.6737130067147474,-0.2355552549496434,0.2963788140210011,0.04206059494653758,0.3809143908834941
1.6761999502611291,-0.24021910932288454,0.29171104602787246,0.04208697400238215,0.38022607517006596
1.6786868938075106,-0.24488237565783488,0.28704256879548407,0.05647839540275257,0.3815109740961652
1.681173837353892,-0.2495450550974288,0.27279657439391913,0.06608124565982543,0.3755761394878408
1.6836607809002735,-0.23984193882400157,0.24897306153437038,0.04695350796586695,0.34887873666784885
1.686147724446655,-0.22534983462180302,0.23951404553013367,0.027825602037006902,0.3300360436361562
1.6886346679930364,-0.23001076023638373,0.23963112177323698,0.027851140949190167,0.3333222320802961
1.691121611539418,-0.23945950685116935,0.23017067569543492,0.03745331785692407,0.334248629600766
1.6936085550857995,-0.23933086564997258,0.2350747226120231,0.05184372923548608,0.33945126413806037
1.696095498632181,-0.2344132410982553,0.23997805127658367,0.05665716491998296,0.3402191456009869
1.6985824421785625,-0.22949503766189078,0.22572704712323732,0.0471052213866443,0.3253299463564546
1.701069385724944,-0.22457625648686402,0.21147532214952047,0.042341511713743785,0.31136652111314456
1.7035563292713254,-0.22923370536022186,0.2115880850336307,0.04715443901912941,0.3155014271292362
1.706043272817707,-0.22910217546789846,0.2212769311735565,0.04717879313989748,0.32198932528245067
1.7085302163640885,-0.22897007127754088,0.22617664932776105,0.02804936391367363,0.3230633638435916
1.71101715991047,-0.2288373939369599,0.23107564153712357,0.023284974381727608,0.3260440077774936
1.7135041034568514,-0.22391574127414343,0.24076230984375346,0.018520414382745543,0.3293140670857492
1.715991047003233,-0.22378192107852019,0.25044824965042656,0.02333249035753404,0.3366705794405562
1.7184779905496144,-0.22364753117909847,0.255345056361278,0.042509605427142105,0.34209119042182506
1.720964934095996,-0.22830097604604316,0.25545272870217506,0.04732133947101502,0.34585653302242836
1.7234518776423775,-0.23295385350943731,0.250771265400473,0.0425560956113582,0.3449126653069352
1.725938821188759,-0.22802935807961333,0.25566587514601435,0.05694429357254904,0.3472824217130124
1.7284257647351404,-0.22310429754872535,0.26534815334900896,0.047390303274886136,0.3499014302841945
1.7309127082815219,-0.2133902697485794,0.27502969542135114,0.03304773780334713,0.34966969208218696
1.7333996518279033,-0.20846408247251919,0.26555688681574896,0.05222382352478938,0.3416212252772508
1.735886595374285,-0.22269094683481916,0.26566014618984557,0.06661133368170624,0.35299240905528545
1.7383735389206665,-0.23212884738788664,0.25618585900004875,0.08578707472036662,0.3561943547142478
1.740860482467048,-0.2272009786457142,0.26107604058751877,0.11453944976738306,0.3645548919153889
1.7433474260134294,-0.22227255172451627,0.2755422863735615,0.133714845348484,0.37842872340332007
1.7458343695598109,-0.2173435677802476,0.2947961917815616,0.12415964799007284,0.38672812069123846
1.7483213131061923,12.160820151717944,7.793535338565175,-0.17748832511668944,14.444938280984317
1.750808256652574,11.55762302455794,5.710678695198843,-0.3642147919361989,12.89663341931742
1.7532952001989555,10.662333848410102,3.613456094418027,-0.5222110124242363,11.270099040502515
1.755782143745337,9.541990268599516,1.5736935847789875,-0.6275349701688047,9.691227472493212
1.7582690872917184,8.249264720490368,-0.3511479951186647,-0.6945518753195099,8.285896188748247
1.7607560308380998,6.8320412361253675,-2.103607806673769,-0.7328385347049675,7.186028498020641
1.7632429743844813,5.338203847546515,-3.6358018179230482,-0.7232413352311333,6.499119417748829
1.765729917930863,3.815636586795015,-4.909422803541231,-0.6801254870453679,6.254924899992649
1.7682168614772444,2.326588695872191,-5.90052874816129,-0.6370098135754834,6.374561629651844
1.770703805023626,0.8997905935363485,-6.594754443054072,-0.5843175083656753,6.68145464902521
1.7731907485700074,-0.4456041080956801,-6.972946276167281,-0.5076833616390068,7.005589567420574
1.7756776921163888,-1.666499780306363,-7.0734114752894826,-0.40710737357865945,7.278468783345863
1.7781646356627703,-2.7293776010195803,-6.9153036549250455,-0.32568517424979504,7.441572250639862
1.780651579209152,-3.629449168082358,-6.512988026254936,-0.22989794059170343,7.459542033993922
1.7831385227555334,-4.366714482662384,-5.919137027019605,-0.11016886614440224,7.356392845464104
1.7856254663019149,-4.907654722686461,-5.16726948167503,0.0047716289904897735,7.126413652167553
1.7881124098482963,-5.26663509928537,-4.2765390047130225,0.10055833467317576,6.785008703496902
1.7905993533946778,-5.458020823590853,-3.2996180338642827,0.1867680573663062,6.380623228761133
1.7930862969410595,-5.491388703415307,-2.2700253935747874,0.2538239902522079,5.947502988439701
1.795573240487441,-5.36673873993155,-1.2404335215686928,0.3017261331547356,5.516484268403373
1.7980601840338224,-5.098436144274275,-0.2683032588864003,0.3304744858987103,5.116175440873916
1.8005471275802039,-4.724788144180855,0.6655190065598182,0.3496458549505004,4.784223111370163
1.8030340711265853,-4.255371547467639,1.532302853658709,0.3544518368165157,4.536714135467469
1.8055210146729668,-3.714128371913374,2.2697990380597886,0.3448924313244266,4.36642737548833
1.8080079582193485,-3.129789038617674,2.887584365221861,0.33054444494351287,4.271180460084554
1.81049490176573,-2.5119303554006693,3.3617168173647203,0.29704266754249886,4.207037962376484
1.8129818453121114,-1.8892827433642096,3.682619586673566,0.2539639055926557,4.146754631018028
1.8154687888584928,-1.2618462036896274,3.850292671978001,0.22046177220690133,4.057784234611055
1.8179557324048743,-0.6583511574815115,3.8886780887131676,0.18695946057732193,3.948442397211146
1.8204426759512558,-0.10273962252514296,3.797775835716908,0.1582453738579801,3.8024595102037995
1.8229296194976374,0.40498839999482394,3.5967395251123793,0.12474270524304387,3.621617257268822
1.825416563044019,0.8456792956104997,3.2807807524258363,0.08645145456843117,3.3891252072635356
1.8279035065904004,1.2049678531739785,2.888206743070159,0.05773683163201149,3.130019051000416
1.8303904501367818,1.4972192814574738,2.447747915822324,0.03859883627185923,2.869603684542886
1.8328773936831633,1.7224335792710055,1.9594042695420528,0.019460661686530045,2.6089118888634837
1.8353643372295447,1.8710339387828736,1.451906223015067,-0.004466095604000131,2.3682946663194544
1.8378512807759264,1.9430203588004906,0.9491957917118405,-0.02839303243796465,2.1626620008701494
1.8403382243223079,1.95275804809097,0.46563818446674476,-0.057108552293099635,2.0083187744883917
1.8428251678686893,1.9002470054591076,0.015598610118758849,-0.07145904204440079,1.9016541202552704
1.8453121114150708,1.790275633028672,-0.4009229324488266,-0.06665609852662513,1.8358292609745521
1.8477990549614522,1.6324207362422767,-0.7551960244263554,-0.0666417384952478,1.799877667157637
1.8502859985078337,1.4506243305021607,-1.0424322636004526,-0.057050752142039585,1.7872411031419284
1.8527729420542154,1.2257328013261835,-1.2530548444325833,-0.02351792965755628,1.7530317842008103
1.8552598856005968,0.962534550832469,-1.4014289779804923,0.00043790556572531614,1.7001400335357657
1.8577468291469783,0.7184904176609432,-1.4875546653358929,0.014816753378770642,1.6520493027793888
1.8602337726933598,0.4600815773642129,-1.4874898909836145,0.024407016954089755,1.5572080580593541
1.8627207162397412,0.1968848353760187,-1.429965075926576,0.029208696145154533,1.4437509843117824
1.8652076597861227,-0.04236938958985931,-1.3197686245608107,0.024433387486398672,1.3206745920072105
1.8676946033325044,-0.27683471202480175,-1.1569005379563608,0.04359991407603658,1.1903601408872064
1.8701815468788858,-0.4921459231791251,-0.9653028337795309,0.06755466249013331,1.0856246142331067
1.8726684904252673,-0.6643610076644086,-0.7401871097689585,0.072355615985769,0.9972401120781659
1.8751554339716487,-0.8126335799766504,-0.4959185769387793,0.07715638770414657,0.9551239073660567
1.8776423775180302,-0.9417520446524328,-0.251650849617858,0.07238017086593551,0.9774783643922813
1.8801293210644117,-1.0277743863082425,-0.002595525527511189,0.08196898193533819,1.031041143652165
1.8826162646107933,-1.0802774128044303,0.2416705876559906,0.09155761081542657,1.1107595408780673
1.8851032081571748,-1.1184147386436136,0.46678227894171176,0.0819924440903268,1.2146851379831674
1.8875901517035563,-1.1182443484474263,0.6583743373451529,0.07242709490805233,1.2996818360606945
1.8900770952499377,-1.0797662434407784,0.8212351651690732,0.07243836977739981,1.3585174472197596
1.8925640387963192,-1.0364992480925714,0.9553647614020058,0.07723786524763909,1.411742967559318
1.8950509823427006,-0.978866556990682,1.0559747217185835,0.0772487745491599,1.4419534397728586
1.8975379258890823,-0.8925029614044884,1.1230650451200686,0.07247109755441272,1.4363456031425947
1.9000248694354638,-0.7965620758474756,1.1566357306140866,0.05811643081699458,1.405594135425489
1.9025118129818452,-0.7054091115145635,1.1614751805351298,0.0581267908138301,1.3601490114752843
1.9049987565282267,-0.5951020530402387,1.132794990583608,0.07250217742177334,1.2816503072035375
1.9074857000746082,-0.48479451494354814,1.080171966427483,0.05814696063635871,1.1854021544633753
1.9099726436209896,-0.38406330510497977,0.9988177037805315,0.053368366899933406,1.0714427704264657
1.9124595871673713,-0.28333161812567254,0.8935206050038982,0.0533779927735516,0.9388850235831742
1.9149465307137528,-0.18259945524937893,0.7786458791061981,0.053387434819804014,0.8015498638906209
1.9174334742601342,-0.10580883432347804,0.6541935251420958,0.07255030620437886,0.6666545017391575
1.9199204178065157,-0.02901773999420265,0.5297403488138084,0.0917129935320311,0.5384033242638393
1.9224073613528971,5.698089744457276,4.221643795478853,-0.11896786268468595,7.092577558556976
1.9248943048992788,5.454058759380608,2.8761461249557616,-0.22430403013469302,6.170031262547139
1.9273812484456603,5.0663761443421595,1.5498012425776855,-0.3104867686928561,5.307207661377873
1.9298681919920417,4.578137527968225,0.2952815839574754,-0.37751607846685076,4.603156832904613
1.9323551355384232,3.9893429090007846,-0.8586824318843909,-0.42539195956262965,4.1028222827320056
1.9348420790848047,3.3191458994604295,-1.878571982600924,-0.4445376054439478,3.839710389908592
1.9373290226311861,2.6010653213264257,-2.726079842517211,-0.4349530162135231,3.7929192240145113
1.9398159661775678,1.8590431899358235,-3.401206012512515,-0.4253686118942763,3.8993823071844225
1.9423029097239493,1.1170215206225256,-3.880008476857853,-0.39184237598401417,4.056567921980286
1.9447898532703307,0.4037307320391933,-4.157698833097073,-0.35352792186166937,4.192187982696565
1.9472767968167122,-0.26646396712513476,-4.253430695368085,-0.3200020562638368,4.273766142653173
1.9497637403630936,-0.9079277881053216,-4.171992467839958,-0.26732276268323574,4.278003679238222
1.952250683909475,-1.4727766989748576,-3.932537764634718,-0.2194320578139326,4.205005933802943
1.9547376274558568,-1.94185708773125,-3.573373813147652,-0.18111834506704483,4.070947458833301
1.9572245710022382,-2.343899375577546,-3.0992890175238124,-0.13322801125035788,3.888085184246643
1.9597115145486197,-2.654961547195893,-2.5294369918609108,-0.07576105645113174,3.667780262032852
1.9621984580950012,-2.875043603872363,-1.9069133668499294,-0.018294287395463016,3.4500042019959376
1.9646854016413826,-3.0041455468953844,-1.2700253698537658,0.05353750579383565,3.2620118288458406
1.967172345187764,-3.0422673775560805,-0.6139845983435235,0.11100390311301922,3.105590080814165
1.9696592887341458,-2.994197500468284,0.008536510374341777,0.14452809784140896,2.997695767566406
1.9721462322805272,-2.869512723568782,0.6023263588450991,0.1828405098226149,2.9377424947253155
1.9746331758269087,-2.6921550647577543,1.1434429297013797,0.21636433233963537,2.9329122302744897
1.9771201193732901,-2.4525477186957865,1.593578995623341,0.21636914539605812,2.9327972884008235
1.9796070629196716,-2.160267493327564,1.9575229591823096,0.2163737721613952,2.9232634824341397
1.982094006466053,-1.8488332132015504,2.235274819638754,0.22595501920550376,2.909586472379261
1.9845809500124347,-1.5086680729864685,2.4220461729411507,0.22595927317826892,2.8624193633083936
1.9870678935588162,-1.1541372839551614,2.517837018367495,0.22596334065335455,2.778955838547338
1.9895548371051976,-0.804394460703494,2.5130705485641682,0.2068136082844827,2.6467613982077647
1.992041780651579,-0.47859321783001707,2.436477182749112,0.173298479328869,2.4890771167538457
1.9945287241979606,-0.16715675001430214,2.302422130188516,0.15414837364724931,2.3136228659302405
1.997015667744342,0.12512653810048477,2.0869633735952635,0.1541516945007686,2.0963862998461407
1.9995026112907237,0.38867983854787214,1.8331965421759917,0.14457802191036428,1.8795170612577918
2.001989554837105,0.618714746678961,1.541121635263862,0.1302157591411479,1.665779089905104
2.0044764983834864,0.8008660512013204,1.2251038621624382,0.12064171278055014,1.4686117008640314
2.006963441929868,0.9447105574211782,0.8995084321848075,0.11106747945707696,1.3091712805693347
2.0094503854762498,1.0406714573605815,0.5882773612942791,0.1014930591215748,1.199736711543917
2.011937329022631,1.0935371529995574,0.2961990521825779,0.08713004840662109,1.1362873883131746
2.0144242725690127,1.1033076429948379,0.013696697590231732,0.06797844726716029,1.1054847008930322
2.016911216115394,1.084348135961081,-0.2304992831699204,0.04882665898051819,1.1096507748527542
2.0193981596617756,1.031870227228668,-0.43160048737668477,0.03446308682609178,1.1190276363425158
2.0218851032081573,0.941085512124858,-0.5896069156193895,0.02009932744474696,1.1107124916202427
2.0243720467545385,0.8215707959349005,-0.6997301651567276,0.005735380799773537,1.0791819917679712
2.02685899030092,0.6829028839407616,-0.7476050265969307,0.0009480534971988419,1.012556429782084
2.0293459338473014,0.5298701781010198,-0.7715387270613825,0.005737345504559954,0.9359846847730702
2.031832877393683,0.376837887011797,-0.7619544604581292,0.005738046830614962,0.8500672432701927
2.0343198209400644,0.21901760598460435,-0.6901218074036408,-0.00862664919340439,0.7240933916709925
2.036806764486446,0.05162093032783932,-0.6039248016290109,-0.013414725991900411,0.6062753840821756
2.0392937080328277,-0.10619852805178776,-0.4889982336908312,-0.0038377802683378093,0.5004119587604868
2.041780651579209,-0.2448639638915811,-0.35491891073664883,0.020104187955721997,0.43165955611401197
2.0442675951255906,-0.3835289918538774,-0.2112636399035117,0.04883437202029128,0.4405809903165914
2.046754538671972,-0.5126168066824898,-0.0628208249975093,0.06319915862698089,0.52030431499064
2.0492414822183536,-0.6081853931637619,0.08562113018614692,0.05841014444058423,0.6169539653537228
2.0517284257647352,-0.6989651726107663,0.22927382186295153,0.053620942729704524,0.7375594914402939
2.0542153693111165,-0.7610141298165733,0.3633488462593082,0.048831553483950074,0.8447185392035045
2.056702312857498,-0.7991206694995674,0.47826939629226395,0.05840718665614908,0.9331381780338267
2.0591892564038794,-0.8132847930612834,0.5836122781711408,0.07277103559986209,1.0036588411801692
2.061676199950261,-0.8130833085473752,0.6698006848351059,0.08234629367095003,1.0566543125001977
2.0641631434966428,-0.8033046206866983,0.7320462125548102,0.07276775090727483,1.0892589758659534
2.066650087043024,-0.7791603275710466,0.7703488609324283,0.058400617270915944,1.0972414573365947
2.0691370305894057,-0.7358620272957611,0.7894970329017936,0.03924489276533727,1.0799715967490655
2.071623974135787,-0.6494677046785502,0.789490728087781,0.03924259399793684,1.023056152095615
2.0741109176821686,-0.5774382009860566,0.7655415428064081,0.03924010769566699,0.9597023058075856
2.07659786122855,-0.49583150104326507,0.7224378800258351,0.04881424050974559,0.8775808783238065
2.0790848047749315,-0.42380121956165323,0.6649681427258098,0.05838818581252703,0.7906954437611461
2.081571748321313,-0.3469821480142188,0.6027091372180537,0.04880833033816678,0.697163659578647
2.0840586918676944,-0.2701626911589435,0.5404492665057048,0.04401669070603553,0.605814128608361
2.086545635414076,-0.20291965707788295,0.4590349170021377,0.04401326693638197,0.503812077983625
2.0890325789604574,-0.13567624057563116,0.3871965083357223,0.04400965573157656,0.41263304293491027
2.091519522506839,-0.08279765306215914,0.32493404022489303,0.048794260437075465,0.3388487298206609
2.0940064660532207,-0.03470708934970873,0.2530938991188303,0.044001871119553115,0.25922435935753235
2.096493409599602,0.013383852425263076,0.1956181013616476,0.03920929444974064,0.19995734009363975
2.0989803531459836,0.05189836416151122,0.13814143674705415,0.039204933780554896,0.15268766676427697
2.101467296692365,0.0808364443944872,0.08545230836222606,0.05356559578773812,0.12925130869307025
2.1039542402387466,0.09062128501503636,0.0710695392285543,0.06792607054798694,0.13370507755513839
2.106441183785128,0.1004064978319324,0.05668590257505679,0.07749795478115651,0.1389269209076659
2.1089281273315095,0.10061527472806309,0.042301398205690344,0.08228124852996466,0.13668593804195736
2.111415070877891,0.08645921090261166,0.04228123589784172,0.08706435516000077,0.12978096932284786
2.1139020144242724,0.07230351483194214,0.05183701216021186,0.08227046807848915,0.12117468384363349
2.116388957970654,0.03899457174616122,0.06139192019381978,0.08226479729680314,0.1098045598553856
2.1188759015170353,0.015262800074396177,0.08531116981394327,0.07268213290702974,0.11310897932989046
2.121362845063417,-0.013257011641187588,0.12359476088770949,0.07746449156636004,0.1464655615842145
2.1238497886097987,-0.05614167154225114,0.1570890800138094,0.07745826005179524,0.18392565996454804
2.12633673215618,-0.09423756785275494,0.17621732044446903,0.0678750351039028,0.21104569081075147
2.1288236757025616,-0.11796789544153041,0.21928670864803124,0.04871481678620171,0.253724690006912
2.131310619248943,-0.16085147906443015,0.2623552279418022,0.02476600848518906,0.3087342208468285
2.1337975627953245,-0.2037347069581369,0.29584607161713716,0.015182223550970875,0.35953195799895427
2.1362845063417057,-0.24182917732455744,0.3149708362988819,0.019963462055081038,0.39760095389914996
2.1387714498880874,-0.26555808504959744,0.348459941867314,0.0343213207514399,0.4394580533788228
2.141258393434469,-0.2892866416250623,0.4011017916144608,0.048678993076361365,0.496929625425941
2.1437453369808503,-0.30822644526586973,0.42980075564260156,0.0630364791094955,0.5326404310702553
2.146232280527232,-0.3271659008319497,0.43934523727058794,0.05824016565197354,0.5508663005436979
2.1487192240736133,-0.3461050098673317,0.444100446471408,0.03907845610923211,0.5643943746559235
2.151206167619995,-0.34110175731891934,0.4488547865910033,0.029493367170712048,0.5645271357506001
2.1536931111663766,-0.34088656466151673,0.44881985434833416,0.03906170556768096,0.5649501999874383
2.156180054712758,-0.3502478367728447,0.4439956497963875,0.04384145479201074,0.5672105053332965
2.1586669982591395,-0.3500319619335817,0.42959376968160834,0.034255808299290536,0.5551996413242402
2.161153941805521,-0.33545053838987093,0.41519102072522607,0.03424678279010607,0.5348677308722055
2.1636408853519025,-0.3208687776736656,0.3959989997014377,0.04381437836629232,0.5115580905449117
2.166127828898284,-0.31107508468087536,0.37201770671872625,0.04859338517157852,0.48736659662302195
2.1686147724446654,-0.28691584771045264,0.35761235186054696,0.048583803313460905,0.4610506304247293
2.171101715991047,-0.2579678749878538,0.3336293219822726,0.053362439542908646,0.42509234169303783
2.1735886595374283,-0.24338478138381214,0.3048570205550014,0.05814089065281003,0.3944037499274323
2.17607560308381,-0.23358976185186126,0.2904490610250021,0.04376554347799022,0.37528689916947344
2.178562546630191,-0.20942920470960813,0.2808286369309654,0.04854362469989937,0.3536690523707264
2.181049490176573,-0.19963353148250618,0.26163053850562834,0.06289832779974702,0.33505266035494524
2.1835364337229546,-0.18504913049762728,0.2472199759180227,0.06767603962102164,0.3161343757480697
2.186023377269336,-0.15609919672743444,0.2423853527110409,0.06766516361169295,0.29613542981953905
2.1885103208157175,-0.15109095835230385,0.2423382658014961,0.0676541032226492,0.29348490668236255
2.1909972643620987,-0.15087080371367112,0.24229031212081287,0.06764285858740493,0.29332942416110536
2.1934842079084804,-0.14107352447811633,0.2422414919353999,0.06763142984242343,0.2883690171053346
2.195971151454862,-0.12648752559832044,0.23261499888577442,0.0771966237677546,0.2758045513760693
2.1984580950012433,-0.11668961535215905,0.23256444654912478,0.07239642390423562,0.2700813401993135
2.200945038547625,-0.1212566020223857,0.2420898352362486,0.053230830397241746,0.27594233666385654
2.2034319820940063,-0.12103487397481122,0.24203755199161403,0.06758387659826504,0.2789250753665601
2.205918925640388,-0.12081283618173672,0.24677280711685823,0.06757152945555589,0.2829460572469112
2.208405869186769,-0.12537889362042093,0.24193039100678204,0.06277059576412647,0.27962533638917386
2.210892812733151,-0.1299446446324743,0.23708711067285204,0.06754628564231879,0.27867258462205236
2.2133797562795325,-0.14408689752544074,0.24181977314169467,0.06753338928963437,0.28947987043964357
2.2158666998259138,-0.1486520406900046,0.246551572173904,0.06273190686955132,0.2946530147176788
2.2183536433722955,-0.15321688244375942,0.24649410486566703,0.057930241868909604,0.29595720927576946
2.2208405869186767,-0.17214663442966438,0.26080098493007364,0.057916797777616935,0.31781436869778307
2.2233275304650584,-0.18628768505356236,0.2703185995331099,0.0579031714480287,0.3333587018811672
2.22581447401144,-0.18606322936701164,0.27504694913746874,0.06746616969651953,0.33885400042766217
2.2283014175578213,-0.20020368898917795,0.2749860342213548,0.07224058274099043,0.3477319914768003
2.230788361104203,-0.20955545234122774,0.270135855278542,0.07222641076339009,0.34943314428480865
2.233275304650584,-0.204541714490095,0.2604964128184317,0.04827004066753027,0.33470239151201675
2.235762248196966,-0.20910449375006063,0.26043291732704654,0.029101892563467402,0.3352564896981429
2.238249191743347,-0.21366698519839428,0.2747337726655248,0.029087176603459497,0.3492539051314444
2.240736135289729,-0.2038639805972453,0.27945696278892607,0.029072279700713466,0.3471338561465328
2.2432230788361105,-0.21321430491709714,0.26981408494940684,0.038634008693458455,0.3460528382864282
2.2457100223824917,-0.22735274993052873,0.2553819463759712,0.057772363782458314,0.346766286499662
2.2481969659288734,-0.21754889745443134,0.24573735431357324,0.06254532857010275,0.33410520530906945
2.2506839094752547,-0.2173215724749975,0.24566871270288537,0.04816449994318006,0.3315141042533108
2.2531708530216363,-0.2075171634602611,0.24081081221938838,0.04814870135418481,0.32151441313640783
2.255657796568018,-0.20250088212572515,0.2407404601562515,0.048132723055681836,0.3182441444028397
2.2581447401143993,-0.20706113355155947,0.25503446382280215,0.03853975862375947,0.330760039545013
2.260631683660781,-0.19725590290137757,0.2597508073024337,0.03852342155959221,0.3284272021808818
2.263118627207162,-0.19223880522691938,0.2644662979369774,0.04808371208633666,0.3304697026166926
2.265605570753544,-0.19200984230401485,0.2787577430846073,0.0720090337506818,0.3460620750861663
2.268092514299925,-0.1822038059529028,0.2834715301980002,0.10072258014163538,0.3517092172333659
2.2705794578463068,-0.17239750460074366,0.2833960633478245,0.10070552824988077,0.34666385986095394
2.2730664013926885,-0.1721677466800683,0.2928965532618535,0.0958998949131118,0.3530253726772508
2.2755533449390697,-0.17672613066785114,0.3023961940828248,0.08151727705042155,0.35961180447021346
2.2780402884854514,-0.17649585172614624,0.31668338993098644,0.062346078224807755,0.36786708007748237
2.2805272320318326,-0.1762653149833468,0.3118161250213478,0.04317470200252416,0.36078083649566817
2.2830141755782143,-0.18561132889357007,0.31652482010901073,0.04315676191407469,0.36946181569627295
2.285501119124596,-0.18059187867416548,0.31644426608299625,0.05750385489168508,0.3688591784235206
2.287988062670977,-0.1755721761104148,0.31636286713033757,0.07185077123025607,0.3688815338959877
2.290475006217359,-0.17534062635240677,0.32106902745488153,0.06704389790770371,0.3719200719067692
2.29296194976374,-0.18468563455567838,0.31619753799607997,0.05744844514744152,0.3706615578878859
2.295448893310122,-0.18924199259996793,0.320902012952474,0.047852816535595366,0.37560687657515734
2.2979358368565035,-0.1890097023314089,0.32560564661767444,0.038257012341302854,0.3784274087298703
2.3004227804028847,-0.1839887656016032,0.32552003662259654,0.03823783947768078,0.37586871707858205
2.3029097239492664,6.649295547177694,3.3995885188964343,-0.15810604455287347,7.469627225829527
2.3053966674956476,6.2616678923471305,2.580684263369977,-0.23952842365084237,6.776856935703531
2.3078836110420293,5.711234762179098,1.7857211870608563,-0.3017973639399649,5.991501006886511
2.3103705545884106,5.021938171401855,1.0099108876688039,-0.3401244618139643,5.133757653798944
2.3128574981347922,4.203354924776797,0.3011373994334843,-0.3497213136632453,4.228614590408219
2.315344441681174,3.303369053623043,-0.34059927659072065,-0.3449531291560657,3.338749411525681
2.317831385227555,2.374652992573563,-0.9057223326922135,-0.35933873123854454,2.566794519014744
2.320318328773937,1.431571949693977,-1.384654961141627,-0.36893610300966273,2.025532388452155
2.322805272320318,0.526798359606747,-1.7773971608329802,-0.3498032275650065,1.88653637045152
2.3252922158666998,-0.33487937627413417,-2.0743721240022275,-0.3258821211998768,2.126349703696219
2.3277791594130814,-1.1343076465799755,-2.289945059469694,-0.29238438028427716,2.5721568455896473
2.3302661029594627,-1.8427560333055293,-2.4145391594362753,-0.254098407825472,3.0480018293292748
2.3327530465058444,-2.445859328413358,-2.457731229366969,-0.19187059022569386,3.4726769175357894
2.3352399900522256,-2.9388291305114813,-2.4195212680684763,-0.13443134708690252,3.8090512745378153
2.3377269335986073,-3.2833582149712934,-2.3142744842909178,-0.08656908140607911,4.0179350122065145
2.3402138771449885,-3.4938117936933617,-2.165932893407364,-0.04349538953610299,4.1109461194967905
2.34270082069137,-3.5893434819036867,-1.960131284210874,-0.024363884428025173,4.089754868117534
2.345187764237752,-3.569953281552745,-1.7112348653986502,-0.0004441458263020337,3.958900275870897
2.347674707784133,-3.450006404557377,-1.433608845650228,0.033052229926491705,3.7361572455822323
2.350161651330515,-3.2295028528789542,-1.1368300303071113,0.06654843653029197,3.4243977410584185
2.352648594876896,-2.9228078384452614,-0.8400520313336848,0.08567926436817608,3.042340219661105
2.3551355384232777,-2.5538633798301684,-0.5193328307937468,0.10959832706886807,2.6084356509743754
2.3576224819696594,-2.132246285649741,-0.21297965389608242,0.12872881834265115,2.1467197451723194
2.3601094255160406,10.911602157926124,6.9264242487726255,-0.014946571026317912,12.924342843132449
2.3625963690624223,10.792130069032948,5.36051010419026,-0.12031490122713073,12.050710173243246
2.3650833126088036,10.394930780635303,3.7850183434493245,-0.20652978517965614,11.064520068516911
2.3675702561551852,9.739157904014544,2.2526214044960513,-0.2783796258394595,10.00014975324896
2.3700571997015665,8.87269547036953,0.8112033219770067,-0.32628761619755586,8.915673802242116
2.372544143247948,7.85300431753313,-0.500928676086595,-0.35983056252285905,7.877187593516189
2.37503108679433,6.694449653450681,-1.6454673616542599,-0.3742200611198072,6.903858316550238
2.377518030340711,5.449703912624489,-2.6080475232693274,-0.3646677082893568,6.052616554546881
2.3800049738870928,4.166651126231168,-3.3743039494571287,-0.33117350364931575,5.371832521641455
2.382491917433474,2.8740217121607223,-3.9346598320452824,-0.29767946341555707,4.881614677421932
2.3849788609798557,1.6196997015792818,-4.298691976124548,-0.25939718387861,4.601028877098876
2.3874658045262374,0.41326189908404315,-4.452035170166317,-0.20196145468484872,4.475733569238767
2.3899527480726186,-0.7021960674887888,-4.4282082358266575,-0.1541026953600486,4.486184920147295
2.3924396916190003,-1.7075205869119707,-4.251153188103156,-0.11103250218423,4.582603866797688
2.3949266351653815,-2.5931348546032886,-3.9304468320142263,-0.04880885815270375,4.709049052418466
2.397413578711763,-3.3446736626651554,-3.494819585841726,-0.0009505861010694616,4.837417363730652
2.3999005222581444,-3.9334065932451128,-2.9730018678489114,0.032542314380823,4.930667960453482
2.402387465804526,-4.373698858378218,-2.3937240962812107,0.0660350536675196,4.986333059594907
2.404874409350908,-4.684704073425205,-1.7521978661236353,0.09473922885581842,5.002561857598477
2.407361352897289,-4.8329034172285725,-1.1154608221477218,0.13302005032726072,4.9617439091306546
2.4098482964436707,-4.842238908479766,-0.507454979224025,0.15693550190438366,4.871284938749996
2.412335239990052,-4.722287355914459,0.07660806771695183,0.17127398733509658,4.726013271945664
2.4148221835364336,-4.492202374914107,0.6175747071613285,0.18561231369111297,4.538252155522334
2.4173091270828153,-4.171137580865221,1.086714520972861,0.18079686812577123,4.314165582835634
2.4197960706291965,-3.7686697825190896,1.484027510955091,0.1664044577177748,4.053751352326927
2.4222830141755782,-3.3039525952722864,1.8095136789301858,0.18553071279150402,3.7715864236990324
2.4247699577219595,-2.7865628278861188,2.039231010136667,0.19029160058889794,3.4582663864593166
2.427256901268341,-2.2404424990878065,2.187544716393832,0.18068712155850797,3.1364920394986635
2.429743844814723,-1.689533627609499,2.254454799578244,0.16150567947267547,2.821909709162684
2.432230788361104,-1.1338362155871837,2.2543264715456113,0.1279588714666211,2.5266471611357537
2.4347177319074857,-0.6020806850831093,2.168006120927658,0.09441190796026788,2.252035812347272
2.437204675453867,-0.11820905484456717,2.0385893795383736,0.0704415960567264,2.0432283419796518
2.4396916190002487,0.332143882938817,1.8564994426865145,0.04647112958133803,1.886549576754764
2.44217856254663,0.7250361095100072,1.6361015223005952,0.056019332245719866,1.7904311539271731
2.4446655060930116,1.0604676227085847,1.3869724270070587,0.0559905746399707,1.7468311413927686
2.4471524496393933,1.3432268236898237,1.1139005621300502,0.041596453920154985,1.7454979310134477
2.4496393931857745,1.5541600970022427,0.8456163496137212,0.04156739048799096,1.7698046405747831
2.452126336732156,1.7076326504319794,0.5821197914983505,0.03674977154554249,1.8045008357393686
2.4546132802785374,1.7892792718384598,0.3377760998033259,0.03193200089990178,1.821162447150332
2.457100223824919,1.803888362357595,0.11737367992572922,0.01753727240067704,1.8077879744349803
2.459587167371301,1.7754019364018243,-0.10302948264135159,0.022296006463427887,1.7785286677410934
2.462074110917682,1.7038199917773678,-0.2755493525817223,0.03184299362434473,1.7262514261634647
2.4645610544640637,1.5747773163247893,-0.4049743310846976,0.03660142774338482,1.626427824823917
2.467047998010445,1.412215924442472,-0.5008812226417629,0.0509365192855018,1.4992766073813515
2.4695349415568266,1.2161358139227156,-0.5632700250855729,0.05090625215657418,1.3412124684679891
2.472021885103208,1.0056905958345492,-0.5873523329104606,0.03651062686748574,1.1652164448717963
2.4745088286495895,0.7808802679609591,-0.577916547233307,0.017326450573168728,0.9716283931351074
2.4769957721959712,0.5417048280807356,-0.5349626658326401,0.012507337072598546,0.7614365423864237
2.4794827157423525,0.3025294839288285,-0.468067493109531,0.012476480246290222,0.5574647336930115
2.481969659288734,0.07771944323590552,-0.38201943012675077,0.0028686706578611165,0.38985559650030654
2.4844566028351154,-0.12793689291245186,-0.2911836845696856,0.0076259254368427065,0.31814138596925523
2.486943546381497,-0.3335931400366118,-0.19077185082449377,0.012383035153645139,0.38448877968817996
2.4894304899278787,-0.5057304771378841,-0.08557232989998198,0.021928403663348917,0.5133875670853805
2.49191743347426,-0.6587141164249132,0.01962647721290134,0.04105043482439896,0.6602837450554987
2.4944043770206417,-0.7973324634701655,0.12482457286154602,0.045807112576772724,0.8083430724983616
2.496891320567023,-0.8928551006080576,0.22523355609084206,0.040986840785672385,0.9217376560544445
2.4993782641134046,-0.9644356433803722,0.3160650259635611,0.060108443241555065,1.0166839409613897
2.501865207659786,-1.0120740940518167,0.3877421782399959,0.06965309725386604,1.086043057431039
2.5043521512061675,-1.0261936482506129,0.4498418219795006,0.07440920669791318,1.1229282250229318
2.506839094752549,-1.011582711570022,0.5071523629388968,0.09831878873360722,1.135856366711878
2.5093260382989304,-0.9778180929276823,0.554885400252132,0.11265142400075057,1.1299187464588305
2.511812981845312,-0.9248997946046333,0.5930409363911884,0.08867669314248872,1.1022707191076597
2.5142999253916933,-0.8624046255265256,0.6120421672051153,0.0694902266099664,1.059795378439152
2.516786868938075,-0.7711789747010829,0.6166774985215566,0.06466883161546555,0.9895404013916397
2.5192738124844567,-0.6751648610227294,0.6117353361857765,0.04548208881207039,0.9122150686657591
2.521760756030838,-0.5647854801476497,0.5924272794200172,0.04066041869991466,0.8195157043251012
2.5242476995772196,-0.45919444765762973,0.5635417341046849,0.03583861189961013,0.7278208797088758
2.526734643123601,-0.3679685724976215,0.5298671061376976,0.026228265675673157,0.6456376247036949
2.5292215866699825,-0.25758903373360187,0.49619180143448194,0.04055980053808028,0.5605385905807877
2.5317085302163638,-0.17115146356019045,0.45772741928726646,0.04531439383601743,0.4907755170491922
2.5341954737627455,-0.08471384769123297,0.40489715568534157,0.030915239523478633,0.4148179054808594
2.536682417309127,0.001723811554091792,0.36164302987761676,0.021304354799902114,0.3622741063321762
2.5391693608555084,0.06421949525162418,0.3183882378880587,0.04042375686794131,0.3273061162202058
2.54165630440189,0.11235000771578646,0.27513278239857053,0.04517781644911345,0.3006020746489056
2.5441432479482713,0.16526895989814788,0.23666506942859789,0.04993174411188761,0.29294600742033283
2.546630191494653,0.1894575262234386,0.20298510169443462,0.06426234710762024,0.28500307894544785
2.5491171350410347,5.409063726816,3.5259752061480847,-0.1560389432857292,6.4587010851214774
2.551604078587416,5.054968491953368,2.2951931003844983,-0.2518418774275748,5.557341284636041
2.5540910221337976,4.576374797807826,1.1553900078737351,-0.31891452110396123,4.730733434899504
2.556577965680179,4.045108691837719,0.14008475464279302,-0.3716220836523938,4.064557914499748
2.5590649092265605,3.4515933650528097,-0.7411458498661676,-0.4147529677666313,3.5545483472196087
2.561551852772942,2.8197708317029457,-1.4787249961931495,-0.4387303661764026,3.2140658816978895
2.5640387963193234,8.72890725153846,3.7883529825567965,-0.7548004940690465,9.545426334756064
2.566525739865705,7.541629965953578,1.3508893831838655,-0.8697578088166367,7.710873057894635
2.5690126834120863,6.210700593679047,-0.8423662797253415,-0.9703500392723026,6.342236357331642
2.571499626958468,4.7744263589124625,-2.7387415667619166,-1.0230583615517777,5.598437356738811
2.5739865705048492,3.3094217124107432,-4.323871265063058,-1.0422479849708584,5.543862881564576
2.576473514051231,1.8683590883274295,-5.573813355107884,-1.0135536989204326,5.965354314800589
2.5789604575976126,0.4895457108507647,-6.474202624000975,-0.9417639060695766,6.560630600362203
2.581447401143994,-0.7791343891921046,-7.025039068790525,-0.850820622365621,7.119137591443056
2.5839343446903755,-1.904162390937929,-7.26462991307106,-0.7455122504716325,7.5469510864025455
2.5864212882367568,-2.8663846834870452,-7.2169171704598565,-0.635415596367995,7.791264825374319
2.5889082317831384,-3.6466476559423855,-6.896266047917315,-0.5061654494305454,7.817463015099236
2.59139517532952,-4.235374504050049,-6.379290995551711,-0.37691542227435093,7.666538725594008
2.5938821188759014,0.3569510295663772,-0.9063191099395747,-0.58285374665215,1.135141778165445
2.596369062422283,-0.19346861607850185,-1.3566027317820102,-0.6164096699387649,1.5025850919264974
2.5988560059686643,-0.7055810508005842,-1.7159072877016417,-0.6164468877482854,1.9550419956233698
2.601342949515046,-1.1602326637149663,-2.003386387898931,-0.5877538027231406,2.3885458726567017
2.603829893061427,-1.5478466505796353,-2.190309609355374,-0.5446956241435004,2.736782556489676
2.606316836607809,-1.8684230137954152,-2.3054073688804504,-0.4968491579663432,3.0087816106757383
2.6088037801541906,-2.121961755765284,-2.3774100832679457,-0.4250607902239114,3.214883679441663
2.611290723700572,-2.2749440556521296,-2.3680105228116495,-0.3389073268674938,3.3011668344235696
2.6137776672469535,-2.346523529144319,-2.3155159109147916,-0.2527539771658365,3.30630778656504
2.6162646107933347,-2.3462769852915764,-2.2342914543636314,-0.15223553046309668,3.243493433242414
2.6187515543397164,-2.2694160231846143,-2.1195487466477014,-0.06129400266302376,3.1058803792910905
2.621238497886098,-2.1255174518769158,-1.9569225746006251,0.015282203614580325,2.8892220314406774
2.6237254414324793,-1.9337348870645705,-1.7751433549237583,0.09185829903386988,2.6265761917526778
2.626212384978861,-1.7036451378044513,-1.5885762943420458,0.17322268762124615,2.335805535145634
2.6286993285252422,-1.440036609835153,-1.3828561796438206,0.2354333534838009,2.010329703102765
2.631186272071624,-1.1285440956154822,-1.1675598142038324,0.27849029733295794,1.6475328649835346
2.633673215618005,-0.8122632274496024,-0.9426871947413453,0.3119703265234435,1.2828702905700544
2.636160159164387,-0.5103476210416287,-0.7178151246014373,0.3358734417720033,0.942615624895534
2.6386471027107685,-0.2180088754955674,-0.5073088104347776,0.35977645043865714,0.6590365644103751
2.6411340462571498,0.055176200122245,-0.2968030389555256,0.35973733664384433,0.4696247527215446
2.6436209898035314,0.29963079674413895,-0.08150940350392188,0.35969811771374616,0.47518957596300937
2.6461079333499127,0.5201433152621101,0.11941848599268745,0.36444719769587763,0.646244228691462
2.6485948768962944,0.6879833333247563,0.30119222958225933,0.364407770679378,0.8347639483260457
2.651081820442676,0.8175160584623381,0.5021190572098355,0.34521462743561493,1.0196220831526754
2.6535687639890573,0.9087414882430909,0.6695265357487039,0.2972909620587938,1.167244100712345
2.656055707535439,0.9568712169139113,0.8082030719299893,0.24457879188781284,1.2761714291883686
2.65854265108182,0.9619052420410439,0.932513879139429,0.1775013110218584,1.3514253752494747
2.661029594628202,0.9334203678304567,1.0424589608157229,0.11521213348447112,1.4040185553502438
2.663516538174583,0.8857818018075909,1.1476151270519868,0.05771126002037441,1.4508481897790648
2.666003481720965,0.8046243315752368,1.2192519613925428,0.01457549801733471,1.4608929137568274
2.6684904252673465,0.6803711480557837,1.276523080598439,-0.047713975017282806,1.4473053229430284
2.6709773688137277,0.565694685335054,1.3050632782020375,-0.11000354505029009,1.4266399044788443
2.6734643123601094,0.4462297310138263,1.3048725577100595,-0.13877438808525788,1.3860273069077327
2.6759512559064906,0.3028226693721427,1.285527729283117,-0.14839171332646472,1.3290234055220551
2.6784381994528723,0.16420391789272681,1.2470287964544453,-0.1532207299759385,1.2670912902913913
2.680925142999254,0.030373474135881706,1.1797989561296878,-0.15326143727243569,1.1900996567391307
2.6834120865456352,-0.0986686643382284,1.0982034218291314,-0.13893702781184736,1.1113459221757613
2.685899030092017,-0.22292249996986918,1.0118190037655448,-0.12940111410969024,1.0441344672534976
2.688385973638398,-0.3328112285587904,0.9014920922426626,-0.11986529207770502,0.9684105505805574
2.69087291718478,-0.4235464492252136,0.7720110941784455,-0.09117594766448534,0.8852715841019659
2.6933598607311615,-0.5047049710503808,0.6521064331049633,-0.04812148341801681,0.8260058020778028
2.6958468042775428,-0.5714983931545545,0.5274129026840253,-0.02422072180600665,0.7780497584734738
2.6983337478239244,-0.6095615080173848,0.39314210323028753,0.004468354549739928,0.7253591604034132
2.7008206913703057,-0.6284711247199116,0.26844765167230156,0.02836893978731858,0.6839918808288155
2.7033076349166874,-0.6282272457023712,0.16290635831012334,0.03790422804693527,0.6501112861076078
2.7057945784630686,-0.6040414700844305,0.057364613533882114,0.05222783339273107,0.6090029088999087
2.7082815220094503,-0.5846442202276211,-0.03381236901208018,0.05697454664869106,0.5883861313029022
2.710768465555832,-0.546093481969636,-0.1058361823123346,0.06172117524238807,0.5596685554946539
2.713255409102213,-0.48360085442900763,-0.16349522598032884,0.07604452660338801,0.516123285029031
2.715742352648595,-0.4258967599658674,-0.2067894962976875,0.09036779488198299,0.48199199607494225
2.718229296194976,-0.37298120101792664,-0.23571898953453463,0.10947938419133862,0.45460329288608525
2.720716239741358,-0.30570056674098056,-0.24549529862934882,0.10943727872466802,0.4070593275304357
2.7232031832877395,-0.24799687617290228,-0.24569522647031627,0.11418349588019794,0.3672961552116235
2.7256901268341207,-0.18550492178831995,-0.22674196265327673,0.10935282649552036,0.3127011901130375
2.7281770703805024,-0.12780151266250012,-0.19821231004430784,0.09015686805070722,0.25248684589228926
2.7306640139268836,-0.08925186119014894,-0.16010626485800517,0.094902847910463,0.2064133263968288
2.7331509574732653,-0.03633714656181691,-0.11721222661849273,0.08528354031628638,0.14944021057934676
2.7356379010196465,0.002212208868901111,-0.07431859483929992,0.09481776931614405,0.1204929740070232
2.7381248445660282,0.0072425893901928995,-0.021848559062460193,0.10914032575661992,0.11154113743566478
2.74061178811241,0.02663802577579527,0.054563094500639675,0.10430919384541504,0.1206943396328015
2.743098731658791,0.050821708956978295,0.12139754644584722,0.08032437439348072,0.15418240984653048
2.745585675205173,0.060640023225704,0.1690779939806677,0.07070469145562974,0.19303816684577282
2.748072618751554,0.06088136947689898,0.2311232642054688,0.05629653256490208,0.2455479667706591
2.7505595622979357,0.05633414860695829,0.2931681510273809,0.032311495216886144,0.3002750968682467
2.7530465058443174,0.03263314823255409,0.3360590450430587,0.022691596830641814,0.33840140762937854
2.7555334493906987,0.00893197921417227,0.3789495634212203,0.0178600315846289,0.3794753385900325
2.7580203929370803,-0.00998095754699635,0.42662811337926243,0.022605203619775693,0.42734314300079185
2.7605073364834616,-0.04325927774956401,0.45994108554239155,0.03213871043791805,0.46308753383128315
2.7629942800298433,-0.06696096720752148,0.48846529046696885,0.008153326300199382,0.49310099153226666
2.7654812235762245,-0.08587443165487302,0.5122007320779081,-0.00625531808547386,0.5193872706926334
2.767968167122606,-0.099999673503338,0.5263590109888092,-0.01587562521284802,0.5360091217747981
2.770455110668988,-0.12849030844388704,0.526151727822195,-0.011130787613346627,0.5417280632265415
2.772942054215369,-0.16176953224352697,0.5211556931702934,-0.0063860144185454715,0.5457228410706779
2.775428997761751,-0.16631852406554865,0.5113709109933531,0.003147098522600089,0.5377471192732001
2.777915941308132,-0.18044451287570817,0.4824321752991998,0.02704535868276281,0.5157833628735505
2.7804028848545137,-0.1945706944343451,0.45828150666654377,0.031789943653139474,0.49888906081682177
2.7828898284008954,-0.2086970711400643,0.4293421024401525,0.04611127419026673,0.479599163925065
2.7853767719472766,-0.2132468387484121,0.39082556329325646,0.0700093511300448,0.45068852260217634
2.7878637154936583,-0.21300840297337836,0.36188550650859774,0.09390736866901683,0.43029326447039834
2.7903506590400395,-0.20798176620606806,0.31857991949399134,0.10822852100489833,0.39555403289298074
2.792837602586421,-0.2125321407958869,0.28006241954778544,0.1129728089772275,0.36928000931873856
2.7953245461328025,-0.21229431916765862,0.26069822065560944,0.1320822500282386,0.3612176088957772
2.797811489679184,-0.2024799003840556,0.2365453102480526,0.13682642507784948,0.34010772478652834
2.800298433225566,-0.20703090342677927,0.2076036923645943,0.11762852832833204,0.3159075161084502
2.802785376771947,-0.20200531407149075,0.1738733710519078,0.1127957871861458,0.2894149023133023
2.8052723203183287,-0.1921915380127413,0.15450796364497377,0.0840209759338002,0.26051837269238376
2.80775926386471,-0.1775895776217155,0.13993066756382166,0.05524611201887453,0.23274617654844112
2.8102462074110917,-0.16777624190710066,0.12056468023527467,0.036048002928994904,0.20972402815097946
2.8127331509574733,-0.172328339874384,0.10598681237404195,0.012061439551166231,0.2026715062487029
2.8152200945038546,-0.1720922606039249,0.10577387470137012,0.007228439335843717,0.2021289416791725
2.8177070380502363,-0.16706800645399356,0.10556066134330733,0.011972196492186171,0.19798511432073768
2.8201939815966175,-0.16204398309977147,0.10055877307277017,0.016715905230238803,0.19144122019148915
2.822680925142999,-0.1570201928926594,0.09076821398909685,0.04061317968274558,0.18585919404420492
2.825167868689381,-0.15678504150082495,0.09534260147883433,0.05014519745985169,0.19022697422672408
2.827654812235762,-0.1613385312685126,0.1286471496140269,0.0405235560943602,0.21029115381828928
2.8301417557821438,-0.16589226121597772,0.1475862326286843,0.040478676362008414,0.22569993715749798
2.832628699328525,-0.1704462336800383,0.17131346792641988,0.04522215579709332,0.2458561901673889
2.8351156428749067,-0.15584683771243862,0.18546364967405005,0.05475399525493252,0.2483606292707504
2.837602586421288,-0.16040130220478754,0.19961358864523682,0.049920582310264194,0.2608950498936637
2.8400895299676696,-0.160167612880672,0.22334009561876478,0.0450871277806737,0.27850908713792916
2.8425764735140513,-0.15993417538152555,0.2422779647768425,0.025888422562474034,0.2914579954198387
2.8450634170604325,-0.15970099202437166,0.2612156035877655,0.0019012741541644118,0.3061725220438607
2.847550360606814,-0.14989125848144158,0.2705762095636137,0.011432909976640815,0.30953123587369485
2.8500373041531954,-0.14008178370198004,0.2895134001428934,0.0353297176076115,0.3235569562436589
2.852524247699577,-0.14463777995123783,0.29887356620603445,0.01613085806277681,0.33242397709518035
2.855011191245959,-0.14440563624790026,0.28429150195805475,0.0017203654051911599,0.31886926086227707
2.85749813479234,-0.12980854824684257,0.2840744381315461,0.016040257096786803,0.31273924513152723
2.8599850783387217,-0.12478853484059726,0.2934339755802773,0.025571710756189248,0.3198899636492335
2.862472021885103,-0.11976879167493593,0.2932165052009257,0.03989153388522659,0.3192363025365926
2.8649589654314846,-0.11474932103159946,0.27863362785481094,0.05421132402514672,0.3061747424287408
2.867445908977866,-0.11451852850791883,0.28320417096931205,0.07331948535815513,0.3141573535017429
2.8699328525242476,-0.104711206415185,0.27819771881116173,0.09242761542613032,0.31128969079302693
2.8724197960706292,-0.09490416366138288,0.2779794855331752,0.07322848852904684,0.3027239768994257
2.8749067396170105,-0.08988580582926803,0.2777610720100476,0.06360613873273557,0.2987915863913101
2.877393683163392,-0.08007932853564748,0.28233088576007903,0.07313737354074767,0.30244421522196424
2.8798806267097734,-0.06548473403288912,0.26774691438252995,0.06830337057401081,0.2839753703835857
2.882367570256155,-0.05567883120884709,0.2627395820027889,0.05868093733642432,0.2749102991931457
2.8848545138025368,-0.05545002562585555,0.25773208618628374,0.0586352846523166,0.2700715279293621
2.887341457348918,-0.050433109559726075,0.2527244311414649,0.0729548167054812,0.26783491541651316
2.8898284008952997,-0.05978169852310666,0.2525050243993414,0.09685113103916265,0.27697072121216115
2.892315344441681,5.739202642758009,7.1667398613836495,-0.13782635742053095,9.182570627018649
2.8948022879880626,5.404242031203746,5.481002188496651,-0.29110101206781636,7.702723980603302
2.897289231534444,4.901687001708526,3.7808991632752162,-0.4108568652422271,6.204074250787962
2.8997761750808255,4.265056375305072,2.1286800331013507,-0.5018823194005453,4.793106553205517
2.902263118627207,3.5470225863135654,0.5530752221175073,-0.5737541803198898,3.6354443041495563
2.9047500621735884,2.7906812624185457,-0.9219732488544983,-0.6168956404963062,3.0030812195611083
2.90723700571997,2.0056092080687082,-2.243792939068634,-0.6265182957462372,3.074020205497846
2.9097239492663514,1.2301136476405263,-3.374076617738816,-0.6313525651284753,3.6463925556606758
2.912210892812733,0.4881365955549454,-4.327189490602288,-0.6026680278582592,4.396140918499022
2.9146978363591147,-0.20116833708064724,-5.069612730191283,-0.5500414897135357,5.1033310273161385
2.917184779905496,-0.8090707325122599,-5.601346332280023,-0.492626563113177,5.680876438987165
2.9196717234518776,-1.330782189581808,-5.941543905923887,-0.4160580372340892,6.1029525241866756
2.922158666998259,-1.747149097163599,-6.090205446896301,-0.3299127178550947,6.344444400775177
2.9246456105446406,-2.0677482640475637,-6.023388934369066,-0.23897900743505573,6.372904212691893
2.927132554091022,-2.2830028857362374,-5.788978397318603,-0.15762211507376023,6.224886970223779
2.9296194976374035,-2.397701367686314,-5.406127444799657,-0.09541884655117983,5.914751943598146
2.932106441183785,-2.4214205186685174,-4.89398968586721,-0.02842718440547287,5.460331535577008
2.9345933847301664,-2.3541603408063185,-4.281295536217311,0.04814127554348069,4.886090457724922
2.937080328276548,-2.2294396594587322,-3.591987008226284,0.11034451755344143,4.229059916221096
2.9395672718229293,-2.0472584767358786,-2.850006114271188,0.16775934912384116,3.5131104908853237
2.942054215369311,-1.8124051980614126,-2.0888716733705945,0.20602056115199474,2.773200667349458
2.9445411589156927,-1.5296682288520511,-1.3229488912625929,0.23470496113620243,2.0359678479863677
2.947028102462074,-1.251720007721123,-0.5666029736875444,0.2490241466131966,1.3963720611346273
2.9495150460084556,-0.9498301168291263,0.141858857012779,0.24897811843941575,0.9921145546811797
2.952001989554837,-0.6431521715328266,0.8024366050570357,0.25372049075186,1.059208812420958
2.9544889331012185,-0.3699934004633553,1.410341871341437,0.2584628610852775,1.4807978798626404
2.9569758766476,-0.10641178908039395,1.9224790301984012,0.26320523029399645,1.9433286092840785
2.9594628201939814,0.13322745060109709,2.3388480858411413,0.25837079259096996,2.3568443709122002
2.961949763740363,0.3345591065733173,2.6738142524414643,0.22959433886806835,2.704427113602899
2.9644367072867444,0.5023715801173003,2.9130123242474,0.20560628989912466,2.963155742139261
2.966923650833126,0.6270880625604329,3.061230708785584,0.1911950498555921,3.130643454260956
2.9694105943795073,0.7134969551985585,3.123257813580133,0.16241860298617006,3.2078337048174657
2.971897537925889,0.7568098526945205,3.084728432871247,0.13364216010112706,3.179020428474202
2.9743844814722706,0.7761803663202544,2.9743729907789707,0.10486572204889022,3.075767785285053
2.976871425018652,0.7428780741523477,2.806556701459564,0.08087769299723213,2.9043363360307364
2.9793583685650336,0.6856333941188426,2.571702762464357,0.0521012671519685,2.662041095031512
2.981845312111415,0.6379651474759369,2.288964791263354,0.018536445358536824,2.3762792228279515
2.9843322556577965,0.551989299042393,1.9679195986824292,-0.0006631582574208039,2.0438689226353532
2.986819199204178,0.437282653488648,1.6420860121453256,-0.010285946172924554,1.6993435176603005
2.9893061427505594,0.31778722545417126,1.3018872291894446,-0.029485530827006556,1.3404359271209423
2.991793086296941,0.20307981962543756,0.942534850668201,-0.039108298097371375,0.9649574171139891
2.9942800298433223,0.09316043405651736,0.5975477039936692,-0.04394265046445156,0.6063605211023764
2.996766973389704,-0.01197093319034398,0.28129100329237655,-0.034411780448916574,0.2836407982084804
2.9992539169360852,-0.11231428404465732,-0.034965667196397376,-0.029669300494562734,0.12131514198479036
3.001740860482467,-0.19829281378692654,-0.3129150767533373,-0.010561596483944058,0.37060414538881425
3.0042278040288486,-0.2746949276503032,-0.538192011265676,-0.0010306841836804637,0.6042425064300635
3.00671474757523,-0.34152062753912105,-0.7347384831877888,0.008500243880449787,0.8102772561647246
3.0092016911216115,-0.3844047053882877,-0.9025544883775312,0.027607995181341494,0.9813937962984157
3.0116886346679927,-0.41771237304602027,-1.0081211994557107,0.03235055394832287,1.0917135786132375
3.0141755782143744,-0.431866825750348,-1.0705922255718652,0.0323047276514945,1.1548680721481732
3.016662521760756,-0.4364448720118644,-1.1043327725606635,0.051412533720476716,1.1885614193135052
3.0191494653071373,-0.441023320332417,-1.0758240130592438,0.06573195638029894,1.1645684034188406
3.021636408853519,-0.4216601559628603,-1.0137963628745514,0.05132097985451267,1.099187970948336
3.0241233523999003,-0.3879321873873713,-0.9326150278584864,0.04169842820888903,1.010940617006621
3.026610295946282,-0.3637814330421403,-0.8227031972674308,0.056017915546730634,0.901285464590685
3.029097239492663,-0.3348426847918746,-0.7080028836061438,0.07033742608695626,0.7863428388824963
3.031584183039045,-0.2867507344922402,-0.5693604695029146,0.06550334736719243,0.6408494491537975
3.0340711265854265,-0.23865919723199097,-0.41635275751439726,0.07503450344688645,0.4857345034283458
3.036558070131808,-0.20493328477041134,-0.2585565502038847,0.08456568518068686,0.34058845542707916
3.0390450136781895,-0.17120778893568794,-0.09118344018049163,0.0701548767809399,0.2062722315086188
3.0415319572245707,-0.12790590486707842,0.061824560017743835,0.05574409566139771,0.15260930811179502
3.0440189007709524,-0.08460444097571551,0.21004426108805285,0.04133334263250177,0.2301845960571976
3.046505844317334,-0.05566860898368664,0.35347566707972167,0.026922618502931428,0.3588437941928036
3.0489927878637153,-0.041098410642704586,0.4729651687533276,0.026877134040510953,0.47550763458166645
3.051479731410097,-0.01216342777308338,0.5733011734636966,0.01246647012841784,0.5735656870381153
