Time (s),Acceleration x (m/s^2),Acceleration y (m/s^2),Acceleration z (m/s^2),Absolute acceleration (m/s^2)
0.0,-0.11570769541681453,0.09320913754391347,-0.00400671294147692,0.148634679159831
0.002486943546381497,-0.12079982545560525,0.10305638052325872,0.005442436724486299,0.15887994056569704
0.004973887092762994,-0.12110443699176104,0.10332740732899293,0.014891571518925062,0.15988932630643704
0.007460830639144491,-0.12619833604107605,0.10359902345188221,0.01476388582651289,0.16394130048410102
0.009947774185525988,-0.13129311864496435,0.10865963105259446,0.014636187312946802,0.1710526714292013
0.012434717731907486,-0.13638878415168293,0.10893242232106637,0.014508477003056797,0.17515327282142845
0.014921661278288981,-0.14148533189599283,0.10920579939837438,0.0239575625620283,0.18032739827289343
0.01740860482467048,-0.13700595455850834,0.11426816441579124,0.023829831732882667,0.17998807144880422
0.019895548371051976,-0.14210426472816923,0.12411951617446748,0.028490495500520296,0.19081662580389233
0.022382491917433474,-0.16156866501940187,0.12918304682511295,0.03315115156825854,0.20950344138813728
0.02486943546381497,-0.15709192815022194,0.1294587551492432,0.04260020427968492,0.20797168215749248
0.02735637901019647,-0.15740447330939106,0.13452344655917292,0.04247244469675415,0.21136848026724395
0.029843322556577963,-0.17687150971107873,0.130011909855825,0.03276787384195856,0.2219467530917222
0.032330266102959464,-0.1771858100323413,0.13507775707247305,0.02785170269831383,0.22453625336622646
0.03481720964934096,-0.18228939010059048,0.14493258363098693,0.02772393228745429,0.23452823276244936
0.03730415319572246,-0.19218224912794563,0.14042277498245603,0.0323845636305542,0.2402110167648242
0.03979109674210395,-0.18771077303152145,0.14070194313061712,0.03225679110767388,0.23679711080455962
0.04227804028848545,-0.18324017095683748,0.14098168346778817,0.022552212418684547,0.2322959268060465
0.04476498383486695,-0.18355884539498107,0.13168518805611384,0.027212845184802603,0.22754203440060183
0.04725192738124844,-0.18387839218258228,0.12717766554943521,0.022296673823579027,0.2246832512446146
0.04973887092762994,-0.17941040714241385,0.12745911463078707,0.017380505994177398,0.220762320340416
0.05222581447401144,-0.17973169604430217,0.12295272733270535,0.022041149355178646,0.21887591915605817
0.05471275802039294,-0.17047704804260366,0.11844690563878624,0.017124991642676335,0.20829152335965442
0.05719970156677443,-0.1708000755199276,0.1235184548430559,0.012208840514022157,0.2111362836442989
0.059686645113155926,-0.16154716428242533,0.11422535698746472,0.007292696985283342,0.19798510523755528
0.062173588659537427,-0.1618719266847639,0.11929803062750954,-0.0024118412484472884,0.20109788098945128
0.06466053220591893,-0.16698595846604003,0.12437126442597934,0.0070372434291190444,0.20833157354280124
0.06714747575230041,-0.16252404871069148,0.1198682503560744,0.0212747420710393,0.2030642226068664
0.06963441929868192,-0.14848619645003575,0.11536579366234179,0.021147042409335626,0.18922107252154258
0.07212136284506342,-0.13923761066224466,0.10607548961847879,0.03538456537839707,0.17858104375254638
0.07460830639144492,-0.12998988703013264,0.09199733680858468,0.049622102029026394,0.1668029787496552
0.0770952499378264,-0.13510823450363213,0.07313133380683823,0.04949444341121989,0.16140671282088023
0.0795821934842079,-0.1306506354560189,0.07341949577906082,0.04936680049604547,0.1577881234337028
0.0820691370305894,-0.12619389548857507,0.07370820799833577,0.03966236765217168,0.15142953012105456
0.0845560805769709,-0.12652641686806487,0.06442066236844157,0.029957952528658183,0.14510835546297604
0.0870430241233524,-0.1220713918860854,0.06471047070509828,0.015465152812753402,0.13902532390684597
0.0895299676697339,-0.10325201281997937,0.055424018251587714,-0.0038160304888794627,0.11724914515347892
0.0920169112161154,-0.11316390845624874,0.041349706842812584,0.01042163019201503,0.12093171134545275
0.09450385476249688,-0.11828825444209107,0.046429551584978856,0.02465931261806631,0.129444567665602
0.09699079830887838,-0.10425983969163011,0.05629834101184095,0.010166597871263505,0.11892424935851359
0.09947774185525989,-0.09502067966713651,0.047014057006577126,0.00525071351699502,0.10614528304667997
0.10196468540164137,-0.10014757985556694,0.04251871464552792,0.024276870518093574,0.11147531246059492
0.10445162894802287,-0.10048692580760571,0.05717752235444751,0.028937843312938583,0.1191817523636097
0.10693857249440437,-0.09125031302045156,0.05268325202569013,0.01923363290138269,0.10710778358699205
0.10942551604078588,-0.08680295025810503,0.048189515385385295,0.009529450243151771,0.09973861834077133
0.11191245958716736,-0.0919332396294712,0.058061520829377766,-0.00017470366402605464,0.10873311947681932
0.11439940313354886,-0.10185277658833491,0.0583572501810381,-0.00030202118288968904,0.11738674526640754
0.11688634667993036,-0.10219634993333815,0.06344191181625547,0.009147498682084532,0.12063435185193966
0.11937329022631185,-0.1025407650501417,0.07810390746030782,0.018597050284665073,0.13023317218330763
0.12186023377269335,-0.10767442398952726,0.08797802554723777,0.023258231297784704,0.14097822485677763
0.12434717731907485,-0.1032321155064374,0.08827586114171648,0.027919446033838113,0.13866864389285144
0.12683412086545634,-0.0987906449427624,0.09336262257966865,0.023003888843103226,0.1378598916475218
0.12932106441183785,-0.09435001098513024,0.1080267115463922,0.018088367355900914,0.14456446317827784
0.13180800795821934,-0.10427542226644437,0.1179029164359311,0.02753809252164885,0.15978988682852968
0.13429495150460083,-0.10941326416273678,0.12299123559325897,0.022622645405714792,0.16616224147697956
0.13678189505098234,-0.10497513199626796,0.1328684739939634,0.0033420269940851455,0.16936640417611634
0.13926883859736383,-0.1053262343558155,0.133169420002055,0.022368674794908117,0.17125439462781752
0.14175578214374532,-0.11525497317477623,0.13347087857308715,0.02224174994785244,0.1777438598358125
0.14424272569012683,-0.12039613709051777,0.1385612513322778,0.012538060075653945,0.18398818752177032
0.14672966923650832,-0.13032653132716637,0.13407532661356836,0.01241121944035406,0.18739059832953875
0.14921661278288983,-0.14025775113308425,0.1343783126627458,0.012284422380771431,0.1946295833120599
0.15170355632927132,-0.13582458510115852,0.1298934011139976,0.02652287983593027,0.189800096748276
0.1541904998756528,-0.13139224173127684,0.12540899355240942,0.04076138282159647,0.18615269855827313
0.15667744342203432,-0.13653752618811704,0.12571349155302247,0.04063472235213439,0.18999357535626737
0.1591643869684158,-0.14168363034018583,0.12601849004020504,0.04529651268269319,0.19495303280431694
0.1616513305147973,-0.15640735932229538,0.12153558392827435,0.045169948145112215,0.20316122766510436
0.1641382740611788,-0.15676669501210255,0.10268796480117892,0.04504343303071323,0.19274212211973304
0.1666252176075603,3.5155785008449145,-3.6942093788921935,1.0792120854965415,5.212597611189628
0.1691121611539418,4.764990803041733,-4.527084573947394,1.1126044953778393,6.666147377299704
0.1715991047003233,5.72230969068324,-5.115750708107539,1.1076897310239957,7.755173115012076
0.1740860482467048,6.373169955389386,-5.464996186508634,1.0692561967203513,8.463261038929186
0.1765729917930863,6.722360002076465,-5.5796094142967485,0.9973038934304057,8.792996091746991
0.1790599353394678,6.789033445636803,-5.473955603268683,0.9014096287567526,8.767422904784913
0.18154687888584928,6.577978691016924,-5.1719767718719,0.7815734036597455,8.404165893981595
0.1840338224322308,6.141868176381661,-4.702403341884322,0.633006815777879,7.761175137479883
0.18652076597861228,5.504643919989132,-4.093965735093928,0.48922868931053287,6.8775725976859725
0.18900770952499377,4.723766763354854,-3.3945479865800623,0.3741810418148521,5.828974173885522
0.19149465307137528,3.837543934728291,-2.6328805181508868,0.23997984104166648,4.660085149215061
0.19398159661775677,2.8794942590539137,-1.8376937516247291,0.09141349126360154,3.4171569965499127
0.19646854016413826,1.892713367932021,-1.0377181088299667,-0.01405716672495494,2.158569056221864
0.19895548371051977,0.9107200863376179,-0.26647241492543294,-0.10037414857660565,0.9541978795184303
0.20144242725690126,-0.023389954098309906,0.43773610159958487,-0.1962678732659633,0.48029268438387374
0.20392937080328274,-0.8713095250498066,1.060542228847284,-0.26821951660527965,1.3985248716768874
0.20641631434966426,-1.6186734147770665,1.6019459648706387,-0.3210174809710491,2.299866674648852
0.20890325789604575,-2.241539604884275,2.033216887790623,-0.36902697538210383,3.048713109103807
0.21139020144242726,-2.7255428836008284,2.349566592319635,-0.397882788937185,3.6204085260953707
0.21387714498880875,-3.0802600557422406,2.5653602864411806,-0.4219501306586668,4.030771306215925
0.21636408853519024,-3.30569111946794,2.675809564847366,-0.4077101763675799,4.2724440537672965
0.21885103208157175,-3.377894056320311,2.6713376188998326,-0.3838933450508346,4.323608103222103
0.22133797562795324,-3.3255992843496593,2.580674866512573,-0.35049963577527876,4.224019810724762
0.22382491917433472,-3.1631720116298245,2.4133981123081636,-0.3027406442892673,3.9902129669173747
0.22631186272071624,-2.9049774462190903,2.1695073542583962,-0.27413519290551314,3.636042660257467
0.22879880626709773,-2.5605923928398555,1.8681562036061496,-0.2359528607745034,3.1784138742223536
0.2312857498134792,-2.15395886615986,1.5284982715841307,-0.1881936469704808,2.6478788892440672
0.23377269335986073,-1.7281724941124548,1.1792639760554833,-0.1452227605305172,2.0972203853684888
0.23625963690624222,-1.273656468091939,0.825241718271633,-0.10225179721232003,1.5210786049121523
0.2387465804526237,-0.8191412060394357,0.4712198994738146,-0.054492352775522335,0.9465780081973515
0.24123352399900522,-0.3837803192397405,0.13156372753369094,0.007632380338639777,0.4057765408053428
0.2437204675453867,0.0276377909989603,-0.17936158968723603,0.07454559640573244,0.1961924394310876
0.24620741109176822,0.3863827067826813,-0.43761403769705853,0.12230527973842875,0.5964530354873964
0.2486943546381497,0.7116080434362771,-0.667135635217162,0.15091143124899453,0.9870310143766673
0.2511812981845312,0.9650065764566476,-0.8535611744166465,0.1747292618086469,1.3001287190152746
0.2536682417309127,1.1465783079189664,-0.9633718341935504,0.18897036900536435,1.5094492066544636
0.2561551852772942,1.2802652565157824,-1.0252980366201796,0.19363475374542105,1.6516081886442275
0.2586421288236757,1.3373370044320363,-1.053704993818105,0.19351082025339394,1.7135375440811347
0.26112907237005717,1.3225819571107018,-1.039015901317539,0.19817537607213254,1.6935319767122212
0.2636160159164387,1.2647305366121884,-0.9620771480182839,0.1980516154611891,1.6013619863619644
0.2661029594628202,1.168571148411222,-0.861195962674091,0.1835627326780518,1.4631856655440247
0.26858990300920166,1.029315391357809,-0.7363723474864281,0.1690739385797091,1.2768400078849378
0.2710768465555832,0.8421748643178963,-0.5923947079872991,0.1450084274194996,1.0398160588117982
0.2735637901019647,0.6454567960561595,-0.44362825635952685,0.10178939344866045,0.7897984464623382
0.27605073364834615,0.4391611887907465,-0.28528459151490937,0.058570450838196564,0.5269538363152126
0.27853767719472766,0.2232880447557936,-0.12215211901609191,0.03450521375699189,0.2568448965570515
0.2810246207411092,0.007414172842047595,0.036192352243756165,0.020016876449926002,0.042018230123120136
0.28351156428749064,-0.1845184080828089,0.18974882000188575,0.019893843120673438,0.26541933352269576
0.28599850783387215,-0.36687490569753733,0.32415207202436935,0.029347711330116155,0.49044168908095964
0.28848545138025367,-0.5205017044226845,0.4346137027077037,0.014859658715096202,0.6782565181001573
0.2909723949266352,-0.6453988019439814,0.5259221130787872,-0.009205103886593236,0.832597391608661
0.29345933847301664,-0.7511430025717046,0.5980773008339892,-0.02369296231903739,0.9604549050053091
0.29594628201939815,-0.8233690939984784,0.6510792636594611,-0.047757528991029474,1.050771932483234
0.29843322556577967,-0.8572886705414429,0.6657743859498884,-0.06224518975107962,1.0872322020952163
0.30092016911216113,-0.8624785364625539,0.6613162786522411,-0.06715594373117462,1.0889069597754724
0.30340711265854264,-0.8389386893670051,0.6424933427423358,-0.07685500002647316,1.0594916285719855
0.30589405620492416,-0.8058227401250879,0.5949403659045256,-0.08176555113281303,1.0049825534989991
0.3083809997513056,-0.7535538796690573,0.5473877656957655,-0.08188759618892583,0.9349772157690748
0.31086794329768713,-0.6629784922743592,0.49025873310029455,-0.08679794097644056,0.8291127722796447
0.31335488684406865,-0.5819806086846322,0.4091880557718435,-0.07734297135738011,0.715624363119133
0.3158418303904501,-0.48661820982262133,0.31854094127580757,-0.053522686477332826,0.5840636021595602
0.3183287739368316,-0.39125650315735055,0.24704780712831376,-0.0344906987654241,0.464008489761937
0.32081571748321314,-0.2863186795400598,0.18513184427279494,-0.02982381401247558,0.3422596176875978
0.3233026610295946,-0.19574675304794453,0.11363943700186763,-0.015580014769440709,0.22687760980566243
0.3257896045759761,-0.11475231782006423,0.05651259948075893,-0.006124510152098139,0.12805966566313087
0.3282765481223576,-0.033758564658915025,-0.0006138806979856248,-0.00624570263796187,0.03433695296300109
0.3307634916687391,0.037657702368027735,-0.0529516026707566,-0.0015783814256415951,0.06499589264688539
0.3332504352151206,0.09470808252987972,-0.07655855230287134,0.003089051002632459,0.12182107807475215
0.3357373787615021,0.13260417511204425,-0.08579994203232788,0.012544998802876961,0.15843886614357194
0.3382243223078836,0.14176917609590825,-0.10461779094791801,0.012424252847473838,0.17662882984539327
0.3407112658542651,0.16051031468228846,-0.12343529490641192,0.002726813967347752,0.20250251520031218
0.3431982094006466,0.16488557692425096,-0.10873363317317475,-0.006970510368363492,0.19763310571732934
0.34568515294702806,0.1357413522114934,-0.09403163150809846,0.007274297267995777,0.16528937601982377
0.3481720964934096,0.1065964664734795,-0.06975248579840931,0.01673081777822638,0.12848399201152316
0.3506590400397911,0.08702772905443962,-0.040684601902408524,0.021399051983577166,0.09842246634852357
0.3531459835861726,0.048304722752442575,-0.011616385688532294,0.040432613984107135,0.0640553114912643
0.35563292713255407,-0.004784146375903242,0.027028966925590314,0.059466294635230454,0.06549575029919698
0.3581198706789356,-0.0387200523357768,0.07046305005127929,0.0641348847899117,0.10284730099730197
0.3606068142253171,-0.07265660563943954,0.09953224782880588,0.05443838525957467,0.13471892402543062
0.36309375777169856,-0.13053582010309828,0.1333901709508316,0.04953041013442494,0.19309531212425862
0.36558070131808007,-0.17405046636255017,0.16246001017805556,0.04462255690061667,0.2422354068513187
0.3680676448644616,-0.20320054159972395,0.18195335958140246,0.015772809760560946,0.27321468975354
0.37055458841084304,-0.2467164629020534,0.21102382982328072,0.00607679939854755,0.32471063627653995
0.37304153195722456,-0.2806562108171746,0.23051780499353614,0.015534526613528499,0.3635212354270363
0.3755284755036061,-0.3002313791576013,0.2500120890938309,0.029780782241001447,0.3918313677014934
0.37801541904998753,-0.3150187716804165,0.26471827615484456,0.0296619537936067,0.41254384463264626
0.38050236259636905,-0.32022998216539494,0.26027115355659536,0.019966445383014175,0.41314280072701604
0.38298930614275056,-0.32544181433688085,0.2606127352315766,0.010271064438663657,0.41705739059327057
0.385476249689132,-0.3258658619419124,0.2657430185007055,0.0005758117468062096,0.42048572320612687
0.38796319323551354,-0.31671371871116055,0.2517199840733353,-0.013907715229173334,0.40480112962370557
0.39045013678189505,-0.3027737849995573,0.23290883921133032,-0.018814305747225646,0.3824558410672761
0.3929370803282765,-0.28404605782535963,0.22846319448688845,-0.004567152388192497,0.36455240101008574
0.395424023874658,-0.2653189375107763,0.20965262725912126,0.0048917290223027265,0.33818972741839287
0.39791096742103954,-0.24659242104134882,0.18605394143968557,0.009562339257607633,0.3090555444776123
0.400397910967421,-0.227866505386269,0.1720323442506193,0.004656275768150309,0.28555201391225243
0.4028848545138025,-0.20914118749837968,0.14364581634153062,-0.0002496540373240208,0.253720750408388
0.40537179806018403,-0.18562806099387102,0.12004796823493846,-0.005155449393312139,0.2211241062483421
0.4078587416065655,-0.16211552611322527,0.10123879716221884,0.004304100423995649,0.19117861579758483
0.410345685152947,-0.15296878972121813,0.08242989702455539,0.008975382893590123,0.1739962529778719
0.4128326286993285,-0.14861104206474407,0.07319807167420844,0.008858398773073262,0.16589656641779685
0.41531957224571003,-0.1394654733743833,0.06396651167234246,0.01831835877833754,0.15452473959661164
0.4178065157920915,-0.13032048382534972,0.04037000424997972,0.02299005370075413,0.13835356271806007
0.420293459338473,-0.12596447357656054,0.03113896651114434,0.02287348428995628,0.13175689781702157
0.4227804028848545,-0.1216090361300235,0.04106179894850204,0.01318024797260442,0.12902925225692005
0.425267346431236,-0.1316193782527192,0.04619648212306693,-0.006089654507004383,0.13962399358345934
0.4277542899776175,-0.12726507681255383,0.046543013187657856,-0.015782609126009817,0.13642486065052856
0.430241233523999,-0.13248814518461682,0.05646659924629249,-0.02547542178611728,0.14625519669427847
0.43272817707038047,-0.1377117734855689,0.06639043079170337,-0.025591285110483142,0.15500688930126502
0.435215120616762,-0.14772436177678117,0.07152610162723416,-0.0257070050062147,0.16613043183816836
0.4377020641631435,-0.1577375034627863,0.08623881882780093,-0.016245774101872,0.18050534354321995
0.44018900770952496,-0.16775119525222726,0.10095177285708967,-0.006784398309990891,0.19590240430369638
0.4426759512559065,-0.17776543383756344,0.10608815416915185,-0.002111280225520318,0.207025852073275
0.445162894802288,-0.18778021589508442,0.11122476648966684,-0.007014822446127056,0.21836109061880993
0.44764983834866945,-0.197795538084926,0.12115001021440541,-0.002341410970648994,0.23196094944319706
0.45013678189505096,-0.21259980037139836,0.13586388240925018,0.01669735823840668,0.2528566222850703
0.4526237254414325,-0.213039386101132,0.14100117016959812,0.021371065973600167,0.2563665978250504
0.45511066898781394,-0.21347950184684217,0.15092708050319503,0.021256519587232958,0.2623057776011734
0.45759761253419545,-0.20913174088391312,0.16564161044734194,0.016353719788234855,0.2672838796254598
0.46008455608057697,-0.21436130975291506,0.17556795038923756,0.011451070603087032,0.27731931656633635
0.4625714996269584,-0.21480299505650197,0.18070609734724918,-0.0030282339054394924,0.2807208408798733
0.46505844317333994,-0.2104567933422431,0.18105604833031386,0.006434630205470526,0.27769544282679487
0.46754538671972146,-0.21568791110264474,0.1814062036582751,0.006320840391477844,0.28190324358684576
0.4700323302661029,-0.21613113489236085,0.18654496364159812,0.006207203988271459,0.28556999196564237
0.47251927381248443,-0.22136326785165272,0.19168392194077155,0.0013053183678142233,0.29282439471567207
0.47500621735886595,-0.22659590314391242,0.19682307552726996,0.001191990860215597,0.3001440441251993
0.4774931609052474,-0.2318290372369381,0.19238561472264504,-0.013286391129080144,0.3015517458872532
0.4799801044516289,-0.22269745662170898,0.1831599398001158,-0.032553020275562616,0.29017480914514476
0.48246704799801043,-0.22314317433584757,0.16914604770334662,-0.02308907265597071,0.2809561655889651
0.48495399154439195,-0.2140125735183352,0.17428595196835284,-0.013624967513917952,0.2763378628006143
0.4874409350907734,-0.20967086053453787,0.16984922959852922,-0.01852591413491922,0.27046966566889147
0.4899278786371549,-0.20532962845279756,0.17020108747092744,-0.013849895244806731,0.2670589562159305
0.49241482218353644,-0.2057772769663364,0.1705531191722267,-0.004385313494132959,0.2673048543320864
0.4949017657299179,-0.21580220575265951,0.16132851495970124,0.0002910251434080635,0.26943935577871664
0.4973887092762994,-0.22103920119233755,0.15689248168312897,0.019332734613143998,0.2717486594264264
0.4998756528226809,-0.22148825961122243,0.14766820958169458,0.03837460561537398,0.2689527088965773
0.5023625963690624,-0.2171493773195437,0.14802090548714775,0.038263025527223604,0.2655712703851786
0.5048495399154439,-0.20802255061193847,0.1579505662613383,0.033363204965151994,0.2633151465277314
0.5073364834618254,-0.20847298572842432,0.1630919787962486,0.028463547902140007,0.26621448661817265
0.5098234270082069,-0.19455866233099478,0.1730219465765277,0.018775651667668924,0.26104059489033976
0.5123103705545884,-0.1950099965895914,0.16858685315608524,0.009087920228981972,0.2579399467337935
0.5147973141009698,-0.20025017809620171,0.15457509868156905,0.013765564191077218,0.2533438093135018
0.5172842576473514,-0.19112558978677052,0.15971709989239669,0.013654970913886899,0.24944939627114313
0.5197712011937329,-0.19157824446467386,0.1600708369957955,-0.00082066560490901,0.2496508964549015
0.5222581447401143,-0.19681973499606925,0.150847903471524,-0.01050773144865147,0.24820054489439408
0.5247450882864959,-0.19248484759118417,0.1512019093922219,-0.015406225984806454,0.24525453258839072
0.5272320318328774,-0.18336198172623025,0.15155604490001062,-0.020304551904054335,0.2387532741478719
0.5297189753792588,-0.19339315014344333,0.14712190344871923,-0.006049095298404694,0.2430686251878425
0.5322059189256404,-0.19384792904643655,0.13311107848360848,-0.001370275465891524,0.2351541121594817
0.5346928624720219,-0.19430312118617915,0.13825398668360078,-0.006268091785582186,0.23855220961297502
0.5371798060184033,-0.19954712597822644,0.13860860819568943,-0.006377333678500463,0.24304746889643442
0.5396667495647849,-0.20000313286213778,0.13417493975998251,-0.0016980005295152978,0.24084652959937602
0.5421536931111663,-0.19567113790308316,0.14410659138943194,-0.006595301687351451,0.24309957197517906
0.5446406366575478,-0.18655113715126254,0.14446154320581206,-0.011492429902085988,0.23622561288498806
0.5471275802039294,-0.1822199332825763,0.14002819524444954,-0.011600981247037012,0.2301012436185827
0.5496145237503108,-0.19704273227835867,0.1451717541730133,-0.016497761759389107,0.24530155461484604
0.5521014672966923,-0.20228911022230023,0.1455270067290586,-0.007029157557381538,0.24929581396007414
0.5545884108430739,-0.20274746642549513,0.14109394960288268,-0.002348781324682747,0.24702136452179443
0.5570753543894553,-0.20799460350461468,0.13666098279694472,-0.0024566324666519535,0.24888554467695567
0.5595622979358368,-0.2132421141007067,0.1465933129462238,0.0022240962490371885,0.25877933694716293
0.5620492414822184,-0.21370159084018314,0.14694892011513705,0.006905002090830337,0.259441774015875
0.5645361850285998,-0.21894983629580855,0.14730460760227349,0.01158608564453445,0.2641437404433117
0.5670231285749813,-0.22419844306487702,0.15244877537794022,0.006690540852378746,0.2712016488221374
0.5695100721213628,-0.22465900373020192,0.14801621012327093,0.011371981575516443,0.2692764163109296
0.5719970156677443,-0.22511991750079463,0.15794892507402514,0.020842005070591085,0.27579200380534447
0.5744839592141259,-0.22558118025098067,0.17267011021594625,0.0111585953100235,0.2842997539476694
0.5769709027605073,-0.2212543845204557,0.18739135884730862,0.00626376946642182,0.29001423904369755
0.5794578463068888,-0.22650473611590166,0.19732426425865723,0.00615752810786141,0.3004649328965924
0.5819447898532704,-0.22696702090792054,0.19768041973285388,0.0012630651588363406,0.3009869968273865
0.5844317333996518,-0.22742963803421518,0.19324822518575502,-0.017996425459129384,0.2989866019124008
0.5869186769460333,-0.23268098661839798,0.19839288716626235,-0.018102119944661155,0.3063133460337099
0.5894056204924149,-0.22356744916848725,0.19396078897355906,-0.013419227702483383,0.2962824119975412
0.5918925640387963,-0.21924263474103034,0.18474033050091787,-0.023101361460609482,0.28762822445495667
0.5943795075851778,-0.21491813577709962,0.17551991163418323,-0.027994907387535406,0.2788920208711823
0.5968664511315593,-0.21538235134454425,0.16629952893151856,-0.028099864935988705,0.27355930436190706
0.5993533946779408,-0.225423680497424,0.17144438890470282,-0.018627830241358723,0.28382390715972566
0.6018403382243223,-0.2354653123151395,0.17658927813637648,0.00042119723765843275,0.2943261182149925
0.6043272817707038,-0.23593043586342904,0.16736898320196847,0.014682008078455766,0.2896396182603206
0.6068142253170853,-0.23160745015537404,0.16293711391193755,0.01936619949606211,0.2838407365766004
0.6093011688634667,-0.24164996415146195,0.1537168601477692,0.01447377202282496,0.28676308748627394
0.6117881124098483,-0.23253915027527994,0.1492850250651543,0.014369936149039475,0.27670737284066077
0.6142750559562298,-0.21864021414014295,0.14485320185185957,0.014266289080755001,0.2626585622631
0.6167619995026112,-0.21910676466634965,0.1452097903293481,0.018951234661649607,0.26353900437174244
0.6192489430489928,-0.20999678087812623,0.14556638367158348,0.004482756810523014,0.25555491610027914
0.6217358865953743,-0.2104638716693208,0.14113457504571514,-0.009985530674002874,0.2536014991560901
0.6242228301417557,-0.21093122599878672,0.14149116757307612,-0.014876820636931853,0.25442690973009713
0.6267097736881373,-0.20661043613264124,0.13705935108705303,-0.014979515887210582,0.2483898627873921
0.6291967172345188,-0.20707830428496254,0.13741592869564823,-0.015082019236785982,0.24898198502920205
0.6316836607809002,-0.20754642269598772,0.13777249353935428,-0.02476113682092418,0.2503395523017039
0.6341706043272818,-0.21280319023374922,0.13334063875215207,-0.029651658176337747,0.25287179468873067
0.6366575478736632,-0.21327179579258665,0.12890876410219532,-0.039330389444307556,0.25228794635652163
0.6391444914200447,-0.20416383157447232,0.12926526935124993,-0.05858573344882423,0.24864566786364362
0.6416314349664263,-0.21420971301096237,0.1296217476141308,-0.034745253173140256,0.25277426930137864
0.6441183785128077,-0.21946741899764888,0.1251897919993903,-0.020481384650391732,0.25349145772498427
0.6466053220591892,-0.21514854169892533,0.13033460889063342,-0.015794127393304436,0.252042575232766
0.6490922656055708,-0.21561828654806509,0.13069098474345875,-0.0015298676363730834,0.25213829435871754
0.6515792091519522,-0.20651143904417624,0.13104731928864632,0.022311395101635156,0.24559758284685582
0.6540661526983337,-0.21177001123665673,0.12661520561034934,0.026999241377057004,0.24820738704934095
0.6565530962447153,-0.21702878860027564,0.13654825338834709,0.02211047830571289,0.25736315555187533
0.6590400397910967,-0.2270761698790052,0.14169284573405205,0.02679871964102354,0.26899557772114185
0.6615269833374782,-0.23233534384391613,0.14683738235463917,0.012333545930269807,0.2751236907484474
0.6640139268838597,-0.2280179025745116,0.16155866627186288,0.002656974241146415,0.27946453451939257
0.6665008704302412,-0.2284890514197489,0.1714914839002506,-0.011807801603866963,0.2859300611123686
0.6689878139766227,-0.23853718907625016,0.1814242349299855,-0.0262723778243803,0.3008404584308372
0.6714747575230042,-0.24379710094776347,0.19135691572541536,-0.02637154400240327,0.3110465462909826
0.6739617010693857,-0.239480379067125,0.19171271600480821,-0.026470509644852314,0.30790470168045886
0.6764486446157671,-0.2399522287369718,0.1920684387622984,-0.016992467660109867,0.3078247897775725
0.6789355881621487,-0.24521264528764303,0.1924240803460835,0.002062582399787516,0.31170582662529
0.6814225317085302,-0.24089641407726903,0.20235644373974582,-0.007612585582725373,0.31470170653737845
0.6839094752549116,-0.2365803370543616,0.2075003153201398,-0.01728755124387682,0.3151594773550725
0.6863964188012932,-0.2418412161563428,0.20306728809965113,-0.012597104183861063,0.31604142823678144
0.6888833623476747,-0.23752543338776183,0.20342256836689643,-0.007906453927772006,0.31282836322932855
0.6913703058940561,-0.23320979066413777,0.2037777491242947,-0.01758081000374112,0.3101955228241739
0.6938572494404377,-0.23368268656986585,0.20413282668970467,-0.022466558700742212,0.31109894759496226
0.6963441929868192,-0.2485209229989364,0.20448779737618894,-0.017775296271723917,0.3223257197332477
0.6988311365332006,-0.2585708819128429,0.20484265749208985,-0.02744903889454342,0.3310179225326646
0.7013180800795822,-0.24946734858286518,0.2051974033411068,-0.041910979507905566,0.3257245194181883
0.7038050236259636,-0.2451523348323541,0.20555203122237264,-0.04679590773323916,0.32332825702987317
0.7062919671723452,-0.2456258358727666,0.20111813411021995,-0.03731541983564313,0.31964510894691006
0.7087789107187267,-0.2508878469053255,0.19668411161519472,-0.027834725364503043,0.32000644278321294
0.7112658542651081,-0.25136155648049613,0.2018267666638245,-0.008777017270686471,0.32248056042254925
0.7137527978114897,-0.2518353630996468,0.20696928889713195,0.0007040915700233796,0.3259721343904328
0.7162397413578712,-0.2523092619339009,0.20253486795196762,0.010185408200685586,0.3237036900224731
0.7187266849042526,-0.2527832481445506,0.20288871006265063,0.014878529700377285,0.324475838637395
0.7212136284506342,-0.2532573168831596,0.1984540048579273,0.005206649824831544,0.3217924327907755
0.7237005719970157,-0.253731463291666,0.19880755524386462,-0.004465021071679232,0.3223725110789425
0.7261875155433971,-0.2542056825024871,0.213526164122682,0.00501713068237386,0.33202277539618547
0.7286744590897787,-0.25467996963862327,0.22345621447095754,0.009711088872686346,0.3389526102096189
0.7311614026361601,-0.24078910985282959,0.22859770254283873,0.009616853883468224,0.3321577771333951
0.7336483461825416,-0.23168671153084036,0.2385274312295005,-0.004842380544724634,0.3325620489446426
0.7361352897289232,-0.23216117308835837,0.2436685901373501,-0.024089807393123053,0.3374218589977898
0.7386222332753046,-0.2326356829711595,0.23923277218967565,-0.028971813005375324,0.33494931889740204
0.7411091768216861,-0.23311023625676514,0.23479678026735984,-0.019488397009416403,0.3314358277096795
0.7435961203680677,-0.23358482801392721,0.23036061060740254,-0.010004768997163183,0.32821940558169
0.7460830639144491,-0.24363625994336152,0.22592425944362926,0.004267474717677189,0.3322929573505998
0.7485700074608306,-0.23932251049505088,0.22148772300677866,0.004174721216809729,0.3261127163568132
0.7510569510072121,-0.23500878467304037,0.20747419088396368,-0.01028302913984902,0.3136565150682285
0.7535438945535936,-0.2402718841527398,0.19346046594063848,-0.015163759393868048,0.30884861954561443
0.7560308380999751,-0.2503234006404117,0.1842349477191232,-0.010467469191414835,0.31098856696110444
0.7585177816463566,-0.2460097158732858,0.1797976324386923,-0.01055936814264058,0.30489255351711314
0.7610047251927381,-0.23690763150248656,0.1753601129956608,-0.020227859220103284,0.2954412993855077
0.7634916687391196,-0.2565359657728364,0.17571078892441694,-0.025107732118145876,0.31195413331379257
0.7659786122855011,-0.26179908379640987,0.1760612531162593,-0.02519898649508967,0.3164985213960515
0.7684655558318826,-0.25269698056046386,0.1620462918194887,-0.02529002533260183,0.30125462661699653
0.770952499378264,-0.25796007096661844,0.16239632116293778,-0.015804041654448042,0.3052306194879118
0.7734394429246456,-0.26322314002628827,0.16753453071075075,-0.015894648409298995,0.3124209984521298
0.7759263864710271,-0.26369777938423977,0.16788411002497394,-0.020773441947298465,0.31329399793388085
0.7784133300174085,-0.26417238731871157,0.15865665198596357,-0.030440421941937856,0.3096540048652136
0.7809002735637901,-0.2646469587805983,0.14942895943310308,-0.03053037810879644,0.30544906399684013
0.7833872171101716,-0.26512148871388513,0.14498943188364777,-0.016254906807128933,0.3026145421672893
0.785874160656553,-0.25601916541514524,0.14533806553281492,-0.011556024321089708,0.29462265366193063
0.7883611042029346,-0.25649359709616343,0.1504748565741969,-0.011645327015997964,0.29760252259291026
0.790848047749316,-0.2617563753606229,0.1556113978795408,-0.0069460079398950825,0.3045973641026087
0.7933349912956975,-0.2574422851651677,0.1463824756785299,-0.011823276745412059,0.2963851366884607
0.7958219348420791,-0.24833972474140326,0.1467301027620076,-0.0071235198460382065,0.28853610948403347
0.7983088783884605,-0.25360230227571035,0.1566542753180098,-0.00721194690047966,0.2981722687860944
0.800795821934842,-0.2540763993859348,0.15221297293186575,-0.0025117509689209783,0.29619236105377167
0.8032827654812236,-0.25455041428557795,0.15255980507067157,-0.007388141716139884,0.2968585389948863
0.805769709027605,-0.25023593854173776,0.167271574559948,-0.017052715528695472,0.3014773618375536
0.8082566525739865,-0.2507097736768005,0.16761785766186588,-0.017140262155541208,0.3020677497035834
0.8107435961203681,-0.25118351124669586,0.16317545720034587,-0.022015991270533775,0.3003399574255565
0.8132305396667495,-0.2468687428019654,0.16352117599865812,-0.03167990258962128,0.2978035718400553
0.815717483213131,-0.24734226984883095,0.15907820359827207,-0.03176678587083792,0.295792498212157
0.8182044267595125,-0.2478156839274518,0.15942334282145687,-0.0222766408361732,0.2955074688797938
0.820691370305894,-0.24828897989330778,0.16455658984950716,-0.01757467717158967,0.29838759705631857
0.8231783138522755,-0.24876215259702028,0.16011273090253297,-0.012872491284822374,0.29611551157217003
0.825665257398657,-0.2492351968844863,0.15566856880206048,-0.017746889547577638,0.2943906227574928
0.8281522009450385,-0.24970810759701362,0.160800906369575,-0.02740946837363545,0.2982655686556594
0.8306391444914201,-0.25496928289176873,0.1659329331453705,-0.017918210898562492,0.3047361740955185
0.8331260880378015,-0.25544191096066315,0.1662762419902184,-0.013215133464063555,0.3050786755545167
0.835613031584183,-0.24633758331174016,0.17140763572609474,-0.00851183249300469,0.30022530511178946
0.8380999751305646,-0.24680990805056258,0.18611551385503677,0.005768498909047182,0.3091721054511794
0.840586918676946,-0.2520704766772251,0.1864578559576846,0.0152606510319373,0.31390913451274194
0.8430738622233275,-0.24296567072712033,0.1867998681777614,0.02954143076405913,0.30789479377653695
0.845560805769709,-0.24343750161482647,0.20150675665967732,0.0342456283892254,0.31786719433710675
0.8480477493160905,-0.24869756082955996,0.20184809766582257,0.02458484082886514,0.3212437480986436
0.850534692862472,-0.25395743985719343,0.19740069402198746,0.010135874962326596,0.3218138456008912
0.8530216364088535,-0.26400553682101974,0.20731815519559582,0.005263940986262483,0.33571930242475906
0.855508579955235,-0.2596882332397088,0.20287005745206077,0.0051806358130690455,0.32957711947462537
0.8579955235016165,-0.2601591371915105,0.20799841358145432,-0.0044792502884956065,0.3331158663284892
0.860482467047998,-0.26541824347065074,0.20833800981267991,-0.01892731377142809,0.3379494244799894
0.8629694105943795,-0.2754655468687221,0.21346564897763987,-0.03337515109173239,0.35008963354478956
0.8654563541407609,-0.2807242355342081,0.2233813272691596,-0.03345755206778733,0.36031197812335586
0.8679432976871425,-0.2811943042538741,0.22850823424109334,-0.04311653308347729,0.3648907854220785
0.870430241233524,-0.2816641511326027,0.22405796276937595,-0.05756369060381239,0.3644862729782072
0.8729171847799054,-0.28692217427322725,0.2196073156927545,-0.06243381445617935,0.36667381742224514
0.875404128326287,-0.28260315849542894,0.21515628921133922,-0.06251530775221781,0.36064516866601787
0.8778910718726685,-0.2782839052186978,0.215493282847651,-0.0625965736065659,0.3574879269059434
0.8803780154190499,-0.28354121586091663,0.21582988948579374,-0.04831240185561292,0.3596001257791703
0.8828649589654315,-0.2840098752369495,0.21137770201219208,-0.024451195619995758,0.3548802658747172
0.885351902511813,-0.2940550880822272,0.21171352327663984,-0.01016656798427995,0.3624836132431833
0.8878388460581944,-0.28973483256852284,0.20726054285022633,0.004118287885845007,0.3562585663828888
0.890325789604576,-0.2806259101087897,0.21238396690825878,0.02319177550138285,0.35269775910116213
0.8928127331509574,-0.27151671879481215,0.22229538834756735,0.013535071807847743,0.35116914220150447
0.8952996766973389,-0.27198406003798253,0.23220640006786297,-0.0056982097287949784,0.3576696950278771
0.8977866202437205,-0.2820279286085156,0.2373285949718542,-0.010566052325254205,0.3687495843635141
0.9002735637901019,-0.28728310931528905,0.2328735659653578,-0.0154336657637284,0.37013494925795465
0.9027605073364834,-0.28296119360755917,0.23799492255898125,-0.020301049868461263,0.37029819453709445
0.905247450882865,-0.27863898289542716,0.2431158543447962,-0.015591397826048237,0.3701190255971293
0.9077343944292464,-0.2886816819093684,0.23387114759801753,-0.02524672606825895,0.3723845113938027
0.9102213379756279,-0.28435886549726264,0.22462600851930725,-0.020536614506413642,0.36295807006538816
0.9127082815220094,-0.2800357383901733,0.2249572399926989,0.00811574366393586,0.35929325055736994
0.9151952250683909,-0.2900775053196926,0.22528803162478184,-0.006327297880751814,0.3673413820744088
0.9176821686147724,-0.2857537411352845,0.22561837966668774,-0.0399237223810438,0.3662686956661619
0.9201691121611539,-0.2766412472497531,0.21637147373295829,-0.05915470643986076,0.35615484500320554
0.9226560557075354,-0.2866820350378375,0.21670092336416058,-0.06880865322560048,0.3658968572685978
0.9251429992539169,-0.2775688727113733,0.22181832150357206,-0.0736739659096397,0.3628714649924672
0.9276299428002984,-0.27324377164757147,0.22214685777854326,-0.05459703106475722,0.3563596792093019
0.9301168863466799,-0.27849512994386627,0.20810972182092824,-0.03073146182920894,0.34901807469670565
0.9326038298930613,-0.27895773241807487,0.20364892650938815,-0.016442468023896595,0.34577544230175933
0.9350907734394429,-0.26984317053043216,0.19918766148513978,0.0026351604491754443,0.3354072229997849
0.9375777169858244,-0.2703050523446857,0.19472592303488412,0.016924617083480697,0.33357075574497436
0.9400646605322058,-0.2803433726454476,0.19505211077061224,0.007272288728904286,0.34160008589819185
0.9425516040785874,-0.28559291625866584,0.20974302762972474,-0.007168211205135222,0.35441054542478584
0.9450385476249689,-0.2716884680127236,0.21006824999233853,0.0023335373284574246,0.34343665893787123
0.9475254911713503,-0.2673604426214149,0.20081617748609482,0.007047114530067233,0.3344523960775965
0.9500124347177319,-0.2726088348794154,0.21071722634565138,0.0021841171986825003,0.3445607300622844
0.9524993782641133,-0.27306842962338873,0.220617779608125,-0.002678647908716414,0.35106373650780526
0.9549863218104948,-0.2783160282946424,0.2209410269569485,-0.012329583999044047,0.35556541963481875
0.9574732653568764,-0.2739864157361727,0.2260521746829376,-0.017191884321231754,0.3556173541509959
0.9599602089032578,-0.2792332000365742,0.23595121912190864,-0.017265548767781524,0.36598122490372786
0.9624471524496394,-0.2844795693661433,0.23627294665479903,-0.02691578719507781,0.37078024530443715
0.9649340959960209,-0.2849371152192302,0.2413825635905993,-0.04135419618119229,0.3757191386884878
0.9674210395424023,-0.2901826390550273,0.2321264530024192,-0.04142716234620991,0.37390488626452023
0.9699079830887839,-0.28585092573523785,0.22765822453228202,-0.031923088914705744,0.36682162224539
0.9723949266351654,-0.28630718004767475,0.22797787454750917,-0.022418782434517226,0.36667194388976326
0.9748818701815468,-0.2867629935033046,0.22350859278146196,-0.0033374361751601356,0.36359351475287477
0.9773688137279284,-0.28721836093797565,0.21425037561491544,0.0013789333487288502,0.35832877608170105
0.9798557572743098,-0.29725008383289664,0.21456842939649334,-0.0034812704585398535,0.366618797221784
0.9823427008206913,-0.2929161404319912,0.21967434720060242,-0.0035528375549453983,0.3661547579894008
0.9848296443670729,-0.28858173554675437,0.21520291546818093,-0.0036241711826399126,0.3600067326230761
0.9873165879134543,-0.298612073993915,0.2155193405693221,0.001093132053926027,0.36826478494701353
0.9898035314598358,-0.2894883273924874,0.21583521560026941,0.0010222655864371433,0.3610946925899687
0.9922904750062174,-0.28994091053111715,0.21615053698510245,-0.013413577156338619,0.36189323051238537
0.9947774185525988,-0.29518141496200556,0.21167689783523436,-0.023060782826673787,0.3639656254657835
0.9972643620989803,-0.2956330289229525,0.20720269791047352,-0.013554141400071273,0.36126937395886655
0.9997513056453619,-0.2865073439781485,0.2123047402988374,-0.018412476058070837,0.35706971333530785
1.0022382491917432,-0.282169564979284,0.2078294081744847,-0.018482173461679352,0.35093349375433314
1.0047251927381249,-0.28740809014383994,0.20814190796190202,-0.0281284435170015,0.35597425955374873
1.0072121362845063,-0.2830693010943237,0.198877026171965,-0.032986076211173554,0.34751745565488174
1.0096990798308878,-0.2883068060224993,0.2039767758864386,-0.037843474815494105,0.35518934117739565
1.0121860233772693,-0.29354379320518276,0.20907594363309867,-0.05706584924478619,0.36487973345389635
1.0146729669236507,-0.2987802575669126,0.20459771926867143,-0.05234597289334886,0.36588245369222605
1.0171599104700322,-0.2944393873988699,0.19533050261957774,-0.028472249041190167,0.3544844525094185
1.0196468540164139,-0.2900979842809247,0.19563950016175102,-0.018963500893091734,0.3504158513445385
1.0221337975627953,-0.2953328498005553,0.19594790177856813,-0.023819728414547825,0.35522450907064895
1.0246207411091768,-0.300567172271771,0.1962557040031636,-0.019098914972380143,0.35947419233423145
1.0271076846555582,-0.2962241400165332,0.19656290337792903,-0.014377867178493986,0.35579831249950883
1.0295946282019397,-0.2966689579664869,0.1968694964546378,-0.009656585007055796,0.3561787737769087
1.0320815717483214,-0.2971132177803212,0.19238707647425457,-0.014511875075749359,0.3542592918926777
1.0345685152947028,-0.2927685111251925,0.1926924466483113,-0.024155334044198895,0.3513221602241468
1.0370554588410843,-0.2836348329972042,0.19778560355747032,-0.02901015525458206,0.3470006521201937
1.0395424023874658,-0.29365419500283296,0.1885129305110249,-0.019499532051954205,0.349499846871013
1.0420293459338472,-0.29888457555441056,0.18402803739077234,-0.009988674385807528,0.35113826573904666
1.0445162894802287,-0.294537566354672,0.18911932412770138,-0.005265985567879383,0.35006603285187854
1.0470032330266104,-0.29018996907661343,0.19899838402243164,-0.010119868912779495,0.35201276502853823
1.0494901765729918,-0.2954185854027266,0.2088768103859513,-0.005396711136429033,0.3618435946779309
1.0519771201193733,-0.3006466037439261,0.21396619653975923,-0.0006733188794818545,0.3690126921431859
1.0544640636657547,-0.29629721252096425,0.21905494245660107,-0.019891708746397896,0.36901596989725227
1.0569510072121362,-0.29673561676617005,0.2145662381590352,-0.01995625086011721,0.36672734935331874
1.0594379507585177,-0.3019618115611207,0.22923050024299618,-0.010443751869873452,0.37925799904029384
1.0619248943048993,-0.29761058203681334,0.23910570879197746,-0.02008463170901109,0.38229176154880884
1.0644118378512808,-0.2932587299363394,0.23461505386153547,-0.03451368043092273,0.3771420161149032
1.0668987813976623,-0.29848305701349015,0.2349121454403411,-0.034577284771540207,0.38140718401948664
1.0693857249440437,-0.30370675175168466,0.2399969802471862,-0.025063848071189554,0.3878975870864156
1.0718726684904252,-0.29935300264538783,0.24508115169204192,-0.01076177367304787,0.38703075702080464
1.0743596120368066,-0.30457541812215816,0.2549530598371228,-0.010824674884057472,0.3973467272181118
1.0768465555831883,-0.3050087833787595,0.2600358947954464,-0.0156757450921301,0.40111688259714645
1.0793334991295698,-0.30544149690476885,0.2603296533325188,-0.02531498432863799,0.40212794589186973
1.0818204426759512,-0.3106619572014995,0.27498794550708494,-0.030165585987155907,0.4159797884566296
1.0843073862223327,-0.3063049495009226,0.27528034818687663,-0.03022755010471201,0.4129354634467517
1.0867943297687142,-0.30194727564865176,0.27557206813467205,-0.015924070080528097,0.4091035297031704
1.0892812733150956,-0.30716573750255227,0.28543990880529435,0.0031680474021005267,0.41932895006021653
1.0917682168614773,-0.3075951203313503,0.28573025374417194,0.007895189016428716,0.4199034055184262
1.0942551604078588,-0.29844701605699203,0.2860199064312119,-0.006531048606165157,0.41342552275366085
1.0967421039542402,-0.29887503321575254,0.2767320570777958,-0.02095705223554667,0.40785550741975896
1.0992290475006217,-0.2993023604349701,0.272231912509715,-0.021017611964714078,0.40513436926943286
1.1017159910470031,-0.2997289929957172,0.2725194696047928,-0.016289534491020774,0.40542530691835016
1.1042029345933846,-0.3193085394735966,0.27280632193363186,-0.016349626514619686,0.4202957803201043
1.1066898781397663,-0.329310575254536,0.2635156597597361,-0.02119788809783607,0.4222976537620009
1.1091768216861477,-0.32973509565996306,0.2590126899615015,-0.026045915985477563,0.4201085533650802
1.1116637652325292,-0.32537049934540674,0.2449321995089151,-0.03568211356575901,0.40881653272473467
1.1141507087789106,-0.32579358830067173,0.23085099198709047,-0.04052967426875753,0.40134311651700577
1.116637652325292,-0.3214275512484463,0.22634587099484538,-0.026223388207013087,0.39399973363829
1.1191245958716736,-0.3122723835663459,0.22662843018387901,-0.016705272058352705,0.38620403030051353
1.1216115394180552,-0.31269329060739504,0.22691026321982966,-0.026340535862756198,0.3872456395815327
1.1240984829644367,-0.3131134611376971,0.2271913671027086,-0.03597556642078992,0.3885230986838782
1.1265854265108182,-0.3135328905787906,0.2274717388467069,-0.050398767137364686,0.3906229655020332
1.1290723700571996,-0.30916317104688074,0.21817456883968767,-0.04566812149827548,0.38113985115876786
1.131559313603581,-0.309581104634258,0.21845346740580718,-0.02657203291396648,0.3798268693778369
1.1340462571499625,-0.3147866868079037,0.21873162496188314,-0.021840921399206792,0.38394167238986904
1.1365332006963442,-0.3199915097299691,0.22379744190032325,-0.012321173768391702,0.39068103693860595
1.1390201442427257,-0.310830358937634,0.21928570534706138,-0.0028011934402236704,0.3804071230820293
1.1415070877891071,-0.30645684322608246,0.21956162236479537,-0.007646190476789272,0.3770697110672827
1.1439940313354886,-0.3068709581252339,0.2054715767890447,-0.012490955021041472,0.36951911691577344
1.14648097488187,-0.31686110250147226,0.2009575823532681,-0.012547083859312025,0.3754228782281278
1.1489679184282517,-0.31727365863593615,0.21080803952491367,-0.007814577100980102,0.381003506030899
1.1514548619746332,-0.31289702542781195,0.20629252554460642,0.006494968462144257,0.374837750543444
1.1539418055210147,-0.3180964084335568,0.19698784423094295,0.0016511327933361741,0.374155398294056
1.1564287490673961,-0.3185065933045701,0.20683600937904956,-0.0079808742640477,0.37985691925822757
1.1589156926137776,-0.3189159789904761,0.20710659827632627,-0.00803584286937209,0.38034868144331274
1.161402636160159,-0.3193245611377301,0.20737641478849156,-0.01287898310660296,0.38097115502645684
1.1638895797065407,-0.31015552876946817,0.20764545615657815,-0.022510295101493938,0.37392485993083974
1.1663765232529222,-0.3153508941684803,0.21749052627829135,-0.027352972341885717,0.38405273149608526
1.1688634667993036,-0.3205454430726906,0.22254641246594264,-0.03219541827925276,0.39155182509382463
1.171350410345685,-0.3209507678784399,0.2228131120090544,-0.037037633047466656,0.3924625645162586
1.1738373538920666,-0.31656686432033665,0.21829062221353945,-0.04666802010340909,0.3873542040979507
1.176324297438448,-0.32175893811204304,0.2185557470424362,-0.03714456298477131,0.39073667268327467
1.1788112409848297,-0.32216177506362315,0.2236084838347705,-0.018044068474138086,0.39257426273525464
1.1812981845312112,-0.32256377428482724,0.23344882994629446,-0.018096956638016692,0.39858906724059195
1.1837851280775926,-0.3229649315836891,0.23849997610896967,-0.018149614342474862,0.40189301329783855
1.186272071623974,-0.3233652427869974,0.2339735163920178,-0.008625235096877404,0.39922810684621896
1.1887590151703555,-0.32376470374045363,0.22944625484265124,-0.008677432335135293,0.3969187134431853
1.191245958716737,-0.32416331030883017,0.22491818888462412,-0.013517802892272002,0.3947819327635862
1.1937329022631187,-0.3293494616964403,0.22517771927927388,-0.027934750246609852,0.3999455256042889
1.1962198458095001,-0.3393231538066648,0.22543644016469466,-0.032774661277576556,0.40870034216439227
1.1987067893558816,-0.33493076928118104,0.22569434901678198,-0.023249132828201624,0.40454552471465566
1.201193732902263,-0.3353259173438552,0.2259514433290266,-0.028088584986354803,0.4053227037700997
1.2036806764486445,-0.3357201906368419,0.23578452725324794,-0.032927807959742594,0.41156607030986986
1.206167619995026,-0.32653677850198914,0.24082838835750842,-0.03297839859934548,0.4070775787580413
1.2086545635414077,-0.32692929022317074,0.23629462086841269,-0.03302876039940372,0.4047330078838324
1.2111415070877891,-0.3273209151826974,0.24133683563213904,-0.04265570017710907,0.40890336084039725
1.2136284506341706,-0.32771164942396314,0.2559550302317426,-0.05707081479134857,0.4197201217121419
1.216115394180552,-0.3281014890109727,0.25620718566694034,-0.05233208782238208,0.41956090915913624
1.2186023377269335,-0.32849043002849104,0.2516701061979627,-0.04280472941558422,0.41602409766062615
1.221089281273315,-0.32887846858219305,0.2567089994237799,-0.0332771430783243,0.41853067478212636
1.2235762248196966,-0.324477197478499,0.2569586530400185,-0.018960925679959217,0.41433406540891904
1.226063168366078,-0.31528661286534737,0.2524190647218725,-0.019009690694016257,0.4043295695685024
1.2285501119124596,-0.3204603241932792,0.25745544212420235,-0.014269825034130434,0.4113170941839578
1.231037055458841,-0.32084471437183393,0.2672793796394499,-0.004741328897781116,0.41761474796816006
1.2335239990052225,-0.3260165862540697,0.2627372617180459,0.004787394194643468,0.41873691305046074
1.236010942551604,-0.3407643393945199,0.2677711027122598,-0.0048372692407703255,0.4334110031187842
1.2384978860979856,-0.33635755012746155,0.2775924970716064,-0.01446170612801545,0.43635207906268836
1.240984829644367,-0.327161424692058,0.2634710226632593,-0.01450911003429134,0.4203118983133216
1.2434717731907485,-0.32754116934968813,0.2637139038580827,-0.009767884490308631,0.42062293360496544
1.24595871673713,-0.3327083771028349,0.268744331843223,0.00455037361128241,0.42771378980840075
1.2484456602835114,-0.33308623765616674,0.26419709450502005,0.014080454094029804,0.4253760755476605
1.250932603829893,-0.32867474737760927,0.2644373996712841,0.004457146778928944,0.42186975960129525
1.2534195473762746,-0.33383911261879806,0.25510003526763825,-0.0003775319530738841,0.4201484542849496
1.255906490922656,-0.3342141198324021,0.245761805841048,-0.00042358232514772,0.4148471074113768
1.2583934344690375,-0.3441649754160096,0.2507879192786624,0.004318995437007089,0.4258670737223157
1.260880378015419,-0.34932646586851257,0.2558131635657128,-0.010091815496403811,0.43309490778546067
1.2633673215618004,-0.34969858767305306,0.24647232670748132,-0.029290805395195463,0.42883057415933695
1.2658542651081819,-0.3500697406565307,0.24191901997157528,-0.029335957891081677,0.42653749421677506
1.2683412086545636,-0.3456515180287967,0.24694164468488466,-0.019804079860472612,0.42526150704526194
1.270828152200945,-0.3460207229843466,0.24238658559305026,-0.01506038150260025,0.4227391781004818
1.2733150957473265,-0.3463889487805749,0.23783064738397952,-0.024681669698885855,0.42090130136591336
1.275802039293708,-0.34675619201915275,0.2476390380863731,-0.03909113805200626,0.4278937566291061
1.2782889828400894,-0.3471224493258428,0.25744654582761806,-0.04392357684680803,0.43439843391472027
1.280775926386471,-0.33791091070999973,0.25767636207606026,-0.039178986331553034,0.4267503768241832
1.2832628699328525,-0.333486782806885,0.2531168882817094,-0.05358778667886277,0.4220820350612439
1.285749813479234,-0.3386384656355962,0.2485565259153817,-0.07278476818101076,0.42632614212867376
1.2882367570256155,-0.3437891492788852,0.2392068698281551,-0.06325110785149946,0.4235700749336827
1.290723700571997,-0.3393620238442124,0.23943312817331863,-0.05850562919065183,0.41942545790818975
1.2932106441183784,-0.3397222960654271,0.24444689584395807,-0.04418312249812395,0.4208535037817754
1.29569758766476,-0.3496583660607028,0.23509455779333432,-0.0394372013182025,0.4231852040278538
1.2981845312111415,-0.3500166173717143,0.22574132223809595,-0.02990265595543029,0.4175702884968347
1.300671474757523,-0.34558545016687975,0.22596399409584356,-0.02994469663864585,0.41398757813679854
1.3031584183039044,-0.34115326463991213,0.23576257166489745,-0.029986516997547952,0.4157748565920744
1.305645361850286,-0.34150846100993304,0.23119503666342744,-0.03481652062519558,0.4138736087595115
1.3081323053966674,-0.34665103620127147,0.23141500071390286,-0.03006949783582158,0.41788038737769134
1.310619248943049,-0.3470041805232632,0.23642246217909824,-0.01574544890699947,0.4201849605646679
1.3131061924894305,-0.35214469759223244,0.2462174194434068,-0.015786390720260002,0.42997455251638794
1.315593136035812,-0.352495777769104,0.2416462576316709,-0.020615516917336763,0.4278681884765523
1.3180800795821934,-0.3480574180813807,0.23707418513267564,-0.006290811181417055,0.4211742036771951
1.3205670231285749,-0.3340412122623123,0.24207800703671856,-0.006331097041817557,0.4125837803044342
1.3230539666749563,-0.3200239640322492,0.24708091517473507,-0.02552477810835896,0.40511212089491955
1.325540910221338,-0.32994768709874545,0.24250610139961015,-0.025564628110407384,0.41027824174366484
1.3280278537677195,-0.3446587653129016,0.2379303708674949,-0.011239050662506855,0.41895923685718145
1.330514797314101,-0.34500358255229624,0.24771893207692086,-0.03043207926434377,0.4258148103713638
1.3330017408604824,-0.3453473459632441,0.25271817030637145,-0.040048084332035216,0.4298082270333161
1.3354886844068639,-0.35047845607809913,0.2625048907783949,-0.03051025952622055,0.4389474248629583
1.3379756279532453,-0.3364548935340934,0.2770790920971664,-0.020972218431740686,0.4363651597072993
1.340462571499627,-0.33679547883905137,0.2772871596079107,-0.016222364674831624,0.4365575890595559
1.3429495150460085,-0.33713499932461044,0.2774943019204019,-0.021049101884035082,0.43715690553623965
1.34543645859239,-0.33747345231037157,0.27770051770588555,-0.02108722040895117,0.4375506592532723
1.3479234021387714,-0.3473876417836743,0.2826942089783846,-0.021125123882725916,0.44837535649609195
1.3504103456851528,-0.34772395183718374,0.2876869711338106,-0.021162812620486804,0.4518004035848395
1.3528972892315343,-0.3384823798720994,0.2831019962703243,-0.01641188361932855,0.44157265732839174
1.355384232777916,-0.32445132663730153,0.28809289643057445,-0.00687233719892788,0.4339509296556909
1.3578711763242974,-0.3295728061903672,0.28829446043767737,-0.006909383642160094,0.437926557862799
1.360358119870679,-0.33948160605390476,0.2837066870983902,-0.011734619952903813,0.44257761631009035
1.3628450634170604,-0.335024110457814,0.28390638188284045,-0.011771239816965817,0.43929779233304067
1.3653320069634418,-0.3449307368628025,0.2888935436433182,-0.011807646883330136,0.4500845624062562
1.3678189505098233,-0.35004786955420875,0.2843029612940038,-0.01663224480320835,0.45126302346544417
1.370305894056205,-0.3503755061264493,0.2844998436938222,-0.026245033909724214,0.4520972883795006
1.3727928376025864,-0.3507020475221524,0.28469578644335325,-0.03585761121789943,0.4531328560555761
1.3752797811489679,-0.3558158947119131,0.2801023851661193,-0.035893170424639464,0.4542583150460985
1.3777667246953493,-0.36092864205373676,0.27550804214924174,-0.02156330854935895,0.4545757827021339
1.3802536682417308,-0.35167507729310343,0.27091275638254597,-0.02638684917615386,0.44470815977373757
1.3827406117881123,-0.3567856180864637,0.26152812355858446,-0.026421776047548917,0.4431602948538158
1.385227555334494,-0.3666834555559959,0.266507755994541,-0.021668089509795152,0.4538200598108642
1.3877144988808754,-0.3622149742115317,0.26190963614789586,-0.03606780651286634,0.4484386599266764
1.3902014424272569,-0.35295697851311875,0.25731056974143973,-0.04089050748544487,0.43870193934400575
1.3926883859736383,-0.36285148291013547,0.2574989592008068,-0.03134778945992167,0.4460376626963318
1.3951753295200198,-0.35837966203665783,0.2528979970138705,-0.03617007271299855,0.4401154998579354
1.3976622730664012,-0.3586951270786972,0.24829608565264305,-0.04578055096100364,0.4386445020591509
1.400149216612783,-0.3590094726492497,0.2484816276123598,-0.05060241792236653,0.43953557923377456
1.4026361601591644,-0.36411110003053015,0.24866621877087036,-0.060212480598860196,0.44501384736108296
1.4051231037055458,-0.3596347972521424,0.25363826166990755,-0.06503393271310465,0.44485836800228307
1.4076100472519273,-0.3455805623333089,0.2538209489135417,-0.05548996798980532,0.4323541785590679
1.4100969907983087,-0.3458904099235368,0.24921427976975696,-0.0363689901166655,0.42786754534591326
1.4125839343446904,-0.35577593477921804,0.23502985020952671,-0.012459402783457918,0.4265803358984793
1.4150708778910719,-0.3512951184042936,0.2304212728287025,0.0018735836773746684,0.42012585436090716
1.4175578214374533,-0.3468131688936029,0.2306001436443701,-0.007735241068548504,0.41655207876232647
1.4200447649838348,4.441284832580562,-5.553613152238485,0.9786440298294927,7.178117730014419
1.4225317085302163,5.887078453256959,-6.774479040241415,0.9977660346660535,9.030326463722439
1.4250186520765977,7.064722626555246,-7.62663882955011,0.969004210561442,10.441019815451407
1.4275055956229794,7.964640547584278,-8.138822940654746,0.9163005737356347,11.42434000951389
1.4299925391693609,8.582043814745031,-8.354127003983733,0.8492319304456899,12.006835924113487
1.4324794827157423,13.896871882854686,-14.05694223099665,1.519577601595108,19.824978918054963
1.4349664262621238,15.54378415299035,-14.794184173950036,1.428567347538591,21.506229698251644
1.4374533698085052,16.572993541825152,-15.014279517889605,1.3136152792148046,22.401301066689946
1.4399403133548867,17.008442067565696,-14.750747086509634,1.1890866061932925,22.545189467665583
1.4424272569012684,16.878860151709794,-14.056259316762244,1.0214625048385209,21.98903662395952
1.4449142004476498,16.22734342568737,-12.993065452217262,0.825108184716246,20.804500186673234
1.4474011439940313,15.1161411341802,-11.628203139740965,0.6431192753120882,19.08209719736838
1.4498880875404128,13.62186773180216,-10.043075236137684,0.4611305662660943,16.930188483905898
1.4523750310867942,11.821137673138008,-8.285565774946198,0.29350726713829367,14.438699477934481
1.4548619746331757,9.780988606102804,-6.4466544195648705,0.13546097420559633,11.71517993858997
1.4573489181795574,7.592400195183926,-4.57901360680618,-0.013008312936641175,8.866345106713958
1.4598358617259388,5.351140508160801,-2.7305273701397583,-0.13274698141361263,6.009002098371759
1.4623228052723203,3.1242471928609326,-0.9538681463315444,-0.22854343495395746,3.274601817678899
1.4648097488187017,0.9643926871216835,0.6791380145945234,-0.32912809388969144,1.2245844193148276
1.4672966923650832,-1.0565969579656482,2.144549095839441,-0.4105589420311322,2.425705382137276
1.4697836359114647,-2.8956261112623576,3.4279998872692286,-0.4584707698310915,4.510657296906042
1.4722705794578463,-4.509599141658707,4.472029548890074,-0.49680559430664495,6.3704276546499825
1.4747575230042278,-5.850632014751852,5.305368500495664,-0.5159866092344139,7.914737650674226
1.4772444665506093,-6.909147922732495,5.918439935341535,-0.5160138150334301,9.112108786869788
1.4797314100969907,-7.685146864459764,6.2873018367445255,-0.5064640187650831,9.942240819702091
1.4822183536433722,-8.16426362886099,6.445473027888294,-0.4729720108909241,10.412637786740886
1.4847052971897536,-8.365651828134563,6.412107122018445,-0.42511459847576916,10.548932205472175
1.4871922407361353,-8.322830284468626,6.1872041191221365,-0.3724685885861536,10.377366313532224
1.4896791842825168,-8.031010593517735,5.80428284245165,-0.3437644015715424,9.914888019143762
1.4921661278288982,-7.523711577527561,5.296862115281819,-0.30069481129871,9.206161064182616
1.4946530713752797,-6.853605672053872,4.684095550949381,-0.24325981819858278,8.304928487204618
1.4971400149216612,-6.044634892759234,4.004290376094962,-0.2001898426256119,7.253414945798954
1.4996269584680426,-5.130318061975495,3.27181180078023,-0.15711967505306212,6.0868384625391165
1.5021139020144243,-4.158539212024061,2.5153902450503596,-0.10447250927614604,4.8612293679717125
1.5046008455608058,-3.1484519553330297,1.768544532293352,-0.06619036233385422,3.6117697382046625
1.5070877891071872,-2.152728727601218,1.0504282759587293,-0.027908024704274226,2.395499821627228
1.5095747326535687,-1.1953115446341267,0.36582987955754964,0.010374503171982852,1.2500835251409317
1.5120616761999501,-0.29535401894495594,-0.2613086400958218,0.0486572208527587,0.397345853176775
1.5145486197463316,0.5184134302832903,-0.807045266164161,0.08215172457399689,0.9627167040134659
1.5170355632927133,1.2316255938010057,-1.2618031917494836,0.10128120724981748,1.7661559333639951
1.5195225068390947,1.829917262329944,-1.6399476265329342,0.106045668433433,2.4595265984610974
1.5220094503854762,2.308500033204353,-1.9223249569314032,0.10602191431717678,3.0059518109346492
1.5244963939318577,2.66737390705065,-2.1137235859412913,0.11557515441219302,3.4053000710798695
1.5269833374782391,2.882596867865609,-2.2141435132166984,0.11555177498595448,3.636639714413652
1.5294702810246208,2.9876877394617365,-2.223584738389794,0.11552858222634832,3.726117814916917
1.5319572245710023,2.982646522381405,-2.1612008743521707,0.10592876903855952,3.6848596175274437
1.5344441681173837,7.607992504248568,-5.785888527137686,0.5512274570372728,9.574022545542583
1.5369311116637652,8.62767197461213,-6.3268454013911555,0.527262804945126,10.711848696657857
1.5394180552101466,9.33610641830631,-6.585287439040698,0.48893312773333975,11.435381467713379
1.541904998756528,9.747661045723223,-6.580368252891104,0.45539203822331054,11.76968666169343
1.5443919423029098,9.867124260586872,-6.331241455725677,0.4074859226725511,11.730763160243995
1.5468788858492912,9.732803289835969,-5.871425870267391,0.33563797397785855,11.371620573966712
1.5493658293956727,9.368640150420793,-5.229651915897316,0.2685786115971336,10.732791430943418
1.5518527729420541,8.779423245983018,-4.45380362525659,0.19194262510415605,9.84639432664504
1.5543397164884356,8.017825013340424,-3.577399821004497,0.11051841735265633,8.780405556945789
1.556826660034817,7.12215267932228,-2.648324535739678,0.04824800447626387,7.598750522560551
1.5593136035811987,6.125925067410537,-1.6953081887586412,-0.0092338239551637,6.356186989847431
1.5618005471275802,5.05787259774053,-0.7422927960172399,-0.07150387505269684,5.11255186909054
1.5642874906739617,3.9515140937398514,0.15804920662868005,-0.11940853600685664,3.956475904540799
1.5667744342203431,2.835579975489738,0.9674105933043027,-0.1433710006499993,2.9994920065342976
1.5692613777667246,1.7388006630445145,1.6857913647181682,-0.16733328605789666,2.4276162587578214
1.571748321313106,0.6851181731115753,2.2988263116384777,-0.20087219934660006,2.4071433199291334
1.5742352648594877,-0.29673707430797513,2.7729966115727223,-0.2200457243911771,2.7974958838013495
1.5767222084058692,-1.18761146587976,3.1274558785721243,-0.23443066831006298,3.353559154771049
1.5792091519522506,-1.9875050015774494,3.347838903466234,-0.22966182162130266,3.9001212810844472
1.581696095498632,-2.6868408747599846,3.434145687065647,-0.21531599144563884,4.36564215922982
1.5841830390450136,-3.271253875492185,3.4055298434823777,-0.2153351948658866,4.72706089223734
1.586669982591395,-3.726378793864874,3.2667797768875517,-0.20098901244254108,4.959651762893232
1.5891569261377767,-4.0665808399166625,3.0418375047534667,-0.17706584797937452,5.081457216923385
1.5916438696841582,-4.287071610430622,2.730703027970819,-0.15314250860157586,5.085191702175051
1.5941308132305396,-4.397427912176548,2.3621067673717704,-0.14358420475570988,4.99374979820858
1.596617756776921,-4.412014955270036,1.9552023371676266,-0.11966051700659364,4.827319212992081
1.5991047003233025,-4.330832739891193,1.524354948268865,-0.07179463920133777,4.591832390173152
1.601591643869684,-4.1490928629252055,1.0887182149258914,-0.0574474116724506,4.289939293486117
1.6040785874160657,-3.8907373412042587,0.6482921381269771,-0.04310001166751576,3.944613715638601
1.6065655309624471,-3.594073401546633,0.2413839454422977,-0.004810423075751302,3.602173366870679
1.6090524745088286,-3.239947430951818,-0.11764115214042681,0.01911412704858506,3.2421388227312296
1.61153941805521,-2.8379362363660356,-0.42878315357536967,0.038250444853403565,2.870400698683189
1.6140263616015915,-2.421558641361803,-0.6920420577977673,0.06696373980596526,2.5193952857310404
1.616513305147973,-1.9956030496143717,-0.907417863724024,0.08131199481010576,2.1937297808836096
1.6190002486943547,-1.5552810581828163,-1.0557569569705811,0.08608361269061149,1.8817365146342646
1.6214871922407361,-1.1293230873928735,-1.1466361430571106,0.07170178631044344,1.6109892074261598
1.6239741357871176,-0.7225175409928676,-1.180055420844192,0.052531725133222906,1.384673959981777
1.626461079333499,-0.33007601611453463,-1.1560147891739945,0.04293863862170788,1.2029813364677455
1.6289480228798805,0.014482663523806838,-1.098456263471962,0.028557316315923842,1.0989228501667876
1.631434966426262,0.3159469007425305,-0.9834378259422423,0.01896456435662941,1.033117639131213
1.6339219099726436,0.588681904978924,-0.8396898952943599,-0.004993231038120882,1.0255000915969086
1.636408853519025,0.8183224657248199,-0.6767892769386421,-0.014585650447955345,1.0620301900078306
1.6388957970654066,0.9952917757689184,-0.494735969626956,-0.02896630765639685,1.1118491109567055
1.641382740611788,1.1291666411578591,-0.303106778734076,-0.04334679984619605,1.1699444293961896
1.6438696841581695,1.2199470612744747,-0.1066901062968757,-0.028996707599297622,1.2249467009406838
1.646356627704551,1.2676330354785934,0.07536043570439066,-0.029011661303071534,1.2702024973986599
1.6488435712509326,1.267436159786783,0.2669868651895464,-0.04339166146281315,1.2959781022854175
1.651330514797314,1.2337216434741338,0.43945876357229974,-0.04819469198295856,1.3105402804921122
1.6538174583436955,1.166489485832173,0.5736225189241009,-0.05299756001083189,1.3009801136608274
1.656304401890077,1.0705280894502593,0.6934201492162275,-0.05780026605380861,1.2767939396774128
1.6587913454364585,0.9506258568954168,0.7892748491946628,-0.06739121394024572,1.2374109596596208
1.6612782889828401,0.8019943840718374,0.8563982169424826,-0.05782838757727049,1.1747157190038857
1.6637652325292216,0.6533640901039048,0.8995786572000268,-0.029111787474201734,1.112193279469468
1.666252176075603,0.48558136089089354,0.9188161714038814,-0.029125447344094724,1.0396445097055689
1.6687391196219845,0.3034345989119186,0.9236875676476504,-0.03392735109591527,0.9728424042958115
1.671226063168366,0.12128901326515984,0.9094044440803,-0.02436388595951655,0.9177805111195617
1.6737130067147474,-0.0608553969337029,0.8520247855857033,-0.024377069048131972,0.8545430685949653
1.6761999502611291,-0.2334218259496297,0.7850674169075229,-0.02917849755366575,0.8195535264026377
1.6786868938075106,-0.39162187138902094,0.7133207428834885,-0.024402962027931352,0.8141189574833811
1.681173837353892,-0.5402439375200039,0.6272079584061441,-0.014838866304510034,0.8279332866048594
1.6836607809002735,-0.6744996219908913,0.5506710816259148,-0.010063017537799368,0.8707982800435909
1.686147724446655,-0.789600522470726,0.46934490414626273,-0.010075416242070645,0.9186158817190997
1.6886346679930364,-0.885546639969426,0.37844102422669,-0.000510852971123299,0.9630216619316745
1.691121611539418,-0.9767031854782587,0.3019014600638612,-0.0005229415214031974,1.0222983310071008
1.6936085550857995,-1.0391281434462483,0.230149406627413,-0.0053232790882304926,1.0643234401126607
1.696095498632181,-1.077609918264397,0.16318486554263956,-0.0005466562267244512,1.0898957450678481
1.6985824421785625,-1.1017253176639692,0.10100783844974037,-0.010135090054909313,1.1063923260130124
1.701069385724944,-1.1066859394350845,0.05798353696462666,-0.014934967808395427,1.1083045214947387
1.7035563292713254,-1.0924917847078128,0.048477172717856565,-0.019734693324727104,1.0937448486961663
1.706043272817707,-1.0639312579520148,0.01502790754981742,-0.01974586380118204,1.0642205874676252
1.7085302163640885,-1.035369570297506,0.0007313730418516684,-0.019756883076009757,1.0355583114597884
1.71101715991047,-0.9828647063307706,0.0007991675864285064,-0.019767751667480127,0.9830637993668012
1.7135041034568514,-0.915993473899471,0.010442889590150717,-0.024566873414489265,0.9163823598470108
1.715991047003233,-0.8443326808701352,0.020085734153306056,-0.03415424883591989,0.8452618679529871
1.7184779905496144,-0.7678823284873518,0.03930450967129895,-0.04852987845092649,0.7704175906520568
1.720964934095996,-0.6866424180142318,0.06809921791264628,-0.05332855281799098,0.6920688175625357
1.7234518776423775,-0.5958245474119759,0.10168145733914447,-0.05812707909739956,0.6072271135165932
1.725938821188759,-0.5145823312615098,0.1304744231057633,-0.06292545780905634,0.5345822331239519
1.7284257647351404,-0.4381273675602778,0.16884332698236149,-0.07251209279339577,0.4751017394969729
1.7309127082815219,-0.3616712543236107,0.20721136415043873,-0.0773101779301193,0.423933378313959
1.7333996518279033,-0.29000239622515744,0.23600172980458334,-0.0677429070991149,0.37998329930317737
1.735886595374285,-0.22790919795619008,0.2600028291132306,-0.0677522974226239,0.35232718808794944
1.7383735389206665,-0.18018006422533833,0.2792146639373292,-0.05339633281992562,0.3365662675618265
1.740860482467048,-0.14681499643816182,0.3080024461114359,-0.039040223772925486,0.34343018076751136
1.7433474260134294,-0.11344878605636921,0.33200096756076425,-0.029472374123056255,0.35208506124997246
1.7458343695598109,-0.07529303119920225,0.33684502022293383,-0.010327574430609943,0.345311840210805
1.7483213131061923,-0.04192453996358825,0.3416882192900208,0.004028964822150982,0.3442742203684179
1.750808256652574,-0.042073733744289105,0.3561073733256155,0.004020436473185285,0.35860678230826804
1.7532952001989555,-0.04701019410873447,0.36094887098342987,0.004012049961952258,0.36401942579929825
1.755782143745337,-0.05673392256248844,0.36578952085092276,-0.0007845985533929678,0.37016391926896935
1.7582690872917184,-0.06645651730688934,0.3754177282069664,-0.015157912914743221,0.38155563377910107
1.7607560308380998,-0.09054318984045262,0.3754682850607818,-0.024742683682752897,0.3870228710409677
1.7632429743844813,-0.11941713507589155,0.36594119339398734,-0.019962104738397102,0.38545024944593836
1.765729917930863,-0.157866757902452,0.35162485851984027,-0.010392983243880494,0.3855774480962763
1.7682168614772444,-0.19152684994355906,0.35646129904403656,-0.0008237230410674812,0.4046577201600299
1.770703805023626,-0.22039741279883965,0.3182012738177038,0.00874567534853199,0.3871738073074331
1.7731907485700074,-0.263632061364268,0.30388243135132464,0.008738404762830498,0.4023962668576397
1.7756776921163888,-0.3116539906288755,0.3087163703614797,0.00873127132106255,0.4387598914018367
1.7781646356627703,-0.3500979922761437,0.3039726729738348,-0.005640935459018337,0.46368072017660755
1.780651579209152,-0.3837524712854171,0.2896513412464441,-0.015224602817379917,0.4810360144879756
1.7831385227555334,-0.4174058326504536,0.2944827971696151,-0.024808134595424747,0.5114324887036058
1.7856254663019149,-0.4462696747386665,0.28973662290014435,-0.02002632135319793,0.5324518633528079
1.7881124098482963,-0.4751324025721919,0.28498962716743526,-0.01524437357246633,0.55425831386879
1.7905993533946778,-0.5039940178667878,0.2946070220311734,-0.01046229177390856,0.5838773218962582
1.7930862969410595,-0.5232777157113564,0.28985838967806554,-0.005680076478032703,0.5982221302289416
1.795573240487441,-0.537771901169334,0.2707437322263977,-0.0008977282051709778,0.6020810511410317
1.7980601840338224,-0.5474765759972874,0.27078187504619233,0.003884752524541568,0.6107933500140799
1.8005471275802039,-0.5523917419650467,0.2660308036731598,0.008667365191183052,0.6131754629088834
1.8030340711265853,-0.5573058041758605,0.26127892357417215,0.008661705954740029,0.6155740901160697
1.8055210146729668,-0.557430361105286,0.2708914468658814,0.008656177616071403,0.6198271637141931
1.8080079582193485,-0.5384002046010266,0.2661379557911516,-0.010502833625265495,0.6006783676321965
1.81049490176573,-0.5337341597265177,0.26138366248454536,-0.02487331168662621,0.5948211949040373
1.8129818453121114,-0.5338554216748159,0.2566285691284311,-0.02487845044602821,0.5928564506194538
1.8154687888584928,-0.5243987823309406,0.251872677913795,-0.034460267023364466,0.5827704855197808
1.8179557324048743,-0.5053642435529545,0.24711599104010418,-0.044041955296023616,0.5642685756941279
1.8204426759512558,-0.48154021053117624,0.24235851071516823,-0.03446990250044735,0.540191444075963
1.8229296194976374,-0.46729189510831126,0.23760023915500472,-0.0488397390368025,0.5264987264843244
1.825416563044019,-0.4482540892168335,0.23762958190402106,-0.06320944882051016,0.5112680129987456
1.8279035065904004,-0.43879200472249824,0.22808133123331142,-0.07757903236820951,0.5005776896034582
1.8303904501367818,-0.41975203026017405,0.21853229602333624,-0.07758328023520633,0.47954905555617944
1.8328773936831633,-0.39592257107741313,0.1946172685606764,-0.07758740289829014,0.4479401395265547
1.8353643372295447,-0.3768804357530107,0.18985507434255355,-0.07759140087290994,0.4290736971621733
1.8378512807759264,-0.36741402955625746,0.1898805056704882,-0.07759527467410088,0.4207953210293526
1.8403382243223079,-0.35794654780612023,0.19469356481419808,-0.07281062149615103,0.41392354592247493
1.8428251678686893,-0.3436895891523356,0.20429425405054458,-0.06802584517352095,0.4055689726068077
1.8453121114150708,-0.32943155889557085,0.2091057690227598,-0.07281775286052294,0.3969292125387371
1.8477990549614522,-0.319960862346615,0.21870491866220654,-0.06803273178910274,0.39349110215520744
1.8502859985078337,-0.3152775015059225,0.23788010858666064,-0.04888237915166904,0.39796524472439293
1.8527729420542154,-0.30580467174312553,0.24747772781895305,-0.03930871206198461,0.39535667171596406
1.8552598856005968,-0.29633077839844435,0.2570745853102534,-0.03931173103174501,0.394264739528377
1.8577468291469783,-0.2964326301418898,0.27145908669776597,-0.034526226611172106,0.4034283087335713
1.8602337726933598,-0.3013218256918602,0.29063123430458404,-0.024952199310884993,0.41938522773475456
1.8627207162397412,-0.2966331571352903,0.3098026271395766,-0.020166456281579315,0.42938978056492005
1.8652076597861227,-0.2919434331696783,0.31460805757691546,-0.02016899803275507,0.4296696248803998
1.8676946033325044,-0.2968294625013592,0.32420114123879396,-0.005806211792085847,0.4395996154283541
1.8701815468788858,-0.3065028438844096,0.33858188047182347,-0.0010201146694708285,0.4567085763668182
1.8726684904252673,-0.31138677276111937,0.34338506766724564,-0.0010223038523218264,0.46354727056966943
1.8751554339716487,-0.3210580578633873,0.34818751182328356,-0.005812779847747862,0.4736524129762856
1.8776423775180302,-0.3450935079313102,0.3529892153028271,0.0037620701190235195,0.4936649354653654
1.8801293210644117,-0.35955110847084915,0.3577901804739354,0.0324906488624741,0.5082779309685718
1.8826162646107933,-0.3692192649177259,0.3578020063893925,0.05643093927587195,0.5172326287756969
1.8851032081571748,-0.3788863827153772,0.3578130987475112,0.05164092425312994,0.5236906431283235
1.8875901517035563,-0.383764060674205,0.3578234599310739,0.04685102321229273,0.5267898073408772
1.8900770952499377,-0.3982175108932709,0.35304468900720254,0.04206123565021613,0.5338416300389542
1.8925640387963192,-0.41266992887732756,0.3482651916881685,0.013329544462896692,0.5401507110953421
1.8950509823427006,-0.41754451013824156,0.3530617770109523,-0.02019043757014316,0.5471779327622683
1.8975379258890823,-0.4224180634760741,0.3434924307746181,-0.03934509766866334,0.5458682140048906
1.9000248694354638,-0.40813697777581176,0.3434991719854983,-0.04892283965323507,0.5356873323333607
1.9025118129818452,-0.4130084817728221,0.3435051964117526,-0.044135260703063395,0.538998837860988
1.9049987565282267,-0.41309056104491104,0.33393369982544163,-0.03455916795754277,0.5323061746715185
1.9074857000746082,-0.4179600244184021,0.3195730879633194,-0.03455977187558723,0.5272683551990726
1.9099726436209896,-0.4228284707648645,0.31000016988610657,-0.03456026631377718,0.5254316635171962
1.9124595871673713,-0.41333069232127856,0.30042654469709973,-0.029772248448214356,0.5118444653906967
1.9149465307137528,-0.41819711121331365,0.29085221482330326,-0.020195718774512983,0.5097957451289691
1.9174334742601342,-0.41827411636925116,0.2764887793746871,-0.02977269438903285,0.5022804942218689
1.9199204178065157,-0.4087733066838892,0.27170145074561036,-0.024984352543567567,0.49146872989700124
1.9224073613528971,-0.41363670097933103,0.252548214770965,-0.02019590369219948,0.48506061034370807
1.9248943048992788,-0.41371068820015616,0.24297109049167842,-0.020195751647541726,0.48020761419449753
1.9273812484456603,-0.40899527057733165,0.242970080349886,-0.01540709026041398,0.47597160601253025
1.9298681919920417,-0.40427885366712046,0.22381476686851798,-0.024983533302645355,0.4627727501993764
1.9323551355384232,-0.40434984303063515,0.2142355724167988,-0.03455987130299398,0.45890092694625517
1.9348420790848047,-0.3996314342727466,0.22380930608511784,-0.0441361047502582,0.4601563696089845
1.9373290226311861,-0.3901236296435014,0.22859395372398694,-0.06328904077297182,0.45657107307334643
1.9398159661775678,-0.3854032380379845,0.22380111446734752,-0.0680766632565657,0.4508403562317131
1.9423029097239493,-0.39025866503522716,0.21900759741214015,-0.06807577932773867,0.45265932564169564
1.9447898532703307,-0.3855362996168251,0.22379021165725899,-0.06807479279194517,0.45094841675018815
1.9472767968167122,-0.380812950690226,0.2285721530221725,-0.0584968974927591,0.44797948565404905
1.9497637403630936,-0.37608862052609354,0.22377661732806464,-0.044130497233746624,0.43984784384842535
1.952250683909475,-0.3809401180394112,0.22376881699927464,-0.03455239913782293,0.44314977747857986
1.9547376274558568,-0.37621383222684734,0.22376035118037363,-0.024974200365994292,0.4384395659644501
1.9572245710022382,-0.3762749753306761,0.2189628190172992,-0.010607498078295308,0.43547685608719144
1.9597115145486197,-0.381123549635514,0.2189530296181763,-0.0058175027150095815,0.4395786989875547
1.9621984580950012,-0.3763943474681847,0.20936577549070723,-0.010604214754502905,0.43083544668862306
1.9646854016413826,-0.3764525810803908,0.20935467238580552,-0.005814021392865243,0.4307896557446719
1.967172345187764,-0.3860866560860786,0.21413131945373243,-0.005812133067369274,0.44153019021299
1.9696592887341458,-0.38614296150037236,0.22848412248617667,-0.01059855025331835,0.4488025291952223
1.9721462322805272,-0.3909867095831774,0.24283627731456559,-0.015384870104655946,0.46051792460100144
1.9746331758269087,-0.39582949931562167,0.2571877864115404,-0.00580588313364494,0.4720807751716706
1.9771201193732901,-0.3910945263608536,0.2715386522502037,-0.01059200973432084,0.4762356127858241
1.9796070629196716,-0.39593540630609436,0.27152366734306943,-0.02016644373713561,0.48051704792567446
1.982094006466053,-0.4055637381390817,0.2810848507654047,-0.024952378971477174,0.4940781924346506
1.9845809500124347,-0.40561431420886157,0.29064539835042424,-0.024949815906268213,0.4996200684391676
1.9870678935588162,-0.400875540147548,0.2906285059313758,-0.024947158329661434,0.4957706000331376
1.9895548371051976,-0.405712628229558,0.30497619258361075,-0.010579196747469766,0.5076663610596558
1.992041780651579,-0.41533717744961884,0.31932325081980384,-0.010576351547200602,0.5240077945011825
1.9945287241979606,-0.4201723834835714,0.31451606983202307,-0.02015021987305765,0.5252344442111351
1.997015667744342,-0.4250066519694995,0.3001314587338144,-0.029723995547799476,0.5211459130141349
1.9995026112907237,-0.4346283885466625,0.2953230332788528,-0.02972087239305843,0.5263087120421773
2.001989554837105,-0.434672385574126,0.3000907959389574,-0.015352447549634718,0.5284224316148426
2.0044764983834864,-0.43950385533376135,0.2952811359039891,-0.024925948039989265,0.5300715904099013
2.006963441929868,-0.4395459935066864,0.30004766892550183,-0.024922551080752697,0.5327761420970165
2.0094503854762498,-0.44437560905595663,0.3000251875119484,-0.03449587041082047,0.5372846174429642
2.011937329022631,-0.4444158976639454,0.300002097452019,-0.029703889885102086,0.5370186864964452
2.0144242725690127,-0.44445526497441123,0.2999784012129765,-0.03448862656045648,0.5373239145243716
2.016911216115394,-0.4397053099908177,0.29516569794055636,-0.04406167757067081,0.5314178961092659
2.0193981596617756,-0.4397428416777779,0.28556399009949684,-0.0344810267670983,0.5254612264052468
2.0218851032081573,-0.43020265239843847,0.2855384901140554,-0.03447709452330905,0.517489344348302
2.0243720467545385,-0.4302383577581137,0.2903007971257372,-0.024896268008562927,0.5196146855690197
2.02685899030092,-0.4302731534401087,0.2854857036338143,-0.005738547672134331,0.516401011308048
2.0293459338473014,-0.41594183180716693,0.2806700187374158,-0.0009459505636524312,0.5017809897630955
2.031832877393683,-0.4111864117841754,0.275853744893249,-0.010518477129933146,0.49525770278584064
2.0343198209400644,-0.4064300890533559,0.28061369119674673,-0.02009091785562589,0.4943006230577334
2.036806764486446,-0.4064612692572887,0.2901614567804187,-0.02966327318506501,0.5002842633775649
2.0392937080328277,-0.40170314807692437,0.28534343081375724,-0.03444714024102424,0.49393612760584915
2.041780651579209,-0.3921557278330341,0.28531322902657275,-0.03444251946532617,0.4861851917499603
2.0442675951255906,-0.38739581748611096,0.28528245054485213,-0.03443781461885109,0.48233552540770885
2.046754538671972,-0.38742341935500435,0.2852510978125329,-0.03443302614088495,0.482338810336881
2.0492414822183536,-0.3922385357574443,0.2804307699507911,-0.03442815446943115,0.4834022998378353
2.0517284257647352,-0.3826875557286855,0.2756098727188889,-0.029634796720895196,0.4725344309427692
2.0542153693111165,-0.3683472882245294,0.27557681187346184,-0.03441816329164915,0.4613099976686789
2.056702312857498,-0.3683713488399713,0.2755431865278024,-0.03920144797520031,0.461690645141774
2.0591892564038794,-0.3731829332465994,0.27072059579240104,-0.034407844563750345,0.46231919970973695
2.061676199950261,-0.38278204375499403,0.27068584873579526,-0.03919096677006628,0.470456006023348
2.0641631434966428,-0.37801506939275287,0.2754389477829222,-0.05355081502436043,0.47077563279501244
2.066650087043024,-0.37324722242783426,0.27540308871503116,-0.04875696983363831,0.466409254229835
2.0691370305894057,-0.3732669084856388,0.2705782739508491,-0.029597834945770174,0.4619705825462527
2.071623974135787,-0.37328572654892245,0.27054131254649816,-0.020015427388548446,0.46144929599370416
2.0741109176821686,-0.37330367891863403,0.27529220691416256,-0.010432940946230929,0.4639507324475781
2.07659786122855,-0.3781091712138226,0.27525415282200694,-0.005638779362671542,0.4677212736603558
2.0790848047749315,-0.3829138024106067,0.2704271526753437,-0.019998153020997833,0.46920544658485586
2.081571748321313,-0.38292917148270805,0.27517641883686306,-0.019992239099863696,0.4719708693134991
2.0840586918676944,-0.3877320873622979,0.2799251470640556,-0.019986247979691285,0.4786373466806194
2.086545635414076,-0.3877457456977203,0.2798849364310061,-0.024768583398916633,0.47884843496795365
2.0890325789604574,-0.37818174545496597,0.28463259596894286,-0.01997403581335888,0.473746883251022
2.091519522506839,-0.38298210551914713,0.2893797247442875,-0.015179412279017868,0.48025652811606334
2.0940064660532207,-0.38778161821003654,0.2845495184992042,-0.024749923170826804,0.48161766017940555
2.096493409599602,-0.38779188248510715,0.29408399621401227,-0.024743552299845817,0.4873193863689003
2.0989803531459836,-0.39737811058007133,0.28925274034150794,-0.005583493436681408,0.4915360474697829
2.101467296692365,-0.40696349812599375,0.27963255989280533,-0.005576973553667486,0.49380639930358067
2.1039542402387466,-0.402182837430443,0.2891654738357152,-0.005570379778015777,0.49537736637144325
2.106441183785128,-0.39740134071961475,0.279544257969667,-0.01514051915740744,0.48610909587243367
2.1089281273315095,-0.40219581689605927,0.26992252793344873,-0.019922182136554056,0.48478504469068956
2.111415070877891,-0.4165662682182788,0.2698770927207663,-0.010338562479081048,0.496455422839604
2.1139020144242724,-0.41178227701942627,0.2698311480395428,-0.019908483829999213,0.4927167947696227
2.116388957970654,-0.40220905551189073,0.26499629291341353,-0.03426673662978175,0.4828761423314199
2.1188759015170353,-0.41178862254504595,0.26016093300196985,-0.03425970799716893,0.4882901886276777
2.121362845063417,-0.41179056044111995,0.2553250706397501,-0.01988739833072195,0.4849307847290888
2.1238497886097987,-0.40700327476073017,0.2504887081564955,-0.015091824629136497,0.4781464438333773
2.12633673215618,-0.4070035743809538,0.2456518478770806,-0.01987298728811915,0.4758063424840517
2.1288236757025616,-0.40700305821399885,0.2456028954417535,-0.02465408006133174,0.47600430177530034
2.131310619248943,-0.4070017284883864,0.25513025648577115,-0.03422350666193985,0.4815735698470893
2.1337975627953245,-0.4069995874285701,0.2550803200377656,-0.03900446084073472,0.48190868616686255
2.1362845063417057,-0.3974198306142439,0.2550298950431209,-0.04857374962832495,0.47470219957791937
2.1387714498880874,-0.39262767022246364,0.2501905804810991,-0.04856616345230336,0.46809239068613884
2.141258393434469,-0.38783470514476986,0.2501391852866557,-0.0437701060200677,0.46357436589139656
2.1437453369808503,-0.3926177442293117,0.24529890510819108,-0.034185577717261495,0.46420781946758877
2.146232280527232,-0.3878231763979723,0.24045814554967926,-0.029389385568698856,0.45726433481817613
2.1487192240736133,-0.38302781049005696,0.24998211885029598,-0.015016319996192351,0.4576317878162733
2.151206167619995,-0.38780845534035857,0.254717214001551,-0.005431591341960029,0.4640105163966576
2.1536931111663766,-0.39258830649784837,0.24987502995035538,-0.0006351999858402735,0.4653638495527575
2.156180054712758,-0.39257896282718113,0.25460918223958817,-0.0006271463062006433,0.46791502545618946
2.1586669982591395,-0.387780426508638,0.2545544631642982,-0.005407430679948533,0.46389748243188783
2.161153941805521,-0.38776950635838386,0.254499278295079,-0.00539924684190396,0.46385797889073827
2.1636408853519025,-0.39733460786747565,0.2544436298764574,-0.005390998486358711,0.47185317023263523
2.166127828898284,-0.3925337166002466,0.2543875201471555,-0.005382685985825475,0.4677870267365739
2.1686147724446654,-0.38773204467862943,0.2591193546603505,-0.014951116351969773,0.4665860202689718
2.171101715991047,-0.39250640089929295,0.26385073232268574,-0.024519483313731882,0.47358176564993126
2.1735886595374283,-0.39727998077265525,0.2637932520348478,-0.024510980598591914,0.4775134041173574
2.17607560308381,-0.40205278644471004,0.26852372265245483,-0.038867625174729525,0.4850382716877209
2.178562546630191,-0.40203641673604207,0.25888853310319426,-0.05322420744635359,0.4811334214254635
2.181049490176573,-0.39244247046209346,0.26361810551177856,-0.04842711449587256,0.47523760751271216
2.1835364337229546,-0.39242456303468143,0.25877042547333584,-0.053206766607344136,0.47306461586702964
2.186023377269336,-0.4067710998994544,0.253922301818986,-0.05798635750083214,0.48301312687201214
2.1885103208157175,-0.40675166325460005,0.2538621400533003,-0.0579774842152343,0.4829640673888201
2.1909972643620987,-0.4067314651758032,0.24901313571363337,-0.05796855042859228,0.4804147992732783
2.1934842079084804,-0.41149891109276887,0.25852890425288555,-0.038805943215907135,0.4875186656873851
2.195971151454862,-0.4114771964688714,0.2536790279144676,-0.024431679533511996,0.4840076852513187
2.1984580950012433,-0.4162431300432987,0.25361712213850796,-0.010057356414389318,0.48752552586311565
2.200945038547625,-0.4210083105888419,0.2631315923977491,-0.019624990811898613,0.49686152272742257
2.2034319820940063,-0.42098433687277925,0.2630688275568853,-0.014827356513880119,0.49664159151802584
2.205918925640388,-0.41138280765685487,0.2630056363959601,-0.0052412605098055565,0.4882983207255709
2.208405869186769,-0.39699212833786585,0.2773072310087654,-0.01002031642830481,0.48435777796304735
2.210892812733151,-0.3969659142679436,0.28203159691999335,0.009142701947231657,0.48703936981595425
2.2133797562795325,-0.41130416751233534,0.2771787362492639,0.02351737435051504,0.4965402671869588
2.2158666998259138,-0.4064880668884373,0.28669066771108787,0.00916168383706406,0.4975017828370652
2.2183536433722955,-0.4016712277313913,0.2962021834507751,0.004382856627922038,0.4990938970779654
2.2208405869186767,-0.4016420554096821,0.2865596722865824,-0.0003959142574938568,0.4933892410691653
2.2233275304650584,-0.3968237453251119,0.29128195955343905,-0.014751435798290302,0.49247524777723767
2.22581447401144,-0.4063699127955874,0.31036904733728354,-0.033895305011153454,0.5124591137567419
2.2283014175578213,-0.40633854325040886,0.3055137111547226,-0.03867390895035783,0.5098483212367148
2.230788361104203,-0.39672963871462263,0.3102347763201898,-0.048240861231198195,0.5059320145685593
2.233275304650584,-0.4014852178089994,0.31495543825841255,-0.06259616218624231,0.5141065917960348
2.235762248196966,-0.4062400725859514,0.31488729570751284,-0.07216300550595811,0.5190303506889387
2.238249191743347,-0.40141739841232627,0.3100303507189768,-0.08172979484027465,0.5137455649245893
2.240736135289729,-0.40138240725063856,0.3147498152982573,-0.06735451391577563,0.5145016167374354
2.2432230788361105,-0.39655829445592833,0.309892078201623,-0.06255598630130699,0.5071536576384369
2.2457100223824917,-0.3917334653382462,0.30503394810019335,-0.06254580900174211,0.5004126253235271
2.2481969659288734,-0.39169632520169706,0.3001754270174115,-0.038593562418922644,0.49499571838732326
2.2506839094752547,-0.3868700693834979,0.2953165169696561,-0.01942966679696312,0.48709116983550693
2.2531708530216363,-0.38683150649614445,0.29045721996620877,-0.009842525776944555,0.483839732103767
2.255657796568018,-0.3867922351852163,0.28559753800923904,-0.014620542998489583,0.48102801082066426
2.2581447401143993,-0.381963854090309,0.2807374730937884,-0.024186912138798533,0.47465242161967147
2.260631683660781,-0.3867115751262616,0.26630022056711145,-0.019388020233011005,0.46993355396192144
2.263118627207162,-0.38188178695972974,0.26622779901148785,-0.00022386759603243434,0.46552227690493836
2.265605570753544,-0.37705129817322797,0.2757318070801289,0.014151932177423276,0.4673285654377916
2.268092514299925,-0.38179691734325505,0.27087023013779055,0.014162572134731377,0.46833764114918564
2.2705794578463068,-0.3817534364387262,0.2707966834248188,0.009384858605971047,0.4681395150569028
2.2730664013926885,-0.3721324540631577,0.28029957221338586,0.004607194602357367,0.4659094759630666
2.2755533449390697,-0.37687598873591455,0.27543688184653803,-0.004958823504061627,0.4668249957934572
2.2780402884854514,-0.38640723572814556,0.2801506308631807,-0.01931319601948367,0.4776692656395132
2.2805272320318326,-0.3863609869846672,0.2848640145527579,-0.04803272988927709,0.4824204205788726
2.2830141755782143,-0.376737244405198,0.28478863151772726,-0.06717540881517792,0.47701996972165434
2.285501119124596,-0.3766896231646921,0.28471288699387065,-0.07195282977873951,0.47763344725166657
2.287988062670977,-0.3862181251508263,0.2798483795690352,-0.07673020304132017,0.4830808211895773
2.290475006217359,-0.39095754228433527,0.27977191778467736,-0.08629593222221743,0.488433325816355
2.29296194976374,-0.39569627976118843,0.2701182935733639,-0.08149640433772731,0.4859846728651111
2.295448893310122,-0.4052227427713553,0.2652527187821967,-0.0623316196839685,0.48831312381802106
2.2979358368565035,-0.3955949165769356,0.26517519528999234,-0.05753199847750423,0.4797115310969851
2.3004227804028847,-0.3907548196371732,0.2603089183275942,-0.047943927730356606,0.4719625856323523
2.3029097239492664,-0.40027926044439444,0.24586548643879613,-0.023990601093744957,0.47037099475258504
2.3053966674956476,-0.39543782092246693,0.255363724722534,-0.009614035459668102,0.4708228242108648
2.3078836110420293,-0.3953841161924281,0.2552848117860069,-2.582779683457659e-05,0.47063673372672427
2.3103705545884106,-0.4001181480881328,0.25520555611184914,0.009562424927450408,0.474674465576492
2.3128574981347922,-0.4048515151171961,0.25033755621439324,0.01915072242698379,0.4763826104231337
2.315344441681174,-0.4000074124610172,0.25025762056153766,0.01916225777634928,0.4722308744628713
2.317831385227555,-0.3999510518966616,0.2549657509731813,0.004808627371838625,0.47433269018671437
2.320318328773937,-0.4094708385546999,0.259673545941538,-0.004756555787297501,0.4848910629321795
2.322805272320318,-0.40941316095828484,0.2691694105920761,-0.00953329198167907,0.4900634567281548
2.3252922158666998,-0.409354827546609,0.2738765400819556,-0.014309984810848775,0.4927316812508241
2.3277791594130814,-0.4092958401124257,0.2737949362015968,-0.019086634552660797,0.49279919991972354
2.3302661029594627,-0.4092362004426957,0.2689246007340551,-0.01428643484297254,0.48989673488733076
2.3327530465058444,-0.4187527169592354,0.2688423420956507,-0.019062999238139255,0.49798939828491295
2.3352399900522256,-0.4139033748359276,0.26875975873441327,-0.01905111805096915,0.493873219272459
2.3377269335986073,-0.4042649824831235,0.2686768524113332,-0.014250791553847009,0.48561354196897416
2.3402138771449885,-0.4089911549460975,0.2733820282003694,-0.004662020017786261,0.4919687313211446
2.34270082069137,-0.40892828070196574,0.2685100778868943,-0.009438416993704735,0.48929447615933575
2.345187764237752,-0.4040763615034472,0.263637809850517,-0.01421477278897143,0.48268484591302846
2.347674707784133,-0.40401220573827606,0.2683420324635257,-0.028567894311164466,0.48584918787370307
2.350161651330515,-0.40394741182766736,0.2778343441299618,-0.028555765224338003,0.4911016860365525
2.352648594876896,-0.4086703848279104,0.28253793992625287,-0.02375519243339319,0.49739670294515503
2.3551355384232777,-0.40860431982883805,0.28245282156216334,-0.023742982841898908,0.49729349063248895
2.3576224819696594,-0.3893840085944845,0.2823673940604916,-0.018942330070851554,0.4813627148483102
2.3601094255160406,-0.3893166794068691,0.2822816591164594,-0.009353234380554909,0.4809759816574103
2.3625963690624223,-0.3988255273394685,0.27740721509772337,-0.0045525026706148,0.48583669018142883
2.3650833126088036,-0.3939685374994407,0.2821092736459483,-0.014116941839338537,0.48476400326693814
2.3675702561551852,-0.3891109215510946,0.28202262647370224,-0.023681342182158005,0.4811495371306263
2.3700571997015665,-0.3890410845128116,0.2723588719269694,-0.028457300633828453,0.4757542837595895
2.372544143247948,-0.3937590280773875,0.26748322162578386,-0.014079607487188284,0.47622650219275947
2.37503108679433,-0.39847635061207654,0.2673956772220758,-0.014067086236897453,0.48008513110631473
2.377518030340711,-0.38882784383831837,0.25773103039967493,-0.028419737134154133,0.46735431701612457
2.3800049738870928,-0.3887555260349038,0.2528544927571468,-0.0331955438273166,0.4649389182033916
2.382491917433474,-0.39825939887395523,0.25755446924530867,-0.03318290988534045,0.47544290816893614
2.3849788609798557,-0.3981858507412814,0.2622541548469419,-0.047535448836850236,0.47915428868075743
2.3874658045262374,-0.39332328661923566,0.26216514785806,-0.04273433768577739,0.47461562992155865
2.3899527480726186,-0.4028253214461278,0.2668642565285446,-0.037933189958218705,0.48468927975674825
2.3924396916190003,-0.40274994027253586,0.2667746758200007,-0.05228561917902752,0.4859115434123087
2.3949266351653815,-0.397885548066023,0.2666848106479449,-0.05227280234837828,0.4818362205723874
2.397413578711763,-0.39302054978932255,0.25701785595997073,-0.042683143027714365,0.4715349208040545
2.3999005222581444,-0.3833665437597509,0.2569274266185664,-0.03309344809756176,0.46268432622050404
2.402387465804526,-0.38328874157114007,0.256836717557408,-0.03308052443721721,0.462568567887933
2.404874409350908,-0.3784219348907586,0.25195732702356244,-0.0378559689638287,0.4562003176604706
2.407361352897289,-0.38313133530311294,0.26144286985876164,-0.03305457195270911,0.4650103214102979
2.4098482964436707,-0.392628541106874,0.2517745243744316,-0.023464736959216026,0.4670098246249737
2.412335239990052,-0.3973367472758672,0.2468943087189035,-0.009086464217197943,0.46788444539813673
2.4148221835364336,-0.3924675520997507,0.24680222443213085,-0.009073367240556962,0.46370728205291367
2.4173091270828153,-0.3923861671450085,0.2514982730472797,-0.013848639620132275,0.4662725279617521
2.4197960706291965,-0.40188099733312177,0.2561940527704407,-0.013835474945574688,0.4767967586502425
2.4222830141755782,-0.4017984309797037,0.26088956512129524,-0.028187486727235367,0.47989569568285184
2.4247699577219595,-0.40171527631797677,0.27037321493313193,-0.047327868552425656,0.48653547221371396
2.427256901268341,-0.40163153493633774,0.2702797937513197,-0.042526200726038965,0.4859707136379372
2.429743844814723,-0.40633561173935107,0.2749745130364656,-0.03772450007526196,0.492080024074502
2.432230788361104,-0.4014622983462487,0.2844573742816263,-0.023345960183949188,0.4925779213825567
2.4347177319074857,-0.4013768062941061,0.2795747656920433,-0.01854419455667866,0.4894990065305273
2.437204675453867,-0.40129073383478625,0.274691898708598,-0.0233192034156513,0.48686104539769504
2.4396916190002487,-0.39162727589593305,0.29375079140628824,-0.0376709869819436,0.49099954576117855
2.44217856254663,-0.3867516440029091,0.28407900872863845,-0.04723433551457745,0.4821916629211899
2.4446655060930116,-0.3866638397163575,0.26483016541742543,-0.04722084591208109,0.4710347649036857
2.4471524496393933,-0.40094067123382726,0.26952308616894527,-0.04241892171250328,0.4849695668252969
2.4496393931857745,-0.4056401235070245,0.2694273525090827,-0.023251756491863063,0.48751989934648254
2.452126336732156,-0.40555060140593896,0.2597545625589368,0.0054922462139810335,0.481636676177571
2.4546132802785374,-0.40067210647672225,0.25965833103487723,0.015082666268693146,0.4776903522221111
2.457100223824919,-0.405369850222999,0.25956185272514043,0.015096310099513843,0.4815858899911259
2.459587167371301,-0.40049022090281516,0.2498883224117443,0.0007447741738140223,0.4720562947415399
2.462074110917682,-0.39082162337245446,0.2545797581127065,-0.013606731758711632,0.4666235502901223
2.4645610544640637,-0.4050944790864906,0.2544825479570947,-0.03274661122856237,0.47951563556159954
2.467047998010445,-0.39542475637132185,0.2591734999897417,-0.056674864444890005,0.4761761032518312
2.4695349415568266,-0.3905428766752054,0.2686526156087883,-0.06144947501422138,0.4779895442106568
2.472021885103208,-0.39044884152147885,0.2685546862454147,-0.05664724978425717,0.47726389792017376
2.4745088286495895,-0.3855658457898671,0.2684565199263784,-0.047056592281347065,0.4721697230951711
2.4769957721959712,-0.38547069763843045,0.26356971471155966,-0.03746590603083,0.46846595112740286
2.4794827157423525,-0.3901633985817605,0.25868267529555844,-0.03745199787733178,0.46962416487649006
2.481969659288734,-0.40443235345198864,0.2537954030468059,-0.02307285142229354,0.47802718709207337
2.4844566028351154,-0.4139123537972961,0.26806151260916833,-0.008693676828654517,0.4932098855306272
2.486943546381497,-0.3898729812022987,0.27275058541761243,-0.00867968425836807,0.47588776012421585
2.4894304899278787,-0.38498667369437223,0.27265102614356174,-0.0038772606302277524,0.4717715062711916
2.49191743347426,-0.3992534327749634,0.25818602949182523,0.0009251905363782953,0.4754620756536471
2.4944043770206417,-0.38957763006031454,0.2580860167240524,0.010516072363664364,0.4674288284325828
2.496891320567023,-0.3799012836486997,0.25798577921349297,-0.003835035267393039,0.45923453168269596
2.4993782641134046,-0.38458960499551254,0.25309691496846565,-0.008609309310804392,0.4604794597416568
2.501865207659786,-0.3892773856320892,0.25299623195272014,0.0009816533584885434,0.46426817680102206
2.5043521512061675,-0.3843878204079718,0.26247213480423115,0.000995835944593182,0.46545312300586217
2.506839094752549,-0.3842861207722347,0.262371011553995,-0.013355165066210262,0.4655026646067505
2.5093260382989304,-0.38897228821106067,0.26226967014951486,-0.01812933326485222,0.46948215472061544
2.511812981845312,-0.3888695175681315,0.2669565152126592,-0.01811507216323527,0.4720311838720375
2.5142999253916933,-0.3839778103259545,0.2668547413990856,-0.027677591912977917,0.46841910819691046
2.516786868938075,-0.3886623779262537,0.27154115664047707,-0.032451682742939525,0.4752327382217965
2.5192738124844567,-0.3885580118872365,0.2762273589024016,-0.03243734484202854,0.4778399980624881
2.521760756030838,-0.39802992364741474,0.27133654282498876,-0.04199978835920426,0.4835445396374585
2.5242476995772196,-0.40271290472194887,0.2616571130042207,-0.04677380352069527,0.4825245248804309
2.526734643123601,-0.40260695658552814,0.2615542806716711,-0.05633619715341531,0.4834012518999564
2.5292215866699825,-0.39771208071151176,0.2662396437726895,-0.04674495284124269,0.4808778822905236
2.5317085302163638,-0.4071818918532645,0.27571320356799767,-0.037153684050025504,0.4931483143167183
2.5341954737627455,-0.4118627782004895,0.2756097513525084,-0.046716004244771625,0.49776909120616825
2.536682417309127,-0.4021779345824261,0.270717691697544,-0.04670149368653931,0.4870484464358618
2.5391693608555084,-0.4020693790694932,0.26582542916964913,-0.041898555877752486,0.48381652861719915
2.54165630440189,-0.40196030648900327,0.26572136833063986,-0.05146080428096411,0.48459070147649835
2.5441432479482713,-0.40185071830804997,0.26561710709702924,-0.04186941583447634,0.4835178335590226
2.546630191494653,-0.40174061599296595,0.25593584006039016,-0.032278003999245186,0.47743119536536427
2.5491171350410347,-0.4016300010094043,0.2558311817295955,-0.017898165633873475,0.4765255455786531
2.551604078587416,-0.39673047150211227,0.26051473000742975,-0.01309511087743509,0.4747994034305695
2.5540910221337976,-0.40140723889656704,0.26040967947190063,-0.0035036299463548914,0.47849059345406647
2.556577965680179,-0.3965066913756294,0.2650928379778432,-0.0034889329781737644,0.4769737327213332
2.5590649092265605,-0.40118244368430933,0.2697758034147868,-0.008262616828419667,0.4835231205076558
2.561551852772942,-0.4010692873251615,0.27924698030857176,-0.017824681672186315,0.4890328910448494
2.5640387963193234,-0.39616722376149704,0.27435275657921787,-0.0130215144025847,0.48206582959471866
2.566525739865705,-0.39605306109714555,0.26466994006440814,-0.017795131794800412,0.47668109999632985
2.5690126834120863,-0.40072680079529666,0.26456374191798604,-0.02735713070142154,0.4809619059899596
2.571499626958468,-0.4054000409988914,0.2644573566881321,-0.012977091372762928,0.4842058360334722
2.5739865705048492,-0.4004959765307022,0.2595623822392934,-0.0033854339021779367,0.4772642021498405
2.576473514051231,-0.3764378022137502,0.26903243303347724,-0.003370561780778658,0.462704257216366
2.5789604575976126,-0.38110955271509517,0.2832907036068866,-0.0033556685380418116,0.4748782732786603
2.581447401143994,-0.3953576162178377,0.2831835818512065,-0.0177059643043318,0.4866354764127625
2.5839343446903755,-0.3904515742649304,0.2734994722558568,-0.03684464260778064,0.4781337897064897
2.5864212882367568,-0.37596823496239107,0.2781803925877311,-0.04640649365555127,0.4699893692142436
2.5889082317831384,-0.3758496163778235,0.28286113404750024,-0.0559683242557103,0.4737149022418308
2.59139517532952,-0.3757305100170633,0.27796489115247924,-0.060741731254744025,0.471303994028181
2.5938821188759014,-0.37561091734769897,0.2730684716976217,-0.06072671481882175,0.46833501402173777
2.596369062422283,-0.370702436517905,0.2681718768336978,-0.041558065152546675,0.45941650464915024
2.5988560059686643,-0.36100506899715057,0.2584867043876593,-0.022389395702081316,0.4445686912353759
2.601342949515046,-0.3656724295372198,0.2583781654642596,-0.008009109952034521,0.44781664546391425
2.603829893061427,-0.37512771296917025,0.26305785788360936,-0.0032056113864147306,0.4581817473188496
2.606316836607809,-0.36542890416435336,0.2629489761421655,-0.022344110129264294,0.45075459765868386
2.6088037801541906,-0.3748832311594966,0.258051521373726,-0.027117379780593254,0.45592036253499807
2.611290723700572,-0.3747602755083498,0.2579423013494848,-0.027102227142965063,0.45575654207117156
2.6137776672469535,-0.37463684532864183,0.262621317196837,-0.01751024905743037,0.4578529577779875
2.6162646107933347,-0.3745129420990385,0.27208857004004905,-0.03186026892696425,0.4640120801037565
2.6187515543397164,-0.3791769706201622,0.2576136410784584,-0.03663346366962372,0.45987169273485157
2.621238497886098,-0.3838405290537354,0.24792695135213405,-0.02225302680447605,0.4574893683496652
2.6237254414324793,-0.3789268122429805,0.2621821152575534,-0.01744937841255023,0.4611176329360399
2.626212384978861,-0.378801031634563,0.25728350402425626,-0.02222251865246072,0.45845268386788585
2.6286993285252422,-0.37867478539587784,0.25238473204297085,-0.026995641041676066,0.45587433652078657
2.631186272071624,-0.3785480750166801,0.2474858004203937,-0.03176874573777155,0.4533840752764792
2.633673215618005,-0.3832093053091704,0.23300990361985852,-0.046118639538434536,0.45085465038452116
2.636160159164387,-0.3926584777674502,0.23768746266451446,-0.05089170931898046,0.46180729330311987
2.6386471027107685,-0.39253038392697626,0.23757646205144312,-0.04608795523546938,0.46113639765749004
2.6411340462571498,-0.3971902352474536,0.22310009623608806,-0.036495780763791785,0.4570182468239513
2.6436209898035314,-0.39706122658947696,0.22298878623386953,-0.02211518605905205,0.455928391198904
2.6461079333499127,-0.39693176277711006,0.22766572649524086,-0.017311381236821077,0.45791504806271255
2.6485948768962944,-0.39201344199640187,0.2275541114682409,-0.012507559810646995,0.4534444303378131
2.651081820442676,-0.38709466907671497,0.2274423455594845,-0.007703721934241514,0.44903413089970295
2.6535687639890573,-0.3821754455298657,0.2369072364935918,-0.007688271081184084,0.44971348587873117
2.656055707535439,-0.3772557728705144,0.24637197871167782,-0.01246120740429646,0.4507508754826878
2.65854265108182,-0.39148926589749217,0.2462597666526567,-0.007657321095020819,0.46256497116743556
2.661029594628202,-0.3913571028891901,0.24135900471423088,-0.012430225586570032,0.45996637012568353
2.663516538174583,-0.3816476886895729,0.2508233072529431,-0.021991517710175046,0.45722086194157235
2.666003481720965,-0.37193783146606674,0.25071065874047793,-0.026764390976358854,0.4493438744504036
2.6684904252673465,-0.3718043393893219,0.25538627020902593,-0.0315372488561767,0.4521672388236725
2.6709773688137277,-0.3812472139926606,0.2504849327669656,-0.03152168817966228,0.45725896005013683
2.6734643123601094,-0.3859012468518467,0.2503718574426568,-0.03629451573740283,0.4614359448436029
2.6759512559064906,-0.38576643950701583,0.2598354486220007,-0.0458557316789836,0.4673681143791598
2.6784381994528723,-0.3760543901815232,0.2597220940875462,-0.0506285295129878,0.45982139851540726
2.680925142999254,-0.37591871370386565,0.2596086015419812,-0.04103610274762204,0.4586888564550762
2.6834120865456352,-0.3757826049843342,0.2547065687253727,-0.03623206481261043,0.45541274123727626
2.685899030092017,-0.38043446889788873,0.25938120665739595,-0.04100481917636856,0.46226657967924967
2.688385973638398,-0.3802975003623553,0.26884411307489264,-0.03620075270541179,0.46713364299022575
2.69087291718478,-0.3753717009400579,0.259153272431917,-0.03139667218778719,0.45721995090248524
2.6933598607311615,-0.3800222821575876,0.2542507023834695,-0.03616938441105333,0.4586595458152193
2.6958468042775428,3.0486127417176307,-3.581374655586021,0.835335724735371,4.776826336141617
2.6983337478239244,3.8388379589568298,-4.208769919567942,0.8449282498320816,5.758847528659887
2.7008206913703057,4.423162254699652,-4.587168340464785,0.8162135618265456,6.424381860823011
2.7033076349166874,4.815950837324257,-4.740511933829437,0.7779220804948235,6.802278928831492
2.7057945784630686,5.002838495282934,-4.702319521856767,0.7396306123319984,6.905595943741472
2.7082815220094503,5.017344050226343,-4.486956313461436,0.6678203339506776,6.764059600246815
2.710768465555832,4.892986323800966,-4.123152727520224,0.5624912452058926,6.423246840990468
2.713255409102213,4.624976911086448,-3.6444275862316537,0.46673897583584534,5.906785008016909
2.715742352648595,4.242046230399804,-3.0795113084744887,0.3805635256960862,5.255775367817929
2.718229296194976,3.772924700053654,-2.4619227164491697,0.2895996846815674,4.5144094000667545
2.720716239741358,3.24155433503561,-1.8251806323570294,0.20821266260936078,3.7258973899706684
2.7232031832877395,2.6670887470081595,-1.1932270717596019,0.14597926597647515,2.9254851179407115
2.7256901268341207,2.0782583542700697,-0.5804272435791249,0.06938067139740234,2.1589041779907125
2.7281770703805024,1.4894283651537192,-0.02029997001927919,-0.0024295079897669325,1.489568677911944
2.7306640139268836,0.9101755846668182,0.48236634663679334,-0.07423967564820799,1.0327673584751131
2.7331509574732653,0.3644420277725619,0.9275717074259653,-0.13168462175966944,1.005260216875255
2.7356379010196465,-0.14777230717178486,1.3057393067432215,-0.16997594314621978,1.325022118000144
2.7381248445660282,-0.6168906151738588,1.588138725702009,-0.21784405987194866,1.7176130756330064
2.74061178811241,-1.0141824779647546,1.7843467719774027,-0.23698174551633677,2.066063854043451
2.743098731658791,-1.3444363005233249,1.908728656564398,-0.24654261350241136,2.34766635423937
2.745585675205173,-1.6172288911536503,1.9612843804963491,-0.25131506729206166,2.55445199027287
2.748072618751554,-1.8229834448838775,1.9468023481264338,-0.2512991070266608,2.678891424485823
2.7505595622979357,-1.9569115600677391,1.8700709638073514,-0.25128313616769127,2.718420769146009
2.7530465058443174,-2.033378448345659,1.7550322451725218,-0.24647875153581644,2.697316790951808
2.7555334493906987,-2.057172514722667,1.5921093866129596,-0.2416743565921422,2.6125040763424088
2.7580203929370803,-2.028293760889038,1.395667599120637,-0.2512351614382169,2.474870245899661
2.7605073364834616,-1.9515305918607988,1.1896489003279407,-0.2512191496129237,2.2993145104905244
2.7629942800298433,-1.8508250259407724,0.9740532912653994,-0.2320495146159054,2.1043241357041684
2.7654812235762245,-1.7118118548747798,0.7536691762834282,-0.20330306322789227,1.881395543017847
2.767968167122606,-1.5536446936565442,0.5428617663730662,-0.1554029889482056,1.6530761689924813
2.770455110668988,-1.3954771572853681,0.346419465884372,-0.11229130851821445,1.4422109002561305
2.772942054215369,-1.2181556342037632,0.15955387252665076,-0.08354482871818192,1.2313977122709678
2.775428997761751,-1.0264685294615294,0.0014186006106360338,-0.054798339726676915,1.0279311807895544
2.777915941308132,-0.8395694580751722,-0.11362113887335656,-0.03562864832368362,0.8479717204676638
2.7804028848545137,-0.6670352284263739,-0.2095073614975811,-0.016458948007805674,0.6993570100120728
2.7828898284008954,-0.5040774389416901,-0.2862400662327773,0.021864374363117278,0.5800909332451668
2.7853767719472766,-0.3554844946942808,-0.329454042088726,0.04103409208760311,0.4864082529420138
2.7878637154936583,-0.23083320408336372,-0.35351449799710943,0.04583860834712361,0.42468534989653356
2.7903506590400395,-0.12054676223295072,-0.34405622296765515,0.0650083429248216,0.370313773842464
2.792837602586421,-0.024625170913620514,-0.3154444259318958,0.07460127908053238,0.32507989131055126
2.7953245461328025,0.04256635813711293,-0.2724675091806339,0.060252206714807244,0.2822778185018434
2.797811489679184,0.08581622645695826,-0.20554866504360314,0.05069154561113365,0.2284388566355666
2.800298433225566,5.74107514026507,-4.812111549717564,1.0275419762952858,7.56123031299428
2.802785376771947,7.335768390735461,-5.6310474951803435,1.0371349439415845,9.30579618664814
2.8052723203183287,8.542601322746973,-6.191409747472056,1.0132090958728721,10.598876576904264
2.80775926386471,9.361573934492636,-6.507563515523207,0.9461876253105395,11.440398614638891
2.8102462074110917,9.802263030799873,-6.598662411584332,0.8504357420776465,11.846938300609361
2.8127331509574733,9.86466860984957,-6.479071644585381,0.7451070593175473,11.825617983330368
2.8152200945038546,9.611039912980205,-6.1487912134951985,0.6158363669317062,11.426240677794684
2.8177070380502363,9.07010735828189,-5.65570515048514,0.47698887474333596,10.69959656373138
2.8201939815966175,8.265812960518113,-5.009390261163798,0.342929792575811,9.671362651123575
2.822680925142999,7.246040751048375,-4.257730577702369,0.20887071697141302,8.406961592309292
2.825167868689381,6.082616777826146,-3.429456518989453,0.09396526107389924,6.983425259270702
2.827654812235762,4.828213475519004,-2.548510100594091,-0.02094018853522428,5.4595776017480775
2.8301417557821438,3.516349665505695,-1.648410144724608,-0.12626882535264627,3.885603529902266
2.832628699328525,2.2044861857601887,-0.7530986669482445,-0.2028670362343501,2.3383908954144594
2.8351156428749067,0.930930260970077,0.09432870388616044,-0.2698884345986574,0.9738422984738198
2.837602586421288,-0.2660108841843047,0.8747183555324494,-0.32733302058266567,0.9711029288256111
2.8400895299676696,-1.357606831669337,1.568916675744798,-0.3799891976436882,2.1092623438423344
2.8425764735140513,-2.3342807767391283,2.1769236655592277,-0.39912654599681474,3.2167010103590608
2.8450634170604325,-3.1529370914113546,2.6747973094103648,-0.4086870823804887,4.1548258784371574
2.847550360606814,-0.744209249273409,0.5007418319682828,-0.01123333134562543,0.8970596282968951
2.8500373041531954,-0.36576409794188314,0.21810559852824873,0.046243789002247127,0.4283595633038784
2.852524247699577,-0.02562585808673662,-0.011858264871627888,0.07499049434670013,0.08013037682932556
2.855011191245959,0.2714170650454527,-0.16999614391143059,0.10373720447293167,0.33664123296842613
2.85749813479234,0.5062110562406548,-0.2754616508330807,0.14684912920520787,0.5947212971537956
2.8599850783387217,0.7026981301615578,-0.3474083978780125,0.15644223520381395,0.7993443751001708
2.862472021885103,0.8752434948237143,-0.3810479806854128,0.15167013561341314,0.9665674155756809
2.8649589654314846,0.9999051316738796,-0.3763803982141809,0.15168644357871308,1.0791113258942202
2.867445908977866,1.0958366520352874,-0.3477708593835236,0.16127956228352858,1.1609537612629663
2.8699328525242476,1.1774032639045153,-0.32394978307295075,0.14693066834920998,1.2299636291807832
2.8724197960706292,1.2350281586703211,-0.3049171682394287,0.13258177824088868,1.2790023299889928
2.8749067396170105,1.2639229310353541,-0.2715194005580712,0.12302129514249671,1.2985985521072139
2.877393683163392,1.2784527889772974,-0.22854488230483838,0.11346081559734777,1.303667002553788
2.8798806267097734,1.264252520545631,-0.2047240323566153,0.10868874278942542,1.2853247091453115
2.882367570256155,1.2404757370257442,-0.1809032363864822,0.08955146330117536,1.2567917487253204
2.8848545138025368,1.1927572264545554,-0.1618708966684026,0.07520259027756104,1.206037900744521
2.887341457348918,1.1163085835034054,-0.15241541547566007,0.05127691362140219,1.1278318289304192
2.8898284008952997,1.0254950161185752,-0.13338317847928183,0.012986029876149274,1.0342145509309066
2.892315344441681,0.9203165222791716,-0.12392779791209296,-0.03009325445379929,0.9291104370520173
2.8948022879880626,0.7911962933175477,-0.11926086940468039,-0.06359572954366755,0.8026575523514237
2.897289231534444,0.6477111338410478,-0.11459398858691472,-0.07794458888900557,0.6623721416688582
2.8997761750808255,0.4946494451305139,-0.09556194444734079,-0.11623546250877403,0.5170307936081859
2.902263118627207,0.3272228218201255,-0.07652994589568562,-0.15931473725783363,0.3719042796826285
2.9047500621735884,0.15979647181899545,-0.062286395200325195,-0.173663590030106,0.24407693445918816
2.90723700571997,-0.0028412036103849514,-0.02888927470706637,-0.1880124408835524,0.1902402180351129
2.9097239492663514,-0.1654786098522447,0.018873013317111997,-0.19278448331361275,0.25476502498733206
2.912210892812733,-0.33290415229700054,0.05227005000441354,-0.1879797174563418,0.3858674732586494
2.9146978363591147,-0.5003294297003421,0.10482065965177112,-0.17838654676807053,0.5414228190443574
2.917184779905496,-0.6342356209021283,0.16215963335369699,-0.178370181345759,0.678503125345663
2.9196717234518776,-0.7633531479123935,0.20034495556483867,-0.18314221800510389,0.8101772655807288
2.922158666998259,-0.897258819465799,0.2576838539045725,-0.16876064028054039,0.9486593231398562
2.9246456105446406,-0.9832802011388977,0.31981111946954366,-0.14480225494868115,1.0440722193058949
2.927132554091022,-1.0501477149595337,0.37714994667745305,-0.11605546546579681,1.1218383023314986
2.9296194976374035,-1.1170149763207244,0.42012352994664015,-0.07294346532724028,1.1956366450028035
2.932106441183785,-1.1503631640979701,0.47746229025868336,-0.03940827127050639,1.2461374963370175
2.9345933847301664,-1.1645574903757112,0.5204358087520968,-0.03939190003309889,1.2761658596004837
2.937080328276548,-1.1548095539629373,0.5681976997692089,-0.02022191522750738,1.287184003086803
2.9395672718229293,-1.1163309536744062,0.606382754410848,0.003736473049416489,1.270397104927961
2.942054215369311,-1.0586984982915468,0.6254141670988385,0.02769486134145538,1.2299399969256355
2.9445411589156927,-0.9962773999217813,0.63486874553693,0.07559526611430378,1.18378276128411
2.947028102462074,-0.9290676607173577,0.6299580874686157,0.10434205734924085,1.1273425278458236
2.9495150460084556,-0.8379156695547816,0.6250474039192979,0.10914683159012384,1.0510470766230477
2.952001989554837,-0.7323982352380636,0.6105598893134809,0.1091632019823372,0.9597432771764315
2.9544889331012185,-0.6508225864987266,0.5912839480372658,0.0852375551087885,0.8834320500776233
2.9569758766476,-0.5548814989487559,0.5576427745164625,0.037369890833646835,0.7875629819810953
2.9594628201939814,-0.45894018472906567,0.5000595631775111,0.018232645544541626,0.6789831288389904
2.961949763740363,-0.3725754526657716,0.4328995250490988,0.018249012465053838,0.5714433420495768
2.9644367072867444,-0.2909989016293737,0.3705278711604705,-0.0008882351031012092,0.4711391015589881
2.966923650833126,-0.21421053381612185,0.31294460258060397,0.003916532587112442,0.3792569265150288
2.9694105943795073,-0.14699875474791063,0.2457845104181544,0.018298105438994128,0.28697296061055083
2.971897537925889,-0.08457516331125742,0.1882012090245242,0.018314466715237288,0.20714263930558105
2.9743844814722706,-0.04130497167925368,0.13540629615021293,-0.0008227870402137683,0.14156850886075145
2.976871425018652,-0.021976585389544806,0.07782296622599061,-0.024748446002128333,0.08456872919179932
2.9793583685650336,-0.0026479900630649034,0.03460483360503508,-0.02952049370466092,0.04556276888834985
2.981845312111415,0.016680812072546042,0.010540302680201119,-0.02950414024442871,0.03549424972517056
2.9843322556577965,0.012067802183002935,-0.008735835436354478,-0.043852999038346496,0.046314492277864557
2.986819199204178,-0.0021218120085235437,-0.013646773030359771,-0.043836650300187685,0.04596072682065216
2.9893061427505594,-0.006734419463545888,-0.018557718988558403,-0.053397110767138045,0.056929717879568804
2.991793086296941,-0.025712039031347916,-0.018680268915916898,-0.06774597725449638,0.0748303336360815
2.9942800298433223,-0.07820828624580739,-0.004437615096561931,-0.07251803993691475,0.1067478083219667
2.996766973389704,-0.12112753348160335,0.019381840224953262,-0.07729010559059724,0.14498722536847247
2.9992539169360852,-0.1592581863213678,0.04320129148426899,-0.0868505776714219,0.18647397764336973
3.001740860482467,-0.2165422636337126,0.07180914307843578,-0.08204584303367568,0.24244303522348934
3.0042278040288486,-0.26424934776859726,0.10041699276438942,-0.05808749849257566,0.28859218234924083
3.00671474757523,-0.30716784432280364,0.12423643829951425,-0.03412915746487499,0.3330939455717101
3.0092016911216115,-0.3596629655383772,0.17199790068384546,-0.02932443336730728,0.39975073359760516
