Time (s),Acceleration x (m/s^2),Acceleration y (m/s^2),Acceleration z (m/s^2),Absolute acceleration (m/s^2)
0.0,-0.21074225025120907,0.10926552970196868,-0.016803737926359474,0.23797818729936743
0.002486943546381497,-0.20650079136169763,0.1096394306632491,-0.007255469892438526,0.23391456438736102
0.004973887092762994,-0.20704675994190014,0.10522468272032803,0.0022928612459836017,0.23226246332269418
0.007460830639144491,-0.20759174498773303,0.10559808777009838,0.0022644493210961514,0.23291718798423014
0.009947774185525988,-0.20813573883047592,0.11075964106999381,-0.01691751183573942,0.2363776344647994
0.012434717731907486,-0.21346713713700288,0.10634412791779901,-0.03609940847210957,0.24120625918931168
0.014921661278288981,-0.2092207223084549,0.10192835021427049,-0.045704433477073536,0.23717418590591768
0.01740860482467048,-0.2097616966835935,0.11187751318201089,-0.0648861996624337,0.2464280143530847
0.019895548371051976,-0.20551324601559906,0.11224959548278068,-0.06491428663772503,0.2430010917333516
0.022382491917433474,-0.20605216935511333,0.09346778574105974,-0.06015390389620201,0.23412008803440695
0.02486943546381497,-0.21137845912859826,0.09383930578635491,-0.06018185761170436,0.23897389874134994
0.02735637901019647,-0.20712689781825766,0.09899894092676442,-0.041056130716809136,0.23321223804481542
0.029843322556577963,-0.20287428452476763,0.10415828311316222,-0.01714193270752773,0.22869361407671057
0.032330266102959464,-0.2034090150456359,0.10452892429869909,-0.0028044730808112206,0.22871245809124588
0.03481720964934096,-0.20394267855512205,0.10011085975923928,-0.02198576797520957,0.22825024506324557
0.03730415319572246,-0.19968686424509563,0.10048089141379757,-0.02201338040524803,0.224623779258156
0.03979109674210395,-0.2050067746065184,0.10563901454341451,-0.012464116550512827,0.23096045815172853
0.04227804028848545,-0.2055371922265533,0.11079682111159528,-0.03164520251347014,0.23563295991632519
0.04476498383486695,-0.2060665129919218,0.12074270972536949,-0.026884201311670353,0.24034344178412928
0.04725192738124844,-0.20180632616726235,0.13068827235416824,-0.0077579191277585835,0.2405522877073456
0.04973887092762994,-0.2023334309969252,0.12626829432995113,0.0017916278936240815,0.23850725226393402
0.05222581447401144,-0.19328261014270648,0.12663638423014323,0.0017644402083334398,0.23108019050474818
0.05471275802039294,-0.19859587284814184,0.12700413403401534,-0.0030510784085464593,0.23575343020516276
0.05719970156677443,-0.2039080018137413,0.13694834568530867,-0.0030781208627246315,0.24564770997845892
0.059686645113155926,-0.2044305864003465,0.14689220785017376,-0.00789349334225875,0.2518560950627014
0.062173588659537427,-0.2097404259496757,0.1424705058782334,-0.022285598716027977,0.25453003601320406
0.06466053220591893,-0.21026070654236942,0.14283684836521138,-0.03667762989310397,0.2568212968216972
0.06714747575230041,-0.2107798242404109,0.15277963394993588,-0.04628118310402485,0.2644082048012187
0.06963441929868192,-0.21129777180610845,0.1531452446738406,-0.046307854580508234,0.26503703841592835
0.07212136284506342,-0.21181454202264077,0.14872207918421765,-0.04154604719607313,0.26212541099015196
0.07460830639144492,-0.2171185310146017,0.1442985361327831,-0.03678416382544292,0.2632785573272911
0.0770952499378264,-0.21284452164667028,0.15423982081642773,-0.022445397383627608,0.26381150199373904
0.0795821934842079,-0.22293452336759328,0.15460391197422307,0.0014702525725027726,0.2713011849393516
0.0820691370305894,-0.22823491576510474,0.1549676115922365,0.006232366562953118,0.2759437982812474
0.0845560805769709,-0.21916888508959548,0.16011931834115734,0.0109945583095854,0.27165065177517256
0.0870430241233524,-0.21967844085590743,0.1556938176154894,0.00618002161111697,0.26932763483846506
0.0895299676697339,-0.2153983660388779,0.15126791141649143,-0.008211243094407905,0.2633360241776301
0.0920169112161154,-0.22069386355794648,0.16120680507105822,-0.01781402540932575,0.27388091374653284
0.09450385476249688,-0.2355649263945712,0.16635688066934629,-0.022628324898228414,0.2892706127158696
0.09699079830887838,-0.2312811276315285,0.17150653690865214,-0.037019351087989705,0.29030309084797234
0.09947774185525989,-0.2317844768984502,0.16229055921073599,-0.04183349026464178,0.2860285129978189
0.10196468540164137,-0.24665177388768092,0.15307415292507054,-0.04664754863745557,0.2940149446023983
0.10445162894802287,-0.23757578511232635,0.16301092672740713,-0.04667312245615207,0.29187873554624244
0.10693857249440437,-0.2332869235939764,0.16337045609647172,-0.04191021129214967,0.2878700409137144
0.10942551604078588,-0.23378518245668983,0.15894113975940183,-0.02278200807765174,0.28361385251143084
0.11191245958716736,-0.24385895816940964,0.1592997797700031,-0.022807335629110526,0.29217081625778485
0.11439940313354886,-0.24914303394463203,0.15486956490731751,-0.04677459684254259,0.29706008888354607
0.11688634667993036,-0.2448489996605099,0.14086208727731586,-0.046799758091996324,0.28632739586763944
0.11937329022631185,-0.25013046182201826,0.14600776223489964,-0.03724802891704648,0.2920118665779599
0.12186023377269335,-0.25062220371743565,0.15115297193872346,-0.022907812218125656,0.29357022632193686
0.12434717731907485,-0.24632421862169623,0.1467209051950733,-0.008567510897172781,0.2868380151650476
0.12683412086545634,-0.2563901131169293,0.1470767674189326,0.000984472142349091,0.29558151972664604
0.12932106441183785,-0.26645467056925254,0.14743215075129923,-0.008617072645172641,0.3046450138838561
0.13180800795821934,-0.2573642710508731,0.14778705066087783,-0.023006934885032138,0.29766877466303426
0.13429495150460083,-0.25306092454344004,0.14335305930358677,-0.04218511416501336,0.29388690852025634
0.13678189505098234,-0.25833302777420825,0.1484953821242514,-0.032632786832301974,0.2997527823518236
0.13926883859736383,-0.25881536421626683,0.15842561129423238,-0.03265717904036336,0.30520576405308014
0.14175578214374532,-0.26408473397157595,0.15877853235218353,-0.04225829038177231,0.31102593486515173
0.14424272569012683,-0.25498751724775665,0.15434254412605553,-0.04707091048978285,0.3017547439458335
0.14672966923650832,-0.2554657241630025,0.145117642131662,-0.04709503896023648,0.29755639629261305
0.14921661278288983,-0.2607309449416181,0.14068062853375274,-0.051907482031255725,0.3007757496634759
0.15170355632927132,-0.256417963195494,0.14581990218520113,-0.0615082393019879,0.30132520509353006
0.1541904998756528,-0.2616803858071421,0.15095865198651515,-0.0615321004123448,0.30830397063112147
0.15667744342203432,-0.25736459312523396,0.1560968734875252,-0.06155587160550091,0.3072326366716443
0.1591643869684158,-0.2626241920898219,0.15644615892658154,-0.05679114916541472,0.31092137516941687
0.1616513305147973,-0.2487287564669391,0.15200650387130965,-0.05202633601839857,0.2961059120522042
0.1641382740611788,-0.23962029657538272,0.16193151717967869,-0.03768462513156301,0.29165019073933995
0.1666252176075603,-0.2400872094822497,0.1622791778360675,-0.01855441943472158,0.2903802097194009
0.1691121611539418,-0.25012948896409537,0.16262628807639423,-0.009000928500078942,0.29848465209589825
0.1715991047003233,-0.2553819188665295,0.16297284350543428,0.0005526546999234938,0.30295276468686466
0.1740860482467048,-0.2462676863856868,0.16810724305789027,0.0005295239098046522,0.29817461146424695
0.1765729917930863,-0.24194039867000913,0.17324107903758224,-0.004281917166807148,0.2976003407076883
0.1790599353394678,-0.23761164629702858,0.17837434707851907,-0.023458474789055828,0.2980385917815023
0.18154687888584928,-0.2476466331563966,0.1835070428247132,-0.018692922014810875,0.30879299702781765
0.1840338224322308,-0.24810333660635453,0.1838507586100011,-0.009138871747552457,0.30893346541528516
0.18652076597861228,-0.24377015395832632,0.1841938934191094,-0.004373130252027124,0.3055657091395524
0.18900770952499377,-0.2538006925161955,0.19411324956747267,-0.004395697154237155,0.3195529178912565
0.19149465307137528,-0.25904133305308863,0.19445520945917893,0.0003702345585203659,0.3239064336955391
0.19398159661775677,-0.25949206965533805,0.19958497875115766,0.00034785861577191213,0.327368934022041
0.19646854016413826,-0.2599412997617605,0.20471414982987302,-0.02361643789553014,0.331715387947672
0.19895548371051977,-0.26038901752324717,0.20505431509270622,-0.038003831366948404,0.3336075595417889
0.20144242725690126,-0.2608352171232906,0.20539387358870886,-0.02844911147326812,0.3332131536166409
0.20392937080328274,-0.27085669941882173,0.19136761109685851,-0.023682697774074057,0.33248426183931556
0.20641631434966426,-0.2665114420576128,0.17734073332931244,-0.023704589909080198,0.32099842994657196
0.20890325789604575,-0.25258784264254985,0.16331323604872328,-0.028514787520020235,0.3021339511323337
0.21139020144242726,-0.26260471873184316,0.15886192166993318,-0.028536483610025698,0.3082412680899813
0.21387714498880875,-0.26783164475330357,0.1591983826585408,-0.02376967782489814,0.3124786593613305
0.21636408853519024,-0.2539034051295521,0.14516900153103052,-0.019002773132804407,0.2930905722274851
0.21885103208157175,-0.2591272208407257,0.13592738737833487,-0.023812575824292637,0.2935816921872442
0.22133797562795324,-0.26913787637781444,0.1266851327019065,-0.028622278910750865,0.29883700272707897
0.22382491917433472,-0.2743585595866188,0.1222306366560284,-0.02864347872597328,0.3017174118762581
0.22631186272071624,-0.2652124583476435,0.13692910504794442,-0.02387617492617089,0.299428287910706
0.22879880626709773,-0.2608531804981782,0.1324733071739259,-0.02389717381029932,0.2935381300712603
0.2312857498134792,-0.26128072062937874,0.1328052555069008,-0.019129668398205624,0.2937189048663466
0.23377269335986073,-0.2617066700474093,0.14750175257157938,-0.01915046499314066,0.3010214086546744
0.23625963690624222,-0.2573426200939587,0.14783237434302077,-0.023959563259895234,0.29774770476415685
0.2387465804526237,-0.2577653721073808,0.1337971167311358,-0.03355696286544152,0.2923537673093581
0.24123352399900522,-0.2581865175010215,0.1389147989011268,-0.038365856838325385,0.29568486289288576
0.2437204675453867,-0.2538176477243581,0.14882020682830088,-0.038386244849920814,0.29672269217305014
0.24620741109176822,-0.25423556422413657,0.13478291654038754,-0.028829723253521067,0.28919424207679645
0.2486943546381497,-0.2594402618430091,0.1255333439223536,-0.028849905006223864,0.28965528981940786
0.2511812981845312,-0.25985492881973304,0.1306482915915277,-0.02408157982518766,0.29184496331883175
0.2536682417309127,-0.26505636671124283,0.13097414225710313,-0.024101554031402017,0.2966310644232618
0.2561551852772942,-0.26067936051003493,0.13608769856401404,-0.0432750372684545,0.29723108778685453
0.2586421288236757,-0.24672390520686333,0.14120055321024738,-0.03371799601817038,0.286264187216785
0.26112907237005717,-0.2519204157518721,0.13673589558759192,-0.02416084988968059,0.28765317255703715
0.2636160159164387,-0.25232687060947684,0.13705893170364147,-0.02418040521318865,0.2881643496124896
0.2661029594628202,-0.24315486156324506,0.13738125429910797,-0.024199855039990226,0.280327538280836
0.26858990300920166,-0.24834640035671382,0.15206806941044526,-0.005065585783105675,0.2912495364179713
0.2710768465555832,-0.25353627220920416,0.15717735652622222,-0.0050848237016705156,0.29834747889397006
0.2735637901019647,-0.24914766569882582,0.1622859183919365,-0.024257568494698845,0.2983281888470534
0.27605073364834615,-0.25433418936422675,0.17218215444763718,-0.024276593301093996,0.3080940232657801
0.27853767719472766,-0.2547306285407194,0.1820776575077354,-0.0242955111059171,0.31405451491763636
0.2810246207411092,-0.25033697856359266,0.1871840204017543,-0.03867953157633508,0.31496438924595543
0.28351156428749064,-0.2555184447682971,0.18271283597445231,-0.029121427858518345,0.31547062241539275
0.28599850783387215,-0.26069821592813014,0.18302931036719183,-0.009986409624522352,0.31868953013675955
0.28848545138025367,-0.26108788417629486,0.1977102464165008,-0.005216493189495353,0.3275415036341561
0.2909723949266352,-0.26626425164670653,0.20281362373232437,-0.0196000815898163,0.3352822406193698
0.29345933847301664,-0.26665050723198735,0.20791624518251428,-0.02440675462216113,0.3390093622439621
0.29594628201939815,-0.257458243185209,0.2034413003695157,-0.029213318648215747,0.3294336468342235
0.29843322556577967,-0.25305266508100843,0.20854239883361725,-0.038808176711860654,0.330199421555489
0.30092016911216113,-0.2582221718938916,0.21364273020931712,-0.04361452189856152,0.3379706092981011
0.30340711265854264,-0.27296675931872155,0.21395388746763366,-0.03884395061664492,0.34899279384392173
0.30589405620492416,-0.2733444064896461,0.209475866916224,-0.03886167255824091,0.34656533723600286
0.3083809997513056,-0.26893191582401954,0.19542026155887982,-0.048456090777422745,0.33594857747867957
0.31086794329768713,-0.2693060897803887,0.1957290843378292,-0.04847359172928556,0.33643028036082795
0.31335488684406865,-0.269678520897728,0.19124871832917467,-0.053279385113704336,0.3348750061951962
0.3158418303904501,-0.27004920507685926,0.18197915990707214,-0.05329666403158129,0.32997503269190315
0.3183287739368316,-0.2752065415806212,0.17270880878290829,-0.04852542822707129,0.3285143685512066
0.32081571748321314,-0.2851505263934119,0.1778028713257358,-0.05333088740791325,0.34024824364841555
0.3233026610295946,-0.2855159455807307,0.18289613399988758,-0.06292463800321357,0.34486208994437045
0.3257896045759761,-0.29066800517215563,0.18320018992759612,-0.06772987312444201,0.3501964227882984
0.3282765481223576,-0.2958182979583832,0.17392663224848093,-0.05816978588572752,0.3480555455703651
0.3307634916687391,-0.286601610132015,0.1742290707212284,-0.06297479596637245,0.341265405427583
0.3332504352151206,-0.28695995449084455,0.16974229187995693,-0.05341448320463016,0.3376559908398869
0.3357373787615021,-0.29210492395364157,0.17004309887808322,-0.05343086396488772,0.3421911736121472
0.3382243223078836,-0.287671304841561,0.17034308492593464,-0.06302393801269446,0.34021105651339206
0.3407112658542651,-0.2832359001204867,0.1706422465721129,-0.048674881874143594,0.3342313503513725
0.3431982094006466,-0.02022492686212493,3.1301738323364225,-0.38866755762494876,3.154276420775517
0.34568515294702806,1.5931175755527474,1.9333705048193344,-0.17799373749980774,2.5114989327151984
0.3481720964934096,2.9766185149652253,0.8083923924600303,0.03268019688880486,3.0846108407852237
0.3506590400397911,4.130277894875935,-0.20166487823716617,0.22420063248034872,4.141271560236032
0.3531459835861726,5.015788492178976,-1.0584940840696515,0.36304874625055383,5.13909995197988
0.35563292713255407,5.657092326888362,-1.7668836316989105,0.47316655501608196,5.945456916982117
0.3581198706789356,6.0685546123333864,-2.3220451211271964,0.5401888490283078,6.520050047356842
0.3606068142253171,6.278905771759856,-2.70482494237693,0.5928460484185987,6.862375834699608
0.36309375777169856,6.28335740512686,-2.924799905373388,0.6263497500732971,6.95897612989523
0.36558070131808007,6.101063128950418,-2.9963352233431495,0.6215463409149766,6.825490160273466
0.3680676448644616,5.770330172982986,-2.952949722774834,0.5975894344258492,6.509511156961882
0.37055458841084304,5.329465766932124,-2.799431810215915,0.5449022241633976,6.044579576351724
0.37304153195722456,4.7880467205383885,-2.535781488874139,0.48263832360409786,5.439532967892237
0.3755284755036061,4.160438246817497,-2.200305988500273,0.41558613626060215,4.7247544576691
0.37801541904998753,3.4801591720210037,-1.8217357321848118,0.32938045236141456,3.9419183683732797
0.38050236259636905,2.780728322355078,-1.4048591263970274,0.2527516920149555,3.1256939366459298
0.38298930614275056,2.0812993140192897,-0.9831949975082142,0.18091145208454407,2.308940924137662
0.385476249689132,1.4058141664878154,-0.5711085585885116,0.09470611946964347,1.5203446008901655
0.38796319323551354,0.7542728825873513,-0.1733882160473783,0.02286611426990781,0.7742828385367514
0.39045013678189505,0.15061748170025402,0.17644720380392664,-0.039396966660145694,0.23531120352837304
0.3929370803282765,-0.40515203343883943,0.4831861012369014,-0.09208312314864742,0.6372568400550539
0.395424023874658,-0.8890936435399851,0.7420400699027572,-0.13998075834700607,1.1664928568284925
0.39791096742103954,-1.2916305393205039,0.9434323001528031,-0.18787827540960933,1.6104881873046673
0.400397910967421,-1.6271279281457356,1.0969395956401238,-0.22619886753289187,1.9753449568893315
0.4028848545138025,-1.8907974041464102,1.1929851467572,-0.23578892127565432,2.2480935922035004
0.40537179806018403,-2.0874273681405637,1.2363573538781636,-0.2358020497622011,2.4375264368664618
0.4078587416065655,-2.2122294143524277,1.2318446173979756,-0.23581505947921322,2.5430314361831305
0.410345685152947,-2.2652035403735016,1.1986005476934576,-0.22625114363514065,2.5727378281216122
0.4128326286993285,-2.2607149538032587,1.117471528599947,-0.20711030208208392,2.5303101384632094
0.41531957224571003,-2.198763652327396,1.0028227672160814,-0.1783925346751758,2.423229043584379
0.4178065157920915,-2.084138036999201,0.8738078739820314,-0.1544630512335452,2.2651777837724474
0.420293459338473,-1.950356928841193,0.7304268460780041,-0.1448986582590681,2.08768080618556
0.4227804028848545,-1.792631922360875,0.59183329398686,-0.12096893569418832,1.8916736875956086
0.425267346431236,-1.6109630154336756,0.4436620049707858,-0.10661590000786347,1.674337111182914
0.4277542899776175,-1.395773399342034,0.3050665895556999,-0.09226274442995219,1.431698788287435
0.430241233523999,-1.1805818952990117,0.18083544832828258,-0.058755855552782066,1.1957956854921483
0.43272817707038047,-0.9749653079640156,0.07575698189699231,-0.034825653174920035,0.9785240406645964
0.435215120616762,-0.7693468287631479,-0.014957215748500285,-0.020472137176163585,0.7697644897183938
0.4377020641631435,-0.5733032624518397,-0.08651874395595005,-0.010906904119106997,0.5798974774484725
0.44018900770952496,-0.39641141383373,-0.14371600869168422,-0.006129953889793427,0.42170354101740243
0.4426759512559065,-0.23867128112005845,-0.18654901257960832,0.0034355202632259108,0.3029460633931325
0.445162894802288,-0.0952944592501164,-0.2006525482604733,0.01300111512731128,0.22251181560031202
0.44764983834866945,0.028930650147732967,-0.20039182827460378,0.008201620846049806,0.20263547059118542
0.45013678189505096,0.13400404871690452,-0.18576685517900504,0.01776745744267849,0.22974353549033177
0.4526237254414325,0.21992573805220378,-0.15677763150821056,0.0225450117341488,0.271025521959139
0.45511066898781394,0.2723305097388016,-0.12300096641482039,0.022534283815478062,0.29966804671277814
0.45759761253419545,0.29600676859432834,-0.0748600557475485,0.017735273778509253,0.3058407672894197
0.46008455608057697,0.3148965326688056,-0.026720111933945745,0.012936385032215725,0.316292808527637
0.4625714996269584,0.31942299672112423,0.016630459261864683,0.017714424302681664,0.3203457879197717
0.46505844317333994,0.2952209521408422,0.07913367202052823,0.027280988351847668,0.3068579491488719
0.46754538671972146,0.25665561019029953,0.1320591040222121,0.03684767393843913,0.29098017161308076
0.4700323302661029,0.21330377876235282,0.1754067528920107,0.04641448113829405,0.28003631024164477
0.47251927381248443,0.1508002490990516,0.21875342291876976,0.046404603383399134,0.269716818871543
0.47500621735886595,0.09787544227595175,0.26688751509422337,0.03681804074314243,0.28664283706041943
0.4774931609052474,0.044952552756725384,0.3102322204724528,0.017654793283675474,0.3139688748021116
0.4799801044516289,-0.022333628364718694,0.3392107301308971,-0.0206619455727175,0.3405724979893702
0.48246704799801043,-0.08482948680179547,0.36339984845168116,-0.04461335252419474,0.3758268789073087
0.48495399154439195,-0.142535021598745,0.38279957319981284,-0.05898783083467407,0.41271213916081234
0.4874409350907734,-0.20023863516976162,0.3974099021638846,-0.07336218709163944,0.4510123632977548
0.4899278786371549,-0.25794032665842936,0.3880772198748934,-0.08773642124523207,0.47416750238223243
0.49241482218353644,-0.3108516919377753,0.37874354077037964,-0.08774532328792972,0.4977697116285452
0.4949017657299179,-0.35418432693063884,0.3694088627101193,-0.08296569981704671,0.5184522664992658
0.4973887092762994,-0.3975150375706732,0.34091957029651043,-0.07818595411286289,0.5294878675914205
0.4998756528226809,-0.43126701656020205,0.30764087139807916,-0.06382927949801598,0.533580661426689
0.5023625963690624,-0.4506518599718342,0.2791495705870566,-0.06862609586093527,0.5345288791900079
0.5048495399154439,-0.465246373889146,0.2506572624988084,-0.0686343865699186,0.5329108093107369
0.5073364834618254,-0.4750505578051586,0.21737554179285068,-0.054277344957505136,0.5252344132064879
0.5098234270082069,-0.4848528145833253,0.20324642307478902,-0.03992018096110783,0.5272428104299158
0.5123103705545884,-0.485076337176326,0.1843278877713841,-0.02077449124021946,0.5193336139563379
0.5147973141009698,-0.4709327219073596,0.16061993393530338,-0.011205485738889465,0.4976966492263135
0.5172842576473514,-0.4567871784311226,0.1512761729248724,-0.006424761123254186,0.48122789240582575
0.5197712011937329,-0.44263970649166084,0.13714298956038595,-0.00164391406276998,0.46340135066918997
0.5222581447401143,-0.42370190256303153,0.13737399524917304,-0.0016513478708528595,0.44541850405662653
0.5247450882864959,-0.40955057313058907,0.1328155748606572,-0.011235465864258387,0.4306946535195762
0.5272320318328774,-0.39539731476914364,0.1330445332107919,-0.01124265476152253,0.4173323395448927
0.5297189753792588,-0.3668769174633053,0.1332724651793069,-0.011249721206398888,0.3904955553774821
0.5322059189256404,-0.45327627085751476,6.047177469576955,-0.43742456071318436,6.079897612015909
0.5346928624720219,1.026134190431429,4.2182332751221345,-0.24110684614328193,4.347939264913567
0.5371798060184033,2.2804916245096547,2.432383678917501,-0.03521220250990886,3.334422335297153
0.5396667495647849,3.3241612411905685,0.7423011157859665,0.13716374028754785,3.408793451586702
0.5421536931111663,4.1379894269948325,-0.8280723993464396,0.27123257890882435,4.228738287993468
0.5446406366575478,4.712399375033155,-2.23564123824739,0.39093632993215977,5.230452258650873
0.5471275802039294,5.08090990824846,-3.442098175979769,0.47233297672930696,6.155224105564849
0.5496145237503108,5.267463042892431,-4.452231617464122,0.5393645358717656,6.918052282712306
0.5521014672966923,5.305577601806749,-5.246887950994228,0.5728773940448431,7.483794182611483
0.5545884108430739,5.180888374579324,-5.821278774799558,0.5776599545320185,7.814255047466327
0.5570753543894553,4.917337377309914,-6.194557703685836,0.5728658305743206,7.929749509689589
0.5595622979358368,4.562808642649173,-6.342782722550636,0.553706618807821,7.833052176171971
0.5620492414822184,4.1220905733142725,-6.29947265610988,0.5153939158652037,7.5459006969475375
0.5645361850285998,3.6287019918935774,-6.098146329054059,0.4722929316570035,7.111816041618419
0.5670231285749813,3.097008107643524,-5.734015339485677,0.41482685948879094,6.530120401311151
0.5695100721213628,2.53658572644955,-5.235810108723898,0.3429956993033709,5.828003147904397
0.5719970156677443,1.971376864107346,-4.622684251421697,0.2855298709620122,5.033593521123003
0.5744839592141259,1.4253235363618975,-3.9233681888470278,0.22327576111945824,4.180217362059952
0.5769709027605073,0.9127909522669755,-3.171380745562646,0.15144496638799865,3.3036008738511673
0.5794578463068888,0.4242023042239774,-2.4050291494257316,0.0939795032983568,2.443960914486276
0.5819447898532704,-0.021288795494417617,-1.6243134017053402,0.03651416181537037,1.6248632323325727
0.5844317333996518,-0.41410554130676774,-0.8531755202464333,-0.0209510581385981,0.9485941252853457
0.5869186769460333,-0.7494595310026955,-0.13471113614922103,-0.08320455996490672,0.7660024005264918
0.5894056204924149,-1.0273507657427126,0.540656556035247,-0.13109273046676684,1.1683083546038966
0.5918925640387963,-1.25256765005824,1.1537739418598365,-0.1694039730523489,1.711378898132476
0.5943795075851778,-1.4346869918516778,1.6759106002628537,-0.1885614811723091,2.214172201262519
0.5968664511315593,-1.559343582474413,2.1214317400912472,-0.2077188682025941,2.641055123294113
0.5993533946779408,-1.6217490199690232,2.4663953436553987,-0.22208773092098255,2.9601518263766726
0.6018403382243223,-1.6506337256708377,2.715589813213639,-0.21251445614775122,3.1849932690703526
0.6043272817707038,-1.6459977010438176,2.8785919543705774,-0.20294106058938333,3.3221657312183717
0.6068142253170853,-1.593475737641499,2.9601901694365536,-0.2077327543151739,3.3682404401848007
0.6093011688634667,-1.521798256950685,2.950807650787066,-0.20294752083529666,3.3263077763512534
0.6117881124098483,-1.4453304705476946,2.8743864140658815,-0.1742201503040004,3.2220226701921395
0.6142750559562298,-1.3305535568561315,2.7261380550210172,-0.1598578694023569,3.0377221731267885
0.6167619995026112,-1.191832727553105,2.5252161860282007,-0.14549546829143623,2.7961314289458623
0.6192489430489928,-1.0626868076473213,2.285986016169011,-0.12155614045602547,2.523848492392221
0.6217358865953743,-0.9431157989556094,1.998870737949657,-0.09282828934526144,2.212141209004039
0.6242228301417557,-0.8091776867435111,1.6878123671447436,-0.06888872173198379,1.8730255661341597
0.6267097736881373,-0.6704492795689903,1.3623877095941683,-0.03537222779089255,1.5188330066951774
0.6291967172345188,-0.5508725960011435,1.0225967645234508,-0.00664401762196043,1.1615545199468813
0.6316836607809002,-0.4360824280967196,0.7067467577468802,0.002930698671434584,0.8304621922009219
0.6341706043272818,-0.32129037460320087,0.40526088190190457,0.017293937544998528,0.5174581794583838
0.6366575478736632,-0.23043845424000783,0.11813913629289896,0.022080488888546412,0.259896680829351
0.6391444914200447,-0.16831507249532637,-0.1498300764291347,0.012501949229108078,0.22568853352883153
0.6416314349664263,-0.10618981166512148,-0.3794931436259281,0.00771193169187967,0.3941456533452874
0.6441183785128077,-0.053639480657773575,-0.5756384692344341,0.007710436117399411,0.5781836144106115
0.6466053220591892,-0.015452485111214331,-0.7239008438840022,0.0029206557021890234,0.7240716410009534
0.6490922656055708,0.0035827692868163064,-0.8434338814198041,0.0029193969206229298,0.8434465433215189
0.6515792091519522,0.017831490080074452,-0.9390259856996996,0.01728346624367738,0.9393542899583547
0.6540661526983337,0.022505271481371214,-0.9963119472739135,0.04122446017801096,0.9974183874594232
0.6565530962447153,0.003238901013255857,-1.0009265566662782,0.04601195862531782,1.0019888036580666
0.6590400397910967,-0.01123720396848571,-0.9672350242961032,0.04122276804641345,0.9681782808881436
0.6615269833374782,-0.02571144939976741,-0.909602560556289,0.0364336948987205,0.9106949604147193
0.6640139268838597,-0.05454904790657772,-0.8232407625320814,0.02206793235503568,0.8253411084880865
0.6665008704302412,-0.07859638892210027,-0.7177264372432475,-0.0018745197746135034,0.7220194906606502
0.6689878139766227,-0.11221868517102171,-0.5930595850425133,-0.011451645082011908,0.603691845967291
0.6714747575230042,-0.15062753614602437,-0.4540286095764978,-0.025817057045141922,0.47905861164774177
0.6739617010693857,-0.17466933142802896,-0.3054219144653987,-0.040182352543789435,0.3541278619837435
0.6764486446157671,-0.18913247724862065,-0.15202790330299276,-0.04975912846111541,0.24770859532546285
0.6789355881621487,-0.2275357998102881,-0.008211786297261714,-0.05454738500396594,0.23412686911217662
0.6814225317085302,-0.2611488822004101,0.1308148396514799,-0.05933552570283673,0.2980469183836633
0.6839094752549116,-0.28039492083648954,0.2506867643880861,-0.0545467441306684,0.3800533025320602
0.6863964188012932,-0.3044275321067008,0.37055760102600654,-0.049757847144997314,0.4821461410560395
0.6888833623476747,-0.31888150920574493,0.46648533282228977,-0.05454564160673314,0.5676875986578764
0.6913703058940561,-0.33812206529883054,0.533681556341632,-0.03060290117697484,0.6325180409929987
0.6938572494404377,-0.35736080031846434,0.6056650947376272,-0.00666004600457093,0.7032647473040116
0.6963441929868192,-0.3622325076049906,0.6537055280261943,-0.006659092921383447,0.7473872158769781
0.6988311365332006,-0.36231399714869117,0.6873796628121278,-0.0066580255594939075,0.7770499100327644
0.7013180800795822,-0.36718207898813415,0.71147590240628,0.0029199624847464634,0.8006429697535545
0.7038050236259636,-0.38162515988977064,0.7212058435052344,-0.001867145630532363,0.8159528893262131
0.7062919671723452,-0.37212442010565466,0.7117810828319207,-0.02580775346926778,0.8036012282565786
0.7087789107187267,-0.37219868642022436,0.6927784270965436,-0.021017828075274636,0.7867118661367091
0.7112658542651081,-0.38663636574395643,0.6641978763949976,-0.01622778962068061,0.7687066016883763
0.7137527978114897,-0.3771302351523305,0.6260394308494868,-0.01622604167936892,0.7310375282247704
0.7162397413578712,-0.36762231493260855,0.5783030906085131,-0.006647374547270601,0.6852917762764558
0.7187266849042526,-0.3581126088181036,0.5209888558468405,-0.016222208406427185,0.6324058732781422
0.7212136284506342,-0.3438127172693326,0.47325034004674604,-0.021008526918727455,0.5853327490528595
0.7237005719970157,-0.33429945075516254,0.41593393015425706,-0.025794733671222758,0.5342494972519292
0.7261875155433971,-0.3247844098308258,0.33946281978222803,-0.04973444221518619,0.4724335229702851
0.7286744590897787,-0.3200560017393806,0.2917210424134731,-0.05930882958173633,0.43709787016474605
0.7311614026361601,-0.3201142304506624,0.24876658175230082,-0.06409470268805251,0.4104461763086773
0.7336483461825416,-0.32017069666117415,0.19144582484948014,-0.05451525517334943,0.3770048963865255
0.7361352897289232,-0.31543700111428696,0.11975877206316587,-0.030570487320717987,0.3387878685152085
0.7386222332753046,-0.3107015512407525,0.0720126503401306,-0.016202416018071375,0.3193490160267329
0.7411091768216861,-0.30596435119764875,0.04341905677040314,-0.011411041554994839,0.30924037667161036
0.7435961203680677,-0.2964370018682651,0.005247571868515877,-0.016196364224324356,0.2969255046324718
0.7460830639144491,-0.29169631414323405,-0.013771383981220797,-0.0018279644002507922,0.2920269373796792
0.7485700074608306,-0.29653069563915924,-0.013637810290373142,0.0029637376960547357,0.29685893462533836
0.7510569510072121,-0.31572855401880884,-0.023082126466404507,-0.01618646819886571,0.316984709627723
0.7535438945535936,-0.3061942637878664,-0.022950718687711813,-0.02575975914854922,0.30813183518790666
0.7560308380999751,-0.311023459263556,-0.00845518306771842,-0.016179328821303685,0.31155874729187977
0.7585177816463566,-0.31106253164482905,0.0060392710247798576,-0.011387194130826117,0.3113294711041249
0.7610047251927381,-0.3015230821372355,0.025321047528083174,-0.025748565353385544,0.303677976032532
0.7634916687391196,-0.3063471319137323,0.04939014708599121,-0.030533022885609995,0.31180156726270436
0.7659786122855011,-0.3111694756301774,0.0830349736883913,-0.04489418033044501,0.32517185740302607
0.7684655558318826,-0.30641331130800875,0.1166787213899747,-0.05446682805181524,0.3323697891354809
0.770952499378264,-0.30165545029504814,0.13595618095082207,-0.06403936969805102,0.3370180035291358
0.7734394429246456,-0.31126110730442724,0.1648093697191797,-0.07361180560033276,0.3598114828508849
0.7759263864710271,-0.31128827053163743,0.19844988514704376,-0.04487690953048684,0.37188261762881614
0.7784133300174085,-0.3017369448184534,0.20814730811043347,-0.03050711834940678,0.3678330735700351
0.7809002735637901,-0.3017607483324793,0.22742046267497606,-0.02092562575706225,0.3784408776688939
0.7833872171101716,-0.3017828793638815,0.2562693496896098,-0.006555625456545755,0.3959669962163729
0.785874160656553,-0.3018033428877449,0.2659635501068571,0.003026075564674713,0.402282270174791
0.7883611042029346,-0.31139895056392686,0.2900218880687171,0.003031073636352133,0.4255481046587417
0.790848047749316,-0.3162044974947227,0.3045023478988087,-0.006540631594546653,0.4390327367901314
0.7933349912956975,-0.31143158546690386,0.30940493054763385,-0.0113238305232084,0.43914607206638423
0.7958219348420791,-0.31623383291250506,0.314306443631593,-0.011318523508839107,0.44600502974887407
0.7983088783884605,-0.3162460350649224,0.3144184848313749,-0.001736307593406039,0.44595241120774376
0.800795821934842,-0.29710298720094647,0.3145294584934697,-0.001730796423489167,0.4326684191389298
0.8032827654812236,-0.30190032448435733,0.3098509623488699,-0.006513587047168201,0.43265904775989844
0.805769709027605,-0.31148443895795497,0.31474820743489307,-0.006507873195257474,0.4428671834872799
0.8082566525739865,-0.3162785293480878,0.3148559848920054,-0.02086726852347809,0.44676821982380854
0.8107435961203681,-0.316282601064493,0.3005974892059524,-0.0448033700890047,0.43863524279790406
0.8132305396667495,-0.3114966595595093,0.29112633480926986,-0.04958575835046375,0.4292359015359765
0.815717483213131,-0.3210743236091632,0.2816541195577895,-0.0400028370116825,0.4289731825113762
0.8182044267595125,-0.3210735821489419,0.267392441332146,-0.03041981642009084,0.4189419149077238
0.820691370305894,-0.3162828440783134,0.25312970467834095,-0.025625100285497027,0.4059139448373911
0.8231783138522755,-0.31627892165899585,0.23886591084675013,-0.01604188235974391,0.39666941102140546
0.825665257398657,-0.3114850139132248,0.23417786775299954,-0.00645856635858344,0.3897485095767159
0.8281522009450385,-0.32105473982670685,0.22470036673571725,-0.0016635560007287609,0.3918790223971268
0.8306391444914201,-0.23485482877804328,5.985247813415768,-0.4182479405546946,6.004438318308952
0.8331260880378015,1.7906499917656806,4.242366205235639,-0.21233979659666424,4.609684002353586
0.835613031584183,3.548005785312475,2.5473675797007957,-0.006431556174426589,4.367776093578551
0.8380999751305646,4.979751706149461,0.9385591647709388,0.1563811504190884,5.0698397829596535
0.840586918676946,6.090676151686994,-0.5457518115697977,0.3000403393724067,6.122434583546901
0.8430738622233275,6.866413906013956,-1.8959885412353747,0.41975760694933406,7.135727638145216
0.845560805769709,7.306964963139618,-3.073843796193548,0.5059561460904565,7.943314439055918
0.8480477493160905,7.431482930314367,-4.064952364989487,0.5634243596944408,8.489300517845066
0.850534692862472,7.254333011428335,-4.859737439464974,0.5921622473367893,8.751745628639318
0.8530216364088535,6.813822426933375,-5.448622211437728,0.5873814052698414,8.744179606115692
0.855508579955235,6.1626236072028036,-5.845971889303188,0.5538702363837373,8.512349222942404
0.8579955235016165,5.348620579250039,-6.066151681433142,0.5059939502064257,8.103207278638296
0.860482467047998,4.395755353447796,-6.094796376253752,0.43896414298179565,7.527409747993301
0.8629694105943795,3.3710655700127337,-5.936694375448882,0.37672283087283454,6.837422268378084
0.8654563541407609,2.3128584492005406,-5.673248533803831,0.3096932067975402,6.134408937679505
0.8679432976871425,1.2594412112284152,-5.290093639674208,0.25702888359301923,5.444019354122751
0.870430241233524,0.2539094795955772,-4.777652884712659,0.19957624753111602,4.788555918981243
0.8729171847799054,-0.675006332198187,-4.198175510353095,0.12775849152153995,4.254013798331169
0.875404128326287,-1.498575810690965,-3.5612383214828496,0.06551763171346181,3.8642515967327244
0.8778910718726685,-2.1976453490992087,-2.871629719645927,0.0032768610111482133,3.6160631998057244
0.8803780154190499,-2.7578497439974825,-2.162868526284985,-0.054175417722920116,3.5052347208634425
0.8828649589654315,-3.1791890019585716,-1.4732619661401736,-0.09726239830863115,3.505310757290186
0.885351902511813,-3.461663129592489,-0.7884448274053106,-0.14034929117013384,3.553090878682139
0.8878388460581944,-3.595695326905611,-0.12757072149362791,-0.16428248349205354,3.6017062494456114
0.890325789604576,-3.59086240722234,0.4758415302433936,-0.17385037906324996,3.6264227475306057
0.8928127331509574,-3.4711063938645803,1.0122151230784304,-0.1786297849955112,3.6200922160911584
0.8952996766973389,-3.2507925035499587,1.500703672228541,-0.18340910508296027,3.585164196073057
0.8977866202437205,-2.9299207430713006,1.9269419696910095,-0.17382312984108417,3.5110903428570306
0.9002735637901019,-2.0919000303901587,6.337130823110446,-0.3605616058426495,6.683208621461001
0.9027605073364834,-0.43506096319128296,4.9389854444505605,-0.24084218493644904,4.963956105792273
0.905247450882865,1.0685505776019721,3.4881666267518874,-0.09239226018479485,3.6493346082020492
0.9077343944292464,2.4045693750934967,2.0469236152254346,0.04169253804278128,3.1580988638631218
0.9102213379756279,3.529899792430222,0.696659268385464,0.11352817605385646,3.5997798998806037
0.9127082815220094,4.444541822607281,-0.5482612017165334,0.19494070316130951,4.482470773575878
0.9151952250683909,5.105399828702131,-1.663895776366374,0.2667765055895508,5.376320886020121
0.9176821686147724,5.5507810302033045,-2.5832068069454905,0.30988196956048775,6.130265433712725
0.9201691121611539,5.7950506299637,-3.3014058879779853,0.3577759178169835,6.679064024875654
0.9226560557075354,5.804689797599154,-3.8232814206071044,0.39130473657598763,6.961682545504211
0.9251429992539169,5.618005752496478,-4.129679789353034,0.40568002201291975,6.984326744786132
0.9276299428002984,5.268517310688775,-4.234966201957038,0.40569017694137344,6.771764755542858
0.9301168863466799,4.775378078215021,-4.167871076100148,0.38175839421158564,6.349891697378768
0.9326038298930613,4.176895274362351,-3.933182812840779,0.3482498832729295,5.747839520499529
0.9350907734394429,3.473068891822888,-3.5548434264977278,0.305164643611457,4.97918113488277
0.9375777169858244,2.711782956459249,-3.0663717380095736,0.24292586807020378,4.100660363402995
0.9400646605322058,1.9361330907814198,-2.501286568294126,0.18547557273202742,3.168508644461569
0.9425516040785874,1.155696094025286,-1.8691647216470963,0.14239056371650172,2.2022001024046096
0.9450385476249689,0.4039907819964528,-1.2035250189452171,0.10409403385961546,1.2737804328259865
0.9475254911713503,-0.31419444945272595,-0.5618282976465412,0.061009175995046405,0.6465998048707613
0.9500124347177319,-0.9749175912202295,0.07029065461609507,0.01792439291508785,0.9776125866918797
0.9524993782641133,-1.5494482309145916,0.64973621038612,-0.03473712255118322,1.6805218329597535
0.9549863218104948,-2.0282095694562985,1.152566355508141,-0.08739856429570736,2.33445534772554
0.9574732653568764,-2.4064132111169183,1.5787810924484837,-0.1352715295330107,2.8812623391862577
0.9599602089032578,-2.684059163518528,1.923592020372864,-0.16877921215951375,3.3064885114827063
0.9624471524496394,-2.865935837633606,2.1582687218651713,-0.18792161271449892,3.592635054349297
0.9649340959960209,-2.947254837823789,2.2923880060913464,-0.21185234502070038,3.7398175444315402
0.9674210395424023,-2.942381381761568,2.354680295518108,-0.22141779634053194,3.7750699768844886
0.9699079830887839,-2.8513154771877707,2.3164151727877558,-0.22140637054014434,3.680326070348606
0.9723949266351654,-2.688422341833255,2.1823810438040265,-0.221394874808146,3.469786362157571
0.9748818701815468,-2.46327879013733,1.9908851377319396,-0.2118065030540368,3.174307487361351
0.9773688137279284,-2.185461636567883,1.7419274571930354,-0.1782760458691257,2.8004171438490544
0.9798557572743098,-1.8884897122226514,1.4450848114683534,-0.15432232704995563,2.3829559135941714
0.9823427008206913,-1.553209411703961,1.1338760264592418,-0.1255801371920242,1.9271493691050343
0.9848296443670729,-1.2131395661654025,0.8083011048435425,-0.10162628349447722,1.4612960632890832
0.9873165879134543,-0.8826453935068251,0.4635716459972885,-0.06809555655692989,0.9992990375629567
0.9898035314598358,-0.5569384983740079,0.1379948791976231,-0.039353166902918346,0.5751275940181886
0.9922904750062174,-0.25517250204142083,-0.1540639828614685,-0.010610711776749326,0.29826381580343775
0.9947774185525988,0.017864184150681972,-0.41260493742882254,0.022920211575273797,0.41362700536191704
0.9972643620989803,0.2478063421949825,-0.6280511750946705,0.042085989303320304,0.6764817013530317
0.9997513056453619,0.4490191739798189,-0.7908258864313471,0.032521410875895995,0.909989804018047
1.0022382491917432,0.6071374614455858,-0.9152942785948845,0.032533702283000565,1.0988348171146376
1.0047251927381249,0.717372793147729,-0.9775143321612731,0.05169966959082295,1.2136024265652547
1.0072121362845063,0.7797251609365041,-0.9918512542514262,0.06607729562145792,1.263371064317301
1.0096990798308878,0.8037713632776343,-0.9774586552891862,0.0708781764763522,1.2674768412580737
1.0121860233772693,0.8086650052525618,-0.8912409025170653,0.05652550493476305,1.2047591334983474
1.0146729669236507,0.7656756587149637,-0.7715052196057488,0.04217289369596067,1.0877766642055708
1.0171599104700322,0.6891685253769557,-0.6326168136073467,0.0278203421761134,0.9359119940826467
1.0196468540164139,0.588720403606244,-0.47457568159616415,0.02783305975050432,0.7566957581484369
1.0221337975627953,0.4739080917466479,-0.2878050139890518,-0.00567298737145272,0.5544842543173829
1.0246207411091768,0.3399431781575811,-0.0962468244285799,-0.029602169896184805,0.3545435150316889
1.0271076846555582,0.19640246113598628,0.09052208342027246,-0.015224068492837972,0.21679471070230008
1.0295946282019397,0.04807433563551895,0.27250171254943023,-0.019999523597928004,0.2774316240685494
1.0320815717483214,-0.09546440009263837,0.43532685600614185,-0.034351729165319256,0.44699324887730346
1.0345685152947028,-0.2294253511400574,0.583785920134952,-0.03912707250997016,0.6284687105152902
1.0370554588410843,-0.3538085259409132,0.7226673112964521,-0.029537150909456855,0.8051713849415993
1.0395424023874658,-0.4590371263106554,0.8232406126248271,-0.02952398156491398,0.9430333266082861
1.0420293459338472,-0.5546879673676697,0.8998710371527898,-0.04866437171818916,1.0582130436370742
1.0445162894802287,-0.640761057611111,0.9477701846473647,-0.06780470869090216,1.1460543330828898
1.0470032330266104,-0.6933143889597395,0.9669380582113392,-0.086944993087533,1.1929851139805239
1.0494901765729918,-0.741078389876527,0.9573746609627816,-0.09650841887354389,1.2145276021190536
1.0519771201193733,-0.7696878589622954,0.9190799960349332,-0.0917065833362809,1.2023050930494927
1.0544640636657547,-0.774354401478755,0.8616308732166931,-0.08211629372559948,1.1613679806439088
1.0569510072121362,-0.7694432359889046,0.775450489030606,-0.04858393737102773,1.0934929141596461
1.0594379507585177,-0.7549543711145612,0.6701156532952242,-0.02941674144737405,1.0098893186550937
1.0619248943048993,-0.7213110088563902,0.5743567891249683,-0.034191513209071545,0.9226832350741466
1.0644118378512808,-0.6685131578749042,0.4690202864456574,-0.029389430029238994,0.8171619239458521
1.0668987813976623,-0.6205028434510795,0.34931774515835734,-0.0293757024855843,0.7126777656907191
1.0693857249440437,-0.5677032676423507,0.24397958842052292,-0.019785121235393888,0.6182268925564056
1.0718726684904252,-0.5005376325245676,0.15300581948190084,-0.024559703499877017,0.5239769855677145
1.0743596120368066,-0.44294796343380916,0.05724282832483896,-0.010180626657911418,0.44674745087569767
1.0768465555831883,-0.3901458658021176,-0.03373257513259764,0.01377530202740651,0.3918436450594887
1.0793334991295698,-0.3229777351181529,-0.1103435809586566,0.023366065330678865,0.3421056799438865
1.0818204426759512,-0.27017400009092396,-0.15822497588778361,0.01859166262670442,0.31364754620281265
1.0843073862223327,-0.23173466952456864,-0.18695356324257117,0.00902889992956979,0.2978827166901317
1.0867943297687142,-0.19329454227898263,-0.2013177430120554,0.009042986572351808,0.2792371560742895
1.0892812733150956,-0.15964203051173387,-0.18216389857059312,0.009057115285269646,0.24238666462005987
1.0917682168614773,-0.13077714307622076,-0.16301084980300606,-0.000505521202736503,0.20898673129259412
1.0942551604078588,-0.1210650988026416,-0.13907019001877474,-0.0004913102421113535,0.1843841568185984
1.0967421039542402,-0.1161406966149029,-0.10076510919437043,0.0234649574951451,0.15554058271524276
1.0992290475006217,-0.11121554209283915,-0.0528840072546406,0.028267651492072332,0.1263513955094688
1.1017159910470031,-0.10150124083130774,-0.0002152841120137694,0.009128367793001857,0.10191111488011664
1.1042029345933846,-0.11093981836178335,0.062029466973986924,-0.005222474316722625,0.12721073975577393
1.1066898781397663,-0.1251660736677013,0.11948503947472888,-0.01957327879511439,0.17414457757408705
1.1091768216861477,-0.13939161238731024,0.17215143683454226,-0.03392404628101886,0.22409145392943536
1.1116637652325292,-0.1631932501336804,0.2391822757908142,-0.02912116413315502,0.29101243984087216
1.1141507087789106,-0.18220578593195702,0.28227033324896,-0.019529842953529553,0.3365366313276322
1.116637652325292,-0.21079443874248904,0.33493443593063343,-0.019515293345225615,0.3962274832104441
1.1191245958716736,-0.23459400761681018,0.3732325707251851,-0.0003470960295786085,0.44083672797930534
1.1216115394180552,-0.2488160982598549,0.40674154777545324,0.018821135067902617,0.47718169764280916
1.1240984829644367,-0.26303752634999056,0.44024977391512454,0.014047382700381306,0.5130359954831349
1.1265854265108182,-0.2772583009371734,0.4498152360670322,0.014062066143440077,0.5285864676103907
1.1290723700571996,-0.2866900277629798,0.4450147444070769,-0.005076831851761554,0.5293912248801308
1.131559313603581,-0.3009095225415744,0.44021351244221174,-0.014638892011598514,0.5334311337485231
1.1340462571499625,-0.31512839103755563,0.4354115437290482,-0.014624114985267056,0.537682973497891
1.1365332006963442,-0.3245582390266077,0.42103203519403687,-0.028974518024446283,0.5323960441949529
1.1390201442427257,-0.33398747893585223,0.40186339373487323,-0.033748085178604725,0.5236227234978047
1.1415070877891071,-0.34341611988262155,0.3635404129781863,-0.03373322041996829,0.501232673938449
1.1439940313354886,-0.3480557676741819,0.33479351644345234,-0.028929924401316143,0.48380415106704294
1.14648097488187,-0.3479064314480763,0.3060459010975447,-0.02891500441690198,0.46426184002346416
1.1489679184282517,-0.35254492699215617,0.27250916723740426,-0.038476864441502556,0.44724673377631063
1.1514548619746332,-0.35239445682242554,0.24376012513053524,-0.05761550513038216,0.4323429174096132
1.1539418055210147,-0.34266662678432325,0.21022197177265411,-0.06238891053803819,0.40682437326916954
1.1564287490673961,-0.3473034626540003,0.1814715174500603,-0.04322027468066736,0.3942329247545903
1.1589156926137776,-0.34236295701305003,0.18623918573951137,-0.02405161481741125,0.39048163697536514
1.161402636160159,-0.3326335223732144,0.1622757371408725,-0.014459738247191822,0.37038838953347686
1.1638895797065407,-0.33248037789486184,0.143099998569173,-0.014444645629032138,0.36225606835904867
1.1663765232529222,-0.3227499195038955,0.12392357038572221,-0.019217934302330875,0.34625697225581575
1.1688634667993036,-0.3225957696961528,0.11911166624170155,-0.028779604927468228,0.34508533049161755
1.171350410345685,-0.3176527277324469,0.109510676554605,-0.038341254845164485,0.33818027077050666
1.1738373538920666,-0.30313239952109555,0.11427421831277895,-0.02874927143582262,0.32522971761280417
1.176324297438448,-0.2981884075785791,0.1190370852705942,-0.038310881924212836,0.3233479206022184
1.1788112409848297,-0.3028207611464501,0.11901087783112052,-0.052660877012257856,0.32960153275000015
1.1812981845312112,-0.2930874528707409,0.13334921300692093,-0.047857240761823405,0.32553430408047485
1.1837851280775926,-0.2977189119266852,0.1620520945371009,-0.043053587118164316,0.34168851784397464
1.186272071623974,-0.29756153429187715,0.16681229960592026,-0.01909630346454172,0.3416633998483905
1.1887590151703555,-0.28303852258974305,0.19072546185046413,0.004860996252761041,0.3413365441209404
1.191245958716737,-0.2780919026908256,0.2242147783917594,0.014453101407271518,0.3575140071825974
1.1937329022631187,-0.2731448772281309,0.24333823639712948,0.024045221293933494,0.36660577452613896
1.1962198458095001,-0.2634090521593555,0.25288424296287104,0.01448374196504254,0.3654374746515529
1.1987067893558816,-0.2680380500478484,0.27200641515317603,0.00492227603496076,0.38191113489828915
1.201193732902263,-0.2774550735389104,0.2863395467968748,0.00014922615669199502,0.39871252320533856
1.2036806764486445,-0.2725065186407585,0.2958836416904158,-0.009412214978086197,0.40236242606943573
1.206167619995026,-0.277134411247689,0.3054271069571022,-0.02376204803744919,0.41310269242492526
1.2086545635414077,-0.2721851473741793,0.29102792980477155,-0.023746660408574982,0.3991815555084114
1.2111415070877891,-0.2672355429592991,0.2862049372912798,0.00021075388039903942,0.39157138042489126
1.2136284506341706,-0.2670740106242443,0.29095813323842146,0.005014564277594502,0.39498140247788893
1.216115394180552,-0.2621237530314421,0.2813455048724256,0.005029980074576557,0.38456398130188835
1.2186023377269335,-0.2619615861264619,0.2669438626675613,0.00504540392201136,0.37404325220822504
1.221089281273315,-0.2617991158955544,0.2429648071428807,-0.014092778131248096,0.3574482913501304
1.2235762248196966,-0.2568479483263149,0.23335035874489396,-0.02844255015376973,0.34818420002214023
1.226063168366078,-0.26147330268866126,0.22373531136305624,-0.02842710617528077,0.3453025889493745
1.2285501119124596,-0.26130997833143566,0.20933126553275683,-0.037988463467891975,0.33696529029229744
1.231037055458841,-0.2659347912055703,0.19013822511487133,-0.04754981606170183,0.3303556308448297
1.2335239990052225,-0.26098254066069015,0.17573300061593766,-0.03795755134635925,0.31691442021372496
1.236010942551604,-0.2560300426479669,0.17090399922708377,-0.03315368659444573,0.3096106048328021
1.2384978860979856,-0.2558657097979732,0.1660744181832694,-0.028349819156803235,0.30635222550449265
1.240984829644367,-0.26527795474072413,0.16124426136470849,-0.028334353024995096,0.31172895382979293
1.2434717731907485,-0.26511317350384567,0.165990339296743,-0.03789569219066813,0.3150775634534105
1.24595871673713,-0.26494818203574244,0.17073584922782103,-0.052245434004893454,0.3194962515428778
1.2484456602835114,-0.26957139296314125,0.17548079505125136,-0.04744156253753573,0.3251352752192701
1.250932603829893,-0.2741944122705105,0.17543677734412233,-0.04263769174130161,0.32829652956174865
1.2534195473762746,-0.2692404426201039,0.18496900996873666,-0.03783382228763266,0.3288393965144326
1.255906490922656,-0.273863106593882,0.19928909350997603,-0.028241551527658615,0.3398745785991788
1.2583934344690375,-0.2736972035291817,0.19445501527516962,-0.009072476812477248,0.335864886555403
1.260880378015419,-0.2687427427215756,0.19440879577833448,0.005308191225624981,0.33173124443679547
1.2633673215618004,-0.28294175006523137,0.20393884225567183,0.014900451915380586,0.3490975634086297
1.2658542651081819,-0.2875638149276455,0.20867994866543382,0.02928111122624344,0.35650757650489406
1.2683412086545636,-0.28739734991500676,0.2229973288909184,0.024508151885592966,0.36458976252700864
1.270828152200945,-0.2872307676297402,0.24210258353720704,-0.004206830097814418,0.3756765526993028
1.2733150957473265,-0.28706407734993555,0.2516305065716664,-0.008979802191630526,0.381843335924151
1.275802039293708,-0.30126249831033225,0.25636950524569,-0.008964378347718238,0.3956826710727472
1.2782889828400894,-0.3154608298192454,0.27068479345394003,-0.0041605592365066,0.41569592590090365
1.280775926386471,-0.3057170645395534,0.28978797181234306,0.0006432511514784522,0.42123675757207685
1.2832628699328525,-0.2959732283321911,0.2801602210173435,0.0006586488259330281,0.40754182012174156
1.285749813479234,-0.29580613709181824,0.28010877157232317,0.000674036437422032,0.40738513593166165
1.2882367570256155,-0.30521580006688076,0.28963362742029863,-0.008887393324155113,0.42086020066431173
1.290723700571997,-0.30983701653903906,0.2895811792250411,-0.02323723780768283,0.42473074459015675
1.2932106441183784,-0.3096697957447766,0.2847398342537537,-0.02801028772110392,0.42161206318805183
1.29569758766476,-0.3142909535548389,0.2846864030957019,-0.023206543732982254,0.42469247140255406
1.2981845312111415,-0.3141236925520965,0.28463248638083494,-0.023191216472474352,0.42453171736323
1.300671474757523,-0.3091680219531654,0.27500128142028446,-0.02317590328713237,0.41442453242346305
1.3031584183039044,-0.3137891609284639,0.26058119548748504,-0.023160604844447263,0.40853715935595986
1.305645361850286,-0.3184103120394569,0.25573744249774055,-0.02314532181151918,0.40905069640584685
1.3081323053966674,-0.32303148448059005,0.2556816230862222,-0.018341651534720782,0.41238192071277785
1.310619248943049,-0.32286428411809837,0.25083693456878065,-0.027903207961545107,0.409803736827155
1.3131061924894305,-0.3226971234506913,0.24120338090276494,-0.003945958554666618,0.40289958430257805
1.315593136035812,-0.32731841496867553,0.23156936936657369,0.0008576594971696494,0.40095193376045934
1.3180800795821934,-0.32236295787245395,0.2219349039189189,-0.008703951150543787,0.3914699694119695
1.3205670231285749,-0.3174075679550874,0.1979347785580714,-0.023053984521501647,0.3747762358532272
1.3230539666749563,-0.31724065768017023,0.18829941716549214,-0.018250424677930255,0.3693661914565758
1.325540910221338,-0.3170738328612677,0.19302882370101937,0.0009183243966166543,0.37120989424371725
1.3280278537677195,-0.3073302959819856,0.17860417888244218,0.0009334387972721458,0.3554605953557082
1.330514797314101,-0.31195207275820974,0.16896750327129872,-0.003839872177122672,0.3547941057546142
1.3330017408604824,-0.2974203490519393,0.15933039750715405,-0.013401609188063546,0.3376753510826556
1.3354886844068639,-0.2924655538788411,0.15448126886996416,-0.027751772896417393,0.33191975466402385
1.3379756279532453,-0.31145290628300676,0.15920852463933644,-0.037313557321805746,0.3517706194524683
1.340462571499627,-0.3064983821335885,0.15914695881316243,-0.037298559803490505,0.3473617643227306
1.3429495150460085,-0.2967556037729884,0.16866178531061715,-0.027706781000384595,0.342459270436995
1.34543645859239,-0.29180138689161395,0.17338779812829985,-0.02290343153164187,0.34019986053432477
1.3479234021387714,-0.2868473372073296,0.15895979126198334,-0.027676915375066002,0.3291133873692581
1.3504103456851528,-0.28668186706677445,0.15410818858931385,-0.022873619906178533,0.32628059884520194
1.3528972892315343,-0.2769397755232484,0.15883299406500573,-0.022858755741944847,0.3200719950020483
1.355384232777916,-0.2767746848599099,0.1635574050019759,-0.022843920217320957,0.32229969841930994
1.3578711763242974,-0.27660979742547526,0.16828142535247315,-0.008463904025861169,0.32388772101112673
1.360358119870679,-0.2716567188761684,0.16821665574703548,-0.008449127743118012,0.31963354633220487
1.3628450634170604,-0.27628066813642177,0.1729399067756141,-0.0036459787407032707,0.3259639736266009
1.3653320069634418,-0.27132804087520296,0.17766277906559091,-0.013208070951893802,0.32458808044775
1.3678189505098233,-0.26637565266984214,0.1775968732426021,-0.017981791746617404,0.3206555512621791
1.370305894056205,-0.2662119157636106,0.17753059657104897,-0.01796714177517522,0.32048200417023964
1.3727928376025864,-0.26604843574517484,0.18704075963367472,-0.017952525007292053,0.32571200328040406
1.3752797811489679,-0.27067362482961416,0.19655055972988755,-0.02272634541178853,0.3352802118889672
1.3777667246953493,-0.2705106852566284,0.20606000079752995,-0.0131349903549971,0.34030762956230437
1.3802536682417308,-0.2655596258918679,0.20599228013150617,-0.0035436704445022116,0.33610607250959473
1.3827406117881123,-0.26539726222670335,0.21550101494617957,-0.008317596286932627,0.3419730642145013
1.385227555334494,-0.2700236030967502,0.21543259589088848,-0.0035147519254454807,0.3454508692748298
1.3877144988808754,-0.26507344736132593,0.2105754302138929,-0.0035003479646995572,0.3385530929435702
1.3902014424272569,-0.2601236104657239,0.22487153844196373,0.0013024215932073702,0.34385054576804974
1.3926883859736383,-0.269539311159738,0.2295905045755786,0.0013167494659516166,0.35406916539129885
1.3951753295200198,-0.27416694493493654,0.21994392921381856,-0.022610978268378545,0.35221314857799224
1.3976622730664012,-0.27879492386818927,0.22945063951519762,-0.022596729046250985,0.3617800681521749
1.400149216612783,-0.28342325669956925,0.24374542943193056,-0.01779411678743159,0.37424217747254374
1.4026361601591644,-0.2832635488321301,0.23888628627232755,-0.01777994876996125,0.3709730750933542
1.4051231037055458,-0.2831042122926235,0.23402682722412393,-0.017765822309840473,0.36773927628247927
1.4076100472519273,-0.28773365909065296,0.23395545951063124,0.001401875238995487,0.3708473821704994
1.4100969907983087,-0.2827866879372052,0.23867218703125515,0.006204320000312791,0.3700962271132239
1.4125839343446904,-0.27784011412724513,0.24338861036139203,0.0014299146615410763,0.36937134340366656
1.4150708778910719,-0.2872591562582437,0.2433163300726391,0.0014438685519237993,0.3764608134860928
1.4175578214374533,-0.2966786129877865,0.23845535005300356,-0.017695835560616047,0.3810410686126177
1.4200447649838348,-0.2965216862755296,0.23838248082711466,-0.036835585024119766,0.38224099455846233
1.4225317085302163,-0.2867883847033106,0.22873251631393687,-0.046398573826040845,0.36975528295499716
1.4250186520765977,-0.28663233011555134,0.21908226702978828,-0.04638480259320943,0.36373985526196173
1.4275055956229794,-0.2864767244159304,0.2237969468069987,-0.04158267527150983,0.3659004043656571
1.4299925391693609,-0.28632157612966314,0.21414613959068518,-0.04156899912585921,0.3599536022146374
1.4324794827157423,-0.27659008712204514,0.20928346252458052,-0.04155537145895316,0.3493257689858416
1.4349664262621238,-0.2716474758404307,0.20920891946656983,-0.036753389572179884,0.3448355184140571
1.4374533698085052,-0.27149375075152377,0.20913411094952394,-0.046316667367158004,0.3458195580585029
1.4399403133548867,-0.2665521136614837,0.20905904082183024,-0.03672638222073843,0.3407411612907545
1.4424272569012684,-0.26161097631728203,0.1994069062863626,-0.022347744711517237,0.32970113572456927
1.4449142004476498,-0.26624715376587005,0.20411972778319276,-0.02233436873704342,0.3362309238984329
1.4474011439940313,-0.2613070411117919,0.20883229918481527,-0.00795583499034791,0.3345976602246489
1.4498880875404128,-0.2515790500404142,0.20396781767886019,-0.007942564006816255,0.3239721799644475
1.4523750310867942,-0.2610052054974147,0.20389149704925025,-0.01750615307822656,0.33166538146350216
1.4548619746331757,-0.25606669256357933,0.2038149377932963,-0.017492989533971937,0.327744846780192
1.4573489181795574,-0.2415519228608554,0.19894974040285618,-0.0270566872644995,0.3141025230237246
1.4598358617259388,-0.2557681312318326,0.20844952196579758,-0.041408843557221076,0.33254057269202486
1.4623228052723203,-0.2651965026926836,0.21794907632216942,-0.03660744241682501,0.3452116593488964
1.4648097488187017,-0.25547183551889496,0.22266000394691332,-0.04138290436992875,0.3414028132208688
1.4672966923650832,-0.26011296116694427,0.23215911527008348,-0.04615842337913989,0.3516919211737342
1.4697836359114647,-0.2647546778678648,0.22250439747364803,-0.03178038676491468,0.34729416829390547
1.4722705794578463,-0.255031783830171,0.21284946761638546,-0.02697921504927514,0.3332776390231616
1.4747575230042278,-0.2500979004818566,0.22234794275098757,-0.01738969886989672,0.3350969547725177
1.4772444665506093,-0.25952984258738554,0.23663461668179497,-0.017377048784741334,0.3516441991986224
1.4797314100969907,-0.25938560164594615,0.236555879886569,-0.017364458748632572,0.35148413773280196
1.4822183536433722,-0.26403039569594566,0.24126534939922806,-0.0029867193944799197,0.3576729500043728
1.4847052971897536,-0.27346423279138543,0.25076302896601055,-0.007762654556699999,0.3711132470259664
1.4871922407361353,-0.27811031432198663,0.25068371236570375,-0.022115458185258063,0.3750690124076754
1.4896791842825168,-0.2827570516145652,0.2506042099720589,-0.007737904306601706,0.3779072577452566
1.4921661278288982,-0.28261604933128903,0.26010133215214637,-0.0029372200705193308,0.38410045767831286
1.4946530713752797,-0.28247571875073935,0.26480987266471034,0.0018634005779993856,0.3871953933173289
1.4971400149216612,-0.2919128744474185,0.26472983522258575,0.0018755537347079354,0.3940793443292144
1.4996269584680426,-0.29177391104938044,0.2694380301723047,0.021041255418937865,0.3977079351757877
1.5021139020144243,-0.29163564308180023,0.2741460578924517,0.030630085128304785,0.4014294601653868
1.5046008455608058,-0.2962864817246078,0.26448871211389635,0.021065235643400015,0.3977231477310893
1.5070877891071872,-0.30093803149199705,0.25961960980252385,0.0019235130278349999,0.3974540734407703
1.5095747326535687,-0.3055903001931863,0.2595387546357224,-0.0028530666920971726,0.40094131331102933
1.5120616761999501,-0.2958780856509947,0.25466934364292815,-0.007629714050834124,0.3904593816218464
1.5145486197463316,-0.3005318155454114,0.2545881871274216,-0.007618026299780922,0.3939448584568053
1.5170355632927133,-0.3195514976087426,0.24493007878343942,-0.0028180040088532365,0.4026311516306779
1.5195225068390947,-0.31462991298480814,0.23048342557891566,-0.007594857707083236,0.39009264729678045
1.5220094503854762,-0.3097090859553356,0.2160366344741509,-0.0219485879607344,0.3782502952697822
1.5244963939318577,-0.314365830814789,0.20637811242173854,-0.03630238869360092,0.3778037377997915
1.5269833374782391,-0.30944654190926313,0.19671945972586968,-0.04586785714793429,0.3695396710148759
1.5294702810246208,-0.3093164368003767,0.19184908332350492,-0.05064499388443977,0.3674882913134859
1.5319572245710023,-0.29961031310104835,0.1965553901436774,-0.045845396141604766,0.36125082900724553
1.5344441681173837,-0.2946933883190681,0.18689636718554592,-0.041045871116992316,0.35136762617219053
1.5369311116637652,-0.29456566997413813,0.18202563132300797,-0.036246419365605576,0.3481609790063783
1.5394180552101466,-0.2896503589180083,0.18673158946088275,-0.0458122514014665,0.3476561221989192
1.541904998756528,-0.2847358659358824,0.18664903521452691,-0.05058975449448688,0.34419718034374275
1.5443919423029098,-0.2750337951446927,0.18177797215195257,-0.04100212255322333,0.33221678718156067
1.5468788858492912,-0.27012096059450563,0.18169521047344528,-0.04099137272648257,0.32811396724231273
1.5493658293956727,-0.27478577298710755,0.18640075373024612,-0.03140389227827178,0.333524611501987
1.5518527729420541,-0.2698746263946027,0.19110620214479557,-0.02181648839248851,0.33140587447360287
1.5543397164884356,-0.2697527381030043,0.18623475261067268,-0.01222916161039933,0.32802358937692233
1.556826660034817,-0.2648433087683295,0.18615161861439455,-0.01221871911188721,0.32395015111719105
1.5593136035811987,-0.25035794233831965,0.1908568036728595,-0.026573564754494683,0.31592969652101266
1.5618005471275802,-0.2454502593335417,0.19077350465359144,-0.026563279151538666,0.31200315332380746
1.5642874906739617,-0.25490867028472763,0.1906901283762381,-0.021764669476789678,0.3190844027587498
1.5667744342203431,-0.250002762451382,0.20018348497188265,-0.026542946222264163,0.3213710268256429
1.5692613777667246,-0.2450977529466295,0.20488836796110643,-0.0217444966357192,0.32019521382930377
1.571748321313106,-0.24019364889331649,0.20480478081642683,-0.021734531205014562,0.3164022393420315
1.5742352648594877,-0.23529045738480284,0.2142979369622351,-0.007359437173729333,0.3183384463713641
1.5767222084058692,-0.24475339544574887,0.22379103321223015,-0.007349634986455911,0.331723783082936
1.5792091519522506,-0.23985205018822917,0.23328407301155707,-0.007339915202845049,0.3346704932549974
1.581696095498632,-0.1870676053740803,0.2475654631164228,-0.002541875021043083,0.31030534741938326
1.5841830390450136,-0.1773797310632002,0.252269996992482,-0.021685934879229762,0.30915044904742783
1.586669982591395,-0.19163482091809353,0.24260927473665062,0.007053954513136063,0.30924573246987064
1.5891569261377767,-0.1915256552896712,0.22337170307705145,0.040582162761253926,0.2970250937278891
1.5916438696841582,-0.2153594676233508,0.21849930201357948,0.026226252831888175,0.30791145092873146
1.5941308132305396,-0.22961744152925256,0.2279920749350346,0.016658660740853648,0.32400936200255237
1.596617756776921,-0.2342995838289169,0.21354279865812842,0.011879385982748403,0.31723483675737246
1.5991047003233025,-0.2533479179145546,0.20388189647430277,0.002311621413745968,0.32520507193947434
1.601591643869684,-0.2580320306239078,0.20379777506374186,-0.012044633467107602,0.3290275598550762
1.6040785874160657,-0.26750554196668475,0.2085020344562527,-0.026400975838230423,0.34019013048661034
1.6065655309624471,-0.2721916519994229,0.21320627467183728,-0.05033421283671835,0.3493976873986288
1.6090524745088286,-0.2720903673878603,0.21791049904095328,-0.05032552171458349,0.352208477685281
1.61153941805521,-0.2815669047271179,0.22261471088415385,-0.05031691956532036,0.36244864978944014
1.6140263616015915,-0.29104446397907124,0.2225305101917212,-0.050308406878581735,0.3698075766959265
1.616513305147973,-0.3053114550347236,0.22723470690486502,-0.04072317750110166,0.3827650373053242
1.6190002486943547,-0.3100026744718922,0.222362094353175,-0.04071484519918833,0.3836720706598932
1.6214871922407361,-0.31469493543789395,0.23185469241862933,-0.026341393854027118,0.39176953661173103
1.6239741357871176,-0.31459984108692574,0.2413472944105508,-0.002391227266352658,0.3965189711716848
1.626461079333499,-0.3145058011815004,0.23168629030775012,0.02634725076543809,0.3915183440354761
1.6289480228798805,-0.31441282213138955,0.2220252966412808,0.026355216523413105,0.3858046818109774
1.631434966426262,-0.30953250699350326,0.22194112329127647,0.0263630894560567,0.3817895330927038
1.6339219099726436,-0.3046532654327081,0.22185696684627576,0.021582465772025827,0.37749162733210684
1.636408853519025,-0.30456350708108404,0.21698442720474054,0.002436538362045937,0.3739613726230138
1.6388957970654066,-0.29010962493624554,0.2121119108953251,0.00244413000203636,0.35938980368922857
1.641382740611788,-0.2852336418456007,0.1880858078346419,-0.016701986334370034,0.3420722992246343
1.6438696841581695,-0.28035875738123717,0.1784249444522228,-0.04063660114769618,0.33479520157249437
1.646356627704551,-0.27069657440230677,0.1735525172842176,-0.04062929497512435,0.3241108626056953
1.6488435712509326,-0.2706123090158554,0.1686801261764863,-0.03583368155451794,0.3208863653874355
1.651330514797314,-0.2753175640142076,0.16380777428455184,-0.050191777941618554,0.324271433437663
1.6538174583436955,-0.2608703288748586,0.16372386807355976,-0.06933837462721115,0.3157002433641583
1.656304401890077,-0.25600102956505316,0.16364000735730144,-0.06454305213869738,0.3106129178344704
1.6587913454364585,-0.25113286545574,0.16355619525911091,-0.06453623084474458,0.3065669098439905
1.6612782889828401,-0.24147743920427744,0.1682608382118258,-0.05495270122873741,0.29940417948441633
1.6637652325292216,-0.2318231600746451,0.17296553599681008,-0.050157673693448146,0.2935555252758782
1.666252176075603,-0.22217003397639337,0.17767029170485538,-0.050151148678217794,0.28886224098228014
1.6687391196219845,-0.21251806678486074,0.1919519150564568,-0.04535631997926082,0.28994251527824755
1.671226063168366,-0.20286726434107213,0.2014451991595836,-0.030984784710613056,0.28756799559276025
1.6737130067147474,-0.1932176324516309,0.22051535703309444,-0.02140175326502103,0.29396957533129764
1.6761999502611291,-0.1931459835292534,0.22522037512231208,-0.02618403271240588,0.2978509558366431
1.6786868938075106,-0.20265232331141225,0.22992546642399558,-0.0357548168389048,0.30856456566007173
1.681173837353892,-0.20258304421962323,0.22984223064255715,-0.030960492787480476,0.30793813162010303
1.6836607809002735,-0.2073033618827784,0.2297590741119011,-0.0213778676204317,0.3101949857890307
1.686147724446655,-0.20723647529330547,0.23925280647507785,-0.01658374839749399,0.3169603805037867
1.6886346679930364,-0.21195919668988555,0.23916981744206867,0.002575477746036725,0.3195865074159333
1.691121611539418,-0.22147153163548552,0.23908691663349924,0.026523003755567487,0.32697960602841813
1.6936085550857995,-0.23098508233757886,0.23900410701810992,0.031316812618157996,0.3338529828930439
1.696095498632181,-0.24528825760899323,0.23413298823303696,0.04089892052657795,0.341551324400926
1.6985824421785625,-0.25001585294594575,0.21968515990409276,0.026538907152776403,0.33387693810630176
1.701069385724944,-0.2595330837310796,0.21481423824730017,-0.0021864212661935056,0.33690853201230253
1.7035563292713254,-0.2786283586708781,0.2290970328266786,-0.006969838568782194,0.3607877372573667
1.706043272817707,-0.2881480698346403,0.2338031266323366,-0.006964958434569013,0.37113572021361735
1.7085302163640885,-0.2880922225372097,0.2337209258851356,-0.021325394540493647,0.3715876374899223
1.71101715991047,-0.2928260320185754,0.2288504334741619,-0.016532324037424218,0.37201199398290097
1.7135041034568514,-0.30234950352191947,0.2239800555973197,-0.006950957276702141,0.3763384160465048
1.715991047003233,-0.311874238934156,0.23347500508162256,-0.01652331124764217,0.3899347877827896
1.7184779905496144,-0.3118234367858528,0.2286048648597272,-0.02609577305407207,0.38752423064598746
1.720964934095996,-0.3165623121730273,0.22373484773553587,-0.03566834307841127,0.3892829437279983
1.7234518776423775,-0.3260908701945646,0.2236533598607351,-0.040452618380077965,0.3974826981581061
1.725938821188759,-0.3356207125927736,0.21878359741445674,-0.050025405976747095,0.4037450513158404
1.7284257647351404,-0.3307866344329903,0.20912556320481723,-0.04523309296150657,0.39395346350057775
1.7309127082815219,-0.3259538506660076,0.20425606666889395,-0.021287276385706377,0.3852526465463503
1.7333996518279033,-0.33548757620612246,0.19938670727113772,-0.002129973219831882,0.39027107196281197
1.735886595374285,-0.3258689927279461,0.1801522778236766,0.017027219490181267,0.37274035175997805
1.7383735389206665,-0.31625171839288607,0.17049479768940135,0.04097270470114012,0.36161082389238575
1.740860482467048,-0.31142416136470313,0.16562586629758114,0.045764465450709224,0.3556843012652119
1.7433474260134294,-0.3065979231297584,0.16075708306571412,0.026614098060525393,0.34720805929421256
1.7458343695598109,-0.2969846051375664,0.16067685404012977,0.0026752154565343744,0.3376744939889424
1.7483213131061923,-0.2873726154413536,0.16059677861472332,-0.016475376073199044,0.3296145983171618
1.750808256652574,-0.2825503620573669,0.16051685949187489,-0.026049273558163222,0.32600449986586294
1.7532952001989555,-0.2777294463241859,0.16522550268242675,-0.035623283986032206,0.3251186405824018
1.755782143745337,-0.25854466290265216,0.1747227108650482,-0.04519740770108349,0.3153033048833698
1.7582690872917184,-0.2537264362992527,0.1794316800658975,-0.06434845168545777,0.31735399087250343
1.7607560308380998,-0.2536979644207386,0.17935241293986026,-0.05955759303568975,0.31634957257246504
1.7632429743844813,-0.23930563849594183,0.17927331545022085,-0.06434365532991393,0.3058532593085769
1.765729917930863,-0.2297030762788402,0.17440598690770504,-0.049976218979415066,0.29270902614147676
1.7682168614772444,-0.23925549216568545,0.17432723657202898,-0.04518570423641677,0.2994577162298969
1.770703805023626,-0.23444406731213305,0.18382547037063368,-0.04997211142849167,0.30208117481144414
1.7731907485700074,-0.21048040275818544,0.1789586742971081,-0.04997023091943653,0.28075831426614634
1.7756776921163888,-0.20567172938907335,0.16930365757523758,-0.04518006303119115,0.2701959045465862
1.7781646356627703,-0.21522964816957585,0.17401403605742827,-0.0356016080828816,0.2790558379505479
1.780651579209152,-0.2152121467455329,0.18830140898250836,-0.035600076351729015,0.2881684475577914
1.7831385227555334,-0.2104076326469095,0.1882237622960221,-0.026021854869947347,0.28350783675203556
1.7856254663019149,-0.2103929166861895,0.1977231151346004,-0.02602055722942076,0.2898908053884805
1.7881124098482963,-0.21037959967707107,0.2215878733415706,-0.016442570456693062,0.3059920255424117
1.7905993533946778,-0.21036768571566775,0.22629921618569337,-0.01644150813795342,0.30941270437633217
1.7930862969410595,-0.21514558218046007,0.2357991627674032,-0.030805773895611566,0.32068343019071777
1.795573240487441,-0.2199248897713082,0.24529931225317148,-0.040381754747665255,0.33191775464608936
1.7980601840338224,-0.224705612470347,0.25001126379737393,-0.030804241029562363,0.3375605805876054
1.8005471275802039,-0.22948775422162304,0.25472342318290364,-0.01643844299576891,0.3432475405065939
1.8030340711265853,-0.21990610897011695,0.2642241961805394,-0.016437974218181495,0.344155966977222
1.8055210146729668,-0.22469110050544244,0.26893677858799325,-0.016437625023646874,0.350832263396701
1.8080079582193485,-0.23905432933681472,0.2640727695111633,-0.01643739569706426,0.35658321321855874
1.81049490176573,-0.2486305892945553,0.2687857846453605,-0.011648883200143345,0.3663313587999129
1.8129818453121114,-0.24863148081132064,0.27349901975187985,-0.006860491132330893,0.369684180611297
1.8154687888584928,-0.26299902420329513,0.2734240739001699,0.0027161835504472265,0.37938975812893355
1.8179557324048743,-0.2725796098654728,0.2637725461475111,0.002715930613920392,0.37931909534671976
1.8204426759512558,-0.2725848381153677,0.26369805214057696,-0.006861250212351067,0.37932338898042145
1.8229296194976374,-0.28216832583360274,0.2588353842716722,-0.0020733425943397776,0.38290863009903015
1.825416563044019,-0.2869648666201178,0.24439614156155987,-0.0020739600779116074,0.37693846977309803
1.8279035065904004,-0.28218606067695884,0.23474553630004502,-0.006863102924770104,0.3671260571451338
1.8303904501367818,-0.28698552476916894,0.2298835708038185,-0.016440771393703812,0.368072610386279
1.8328773936831633,-0.2869980523810106,0.22981024737736755,-0.01644175577963125,0.3680366329637
1.8353643372295447,-0.29180045355968265,0.22016035835204129,-0.016442862976107975,0.36590771490935636
1.8378512807759264,-0.28223911839185034,0.2152991159688562,-0.0068672865924988,0.3550489950876124
1.8403382243223079,-0.287044470128615,0.21522652249567864,-0.0020802368368073587,0.35877752326796813
1.8428251678686893,-0.2870628987792354,0.2055773702272239,-0.0116585205937767,0.35327479970628267
1.8453121114150708,-0.2822944075954718,0.20550527468817847,-0.016448524823339028,0.34956130285431486
1.8477990549614522,-0.28710420975124473,0.20543343146913395,-0.021238653084049375,0.3536704714941505
1.8502859985078337,-0.2823386951394873,0.20536184278908465,-0.0356057122518294,0.35093645007573254
1.8527729420542154,-0.27757467353617593,0.20050210753448638,-0.045184492598087544,0.34538447111274706
1.8552598856005968,-0.2871773579987432,0.1908542278998846,-0.04518659103190359,0.3477614114065618
1.8577468291469783,-0.28720473498324706,0.18599501270821506,-0.049977217740647006,0.34580113771100046
1.8602337726933598,-0.2824452108287142,0.18592446412956143,-0.06434477626809176,0.34421425553705964
1.8627207162397412,-0.28726399847586837,0.19543098764208766,-0.06434725023320098,0.35334748387908427
1.8652076597861227,-0.2825074875843043,0.19536097211016434,-0.05477304317382625,0.34781672792369556
1.8676946033325044,-0.272964084376199,0.1857144196671774,-0.045198961945139615,0.3332299254157276
1.8701815468788858,-0.26342219503475256,0.1712797357545992,-0.016471393477511143,0.3146415540264565
1.8726684904252673,-0.25867022570414455,0.16163372912197183,-0.0021091612217229994,0.30502491146915733
1.8751554339716487,-0.2587081791692168,0.16156480518629124,-0.016477475344354175,0.30545804202485755
1.8776423775180302,-0.26832446149607897,0.16149615939138906,-0.021269109485553273,0.3138971187405806
1.8801293210644117,-0.27315386543052755,0.16621619712979596,-0.016484063844981023,0.3201758622207105
1.8826162646107933,-0.2636195869995876,0.1709365171411874,-0.030852758541170644,0.3156999718907057
1.8851032081571748,-0.24929843547244732,0.1708687181530033,-0.04043317716623562,0.3049273201732122
1.8875901517035563,-0.25413243004010844,0.18037801216170646,-0.035648513270240656,0.31367233822554047
1.8900770952499377,-0.25896795997164657,0.1898875945499734,-0.01649876704087916,0.32154923755114184
1.8925640387963192,-0.25901662445793194,0.1993974673288701,-0.006925955264412309,0.32695096051101274
1.8950509823427006,-0.25906682929131103,0.19933082585662243,-0.0069300781225454244,0.32695018910916845
1.8975379258890823,-0.2495417702640305,0.19447607544016732,-0.01651113579397645,0.31680381410318115
1.9000248694354638,-0.254383466371349,0.20398683133515627,-0.00693870853251255,0.3261437121843067
1.9025118129818452,-0.26401511332715866,0.21828628886315338,-0.01652002307334577,0.3429661719953505
1.9049987565282267,-0.2640715034858417,0.22300924001318423,-0.021313062984576803,0.34629629905373727
1.9074857000746082,-0.2689178490844548,0.21336728340269362,-0.0021642151516108044,0.34328864095696127
1.9099726436209896,-0.26418894239897117,0.21809084087909625,0.012196100340029048,0.34279462805700767
1.9124595871673713,-0.2690383989083306,0.2323915110354151,0.0026142700484701464,0.35551977286273095
1.9149465307137528,-0.26431260748975216,0.22753887585091181,-0.0021792862620255704,0.3487690407564013
1.9174334742601342,-0.2643767802234087,0.2178981471754522,0.012180641214882826,0.3428163538750701
1.9199204178065157,-0.26444251586898915,0.222622940167021,0.01696363240575316,0.34609042534015166
1.9224073613528971,-0.26450981646725524,0.2273480467292246,0.0025928805214139317,0.34879693288292124
1.9248943048992788,-0.2741554906603443,0.21770825875348088,0.0025872086585376763,0.35009257723826354
1.9273812484456603,-0.2838027337698982,0.217645594681513,0.007369810034012048,0.35772602740012444
1.9298681919920417,-0.2790863377580024,0.21279484638036372,0.002575474547434453,0.3509664708178844
1.9323551355384232,-0.279159917789667,0.19357920902521242,-0.00221899129699743,0.3397176677618293
1.9348420790848047,-0.28402347570940223,0.188729104341554,0.002563219007937434,0.3410199109601919
1.9373290226311861,-0.28888861000215266,0.18866772748021576,-0.021385121230622417,0.345701408431573
1.9398159661775678,-0.29375532243391483,0.1981834835407934,-0.030968382257185567,0.35570763740218503
1.9423029097239493,-0.29383521141112423,0.19333435768884977,-0.03576337083666559,0.3535481919365181
1.9447898532703307,-0.2939166819415824,0.19327396496059368,-0.03577008709029883,0.353583569450824
1.9472767968167122,-0.2939997356735282,0.21236751705977008,-0.04535374109722312,0.3655034455511331
1.9497637403630936,-0.29408437421595,0.20751938583422236,-0.05972592965228607,0.3648521636606114
1.952250683909475,-0.2893821958182762,0.19309478296339444,-0.059733039586342684,0.3529811418227766
1.9547376274558568,-0.28468160533131615,0.1882473234349007,-0.05016347432876955,0.34495948363706785
1.9572245710022382,-0.27998260424632737,0.18818860562265272,-0.04059404062620686,0.33978388146160793
1.9597115145486197,-0.28007359733564197,0.18813022788842693,-0.031024738581635347,0.3388166716292715
1.9621984580950012,-0.2753777793714254,0.16891857862092685,-0.03103237493560762,0.32454493659429634
1.9646854016413826,-0.2658951517272467,0.15449567607955217,-0.021463336503764197,0.30826907151579
1.967172345187764,-0.2564141190577622,0.15443832855062478,-0.01668283334086773,0.29979612189946375
1.9696592887341458,-0.2612998926190424,0.16395813434742212,-0.016690865537700716,0.3089312038202163
1.9721462322805272,-0.26139886038576665,0.1734782884507835,-0.007122223221063706,0.31380695791903884
1.9746331758269087,-0.25192262025435375,0.17821038914975906,-0.01191892307721254,0.3088138761844234
1.9771201193732901,-0.24723638336327883,0.17336603472128775,-0.016715755226851314,0.3024252432029128
1.9796070629196716,-0.24734015085090377,0.1733104367114522,-0.026301123068883214,0.30315904533882315
1.982094006466053,-0.24744552049610175,0.18283200001361433,-0.040675026678862025,0.31034059295859306
1.9845809500124347,-0.25234089667920867,0.18277711290747733,-0.040683852848028224,0.31422695145741364
1.9870678935588162,-0.24766107046015884,0.1827225835825259,-0.04548121492706869,0.3111142704598861
1.9895548371051976,-0.24777125278161724,0.1730916069349071,-0.04070190302144461,0.30497203643260073
1.992041780651579,-0.2526714445861807,0.17303779777055173,-0.021557513874165934,0.30700108268699083
1.9945287241979606,-0.2479964368163876,0.17777275428174777,-0.0215668707876997,0.3058929792494698
1.997015667744342,-0.25289984361785384,0.18729647796901894,-0.03594157049896296,0.3167492668522945
1.9995026112907237,-0.26738166581585004,0.20160897032081015,-0.0359511931402583,0.3367961110471503
2.001989554837105,-0.2722882909153111,0.21113342617286834,-0.03596094872365363,0.34642665435872627
2.0044764983834864,-0.2676197196633505,0.21586984698949374,-0.04075924061753078,0.34623896500491613
2.006963441929868,-0.2629527594086484,0.2206066375432294,-0.03598085890597247,0.34511746466437165
2.0094503854762498,-0.2726526207811518,0.23492060591486208,-0.03599101359186818,0.3616939255248926
2.011937329022631,-0.2727772878092771,0.2492349468918662,-0.026424494753181094,0.37043725706216085
2.0144242725690127,-0.27769197104492327,0.25876125856996346,-0.016858109066376414,0.37994001574040587
2.016911216115394,-0.28739667104004935,0.26349954235312767,-0.021657066525168744,0.3905097743663859
2.0193981596617756,-0.2875261783466895,0.2682382029535857,-0.021667753878034546,0.39381788724807865
2.0218851032081573,-0.2876573000794679,0.2729772417511982,-0.002524961190706776,0.396572404778895
2.0243720467545385,-0.2877900366734272,0.27771666011375906,0.0022524882710168725,0.3999433987661814
2.02685899030092,-0.7188806873527939,6.722858925217325,-0.25154397484935664,6.7658625423744825
2.0293459338473014,1.0814229936193567,4.773930552078024,-0.13184511228810436,4.89665924287436
2.031832877393683,3.0493191748690154,7.967747728549213,-0.2707201623408473,8.535610154073513
2.0343198209400644,5.117770209633486,4.49131946474124,0.016572549785619728,6.809096643636505
2.036806764486446,6.76005173243754,1.2591001564922997,0.27034630533299264,6.881621883983304
2.0392937080328277,8.000105759680878,-1.65708414509694,0.4762358943350016,8.18379011565325
2.041780651579209,8.866662711123237,-4.209349405541516,0.643818123430151,9.83620007049537
2.0442675951255906,9.369299393280624,-6.388118816928216,0.7922466059004147,11.367474997759254
2.046754538671972,9.517592612708635,-8.16945036139576,0.8784257118668481,12.573627960141975
2.0492414822183536,9.373791612525025,-9.53419042441663,0.9167206512973731,13.40183319537284
2.0517284257647352,8.976203619284654,-10.496704214716285,0.9167082308425964,13.841726220619886
2.0542153693111165,8.363135859581154,-11.090510554313816,0.8736000471952554,13.917781533118628
2.056702312857498,7.587260770007829,-11.310821038677881,0.8161265202933325,13.644312406941731
2.0591892564038794,6.6725203672748234,-11.195942893172028,0.7490760534762941,13.054990626299132
2.061676199950261,5.6859522980137855,-10.798548553132814,0.6628718401257245,12.222033524176192
2.0641631434966428,4.651498579012043,-10.171310453908728,0.5623022835871652,11.198579340187369
2.066650087043024,3.60746643705726,-9.323805400978129,0.46652099717022466,10.008236762317537
2.0691370305894057,2.5682210823730562,-8.289552216432126,0.3707395775858924,8.686189228383686
2.071623974135787,1.5816465484646007,-7.159530562218276,0.27016962154826984,7.33712990889592
2.0741109176821686,0.6860500622348472,-5.9576824538117075,0.16481112909480622,5.999317262540949
2.07659786122855,-0.13772198921842582,-4.712738310019972,0.04508729362538233,4.714965809959882
2.0790848047749315,-0.8753043955166977,-3.46300535630336,-0.05069465825395447,3.5722729222404186
2.081571748321313,-1.493178332961665,-2.2467908181342784,-0.13211153313721447,2.7009450145581533
2.0840586918676944,-1.9913438010586995,-1.0928251143566388,-0.19916333097474137,2.2802155373973894
2.086545635414076,-2.3793776059153084,-0.034627067146801416,-0.2662152616747804,2.3944743454167607
2.0890325789604574,-2.6668565536005318,0.9278033245489179,-0.3332673251815681,2.8432393491508603
2.091519522506839,-2.848992240184026,1.775312448490804,-0.3524354882331746,3.375307667126267
2.0940064660532207,-2.9305730683376514,2.483958289106771,-0.34287336404900515,3.856924867645528
2.096493409599602,-2.940329457296428,3.058529250734031,-0.3428881791266605,4.2564904320843455
2.0989803531459836,-2.8591077930538966,3.503813737698156,-0.3285379167966411,4.5342193642960105
2.101467296692365,-2.720426898088621,3.815023347671812,-0.299822576987955,4.695212373130401
2.1039542402387466,-2.533863578239366,4.006523291596345,-0.27589577290783396,4.748558938956157
2.106441183785128,-2.2946294293455973,4.073525167119966,-0.2519691011589096,4.682138393204271
2.1089281273315095,-2.0362432737709715,4.025605781839499,-0.20410054505950548,4.515910275155023
2.111415070877891,-1.7634935139192152,3.8819187499802745,-0.16102052444836978,4.266747023714576
2.1139020144242724,-1.4620149388742887,3.642464072473982,-0.11794063591900006,3.926696091417862
2.116388957970654,-1.1749031775258998,3.3407605734823584,-0.07964928270247995,3.5422341388069833
2.1188759015170353,-0.9069466321630875,3.000750270514293,-0.04135806138624787,3.1350861022985
2.121362845063417,-0.6485684950756192,2.6176447611442963,-0.007855375195299885,2.6968067960590525
2.1238497886097987,-0.4093455717966491,2.210597659536445,0.020858775968672916,2.24827509394034
2.12633673215618,-0.19406626450089698,1.7796089665613501,0.059149602167954285,1.791136082021552
2.1288236757025616,-0.007518975324845079,1.3486206996784817,0.0878634902257005,1.3515007656327298
2.131310619248943,0.14071949031258255,0.9415748763353102,0.10221203692900538,0.9575032758131243
2.1337975627953245,0.2602259403117439,0.5488946907247234,0.11177204902893934,0.6176535537508455
2.1362845063417057,0.36057718261096033,0.18494535362883946,0.11654352663897605,0.42166702746361856
2.1387714498880874,0.4226196052646091,-0.1406963275028783,0.10216125991467528,0.4569898361606799
2.141258393434469,0.46071841960715415,-0.4232419485536303,0.10214407221775623,0.6338995351552278
2.1437453369808503,0.46529682040936315,-0.6626915087392944,0.09254994706920705,0.8150010181225165
2.146232280527232,0.45550842240171197,-0.849468200647499,0.07337888459460018,0.9666791647152346
2.1487192240736133,0.41698801711028777,-0.9931488301595095,0.07336130484439707,1.0796321069277461
2.151206167619995,0.3736776226614431,-1.0985217998486803,0.0733435946689518,1.1626540299244894
2.1536931111663766,0.32078883729737256,-1.1703755123007815,0.049383737601322863,1.2145464468135392
2.156180054712758,0.2535332592980132,-1.1895563535124296,0.015846943740109865,1.2163776376512205
2.1586669982591395,0.17191089030119988,-1.1704295327348837,-0.008113173492795056,1.1830149909812107
2.161153941805521,0.09507534526368615,-1.112995049270897,-0.03686182391466808,1.1176565192584222
2.1636408853519025,0.027815029218860005,-1.022041305755997,-0.051245394097582775,1.0237031781420265
2.166127828898284,-0.05860047600453344,-0.9119335114788016,-0.06084069053247809,0.9158375045664401
2.1686147724446654,-0.13065234537617937,-0.7874600690997877,-0.07522451970729804,0.8017618874354983
2.171101715991047,-0.19791738371110876,-0.6390441713309867,-0.08482007482573017,0.6743464901522067
2.1735886595374283,-0.24603037918536266,-0.48583943081881054,-0.08962735572910674,0.5519093792602469
2.17607560308381,-0.2941449431797831,-0.3326342502612505,-0.08964636225573486,0.45299366696543175
2.178562546630191,-0.34226107375661696,-0.18421703236882658,-0.0896654975612563,0.3988965518486182
2.181049490176573,-0.3855903656204955,-0.03579937322397475,-0.0848963581576836,0.3964453516072733
2.1835364337229546,-0.4193444134387895,0.1030419211173772,-0.08012734719467929,0.43918989783274714
2.186023377269336,-0.4435232151619653,0.23709525454767677,-0.08493527113919974,0.5100401968473897
2.1885103208157175,-0.44854996206269127,0.3472070143452486,-0.08495491985367742,0.57355655142656
2.1909972643620987,-0.44878986197807,0.4477424110179484,-0.07539788983818063,0.6384124439815619
2.1934842079084804,-0.4490313160674966,0.5387014451001999,-0.06105258423040283,0.7039572343570042
2.195971151454862,-0.44448591881270305,0.6009305038325068,-0.06107261612601178,0.7499433757955587
2.1984580950012433,-0.43515366797875316,0.6631600076458386,-0.056304372055198115,0.7951792834378433
2.200945038547625,-0.42103456129375205,0.7062363437555148,-0.05153625514675042,0.8238299949865451
2.2034319820940063,-0.41170540308955333,0.7253711093250357,-0.04676826520616295,0.8353752784269824
2.205918925640388,-0.39758938437990776,0.7301411114662395,-0.037211998715672934,0.8322067616122599
2.208405869186769,-0.36910969614177347,0.7205463506376608,-0.027655858795151644,0.8100579347977653
2.210892812733151,-0.350208352557552,0.696586827285159,-0.02288824856153049,0.7800019038890179
2.2133797562795325,-0.3313085445307654,0.6678393484825293,-0.00375555452721521,0.7455124755833871
2.2158666998259138,-0.32198707620954536,0.6295155113299309,-0.0037765997251053562,0.7070924401776896
2.2183536433722955,-0.303090331783561,0.5816153162351236,-0.008586173982029877,0.6559068894924047
2.2208405869186767,-0.293771921968448,0.5337155702337752,-0.003819067121876074,0.6092362738057224
2.2233275304650584,-0.29403184416211237,0.48102787038788275,-0.0038404888874605803,0.5637883351277935
2.22581447401144,-0.2847164824447864,0.4331290237076373,-0.027804052338977314,0.519073493717539
2.2283014175578213,-0.27061423746189706,0.3756538205889166,-0.03261412736961766,0.4641244873352575
2.230788361104203,-0.266090316463185,0.31817906801640117,-0.023059117072770974,0.41541990650357535
2.233275304650584,-0.2615679100605759,0.27506997628231167,-0.023081037820146477,0.3802814717183366
2.235762248196966,-0.2618354187907377,0.21759612578327614,-0.018314679418031332,0.340941766246668
2.238249191743347,-0.2621044365135782,0.16969953342656918,-0.01833684827135329,0.31278252395206196
2.240736135289729,-0.29110538029511723,0.1409570061457286,-0.018359140821193165,0.32395721641911945
2.2432230788361105,-0.2913774073997353,0.11221493093960744,-0.02795836346665581,0.31348788550198525
2.2457100223824917,-0.2916509348214851,0.0882617113958144,-0.03276930600237904,0.306470593853051
2.2481969659288734,-0.2919259595966545,0.06909734776879839,-0.023215161540402818,0.30088893811580514
2.2506839094752547,-0.29699088204601753,0.04993343697988939,-0.018449543111735522,0.3017239098714715
2.2531708530216363,-0.29726889249364846,0.04513518921880699,0.000681162818015224,0.30067664314509446
2.255657796568018,-0.3071251978294878,0.040337394740549204,-0.008918673377939612,0.3098911668490718
2.2581447401143993,-0.3121945849859661,0.04032845706850363,-0.037672244800042165,0.3170347636653748
2.260631683660781,-0.3076886475005831,0.04989677971319395,-0.02333030802246583,0.3125800628621541
2.263118627207162,-0.307972592156584,0.08340757281289557,-0.004200089343019187,0.319094941158072
2.265605570753544,-0.29389280245960286,0.1025536099695672,-0.004223605095724281,0.31130059604079446
2.268092514299925,-0.29896809840335226,0.11691169797540413,-0.009035645049230823,0.32114157604997884
2.2705794578463068,-0.31362167006344477,0.11690503032845712,-0.028213015570891287,0.33588883919696566
2.2730664013926885,-0.3378535141209018,0.11689881711543881,-0.01866008650176809,0.357992359241206
2.2755533449390697,-0.33814480397941266,0.13125826841015398,-0.013895680805068977,0.3629927429430839
2.2780402884854514,-0.3144955362497872,0.14561817435161695,-0.03307341148022047,0.3481464427069148
2.2805272320318326,-0.31478974071094623,0.1695553416674942,-0.023520841719136598,0.3583222358995073
2.2830141755782143,-0.3055085906616014,0.18870456047095097,-0.013968391156181426,0.3593605794492
2.285501119124596,-0.30580569588903794,0.19827742750286426,-0.028358076102605878,0.3655615438959267
2.287988062670977,-0.30610424622390053,0.20785074945210358,-0.023594266382454876,0.3707538712005981
2.290475006217359,-0.2968274314621416,0.21742452635398601,-0.0284073816216317,0.36903513119927284
2.29296194976374,-0.29712886128697463,0.21742195159025446,-0.023643808240100483,0.3689402321665446
2.295448893310122,-0.30222012874551674,0.22220823513127064,-0.004515142615952428,0.3751451618933038
2.2979358368565035,-0.29294761688949206,0.22699497365319532,0.00982500227395633,0.3707311087226572
2.3004227804028847,-0.2836765319784465,0.22699376381923608,0.009799820096198175,0.36344818073840945
2.3029097239492664,-0.29356048355793796,0.22220460559995736,0.00019771448107341882,0.3681747999899219
2.3053966674956476,-0.2890806446158878,0.2174159022732769,-0.004616104297697987,0.3617438348772893
2.3078836110420293,-0.27981381798890176,0.21741605710414635,-0.019006845885501278,0.3548616277012138
2.3103705545884106,-0.2801252097998653,0.21741666670393478,-0.023820896682755333,0.3553977704556388
2.3128574981347922,-0.2804380095361466,0.21262932767104026,-0.038211869649623864,0.3540012078518297
2.315344441681174,-0.2807522132918747,0.20305403991121507,-0.028660941220080005,0.3476696678517879
2.317831385227555,-0.28585622044771464,0.18869080331723342,-0.023898530989391986,0.3433498766689836
2.320318328773937,-0.2909616237100182,0.1839048277298474,-0.0382898485891392,0.346331870666409
2.322805272320318,-0.28170320911091473,0.17433090305496313,-0.047892877085651264,0.33472629036107693
2.3252922158666998,-0.2868113925318378,0.1695458357870816,-0.05270761614409558,0.3373198157807888
2.3277791594130814,-0.2919209599379975,0.16476122244679292,-0.04794566210657436,0.3386190983806455
2.3302661029594627,-0.2970319072222104,0.15997706286204227,-0.04318382127343234,0.34012564879733104
2.3327530465058444,-0.30214423024407244,0.16477016348842133,-0.02405688334071243,0.34499141479441603
2.3352399900522256,-0.3024695215097287,0.1599869108466878,-0.01929526788457636,0.3427184419422565
2.3377269335986073,-0.302796180132912,0.15041570804619564,-0.019322167915984068,0.33864990492113645
2.3402138771449885,-0.3031242018741006,0.15521016814426813,-0.019349179763525015,0.34109949987460214
2.34270082069137,-0.30824198578124173,0.15521667762277858,-0.009799496432792765,0.34525551254245473
2.345187764237752,-0.32293793086953704,0.16480044619282364,-0.009826730848585541,0.3626908585818261
2.347674707784133,-0.32327001619966794,0.17917307027129725,-0.01943088265177728,0.37011356592916705
2.350161651330515,-0.32360344736227076,0.1839693396215183,-0.0003047249180720968,0.3722418594446347
2.352648594876896,-0.31436141331397605,0.18397765727511306,0.004456112834159143,0.36426739285693716
2.3551355384232777,-0.30990911958063644,0.19356323289139077,-0.0003599657076893692,0.3653909099880876
2.3576224819696594,-0.30545815837461676,0.20314925951516427,-0.009964556853578443,0.3669790192265223
2.3601094255160406,-0.3010085251964656,0.20794733349862238,-0.02435766023115349,0.3666626806235874
2.3625963690624223,-0.3061370221553249,0.20795745450134673,-0.03875087214512796,0.3721126298700672
2.3650833126088036,-0.3016900314065458,0.217544832130931,-0.05793259553822416,0.3764290300478339
2.3675702561551852,-0.30203275831584997,0.22713265938049876,-0.0675376200693254,0.38389368603529656
2.3700571997015665,-0.2975883916157013,0.21756732258963973,-0.06277754203533625,0.37394573198158415
2.372544143247948,-0.2979337332882114,0.20800243464753798,-0.048440764371203926,0.36657336223902154
2.37503108679433,-0.293491972002763,0.2080148017898673,-0.05325770661087681,0.36365378962304057
2.377518030340711,-0.2938399096786163,0.22239282691910134,-0.06765156172320808,0.37466944869924446
2.3800049738870928,-0.2894007349225227,0.21282928304202553,-0.06768031271358055,0.36555398209141005
2.382491917433474,-0.2897512495913388,0.20326618631661875,-0.06292076582699835,0.3594884586627235
2.3849788609798557,-0.2901030455499536,0.2032803429270622,-0.058161323985604696,0.35897829247137064
2.3874658045262374,-0.2856677146323423,0.21287175240406508,-0.0581903901090044,0.36097998234788736
2.3899527480726186,-0.29081046192293,0.217675204304558,-0.03906594719241596,0.36534828255091006
2.3924396916190003,-0.29595447587390356,0.2129022948132726,-0.0103648014707165,0.36472437269269786
2.3949266351653815,-0.2867345415865727,0.20812983006306052,-0.010394179098158318,0.35446122842994415
2.397413578711763,-0.28230426737399805,0.2177230194942732,-0.0008468531014962366,0.3565104903862563
2.3999005222581444,-0.28745205155797726,0.2273166526126067,0.008700370291895965,0.36657501134570897
2.402387465804526,-0.28302427582855083,0.22733392223128446,0.018247491497733748,0.36347823023022324
2.404874409350908,-0.28817454840818335,0.21777482779138735,0.018217704293592263,0.3616660486132996
2.407361352897289,-0.2837492509268883,0.22736978864311608,0.02297621906107139,0.36433304109225095
2.4098482964436707,-0.27453678158641537,0.2321767876004972,0.013369422942034248,0.3597988974609518
2.412335239990052,-0.27969074851975173,0.22261901742576606,-0.0010258769973372495,0.3574733474691032
2.4148221835364336,-0.28005753326781163,0.2274268974309468,-0.020209680329047686,0.3613359196013041
2.4173091270828153,-0.2852139372639384,0.22744681371224384,-0.03939358330236509,0.3669208327185175
2.4197960706291965,-0.28079474531060056,0.2370439755953626,-0.04900077884382803,0.3707244417183761
2.4222830141755782,-0.29074196874357616,0.23706476915116426,-0.049031266518211325,0.3783314185445947
2.4247699577219595,-0.31026719894771715,0.23229759703941966,-0.04906185252849937,0.39068526169626505
2.427256901268341,-0.301063204036765,0.23231926522758517,-0.03472732647374244,0.3818602899291595
2.429743844814723,-0.29664880190035997,0.22755296638925415,-0.025181301192802152,0.374719844832417
2.432230788361104,-0.2970239871573003,0.22278710314636863,-0.02521217956124744,0.37214647153157226
2.4347177319074857,-0.3021887543978649,0.2132332714676619,-0.039608364452297096,0.37196141450414005
2.437204675453867,-0.3073546948636373,0.20846827727025286,-0.04442783881495238,0.3740317686300376
2.4396916190002487,-0.30294499644764317,0.20849211981809557,-0.04445900551776916,0.370433851140166
2.44217856254663,-0.30332486361636324,0.20372799172200207,-0.034913460786350825,0.367055877548699
2.4446655060930116,-0.3132826941676843,0.1989642955412263,-0.030156414125245945,0.37234694396231127
2.4471524496393933,-0.3184532725904228,0.20856624046316474,-0.025399461755457153,0.3815199813141583
2.4496393931857745,-0.333201803267574,0.21816861574089064,-0.025431006536328127,0.3990836036327604
2.452126336732156,-0.33358626399209745,0.2181946139353541,-0.02067424136399154,0.3991442212165675
2.4546132802785374,-0.32918345577173863,0.22300944419666013,-0.006340762452623494,0.39766212419993946
2.457100223824919,-0.32957017958698814,0.22303629906096534,-0.011160989256339349,0.39810333037164125
2.459587167371301,-0.320381219789665,0.2230635810130024,-0.020769711344204467,0.39093844538185224
2.462074110917682,-0.3207701839468131,0.2326680958454701,-0.020801718283046,0.3968131363969147
2.4645610544640637,-0.3259486629970981,0.24227303605751116,-0.02562221955936117,0.4069339664432893
2.467047998010445,-0.32155144121189816,0.23751319081566624,-0.0256544080558907,0.4005820687569353
2.4695349415568266,-0.32673212607825886,0.2423305758367018,-0.016109879973488006,0.4071087304759343
2.472021885103208,-0.33670230845529436,0.23757157694234632,0.003011365168845259,0.41208951334652705
2.4745088286495895,-0.3323083692149763,0.2232361932233573,-0.0018094953878904363,0.4003330169855241
2.4769957721959712,-0.32791551244539907,0.21847803703956714,-0.006630444556797954,0.3940878059087999
2.4794827157423525,-0.33310053888843405,0.2089318974964578,-0.01623988517072128,0.3935381057402113
2.481969659288734,-0.33349823265864154,0.20896298360926124,-0.021061010099437283,0.3941194816952473
2.4844566028351154,-0.3338969911262345,0.1994176811389199,-0.02588222217154268,0.38977493718620976
2.486943546381497,-0.33908521163598637,0.18987279575618077,-0.04028032753384991,0.3907082851754288
2.4894304899278787,-0.3346976782261383,0.19469353644006127,-0.03552490576857359,0.38883174750960225
2.49191743347426,-0.3303111915113742,0.18993788559506974,-0.01640435969805054,0.3813803700232781
2.4944043770206417,-0.3355025520814108,0.1851826488559194,-0.006860705423777702,0.38327750412637884
2.496891320567023,-0.3263297372589784,0.18521622852506114,-0.021259152404590864,0.3758298821136009
2.4993782641134046,-0.31236954758435453,0.17567341361177702,-0.02608087689414873,0.3593272806893968
2.501865207659786,-0.31277559021396445,0.17570781635565158,-0.016537475065964813,0.3591313055746082
2.5043521512061675,-0.31318264903773296,0.17095422574222807,-0.021359366333729923,0.35744222118769764
2.506839094752549,-0.308802314562062,0.17577785066710438,-0.026181340226322902,0.35628946776473763
2.5093260382989304,-0.30921138723030867,0.1710250767719077,-0.011849782950323018,0.3535557611377569
2.511812981845312,-0.3191982641417028,0.16148430628807553,0.0024816927271658074,0.35773016619682685
2.5142999253916933,-0.3196093257702645,0.17109755471657895,-0.0023405259589868166,0.3625327190904022
2.516786868938075,-0.31523296916809795,0.17113440102327093,-0.011951228529772706,0.358889453630919
2.5192738124844567,-0.32522280132493897,0.16159484408423808,-0.0215620111448942,0.36379621281819646
2.521760756030838,-0.34000200928550056,0.1759977060061333,-0.04074967992304046,0.3850157077983042
2.5242476995772196,-0.3404169734309206,0.17603575907936664,-0.06951423434039583,0.3894926610996007
2.526734643123601,-0.3312560907210964,0.1760742121062413,-0.07912525394938896,0.3833973547394559
2.5292215866699825,-0.336461371374559,0.1856898705572556,-0.06958273822241168,0.39054927975013337
2.5317085302163638,-0.33687919570458313,0.18572911996957409,-0.05046349327063915,0.3879812658574059
2.5341954737627455,-0.33250955728342446,0.18098036247050597,-0.05049793848463224,0.3819247819610196
2.536682417309127,-0.3281408529815627,0.18102040349629167,-0.040955653409383785,0.37699094342386713
2.5391693608555084,-0.3285614796475593,0.176272435190584,-0.012259830869275845,0.3730615509123868
2.54165630440189,-0.32898302746761876,0.16673645632636402,-0.012294503530661416,0.36902849896329004
2.5441432479482713,-0.32940548992670227,0.1715660789466047,-0.02190605757371067,0.3720521087124572
2.546630191494653,-0.3346172638087085,0.17639609184088112,-0.012364072536197313,0.3784668608283211
2.5491171350410347,-0.33982993923571636,0.16686128378759202,-0.031552581079138164,0.37989819820703224
2.551604078587416,-0.33067829966817597,0.1669036701165072,-0.0555295660570998,0.37455107218680556
2.5540910221337976,-0.3263159517878875,0.16694644290411942,-0.05556460700260857,0.37072987570592103
2.556577965680179,-0.33631969561539027,0.16220119753619056,-0.04123451000896594,0.37566002043960256
2.5590649092265605,-0.336747507908577,0.16224473934842054,-0.03169288780840063,0.37513554705800667
2.561551852772942,-0.3323877853269435,0.1670770670249313,-0.026939739850202926,0.37299079847015026
2.5640387963193234,-0.3280289245099049,0.16712137259831117,-0.022186662261681533,0.3688153690894434
2.566525739865705,-0.3236709187566631,0.1671660580512242,-0.012645251168487803,0.36450961165692436
2.5690126834120863,-0.31931376134671663,0.1672111220352046,-0.022257522616515146,0.36113188010847874
2.571499626958468,-0.31495744554004657,0.17683336983164288,-0.02229305612658017,0.36189116255939274
2.5739865705048492,-0.3201787712179345,0.18166759010964606,-0.01754025446008356,0.36854473183237507
2.576473514051231,-0.3254009249612737,0.18171378148858475,-0.022364327017452723,0.37337089264091966
2.5789604575976126,-0.3258354966523345,0.18176034589751833,-0.03197686991627435,0.37447044533461027
2.581447401143994,-0.3214824794749483,0.19138408857524158,-0.041589479272579055,0.37644194606247156
2.5839343446903755,-0.3267070765553316,0.20579660478908757,-0.027260137919597582,0.3870825125647537
2.5864212882367568,-0.3319324743997807,0.21063268315528694,-0.01293086189215309,0.3933351013622233
2.5889082317831384,-0.32279345617611777,0.21546912888120717,-0.02254366722355705,0.38875542154783643
2.59139517532952,-0.3232320315967008,0.22988274716384227,-0.022579730101865536,0.3972843665502063
2.5938821188759014,-0.32845979043424617,0.22514311662736253,-0.01782745327616375,0.398613942288908
2.596369062422283,-0.3241115158032781,0.21561544576847647,-0.013075239494064306,0.38949872530993546
2.5988560059686643,-0.3245524107228282,0.23003015303461094,-0.027476701462667563,0.39875193759327926
2.601342949515046,-0.32978246823382357,0.23486841369896672,-0.02751301536419426,0.40580366450081773
2.603829893061427,-0.3350132780399135,0.23013022626681945,-0.008395777301322127,0.4065271289608595
2.606316836607809,-0.3450332364686092,0.230180799194327,-0.013220616578449196,0.414977010554147
2.6088037801541906,-0.3406887232292995,0.23502013096670638,-0.022833919334535935,0.4145173771597448
2.611290723700572,-0.34113334457751787,0.2254946067779775,-0.027658878347786242,0.4098594759427381
2.6137776672469535,-0.3607323034323342,0.23033464501539624,-0.03248389635599658,0.4292284321389176
2.6162646107933347,-0.3611783661734359,0.24475184081418755,-0.04688577941593941,0.43880696449018
2.6187515543397164,-0.3520483323678968,0.23522736937793853,-0.04692251034089523,0.4259949126505781
2.621238497886098,-0.3524958082078842,0.23528005238488525,-0.03738249186470988,0.42544970155398976
2.6237254414324793,-0.35294397994836757,0.24969829158171608,-0.042207740001202865,0.4343963433508971
2.626212384978861,-0.3533928404698275,0.24975166546335625,-0.05660985084105086,0.4364253307374575
2.6286993285252422,-0.35384238263784007,0.2354401724370354,-0.07101201715336636,0.4309051091924933
2.631186272071624,-0.35429259930328794,0.2402826341426989,-0.07104902838572436,0.4339434924344294
2.633673215618005,-0.3451666766619463,0.24512543568742506,-0.07108609390635223,0.4292781693094412
2.636160159164387,-0.3408298174968829,0.24039176880955448,-0.07112321312133929,0.42309771737867863
2.6386471027107685,-0.3412820146161708,0.240446841839685,-0.06637198211528172,0.4227213470609948
2.6411340462571498,-0.3417348574937271,0.24529065313823661,-0.03289038369035957,0.42193837782612253
2.6436209898035314,-0.34697674223046493,0.23576958777519907,-0.028139257092920644,0.42044259531866573
2.6461079333499127,-0.35221925827325873,0.2358256606942546,-0.018599778482249363,0.42428539911247826
2.6485948768962944,-0.35746239837609756,0.2406704669081532,0.000516456061598447,0.4309314407437033
2.651081820442676,-0.35312934863936474,0.24551560142065165,0.01484423717839789,0.43034706782876403
2.6535687639890573,-0.35837371507255494,0.2407842559062674,-0.004346854451933169,0.4317727095253543
2.656055707535439,-0.3636186837507424,0.23605323531190114,-0.00917278502343244,0.43361713187894724
2.65854265108182,-0.3640758440569877,0.23611094125534438,-0.004421957252535691,0.4339575445965146
2.661029594628202,-0.36453359200286956,0.2457457753456529,-0.004459580495282722,0.43965397036413145
2.663516538174583,-0.36499192026776806,0.24580412258165207,-0.014074057466093137,0.4402690627700832
2.666003481720965,-0.37502762816002294,0.23149757791450165,-0.028476984237785885,0.441642150496182
2.6684904252673465,-0.39464070833590587,0.22197975288838734,-0.03330315024158104,0.4540103514065162
2.6709773688137277,-0.3903123301982804,0.22203904907808703,-0.06685978143118732,0.45399921232678225
2.6734643123601094,-0.376407696342134,0.24125227137029093,-0.10041645727503479,0.4582236104770088
2.6759512559064906,-0.38165721931262203,0.255677401401166,-0.09087754727967123,0.46828612539799286
2.6784381994528723,-0.3773304718006001,0.2509492274392411,-0.07655027739610887,0.45957996548047725
2.680925142999254,-0.37779265636940607,0.24622136098703296,-0.07658826029319954,0.45740355423596984
2.6834120865456352,-0.36867855565041424,0.2414938002576914,-0.05268426879522714,0.4438679591250816
2.685899030092017,-0.3739301788276155,0.236766543456302,-0.009626705608436481,0.44269046544867996
2.688385973638398,-0.3743939051925504,0.21767437881903273,0.009488799999241238,0.43317775654459195
2.69087291718478,-0.3652813239882777,0.2081593211366366,0.009450651963797796,0.42053544850967717
2.6933598607311615,-0.36095763772991685,0.2082213685904586,0.014200867503250336,0.4169510993043314
2.6958468042775428,-0.36142283896269006,0.18913009943221182,-0.00020256936673135328,0.4079175211601449
2.6983337478239244,-0.35231171026215136,0.17961593174963886,-0.014606044746946267,0.3957256128547693
2.7008206913703057,-0.35277785743754186,0.18446726702130878,-0.029009558018707082,0.39915152981915797
2.7033076349166874,-0.35324446636795787,0.17016528015573673,-0.02904789860168222,0.39316873731673696
2.7057945784630686,-0.34892312624476995,0.1654403892180092,-0.02429787251642601,0.3869215127410914
2.7082815220094503,-0.354179039532792,0.16550418902363084,-0.024336285782828426,0.3916971833373891
2.710768465555832,-0.3498585854470756,0.17514508102138837,-0.03395154109982634,0.39272068491495404
2.713255409102213,-0.34553856311720954,0.17042104673094327,-0.033990024564168664,0.3867758440490421
2.715742352648595,-0.3460073683453575,0.17048569754758258,-0.04839375215480324,0.38875239840441655
2.718229296194976,-0.34647659028618805,0.1849158382188647,-0.07237431992821719,0.3993468880880384
2.720716239741358,-0.3421578180877299,0.17061583696187776,-0.07720130733877184,0.39005355806039455
2.7232031832877395,-0.34262785085254543,0.16589291843206855,-0.06766311708246953,0.38664273170338925
2.7256901268341207,-0.3430982777160913,0.16595867739519266,-0.05333655517508973,0.3848421740044289
2.7281770703805024,-0.34356909112820455,0.1612363052898913,-0.053375234272539984,0.38325680966663084
2.7306640139268836,-0.3392518802127152,0.1565142035090208,-0.048625540467737594,0.3767664758357691
2.7331509574732653,-0.34451184736924134,0.1565807734387863,-0.03429906981405928,0.3799768121590654
2.7356379010196465,-0.34977217839062286,0.16143601313851796,-0.024761031645690323,0.3860249626673647
2.7381248445660282,-0.3550328657053381,0.15671471070011878,-0.015223022015126375,0.3883807110040863
2.74061178811241,-0.3555054984168098,0.15199367081064752,-0.010473443615097722,0.3867763286348306
2.743098731658791,-0.36555527890520473,0.15206129483051756,-0.0009354891769941531,0.39592192975509183
2.745585675205173,-0.3612401829839238,0.15212917747326982,-0.005762771353721163,0.3920088850710245
2.748072618751554,-0.3569254130248413,0.14262051012596189,-0.01059007955564617,0.38451074127589474
2.7505595622979357,-0.3717645747163552,0.14268890409143697,-0.020205816474062388,0.39871957236161765
2.7530465058443174,-0.3674504338995755,0.15712276070559117,-0.03460998147964389,0.4011299466790706
2.7555334493906987,-0.3535597896154271,0.161980061376513,-0.029860557341201854,0.3900432258111544
2.7580203929370803,-0.3636114575033289,0.15247240078770385,-0.029899560030409944,0.3954176383517476
2.7605073364834616,-0.36887501003582335,0.1621186001793964,-0.029938585596818612,0.4040390234378281
2.7629942800298433,-0.36935043960474545,0.17176504426270212,-0.02997763341006454,0.40843804447144116
2.7654812235762245,-0.374614545240218,0.1670465210634524,-0.030016702839574805,0.4112682824559865
2.767968167122606,-0.38466731932964426,0.1719050451644515,-0.025267389934285234,0.4220885358634345
2.770455110668988,-0.38514354429763875,0.18155221122120668,-0.015729694063269406,0.4260800140686969
2.772942054215369,-0.3760432125281454,0.19119961388387274,-0.025345631197032148,0.4226206230871914
2.775428997761751,-0.3669431230443685,0.1960588477973384,-0.044538394063748044,0.41841366599927415
2.777915941308132,-0.3722084781887048,0.20570671756225067,-0.049365965430565595,0.4281254529091664
2.7804028848545137,-0.37747406038079967,0.2057780111725962,-0.054193554627040896,0.4333222790321665
2.7828898284008954,-0.3779514586802904,0.21063793653922813,-0.05423275770142233,0.4360697621206547
2.7853767719472766,-0.36885226214643435,0.2202864916071312,-0.04948357402222214,0.432465898971391
2.7878637154936583,-0.36933007643989957,0.22035846435552475,-0.04473440627823955,0.43239302177682487
2.7903506590400395,-0.3698080872995895,0.22043065936042927,-0.035196850517642986,0.431956612757133
2.792837602586421,-0.37028628710538025,0.22529147787288784,-0.035236116069871315,0.4348675295950796
2.7953245461328025,-0.3707646682377428,0.2253641111784246,-0.030486992342526165,0.43495388091472187
2.797811489679184,-0.380820029718614,0.2254369605190063,-0.030526285344828707,0.44359618156594627
2.800298433225566,-0.37651034732883043,0.225510023811879,-0.035353994445451065,0.4403007124779152
2.802785376771947,-0.3817776300536869,0.22558329896996732,-0.04497011901316661,0.4457177303940711
2.8052723203183287,-0.3918334669581831,0.24002199386290002,-0.04022104513561153,0.46126104955674774
2.80775926386471,-0.3875242371482076,0.240095686473349,-0.035471982142754044,0.45725182838075656
2.8102462074110917,-0.3880035462942224,0.24016958466274074,-0.03551133272409146,0.45769994110312856
2.8127331509574733,-0.38369458014713365,0.24503208964790657,-0.035550692928680405,0.4566465893436785
2.8152200945038546,-0.3793857344213557,0.2498947960011666,-0.03080165880577468,0.45533469748755523
2.8177070380502363,-0.384653808154425,0.25475770161137,-0.03084103636578739,0.46239724067313037
2.8201939815966175,-0.3947103904260047,0.2548324010433407,-0.026092018338129463,0.4705492942856469
2.822680925142999,-0.390401860358132,0.24054208553798784,-0.01176620077279722,0.45870747864699224
2.825167868689381,-0.3956702269592074,0.24061717289518025,-0.011805599641938613,0.46323959737583476
2.827654812235762,-0.3913618693586296,0.24548085434885847,-0.007056601035193566,0.46203328695873896
2.8301417557821438,-0.382265183291407,0.2503447244499313,0.007269198996533888,0.45700327424513737
2.832628699328525,-0.3827453711374686,0.2504203777460541,0.007229784480129453,0.4574457940579016
2.8351156428749067,-0.3880140220000494,0.2409194087817128,-0.0023864406360214474,0.45673048715330367
2.837602586421288,-0.3884943216668594,0.24099542869988433,-0.007214265763293426,0.4572293519144825
2.8400895299676696,-0.38418626257127675,0.2410716287186876,-0.012042093594716974,0.4537175625206839
2.8425764735140513,-0.3846666437925951,0.24593641001428468,-0.016869923503442408,0.456878253954361
2.8450634170604325,-0.38993545777501637,0.24122456047878815,-0.031274561503686016,0.459583559329143
2.847550360606814,-0.3904158903279069,0.23651288460315634,-0.05525600696950761,0.4598001069052208
2.8500373041531954,-0.3908963372275987,0.23180138023510466,-0.060083839353602286,0.4584123624950811
2.852524247699577,-0.3865883876160789,0.22709004521981857,-0.06012326799196899,0.452366308904159
2.855011191245959,-0.37749203396217335,0.22237887740004458,-0.0793163088617792,0.4452456374520248
2.85749813479234,-0.377972478702419,0.21287947129588103,-0.08414413809700605,0.4418835818762137
2.8599850783387217,-0.3784529076788107,0.20338022806578815,-0.06981835175405848,0.43527545616573865
2.862472021885103,-0.3837217167015482,0.19866954886607502,-0.0554925624914997,0.43565051360799056
2.8649589654314846,-0.38420209162740776,0.21311264149160625,-0.045955173007586225,0.4417466729932011
2.867445908977866,-0.37989402496155156,0.2084022772118317,-0.05078298932150638,0.43626814157464366
2.8699328525242476,-0.38037431585777376,0.20369206713807175,-0.060399204171870835,0.43568697736315865
2.8724197960706292,-0.3808545535171854,0.20855881573922952,-0.06043860697765702,0.43840597141316884
2.8749067396170105,-0.38612313379001867,0.20863731088095427,-0.05090119711948482,0.4418274932681954
2.877393683163392,-0.38181483925400594,0.20871595370853768,-0.03178697397869712,0.4362972983204792
2.8798806267097734,-0.37750646909742963,0.21837154868607378,-0.027037953538931347,0.43695345108779754
2.882367570256155,-0.37319801587718415,0.20887367371374,-0.01750052190177165,0.42803181995288075
2.8848545138025368,-0.3688894721596455,0.20895274653414253,-0.01753988841178078,0.4243210348779344
2.887341457348918,-0.36936923384122816,0.22339716828708278,-0.03194445577368654,0.4328514456044014
2.8898284008952997,-0.374637293508004,0.22826492018936495,-0.03677220677116644,0.4402387655203491
2.892315344441681,-0.37990524043595103,0.22834440337861484,-0.036811544110618044,0.44477437880889825
2.8948022879880626,-0.38996147055212554,0.21884721235088156,-0.04642767713992946,0.4495771124885448
2.897289231534444,-0.3952291698333526,0.20456174824198348,-0.046466991965681714,0.4474492003270499
2.8997761750808255,-0.39570833090802704,0.1998532188275992,-0.04171789129692449,0.4452715740759013
2.902263118627207,-0.39618734973604475,0.19993321860148638,-0.046545584484267266,0.44621093602264256
2.9047500621735884,-0.39666621896842,0.19522493873651392,-0.03700805431675391,0.4436512842984791
2.90723700571997,-0.3971449312678406,0.1905167803660026,-0.027470510146901717,0.4413336254586734
2.9097239492663514,-0.39762347930890896,0.1905971446228829,-0.03708656464851501,0.4425009786582929
2.912210892812733,-0.393313452458071,0.1954660293194772,-0.04670260393391956,0.4416826617794936
2.9146978363591147,-0.384214843414483,0.185969818986655,-0.03716501411644302,0.4284706031319072
2.917184779905496,-0.389481258171185,0.18126212471767955,-0.03720421451359357,0.4312026923632903
2.9196717234518776,-0.38038226953097437,0.18613134764485517,-0.051608607842382526,0.4266134057352788
2.922158666998259,-0.3712830801925741,0.19100067893963368,-0.046859370258406585,0.42015257416050766
2.9246456105446406,-0.3909141028289974,0.18150490645332562,-0.03253330780117203,0.43222249244308913
2.927132554091022,-0.38660289368155226,0.18637444792031266,-0.01820722651130069,0.4295680799800944
2.9296194976374035,-0.38229146213035786,0.1960324945128451,-0.0038811257899418194,0.4296400401034485
2.932106441183785,-0.3971334142493037,0.19132543076299324,-0.003920215000333016,0.4408352722453171
2.9345933847301664,-0.402398322923456,0.19619527108618762,-0.013536090225649389,0.4478841596069117
2.937080328276548,-0.4124513909352353,0.20106520665631056,-0.01836354090964143,0.45921736339874525
2.9395672718229293,-0.4081389978396519,0.1963584286479767,-0.027979373098853344,0.4537806952456911
2.942054215369311,-0.39903794312860297,0.20122854815850078,-0.04717198952074675,0.44938781163448316
2.9445411589156927,-0.40430183294985883,0.2060987563642458,-0.05678777630249954,0.45734179891945914
2.947028102462074,-0.40956545022447516,0.21096905108320207,-0.06640353949444133,0.4654688266575041
2.9495150460084556,-0.41482878785016747,0.211051026814161,-0.07123087518726834,0.47084954786905675
2.952001989554837,-0.41530343542028003,0.19197947141647864,-0.061692976152693646,0.4616698866330942
2.9544889331012185,-0.4253545958255805,0.1872732059539266,-0.06652026172626258,0.4694919925604006
2.9569758766476,-0.42582864873105947,0.19693222824947032,-0.07134752136207467,0.47455538075964665
2.9594628201939814,-0.4263023937402206,0.19222611620567376,-0.06659794783592154,0.4723556894080089
2.961949763740363,-0.4363526304734273,0.19230848092979214,-0.05705994388592828,0.4802520246233939
2.9644367072867444,-0.4511909486072108,0.1971793202494867,-0.057098718892271805,0.4956946843958114
2.966923650833126,-0.5378549876401056,4.1093873380488555,-0.5120357810646894,4.175946949248293
2.9694105943795073,0.6970806256068941,2.802235803643759,-0.2726543329503528,2.9004805262397615
2.971897537925889,1.793152885389651,1.5381799638901166,-0.06679167866025004,2.3634415584127493
2.9743844814722706,2.740784991999533,0.35073863986582765,0.12470579566166862,2.765948571708523
2.976871425018652,3.5304001457099967,-0.7505113639508019,0.29704968726842296,3.621495687275456
2.9793583685650336,4.166786756737619,-1.7224744198380209,0.4406631900913176,4.5302554067316985
2.981845312111415,4.640368025318802,-2.5412085133522453,0.5411810947396791,5.318235900751177
2.9843322556577965,4.93677874835088,-3.206713646649264,0.6321222250244176,5.920673553671518
2.986819199204178,5.070384142633952,-3.7094130152418194,0.6799677582704771,6.319089841409649
2.9893061427505594,5.060337828269099,-4.030153007999229,0.6799292917230719,6.50472567029844
2.991793086296941,4.911428215376906,-4.197664046991622,0.6846792624695421,6.497022106985807
2.9942800298433223,4.62365531073788,-4.226311344325212,0.6702756544705739,6.299933766688547
2.996766973389704,4.244903154315666,-4.106518095501874,0.6415068716070813,5.940894269764657
2.9992539169360852,3.7799601561707945,-3.8574379159423735,0.593584511117653,5.433255803790887
3.001740860482467,3.238403129664084,-3.5221664376662654,0.5360853802001646,4.814592275541632
3.0042278040288486,2.63938569477576,-3.091126856166204,0.47858628605071196,4.092733428882792
3.00671474757523,2.016426681426534,-2.5834727868537697,0.4115104225824666,3.302975784028216
3.0092016911216115,1.3982565161956497,-2.0375114584184537,0.3252809837068291,2.4924650341843053
