Time (s),Acceleration x (m/s^2),Acceleration y (m/s^2),Acceleration z (m/s^2),Absolute acceleration (m/s^2)
0.0,-0.00955481179066442,0.01260239751991854,0.011698342240993753,0.01967145299139053
0.002486943546381497,0.00019140987007026933,0.007336458226786302,0.02119657502831096,0.02243111789417898
0.004973887092762994,0.005149988744755807,0.00685714224208489,0.04027176650138564,0.04117472478282549
0.007460830639144491,0.0005325216759836104,0.015952853748386175,0.03540509444400186,0.03883681030467722
0.009947774185525988,0.0007042187758676821,0.03462359363810075,0.02096176984060172,0.04048067385001113
0.012434717731907486,-0.008700129777107879,0.034138942911976944,0.025672213634043928,0.04359153856148841
0.014921661278288981,-0.013315313894376013,0.03365251580415096,0.035171216881842327,0.050465868673827304
0.01740860482467048,-0.01314133346012858,0.033164313297830095,0.0398819739592593,0.05350829999648617
0.019895548371051976,-0.003389785050102123,0.037462739726910055,0.039804485879587403,0.054766272528540536
0.022382491917433474,-0.012791088494105374,0.0465477961354015,0.04451556029412096,0.06566539711466346
0.02486943546381497,-0.012614823790118801,0.046054273636864096,0.05401519821087675,0.07209557224431473
0.02735637901019647,-0.002860990869949398,0.04555897997695313,0.04914978735394193,0.0670783685120327
0.029843322556577963,-0.0026832029586367767,0.054638722931914074,0.04907294200720891,0.0734897493463585
0.032330266102959464,-0.007293056691673572,0.05413989038676004,0.05857306649089011,0.08009444753005411
0.03481720964934096,-0.011902148716599115,0.05363929017907143,0.053708145200562996,0.07683358286499094
0.03730415319572246,-0.021298882333654845,0.04834852021623437,0.05842019573214685,0.07876637014071962
0.03979109674210395,-0.021118047573942422,0.038267581756742164,0.058344009116247264,0.07289995299450464
0.04227804028848545,-0.016148047761953,0.04255008937118365,0.05347958634155603,0.07022346977529648
0.04476498383486695,-0.011177286234348327,0.04683083441885749,0.04861533171421151,0.06842155550419633
0.04725192738124844,-0.01578256966030389,0.04632141493063102,0.03896284289683116,0.06255290651009894
0.04973887092762994,-0.0203870914399783,0.045810235608990446,0.03409892751003696,0.06063784330983423
0.05222581447401144,-0.029779254946729505,0.045297297867151975,0.029235183210571947,0.06159013846878015
0.05471275802039294,-0.0295938502849582,0.03999419982911068,0.02916001429281856,0.05766834858236136
0.05719970156677443,-0.015042474212013102,0.03468934629062437,0.03387342172784358,0.05076451000494617
0.059686645113155926,-0.010067143419470237,0.02459433543800804,0.03379859984304545,0.04299504696608381
0.062173588659537427,-0.019456261330037528,0.009709168809120428,0.019358742962767295,0.029113141242490526
0.06466053220591893,-0.0240562147772736,0.004399057934035611,0.004919062009832942,0.024944946405512678
0.06714747575230041,-0.02386700388842722,-0.000912802227414744,-0.014308845377300372,0.027842595758083757
0.06963441929868192,-0.01888862880321751,-0.015803216684032506,-0.023959768282068694,0.03435975046123948
0.07212136284506342,-0.009121089673862715,-0.02590697381164775,-0.019245302431709632,0.03353725144677208
0.07460830639144492,-0.00892959662604631,-0.03122407191557386,-0.014530656837898448,0.03557836914522068
0.0770952499378264,-0.018314149837070692,-0.031754509269630304,-0.0050274272342800685,0.03700043199485236
0.0795821934842079,-0.01812113621557343,-0.032286687436410944,0.014052790642251622,0.03960159956611372
0.0820691370305894,-0.013138959284367924,-0.04718581458755411,0.0331331910905881,0.05913494483985538
0.0845560805769709,-0.01294442589922118,-0.04772146898026408,0.05700217836726651,0.07545955938188614
0.0870430241233524,-0.007960729647319309,-0.04347045540258243,0.06171773680360815,0.07590871323889678
0.0895299676697339,-0.012553080730107413,-0.03922117529053448,0.04249146400883497,0.059172670554923784
0.0920169112161154,-0.0027794627992545617,-0.04455043336871789,0.04241899079191036,0.06157789625017396
0.09450385476249688,0.0022065105980052513,-0.0450930177283837,0.03276989815371323,0.05578633490269973
0.09699079830887838,-0.0023835641374013727,-0.0408489263898999,0.03269780029481595,0.05237807088204215
0.09947774185525989,-0.006972880656417546,-0.027029754021465013,0.051779504771712226,0.058824703837021694
0.10196468540164137,-0.011561439263442663,-0.022789111860941347,0.061284592574917696,0.06639888390874073
0.10445162894802287,-0.0065724336351108414,-0.023338594512697597,0.0612130646133231,0.06584015611365851
0.10693857249440437,0.003205732578121623,-0.01910139322881932,0.056353325112585395,0.05958890161673701
0.10942551604078588,0.003407849072263436,-0.014865909190324267,0.05149377829480173,0.053704914993215364
0.11191245958716736,0.008399125452260736,-0.0058437369055646116,0.03705761841755084,0.03844426683089528
0.11439940313354886,0.013391158028847383,-0.0016116808117518922,0.02262165301604746,0.02633742230308392
0.11688634667993036,0.008807139779457018,0.007407067967256875,0.027339496262504426,0.0296627446952225
0.11937329022631185,0.004223876949759564,0.011635705058501866,0.03684593908328715,0.03886970537095005
0.12186023377269335,0.004429772452073433,0.0062858294415089055,0.04156417572138871,0.04226955451791948
0.12434717731907485,0.004636422545028496,0.005722653409262701,0.04149420705672746,0.04214278580403965
0.12683412086545634,5.542347416664928e-05,0.014734582646360295,0.036636033965484316,0.039488099248305576
0.12932106441183785,0.005051984753166483,0.01416800626810577,0.031778060640387906,0.035158215108612695
0.13180800795821934,0.010049299281006618,0.013599733343978126,0.03649709459069861,0.04022411063813534
0.13429495150460083,-0.004106246697118676,0.013029766335161508,0.03642792672029849,0.03890539702696713
0.13678189505098234,0.0008925728945481382,0.017246511055510894,0.045935767851114306,0.04907477557800349
0.13926883859736383,0.005892144274806443,0.01667316339033409,0.04107860223872173,0.04472318530117265
0.14175578214374532,0.0013156602898497516,0.02088653253860473,0.03622164069731504,0.04183282751966296
0.14424272569012683,-0.003260072946134396,0.02988662109111795,0.04573009403718409,0.054727321298487404
0.14672966923650832,0.006530153988075882,0.0293082217102012,0.0504503498225084,0.05870990178952581
0.14921661278288983,0.011532727258214082,0.03351654701255402,0.05038240889475887,0.061601540952282804
0.15170355632927132,0.006959242977627289,0.032934793045834354,0.04552627209143445,0.056619547034013944
0.1541904998756528,0.002386507207254418,0.03235136585118248,0.040670343566342027,0.052022909711891656
0.15667744342203432,-0.002185480645958582,0.03176626818199768,0.03581462414894254,0.047922431311385655
0.1591643869684158,-0.001968317868142777,0.03117950282427362,0.030959114664646847,0.04398297912167488
0.1616513305147973,0.003037994920846332,0.02580266927631092,0.030892219255104436,0.0403650389003555
0.1641382740611788,-0.011108559513842153,0.02521257702998847,0.030825535417235983,0.041343533578117694
0.1666252176075603,-0.006100755256450152,0.019832422328596166,0.025970660643841015,0.033241832145603174
0.1691121611539418,0.013273003712492515,0.009662208088732971,0.02111599906420558,0.026747267321753598
0.1715991047003233,0.01349389347708485,-0.005298062740299425,0.016261551483138348,0.02178514830359943
0.1740860482467048,-0.000649683329590145,-0.015471580535851182,0.016195722021572934,0.022407438597620635
0.1765729917930863,-0.00042730748642383354,-0.02085834228315253,0.016130108155609335,0.026371071718850513
0.1790599353394678,-0.00020418966867707944,-0.02624674825498552,0.011276307357119819,0.028567264394646092
0.18154687888584928,1.9669395750043783e-05,-0.04121360201166535,0.03036474033590153,0.05119158947842703
0.1840338224322308,0.005032672285673834,-0.04181688383852311,0.0494533912740458,0.06495858274934417
0.18652076597861228,0.014834818245981651,-0.04721020387088659,0.0398118410290369,0.06351265911645718
0.18900770952499377,0.029426106507925875,-0.05260515560969248,0.02059370365716795,0.06369692905670579
0.19149465307137528,0.024864519687543774,-0.06757854248396677,0.025317803171327924,0.07632886021009129
0.19398159661775677,0.015515266949699513,-0.07297674796800369,0.03483052705659695,0.08233768801433704
0.19646854016413826,0.010955154125253719,-0.07358817210478641,0.03955506943428588,0.08426053639505807
0.19895548371051977,0.015972583711045818,-0.0789896182247225,0.025126221100986612,0.08441451418156384
0.20144242725690126,0.020990748229251732,-0.07960427634406964,0.025062806051980857,0.08605577592867342
0.20392937080328274,0.02600964682892737,-0.08500894972742268,0.029788018395281668,0.09375686269197923
0.20641631434966426,0.016664068684430933,-0.07605002168457764,0.029725052234420346,0.08333592090859247
0.20890325789604575,0.021684432839151557,-0.07666950537520956,0.02008550498874584,0.08216967319326453
0.21139020144242726,0.01712872179924707,-0.07250218736354963,0.015234587354342466,0.07603981151234102
0.21387714498880875,0.01736214461956076,-0.06354806414181269,0.024749106702444124,0.07037271349416226
0.21636408853519024,0.012807893739545384,-0.07374914877081817,0.015110240516925444,0.07636293901457102
0.21885103208157175,0.008254371545744377,-0.06958661443466152,0.005471602800513509,0.07028776561607308
0.22133797562795324,0.0037015770905282075,-0.0702140708079022,0.0006215975904009241,0.07031432141419429
0.22382491917433472,0.003937912732702498,-0.07084311093055318,0.010137032239473598,0.07167295825925682
0.22631186272071624,0.008963377496868041,-0.06668532780963732,0.014864294174099513,0.06890734592570169
0.22879880626709773,0.013989567073405373,-0.06252912105980801,0.01001498077692986,0.06485290130268428
0.2312857498134792,0.01901648045908544,-0.053586083622094716,0.014742706027490726,0.05874046533709039
0.23377269335986073,0.0192557133164295,-0.039856211724839774,0.00510545401779261,0.044557443475894916
0.23625963690624222,0.009918861294008097,-0.026127904883691766,0.019410451999188894,0.03402670818333493
0.2387465804526237,0.014947939948300348,-0.021977965901605057,0.03850408737453748,0.046787141806442126
0.24123352399900522,0.019977738259306044,-0.013041180946962605,0.03365594090131019,0.04125414869320715
0.2437204675453867,0.0010662385524072837,-0.004105949436385092,0.04796164313688678,0.04814888262270339
0.24620741109176822,-0.008267737017271126,3.932924651772751e-05,0.05269077482916629,0.053335492631776546
0.2486943546381497,0.0015526170898139124,0.004183062391768022,0.03826653000247937,0.038525782915233016
0.2511812981845312,0.01137368647729875,-0.0012515526385405984,0.02863092591850247,0.03083272688300052
0.2536682417309127,0.0020418567347738614,0.0028891014725678232,0.04293757651374186,0.04308307745643957
0.2561551852772942,-0.007289259999727071,0.0022398188328836,0.05724446583701237,0.05775014258608058
0.2586421288236757,-0.0022544549225527177,0.006377410184760901,0.047609577932242075,0.04808768905394338
0.26112907237005717,-0.002007342486320396,0.005725073022301519,0.057128543322825465,0.057449772385589286
0.2636160159164387,-0.006547923876488837,-0.004505591807089981,0.05707094272255375,0.05762176817718647
0.2661029594628202,-0.006299393651995833,-0.00037256350114711623,0.05222518008245558,0.05260504347104094
0.26858990300920166,-0.0012617530265185417,0.00854735553318875,0.04259125602827574,0.043458766634325866
0.2710768465555832,-0.0010118098684843702,0.0031005562813253285,0.028169171180783437,0.02835735201805536
0.2735637901019647,-0.0007611620995189305,-0.01192455363680267,0.028112539436991213,0.030546509142209917
0.27605073364834615,-0.01008661761633034,-0.012585953287054252,0.028056151446707034,0.032361917574249804
0.27853767719472766,0.004530645553028956,-0.013248848264841406,0.03278841113596087,0.03565303120763752
0.2810246207411092,0.009571802881968905,-0.02827844413263847,0.027944109144472762,0.040892090296929424
0.28351156428749064,-0.004539953568712507,-0.028944316537186765,0.02788845602876755,0.04044935868316616
0.28599850783387215,0.0052910047710366115,-0.03440007429543446,0.03262145237934533,0.04770240034166454
0.28848545138025367,0.010334256652390073,-0.04943411623048899,0.027777888820660124,0.057638006691591255
0.2909723949266352,0.005801397413884302,-0.050104421210695804,0.02772297589393169,0.05755582185346817
0.29345933847301664,0.010846038981409123,-0.05556459795433666,0.04203352081492717,0.07051154500868802
0.29594628201939815,0.015891373344764426,-0.06102623854527067,0.0371907009114576,0.0732112407493034
0.29843322556577967,0.020937399120150912,-0.07127774167513978,0.041924936670222124,0.08530293931059228
0.30092016911216113,0.01640730826891512,-0.0863191026824417,0.04665942201023654,0.09948511906241289
0.30340711265854264,0.011877906019415518,-0.08699670359161527,0.05139415748594445,0.10173922798460529
0.30589405620492416,0.012137594265454799,-0.07809894299586473,0.05134074032626401,0.09424774643922793
0.3083809997513056,0.021974774886584503,-0.09314463937749151,0.027345557793939435,0.0995318748298287
0.31086794329768713,0.027024236466850593,-0.1034033680219788,0.008139030349591181,0.10718586515924856
0.31335488684406865,0.022497574216661875,-0.10408672078363468,0.003297965167332606,0.10654136691149346
0.3158418303904501,0.017971593293096944,-0.10477149944498754,0.00803395945506935,0.10660482993734012
0.3183287739368316,0.013446292198336374,-0.11503450575587104,0.01277020709509813,0.11651960555044917
0.32081571748321314,0.008921669420283829,-0.11572212151156824,0.022295111925355826,0.11818746806724957
0.3233026610295946,0.013974530073184388,-0.1259879550372136,0.01745506117688933,0.127956756233949
0.3257896045759761,0.014239662655435192,-0.12667838806281617,0.0030384586769702793,0.12751240812511422
0.3282765481223576,0.019293872252705624,-0.12258181888734665,-0.006589485111856419,0.12426575208911488
0.3307634916687391,0.014771947334808244,-0.12806345241782413,0.007724843587903152,0.12914384027777795
0.3332504352151206,0.005462289638508699,-0.11918126696621734,0.017251025345236926,0.12054712306492318
0.3357373787615021,0.015306914167521946,-0.09593525741353481,0.017200657325302515,0.098659707321457
0.3382243223078836,0.020363802708135093,-0.08705583853016474,0.007573740008156804,0.08972605541667995
0.3407112658542651,0.01584455031357923,-0.08296619849152753,-0.006841322811258266,0.0847422183128512
0.3431982094006466,0.016114365304028322,-0.06451271879998277,-0.011679320702803864,0.06751274093233266
0.34568515294702806,0.02596164934472145,-0.05563741080829532,-0.016517059843346615,0.06357941478197157
0.3481720964934096,0.02623278748502389,-0.04197505927435552,-0.0069893298136509685,0.04998915353918363
0.3506590400397911,0.016927778041238906,-0.033102465525271185,0.01690386983909775,0.04084193566424559
0.3531459835861726,0.021988635916919907,-0.02423122089490093,0.04079732960130045,0.0522979376088722
0.35563292713255407,0.022261746118493853,-0.024938126645764225,0.04553743663353771,0.056490296830499255
0.3581198706789356,0.012958703599012522,-0.020857967406572087,0.04070099801274729,0.04753476667171453
0.3606068142253171,0.01802152321908812,-0.021567544375387993,0.03586482081034781,0.04556555323134813
0.36309375777169856,0.023084993262519005,-0.017490045436852064,0.03581730877189493,0.046061895434023975
0.36558070131808007,0.013783901998792869,-0.027779078365343768,0.02140484903583051,0.03768077376311334
0.3680676448644616,0.01884866756589565,-0.028492621020330677,0.00699265197722454,0.03487117582319842
0.37055458841084304,0.014337271564067944,-0.014842264510471104,0.011734331285868649,0.02373909649559429
0.37304153195722456,0.009826518821428154,-0.015558423154588219,0.026053080724095068,0.03189652047514466
0.3755284755036061,0.019681617472100066,-0.025852687997338197,0.04994890068927127,0.05958708100815539
0.37801541904998753,0.029537355714029823,-0.03135984341080933,0.04511456501066213,0.06237963720180546
0.38050236259636905,0.02024011841054929,-0.032079883696128686,0.045068897316589585,0.058906594168764294
0.38298930614275056,0.02052032361381617,-0.03758960976318981,0.045023494667244535,0.06213837393604722
0.385476249689132,0.025589566119505358,-0.038312209208820835,0.04497835743748979,0.06438714084675282
0.38796319323551354,0.021082634068375516,-0.043824482879331494,0.03535667935591924,0.06012618010466932
0.39045013678189505,0.026153138829084877,-0.049338021628367645,0.02573526742671639,0.06148602311370666
0.3929370803282765,0.021647465193508797,-0.05006441627789826,0.03047933196871,0.0624823831476496
0.395424023874658,0.02193082118143097,-0.055580467579197546,0.04480047001379539,0.07468086373008223
0.39791096742103954,0.02700320483742391,-0.06588616961133065,0.049545068627244504,0.08674603300914267
0.400397910967421,0.01771100091054223,-0.06182790314057485,0.039924724829566216,0.07569909386994084
0.4028848545138025,0.022784627338702568,-0.06255927546421924,0.030304648916809285,0.07315171860963135
0.40537179806018403,0.027858872162752624,-0.06329187724655139,0.030261647858983665,0.07548341416969859
0.4078587416065655,0.023356926729602434,-0.07360250908140964,0.015853705378182426,0.07883029457987084
0.410345685152947,0.01885559565316841,-0.09349116489066889,0.0014460317532627442,0.09538460257233064
0.4128326286993285,0.014354876892505364,-0.10859262860398466,-0.0033845660629818752,0.10958958328763105
0.41531957224571003,0.005066365072126322,-0.11890689408071964,-0.00821489440475709,0.11929795473958826
0.4178065157920915,0.014932074724196553,-0.12922235846937147,-0.008256549651097345,0.13034398872252131
0.420293459338473,0.020009987163544074,-0.13475061224668972,-0.003509531507127406,0.1362734159641654
0.4227804028848545,0.010723293651727639,-0.12591484253804985,-0.003550646324374185,0.12642050342979916
0.425267346431236,0.011014008678296938,-0.13623386632062884,-0.008379893819522977,0.13693501137495498
0.4277542899776175,0.025670533437363807,-0.15613087065784326,-0.003632063754119841,0.1582688122987248
0.430241233523999,0.02596244586667429,-0.147298622660339,-0.0036723658173816176,0.14961423429510173
0.43272817707038047,0.021466550452305944,-0.12889072925168232,0.015441216858153695,0.1315753170370963
0.435215120616762,0.016971248345864165,-0.129637603965286,0.015401457970073196,0.13164777453447993
0.4377020641631435,0.022053344005119824,-0.13517403042104004,0.010573567733574762,0.1373687330388284
0.44018900770952496,0.041501238553390385,-0.1311347922081807,0.02011115967832744,0.1390077165935594
0.4426759512559065,0.04179610653737187,-0.1223082861666076,0.024860620765673858,0.13162173776223582
0.445162894802288,0.046879962333391645,-0.11348290910569281,0.03439875787297808,0.12751225851138756
0.44764983834866945,0.05196440038179939,-0.10944705780434738,0.02957195794987655,0.12471350394426971
0.45013678189505096,0.04268420846822951,-0.10541232237046261,0.015168624541706421,0.11473354579450976
0.4526237254414325,0.042981400926736746,-0.0918018895612871,0.024707581109815635,0.10433337106096859
0.45511066898781394,0.043279168835123505,-0.08776936602568064,0.024670004625285458,0.10092153980107832
0.45759761253419545,0.04836591321807626,-0.08852634178074537,0.024632701936136314,0.10384095894768287
0.46008455608057697,0.048664825125305566,-0.07970760017283052,0.024595673243874572,0.09657387779367582
0.4625714996269584,0.039387498912809904,-0.07088994111979074,0.019770515423797264,0.08347234334015433
0.46505844317333994,0.03489914220382606,-0.06686176118918086,0.014945631985932906,0.07688834210295385
0.46754538671972146,0.044776559287282414,-0.06762305359833043,0.019697829754717233,0.08346150092477377
0.4700323302661029,0.04507773119594005,-0.06838540821441264,0.029238705587745883,0.08696819999788523
0.47251927381248443,0.03580265555015549,-0.05957201155451797,0.029203049696072014,0.07538881095126752
0.47500621735886595,0.03610494323758551,-0.06512487334823192,0.024379265566095043,0.07835282154686393
0.4774931609052474,0.03161938188976532,-0.07067877673301792,0.033920966639231054,0.08453346538091551
0.4799801044516289,0.02234596908524933,-0.06186850481679418,0.048251346429086794,0.08157969511370063
0.48246704799801043,0.02743831566994115,-0.06742447056082446,0.053005195123027704,0.0900470494088566
0.48495399154439195,0.022954402593048817,-0.07298145701416736,0.05297091618373351,0.09305436920241116
0.4874409350907734,0.013682630711789434,-0.07375105383719394,0.03378329978669825,0.08226629728977601
0.4899278786371549,0.009199804189843785,-0.07452165730166493,0.02417276598428586,0.07888242148571065
0.49241482218353644,0.009505920536438284,-0.08965847029081386,0.028927718221355647,0.09468799660795439
0.4949017657299179,0.014600977246987834,-0.08085425913536604,0.028894543335256984,0.08709474376475897
0.4973887092762994,0.019696568482803323,-0.06726262998080257,0.038438451399578355,0.07993579140741566
0.4998756528226809,0.015215885071110047,-0.08719080222494835,0.047982635880392976,0.10067816296078143
0.5023625963690624,0.010735731106630952,-0.0831779288305512,0.04316188691749545,0.09432270272427942
0.5048495399154439,0.02540971731097974,-0.09353122913786693,0.023976204605656193,0.09984289131007956
0.5073364834618254,0.025719017868620853,-0.10388548593506153,0.0287328155961859,0.11081171761223958
0.5098234270082069,0.016452033512827313,-0.10466388530204007,0.02870130005004512,0.10976776811882673
0.5123103705545884,0.01676237492413879,-0.11023162989179092,0.009516448083163098,0.11190421004509933
0.5147973141009698,0.017073232847571118,-0.12537711568828458,0.009485486328946635,0.1268892858718872
0.5172842576473514,0.0221730079754503,-0.14531193200656123,0.014243204891384309,0.14768232376197502
0.5197712011937329,0.03206169766618483,-0.14609405485219673,0.014212797188804416,0.1502445637097216
0.5222581447401143,0.03716249262397653,-0.1564538967260809,0.014182666594496851,0.1614311639384817
0.5247450882864959,0.03747539018009294,-0.17160304685888184,0.00936440983514153,0.17589685253569007
0.5272320318328774,0.03778879097257837,-0.17717628781270323,0.014123236912690018,0.18171102197486821
0.5297189753792588,0.04289109562596538,-0.17796201540305212,0.014093937901240139,0.18359946649126158
0.5322059189256404,0.043205494790361065,-0.1787486254176831,0.01406491615015426,0.18443320670395008
0.5346928624720219,0.0435203890633471,-0.17953611029638017,0.009247768362184772,0.1849669169993913
0.5371798060184033,0.048624179029066905,-0.18032446245136402,0.009219301195043883,0.18699256150753452
0.5396667495647849,0.058516861937938924,-0.1859020775877025,0.018767917980156312,0.19579591499262144
0.5421536931111663,0.06841003170668214,-0.181903738101846,0.02352840876172202,0.1957613046349889
0.5446406366575478,0.073515282238655,-0.17311783964422656,0.013923966898262918,0.18859522788208924
0.5471275802039294,0.07862101406450617,-0.1739095844787335,0.009108205664199787,0.1910726742276833
0.5496145237503108,0.07415041774063946,-0.16991375492031313,-0.0004956815939056725,0.18538935854701613
0.5521014672966923,0.07446870041174092,-0.16113034321788167,-0.0005224849338958393,0.17750731769995318
0.5545884108430739,0.07957585924830612,-0.15713614823411604,0.009027795619472201,0.17636776222061468
0.5570753543894553,0.07031827812635605,-0.14356595220336876,0.013789950074517776,0.16045561876660233
0.5595622979358368,0.07063797079152767,-0.1347849572552109,0.013763978394525367,0.15279448524432648
0.5620492414822184,0.06616972441379043,-0.13079315553172055,0.004161477216486631,0.14663764815205252
0.5645361850285998,0.05691353611091232,-0.12201373250790626,0.008924463093299195,0.13493015806209774
0.5670231285749813,0.06681141958911507,-0.11323508359337264,0.013687726009393941,0.13218662484237625
0.5695100721213628,0.07670975865872853,-0.12361081413243014,0.018451265904161573,0.14664402359942474
0.5719970156677443,0.06745493711703332,-0.12919889956045116,0.042368695992276884,0.15178152255521898
0.5744839592141259,0.06777737195141675,-0.11563412192742062,0.05192119295899822,0.14373876505957536
0.5769709027605073,0.06810025357377891,-0.11643529646054285,0.05189716004612599,0.14452729160791986
0.5794578463068888,0.06363517570337696,-0.12202560847841726,0.047085000489492046,0.1454533670370786
0.5819447898532704,0.06874734532779392,-0.1180398399536493,0.04706152083928217,0.14447971501082177
0.5844317333996518,0.059494742859222516,-0.11405478943484093,0.03746151103816686,0.1339831490530567
0.5869186769460333,0.04545417193918111,-0.11964725544513755,0.027861777624432094,0.1309878854498535
0.5894056204924149,0.04099083951667626,-0.12045201988078391,0.03262753045071953,0.13135255521288997
0.5918925640387963,0.0365279359263595,-0.11168067125342862,0.03739355944185618,0.12330912667920511
0.5943795075851778,0.03206545813074746,-0.11727521797148377,0.04215986447766262,0.1286822619018201
0.5968664511315593,0.0323918063999461,-0.11329363521525382,0.04213804211170569,0.12514108635914292
0.5993533946779408,0.042295380991369536,-0.11410112470267064,0.046904898852554666,0.13041485899999233
0.6018403382243223,0.03783416222790459,-0.11490927484566571,0.05167203124191211,0.13155061417458028
0.6043272817707038,0.03337335698231636,-0.1300832873127855,0.042074229174936306,0.1407326662684783
0.6068142253170853,0.02891296215384953,-0.13568113718556374,0.027688299142415218,0.14146367829898096
0.6093011688634667,0.03881818459013697,-0.13170281612270385,0.0037258376682878236,0.13735488741160656
0.6117881124098483,0.03914700456380127,-0.14209033236020963,-0.01065954212785769,0.14776933496138056
0.6142750559562298,0.03468782225686473,-0.14769006422712883,-0.0011026304526620123,0.15171293906009603
0.6167619995026112,0.039805844479537944,-0.15329040663005555,0.01803136255946214,0.15939756602686164
0.6192489430489928,0.044924261428069046,-0.16367975445168836,0.037165630088521695,0.17375423834283674
0.6217358865953743,0.05483147324728199,-0.16928129259001912,0.027569752027371663,0.18006314921789476
0.6242228301417557,0.05995067010873978,-0.1700950125600209,0.017974148106720378,0.18124421685792608
0.6267097736881373,0.05070504217172145,-0.17090930917346503,0.017955624770147338,0.1791742105456961
0.6291967172345188,0.05103660282544853,-0.1765125772187366,-0.006004641427468371,0.18384091074359782
0.6316836607809002,0.06573375216568711,-0.18690480814065102,-0.020387827452742258,0.19917328382119007
0.6341706043272818,0.08043127699478736,-0.187720783399961,-0.025193933520323952,0.2057741896485898
0.6366575478736632,0.08076396410297493,-0.17896049439536554,-0.01563455653041501,0.19696221924461307
0.6391444914200447,0.0906738268308912,-0.17977754578395233,-0.006074906670317404,0.20144133967811223
0.6416314349664263,0.09579565194463413,-0.18059512227820607,0.013061822468381834,0.2048463236877177
0.6441183785128077,0.08176422619830037,-0.18141321520864073,0.04656403396795561,0.2043632858355736
0.6466053220591892,0.07252156289652723,-0.1774434125630009,0.05133609770172143,0.19844630677893452
0.6490922656055708,0.08722127201172236,-0.17826251226764622,0.04174322338093184,0.20279933498299732
0.6515792091519522,0.08755612366066923,-0.16471689230487563,0.05609263731257563,0.1947924879499683
0.6540661526983337,0.07831451783113252,-0.15117175387712622,0.05128870935253005,0.1778105581242506
0.6565530962447153,0.08343846778033903,-0.15678070148524137,0.03690824587429731,0.1813956583748702
0.6590400397910967,0.08377435687095913,-0.1576017097254776,0.036893263206524196,0.18225683703927925
0.6615269833374782,0.07453377841490139,-0.14884636645370986,0.0368785511095755,0.17050088698659394
0.6640139268838597,0.06529353567335727,-0.14487987278557224,0.032075705978670044,0.16211808737189587
0.6665008704302412,0.07041883521622105,-0.15527902649504144,0.03206153416419433,0.17348870394183846
0.6689878139766227,0.07554446367994783,-0.15610180209270252,0.02725922872953035,0.17555000472859314
0.6714747575230042,0.07109361100978673,-0.15692499731026688,0.022457192693247308,0.1737356664905044
0.6739617010693857,0.06185467710045245,-0.16253700653821745,0.02244382906818032,0.175351090777467
0.6764486446157671,0.06698127179617219,-0.17293782082595355,0.022430734220803217,0.18680770455510293
0.6789355881621487,0.06253137504698236,-0.17376222124130658,0.008052697871244519,0.18484676989058987
0.6814225317085302,0.0628701933540885,-0.17937540875350644,-0.006325070344212591,0.19017940212527545
0.6839094752549116,0.053632513285538086,-0.18020056770988857,-0.0015489574746752055,0.18801885637761948
0.6863964188012932,0.04439513799970696,-0.18102609239854361,0.012804229503187159,0.186829662260224
0.6888833623476747,0.04473487064378456,-0.17706357044690746,0.012792473646079827,0.18307474979611127
0.6913703058940561,0.04986330439288589,-0.17310139610315955,0.003204177926916074,0.1801685577841702
0.6938572494404377,0.04062682245010074,-0.17871636691606518,0.003192955273878084,0.18330377374579782
0.6963441929868192,0.036179034569981505,-0.17475486049293565,0.00797040200794008,0.17863849281856778
0.6988311365332006,0.04130834053515542,-0.17558207766384637,-0.006405498836818069,0.1804895437688007
0.7013180800795822,0.046437930156375096,-0.17640960595835198,-0.00641592438820382,0.18253217392378948
0.7038050236259636,0.041990993233506746,-0.1724490328868904,0.007939124978163292,0.1776652531075762
0.7062919671723452,0.042332736157144724,-0.17327715590187331,0.012717632279485969,0.1788260928354382
0.7087789107187267,0.0474631553461623,-0.1788939657962807,0.022284807089867797,0.18641999554974623
0.7112658542651081,0.05259384388839072,-0.1653574367428794,0.027063842376254144,0.1756178973376532
0.7137527978114897,0.05293639486098134,-0.16618638273969788,0.04141994770158064,0.17926457479542565
0.7162397413578712,0.04849080465077393,-0.16701558456330323,0.05098791270134306,0.18123280846563405
0.7187266849042526,0.04883387627465996,-0.16305662961271494,0.046190930325789026,0.1763684041347225
0.7212136284506342,0.0491772027780758,-0.1638863152298784,0.041394210121181274,0.17604147870391104
0.7237005719970157,0.054309183836617314,-0.16471622877794845,0.05096296162824743,0.1807709792244075
0.7261875155433971,0.054653009154534304,-0.17033476424301863,0.041378361179075895,0.18361114370657464
0.7286744590897787,0.064573885027283,-0.1711651056327188,0.036582424943993885,0.18656246629094367
0.7311614026361601,0.060129791177521374,-0.16720724357793992,0.04136355580659412,0.18244121749470454
0.7336483461825416,0.05089753055984936,-0.16803797533300013,0.031779736723105856,0.17843001831893276
0.7361352897289232,0.0560307127593046,-0.16408048485393367,0.02219617720679068,0.17479850275335002
0.7386222332753046,0.05637572078829278,-0.16969997268146608,0.012612876804514173,0.17926345774801883
0.7411091768216861,0.061509357571019385,-0.1753196227380629,0.012606641698324594,0.18622378634515557
0.7435961203680677,0.061854812740421816,-0.1665742156093435,0.03175427806484166,0.1805029676776534
0.7460830639144491,0.06220048588041449,-0.17219416174737434,0.04132536551277255,0.1876899454376947
0.7485700074608306,0.07212317988532191,-0.16823743506459143,0.026954693606363378,0.18501930478005815
0.7510569510072121,0.07246927771774903,-0.1594924293792772,0.022161085107597955,0.17658070374585713
0.7535438945535936,0.08239238889301526,-0.1699011517751079,0.03173294285122097,0.19147294008293958
0.7560308380999751,0.09231570299483816,-0.16594476947632897,0.03651665306505514,0.19337352840307986
0.7585177816463566,0.08787400627695552,-0.16677688621510933,0.04130061857315148,0.19298215422493056
0.7610047251927381,0.08343250490537268,-0.17718589574734178,0.046084838873913014,0.2011955190868013
0.7634916687391196,0.08856800171623547,-0.17322977189187938,0.05086931346043322,0.20109831389063276
0.7659786122855011,0.08891528293464057,-0.17885052165570947,0.050865638500194876,0.20610858743851285
0.7684655558318826,0.07968594141688412,-0.1892597321091336,0.036497006835080725,0.2085692378214871
0.770952499378264,0.0800335866114602,-0.19009218366718716,0.026917031223584686,0.2080022592356755
0.7734394429246456,0.0803814080356855,-0.20050147997263323,0.012548904497059254,0.2163781163451885
0.7759263864710271,0.075940998517948,-0.2109108047320758,-0.006607373877741907,0.22426337239548294
0.7784133300174085,0.0810775641587076,-0.21653174495832328,-0.0018213845174255283,0.23122042605740095
0.7809002735637901,0.06706068116649633,-0.22694109761119563,-0.0018235478875467948,0.23664894267751732
0.7833872171101716,0.06262076558454399,-0.2421388529961419,-0.01619067117760764,0.25062865407982193
0.785874160656553,0.07254621684552853,-0.24775979144410742,-0.03534594830103721,0.2605709191301394
0.7883611042029346,0.06810661113101535,-0.25338070987421313,-0.03534736321549303,0.26474465188630253
0.790848047749316,0.05887875117620878,-0.24942479191112943,-0.025771723125961543,0.2575725448739856
0.7933349912956975,0.06401624634814218,-0.24546883444775425,-0.01140743192223681,0.2539353421339879
0.7958219348420791,0.06436547944261739,-0.24630123104383683,-0.00661970013986668,0.25465865739756277
0.7983088783884605,0.059926446528020594,-0.24713356860584756,-0.011408528358547443,0.2545512409017969
0.800795821934842,0.06985275694538806,-0.2479658373481013,-0.011408707202123836,0.25786939086413546
0.8032827654812236,0.08456760010534725,-0.2392212208320048,-0.006620237260435147,0.253815482241169
0.805769709027605,0.08491735876943307,-0.23047651588812013,-0.011408329089301006,0.2458872346603485
0.8082566525739865,0.08047883561265545,-0.22652011601478916,-0.0018309666870734986,0.2403987487070836
0.8107435961203681,0.07604042998137783,-0.22256360805801068,0.02690025266164575,0.23672838912308974
0.8132305396667495,0.08117894453401031,-0.20903017553193726,0.04605490842505766,0.22892070659643016
0.815717483213131,0.08631756863951456,-0.20028501854094172,0.05084459666795382,0.22394192175229177
0.8182044267595125,0.08187949165872321,-0.2059049338579304,0.05563452673141889,0.2284650815900727
0.820691370305894,0.07744151622565787,-0.20194789500265653,0.05563629467035369,0.22332831888495297
0.8231783138522755,0.08736884828666125,-0.18841389208566683,0.06042670649567228,0.21629724279269272
0.825665257398657,0.09250787053796594,-0.19403333512880128,0.0652173582524469,0.22463291181414796
0.8281522009450385,0.08328177230857692,-0.19486419762007978,0.06521984598086306,0.22172401183169732
0.8306391444914201,0.08842096948221623,-0.19090646963888913,0.050857362395932526,0.2164486528117704
0.8331260880378015,0.08877184473176847,-0.18694854457493237,0.050860326770319375,0.21311257957931612
0.835613031584183,0.07475758736310123,-0.19256721912842156,0.0460751251687288,0.21164533519669002
0.8380999751305646,0.07510861323701212,-0.207762483349335,0.036501756932311835,0.2239172425897911
0.840586918676946,0.0850365149646104,-0.2085923106766736,0.02692862471774049,0.22686364137946222
0.8430738622233275,0.08059927186833038,-0.20463349778240936,0.012567324536281177,0.2202930972281442
0.845560805769709,0.0713736865054374,-0.19588603468886934,-0.0017937409649242397,0.20849162865245843
0.8480477493160905,0.0765133680665383,-0.1871383147298733,-0.01136616914348032,0.20249502249146986
0.850534692862472,0.08165310249284374,-0.1927555378712431,-0.0017847507210859703,0.20934448132653388
0.8530216364088535,0.07721607903873917,-0.2031608874688149,-0.001779906306936141,0.21734727310388496
0.855508579955235,0.07756750355310982,-0.20877754687020156,-0.0017748299523976385,0.22272838100691353
0.8579955235016165,0.08270737191691413,-0.21439390937593084,0.02217249424744594,0.23086116444315752
0.860482467047998,0.08784727668388337,-0.21522156163808148,0.026966435708509096,0.23401848916171222
0.8629694105943795,0.08819881040090827,-0.22083730026205028,0.03654901032646052,0.24059088407296325
0.8654563541407609,0.08855037224873952,-0.2360295185255028,0.041343410750187104,0.25546111182179904
0.8679432976871425,0.08890195808112533,-0.2416445930973241,0.031772829623989196,0.2594324193815117
0.870430241233524,0.09404196706551016,-0.23289411060032839,0.017414072868868757,0.25176736932285476
0.8729171847799054,0.09439358840186307,-0.2480852875333297,0.01742075304191637,0.2660074097810485
0.875404128326287,0.08995681792431509,-0.25848769390416537,0.027004466094140867,0.2750224685002872
0.8778910718726685,0.09509686142154783,-0.25931291631583564,0.03658840465173974,0.27861319598219336
0.8803780154190499,0.09544850475406008,-0.26013775132608474,0.046172567977075474,0.28091630917121097
0.8828649589654315,0.09101174373705534,-0.2609621888460456,0.04618014868742115,0.2802088643104835
0.885351902511813,0.09136338082020767,-0.26178621878106867,0.03182274271593322,0.27909134463926377
0.8878388460581944,0.09171500848617697,-0.26260983103093416,0.012677155952292907,0.2784533648903422
0.890325789604576,0.09206662253193776,-0.26822141881036865,-0.0016798057181990345,0.28358740141327926
0.8928127331509574,0.09720662206885755,-0.2642557620476924,-0.016036546375543637,0.2820237684470926
0.8952996766973389,0.09755819624152529,-0.26507806058815353,-0.0160278568228307,0.2829149555138609
0.8977866202437205,0.09790974414970488,-0.28026511095194984,-0.016018947789348204,0.2973070081660492
0.9002735637901019,0.09347285824685281,-0.2858748864125631,-0.01600982004774032,0.30119419026301475
0.9027605073364834,0.09861274426207212,-0.28190737684071854,0.00315313890632396,0.2986740442908863
0.905247450882865,0.10375259131738057,-0.2779393787436608,0.027104718330729582,0.2979086507929431
0.9077343944292464,0.10410399184966601,-0.2787592853044285,0.04147970747913021,0.30044125281829276
0.9102213379756279,0.1092437482513916,-0.28436708638206465,0.027124492280655943,0.30583422704288904
0.9127082815220094,0.10959504962849087,-0.2803975618712027,0.027134701824312657,0.3022749735745265
0.9151952250683909,0.10994629504263354,-0.28121591158509673,0.0319335286714999,0.3036286003914195
0.9176821686147724,0.10550907690974876,-0.27724531873239355,0.012790552098227437,0.29691872674580705
0.9201691121611539,0.11064860092197792,-0.26369736983922243,0.017589804501390915,0.28651146044881337
0.9226560557075354,0.11099965284463509,-0.2597256680306619,0.03675447843004598,0.28483194562806297
0.9251429992539169,0.11613903503972411,-0.2605417998278292,0.051130959788540764,0.28980110414969135
0.9276299428002984,0.12127833990352321,-0.2613573517496577,0.04635403779749403,0.29183008389040416
0.9301168863466799,0.12162915982760558,-0.2621723136334264,0.04157732491569277,0.2919874115495701
0.9326038298930613,0.11719149051923461,-0.25340986867403714,0.04158922363698636,0.28227658513280884
0.9350907734394429,0.11754213432175964,-0.2446468133461095,0.03681292649030965,0.2739040127090176
0.9375777169858244,0.11310428029282615,-0.255036750763566,0.027248432641265197,0.2803191030629219
0.9400646605322058,0.1086663274466455,-0.2558492508361092,0.012895741251510273,0.2782687729813854
0.9425516040785874,0.10901667479314414,-0.2470843033944332,-0.0014567452008868997,0.2700692697687887
0.9450385476249689,0.11415531801773493,-0.24310710822950599,-0.0014438176011193349,0.2685788288616737
0.9475254911713503,0.10971704284077832,-0.2534944618115391,0.008146119880505509,0.27633970204795877
0.9500124347177319,0.11006705490047763,-0.2543043373683349,0.008159453108907755,0.27722198551675
0.9524993782641133,0.11041694654984324,-0.25032512804956353,0.02253819782801969,0.2745223892139879
0.9549863218104948,0.10597831013802617,-0.24634522700511186,0.04649394985610478,0.2721746873997171
0.9574732653568764,0.10153954465102821,-0.2471530273853042,0.05608469172641506,0.2730208613269435
0.9599602089032578,0.10667745239147863,-0.2431717123801831,0.05609882589033788,0.27140309286542985
0.9624471524496394,0.11181522237715669,-0.24876648178223437,0.05611315811585271,0.2784530354068679
0.9649340959960209,0.11216444694264127,-0.2543605187834781,0.03697407424538923,0.28044111474613037
0.9674210395424023,0.10772512173939963,-0.2503770065772586,0.02741199332082722,0.27394299526393834
0.9699079830887839,0.09849724241555835,-0.24160433831940242,0.022638511138222128,0.26189094150959275
0.9723949266351654,0.10363441789724581,-0.24240771380812864,0.013076820169708014,0.26395566959687655
0.9748818701815468,0.10398303054492775,-0.2479987195623945,0.008303726165078018,0.26904421089129416
0.9773688137279284,0.08996626935662044,-0.25837734542368196,-0.0012575784106942933,0.27359525535651325
0.9798557572743098,0.09989135653047965,-0.2543899679546575,-0.001241884494600498,0.273302179249579
0.9823427008206913,0.10502786777738904,-0.25040178696283455,0.008350807011918704,0.2716645797703407
0.9848296443670729,0.10058739540698747,-0.255989598938299,0.02273209188361669,0.27598051902400283
0.9873165879134543,0.09135833836682206,-0.2567881837726822,0.022748355930854558,0.27350320841258224
0.9898035314598358,0.0917059022424318,-0.2623743379625112,0.0036111949214951977,0.27796277890416465
0.9922904750062174,0.09205327601525748,-0.282324858007871,-0.0011605688175091444,0.29695534680198277
0.9947774185525988,0.08761205198460198,-0.2735441038891957,0.013221467115545948,0.2875361814071112
0.9972643620989803,0.09274743572865796,-0.26955088871592414,0.02760368851745021,0.28639436457715867
0.9997513056453619,0.0978826162217874,-0.2799220090001695,0.03719769114259641,0.29886620067758196
1.0022382491917432,0.08865237911586332,-0.27592703469600455,0.04679187738270407,0.29357188657640715
1.0047251927381249,0.07463352666222933,-0.276719568965313,0.03723263302463664,0.28901583367064443
1.0072121362845063,0.08455647439148639,-0.2775111983733263,0.0228851670942003,0.29100857969662547
1.0096990798308878,0.0944792013088922,-0.2830903161310414,0.008537881973344597,0.29856212418143385
1.0121860233772693,0.09003649305851558,-0.2838801054938842,0.013344390001760686,0.2981150065360918
1.0146729669236507,0.09038195852489084,-0.27030374972287463,0.01336267363315713,0.2853271395918513
1.0171599104700322,0.0859387866690473,-0.27588006196766646,0.0038043285993509812,0.2889805470295939
1.0196468540164139,0.09586058637235051,-0.276667015540212,0.003822967230597385,0.2928284559021288
1.0221337975627953,0.09620533663191111,-0.2918182136415539,-0.000946621388127511,0.3072689907905765
1.0246207411091768,0.08697303304504755,-0.2973916295964245,-0.00571603489366268,0.30990121472168747
1.0271076846555582,0.09210568780937889,-0.28859885001754115,-0.010485274246201826,0.3031215844084747
1.0295946282019397,0.09244968323854685,-0.28459347812613967,-0.015254340408954903,0.299621572361126
1.0320815717483214,0.09279341824667986,-0.28058710054907987,-0.015234831027797213,0.295925395228068
1.0345685152947028,0.08834848510630222,-0.2861565138815716,-0.010426747071882403,0.29966601794653597
1.0370554588410843,0.10305689601092294,-0.2869364981249092,-0.005618492833615818,0.3049341654083937
1.0395424023874658,0.11776503327044674,-0.28292704324919793,0.013555140672945498,0.30675732542448975
1.0420293459338472,0.11810768251438986,-0.27891654255295517,0.027940539188676894,0.30417846095469736
1.0445162894802287,0.10887324265291365,-0.2844817926633385,0.037537701732848205,0.30690772615574735
1.0470032330266104,0.10442691923629122,-0.28046917029419083,0.047135030642220244,0.30296806442319585
1.0494901765729918,0.11434551449406427,-0.2812438754103255,0.05194412161012707,0.30801169768464737
1.0519771201193733,0.11947541073358281,-0.2772290913840125,0.04238816700683401,0.30483946526288674
1.0544640636657547,0.119816603543213,-0.2732132115577035,0.028043972481103907,0.29964636131084066
1.0569510072121362,0.11058068519087627,-0.2691962259630096,0.032853553639927924,0.2928720744570623
1.0594379507585177,0.11570966786633097,-0.2699665279615542,0.03766329620480491,0.29612358456962545
1.0619248943048993,0.11604993387657836,-0.26594730096395436,0.0424731991758307,0.2932567589860464
1.0644118378512808,0.1116014788100238,-0.25713853503161443,0.04249485823015675,0.2835153069003332
1.0668987813976623,0.10715270157563084,-0.25790543019725964,0.04730507900327652,0.2832572733041395
1.0693857249440437,0.10270359776239357,-0.258671169902672,0.04732705384685332,0.28230949888018203
1.0718726684904252,0.10783096960037064,-0.24985893760048317,0.028195571789702,0.2735909299891837
1.0743596120368066,0.1033811993982815,-0.2506223366762663,0.013852648420598968,0.27146109094742055
1.0768465555831883,0.1085078960279745,-0.25617295392534123,0.018663492685213612,0.2788312604111378
1.0793334991295698,0.09926903847921631,-0.2712991827951816,0.023474490284563387,0.28984244043970087
1.0818204426759512,0.10439504226602958,-0.2816358034637805,0.02828564019847768,0.3016904507667636
1.0843073862223327,0.1143090963408605,-0.29675961272268214,0.018731731443443422,0.3185650875605324
1.0867943297687142,0.10985758301654547,-0.302305390774086,0.01875477959607963,0.3221940092475457
1.0892812733150956,0.10540570784922165,-0.30784993443420205,0.02356638030877356,0.32624732896867636
1.0917682168614773,0.11531867639623594,-0.3229700405319176,0.02837812923159433,0.34411242701427297
1.0942551604078588,0.11565446765374177,-0.32851208598714887,0.023613218692004168,0.34907553713328965
1.0967421039542402,0.1016246739005463,-0.33884127097512984,0.018848454296454875,0.3542544925485057
1.0992290475006217,0.10195971065914478,-0.3443807790828939,0.018872238328851765,0.35965270050283016
1.1017159910470031,0.11187117021144277,-0.33076539059075083,0.023684569750582085,0.3499740864426961
1.1042029345933846,0.11699383820041642,-0.336302322316266,0.02849704420053989,0.3572098706647766
1.1066898781397663,0.11253930691146008,-0.3370495479269846,0.028521257315468063,0.35648415880197487
1.1091768216861477,0.1176611852334184,-0.32821865438597175,0.03333401469092934,0.3502610399871585
1.1116637652325292,0.11799425881493864,-0.32896324527235477,0.02378170199851759,0.3502927792623657
1.1141507087789106,0.12311532990831298,-0.33928331089873387,0.014229528149947157,0.36121050508562147
1.116637652325292,0.12344758748676632,-0.34002522831141313,0.009465895414281889,0.36186470665225917
1.1191245958716736,0.12856783380705428,-0.32640058453281284,0.009490802738257642,0.35093746566848166
1.1216115394180552,0.12889925784706047,-0.34150499980388194,0.01909265238695035,0.3655204685646774
1.1240984829644367,0.11965345190745724,-0.35660804457651096,0.019117830021921023,0.37663209825345484
1.1265854265108182,0.11998402489305415,-0.3477676926387585,0.028719947865310402,0.36900321093211264
1.1290723700571996,0.12031416578945742,-0.34850275763851446,0.023956988254544953,0.369463946627395
1.131559313603581,0.12543227354598174,-0.34923642335716343,0.00961735344707293,0.3712032167607708
1.1340462571499625,0.14012674711480866,-0.34518027691293396,0.014431462300066755,0.3728179125669602
1.1365332006963442,0.1356671622089003,-0.34591111540175135,0.024034103786080507,0.37234086104683684
1.1390201442427257,0.135995531067718,-0.35142892929589653,0.024060066875891906,0.3775923246499103
1.1415070877891071,0.14590025265263828,-0.3473684991239194,0.02887456046042125,0.3778696840836674
1.1439940313354886,0.1414393060064233,-0.33851821871304644,0.04326598678824567,0.36942063734582187
1.14648097488187,0.13697789673769456,-0.3296664819081565,0.04329232818438555,0.35960695094506717
1.1489679184282517,0.1420928271382187,-0.33039008589231544,0.028953583573764874,0.36081337334115854
1.1514548619746332,0.13284207626113476,-0.32153540794481517,0.024191768481234277,0.34873668784608464
1.1539418055210147,0.13795605968666758,-0.3078908419648254,0.024218478508174712,0.33825312958098613
1.1564287490673961,0.1430695631159874,-0.3086099918309926,0.00988009929345779,0.34030375153702525
1.1589156926137776,0.13860577557442721,-0.31411604151885664,0.019483856318164072,0.3438896177832233
1.161402636160159,0.13414149937251885,-0.3148321750229366,0.0386645385384341,0.34439539315149165
1.1638895797065407,0.13446513350453115,-0.30118157635695475,0.043480128268289064,0.3326886466645329
1.1663765232529222,0.12999986700794408,-0.2923178494759364,0.029142221101555066,0.32124594876052726
1.1688634667993036,0.1255340988854179,-0.29302938839360193,0.024381235872807494,0.3197178085562138
1.171350410345685,0.14022143810489585,-0.2985277805029125,0.019620364852727334,0.3304025516747024
1.1738373538920666,0.14533146043563783,-0.29444780657628167,0.01007120363093783,0.328515103659656
1.176324297438448,0.1360757582530061,-0.2855778606876678,0.01009896107696484,0.3165016832718423
1.1788112409848297,0.12681953721825168,-0.28628314357217155,0.014915232777779508,0.3134704092615943
1.1812981845312112,0.12235119635673708,-0.29656364602468877,0.010154807678448563,0.3209718547043775
1.1837851280775926,0.12745913469865888,-0.30684255222043966,0.005394491324347328,0.33230600868466487
1.186272071623974,0.13256654131820977,-0.3123314496761216,0.0006342826189964512,0.3393010825922915
1.1887590151703555,0.12809660529461397,-0.3130303292501213,-0.004125819535271802,0.33825101582298484
1.191245958716737,0.12841453231378896,-0.32330439178335446,-0.004097412916980403,0.3478977014129098
1.1937329022631187,0.12394351146531579,-0.33357682153697965,0.0007195013738972023,0.35585953350064103
1.1962198458095001,0.11947194180504084,-0.33427080279417654,-0.004040287724643932,0.35500258929228706
1.1987067893558816,0.11978822239423192,-0.3301747298212949,-0.013588377994434353,0.3514956819840817
1.201193732902263,0.11531554233874164,-0.33086540022743893,-0.013559560577721896,0.3506471860083899
1.2036806764486445,0.11084230071098045,-0.33634280500374825,-0.008742239899023119,0.3542441599563004
1.206167619995026,0.12073370322969701,-0.3418185318439151,-0.008713223704157613,0.362618885435942
1.2086545635414077,0.11625932573623599,-0.347292571785053,-0.00389570645865156,0.36625610952792637
1.2111415070877891,-4.489871216858004,-0.6783763416686934,-0.08526935235548194,4.541630639688448
1.2136284506341706,-4.144793304755272,0.8723840980852713,-0.16664290273701887,4.2388837458426245
1.216115394180552,-3.6943711023297476,2.2459753286349273,-0.21449753546989214,4.328832661502237
1.2186023377269335,-3.1625466303951355,3.418455342247235,-0.24319846162473446,4.663333958457073
1.221089281273315,-2.57805031307915,4.356305324524417,-0.28147610223391517,5.069809492808984
1.2235762248196966,-1.955247364542169,5.049948477645934,-0.291023231846232,5.423067988224176
1.226063168366078,-1.3085029989380756,5.494596407087036,-0.2814166582143578,5.655259950747113
1.2285501119124596,-0.6857012536563502,5.714191138220118,-0.2765983990526344,5.761828984596618
1.231037055458841,-0.10120734283759525,5.70873267979108,-0.2622032455136072,5.7156471442450645
1.2335239990052225,0.44976713266561996,5.478221040520689,-0.2525964086723569,5.502454105951634
1.236010942551604,0.9528569587263591,5.084905472268432,-0.22383587304210018,5.178252846642312
1.2384978860979856,1.3793317112637271,4.543151193665137,-0.17592163973823105,4.751181659495548
1.240984829644367,1.7196145794851523,3.881688633276834,-0.13758412979859536,4.247765334909746
1.2434717731907485,1.9880707692068138,3.114883009682602,-0.10403494101941213,3.6967208193663788
1.24595871673713,2.1799118729708393,2.295406767998181,-0.07527407451775048,3.166476620912523
1.2484456602835114,2.2951378866471344,1.475932353312539,-0.04172472477053013,2.7290612274067687
1.250932603829893,2.319383596152055,0.6564597741649694,-0.008175296216087702,2.4105075267802385
1.2534195473762746,2.2718026106517173,-0.1294921376898457,0.011009000066183106,2.2755167574794744
1.255906490922656,2.1619717326792602,-0.843616147203829,0.03977017955898354,2.3210755360197455
1.2583934344690375,1.999467764775568,-1.4907006492388262,0.06853143450244303,2.494946156840389
1.260880378015419,1.803444316129991,-2.0420152154417996,0.07813915049570497,2.7254987191920637
1.2633673215618004,1.5595361726976253,-2.478406224127833,0.09253534302041011,2.929712148907439
1.2658542651081819,1.2964737503244348,-2.8190272802021683,0.10214320431571622,3.104543803200757
1.2683412086545636,1.0142570449425383,-3.0447247620355453,0.11175113658145541,3.211160934349947
1.270828152200945,0.7320396657736651,-3.1554986613078397,0.11178233205628807,3.241226490626894
1.2733150957473265,0.4641868187274517,-3.170502583008553,0.10223678961928684,3.2059333107062407
1.275802039293708,0.20112169312040468,-3.080159712233726,0.09269131478996151,3.0881103393740417
1.2782889828400894,-0.03800210180059149,-2.9036236540299036,0.0927227130876691,2.9053522997229737
1.280775926386471,-0.25318457006132145,-2.660048013472421,0.08796577343007606,2.673517502802415
1.2832628699328525,-0.4444257156788237,-2.359009589025066,0.08320889801600195,2.4019500782859504
1.285749813479234,-0.5877835260598404,-2.005296775860457,0.07845208572388529,2.091138293499048
1.2882367570256155,-0.697623215164734,-1.642005195743033,0.06890693211180832,1.7853871788710027
1.290723700571997,-0.7691563836636494,-1.2691348405839349,0.07372704933939644,1.485846716158449
1.2932106441183784,-0.7975946322176208,-0.8962625089648215,0.0641820163631639,1.2014836717753263
1.29569758766476,-0.806879981400437,-0.5425418061377258,0.04027183206153673,0.9731540146603456
1.2981845312111415,-0.7922240318547571,-0.20797272410367285,0.030726915234891905,0.8196436505818623
1.300671474757523,-0.744049980893576,0.08829113182497483,0.01639365148057159,0.7494494311396416
1.3031584183039044,-0.6623578324610834,0.34146136626622914,0.0020604429976103233,0.7451966239190103
1.305645361850286,-0.5615128004528774,0.551537987127821,0.002092498625820838,0.7870801451364025
1.3081323053966674,-0.4558800987549376,0.7185210022866881,0.0021246072833314145,0.8509427766448147
1.310619248943049,-0.335882924641957,0.8280452096278625,-0.0026316354708875167,0.8935788346637005
1.3131061924894305,-0.2063096853398103,0.8848990202864608,-0.012176230757313888,0.9087123983771791
1.315593136035812,-0.086313998025346,0.8890824420459991,-0.021720776375836692,0.8935264333728274
1.3180800795821934,0.028892536736088048,0.8501722892991079,-0.026476870126050045,0.8510750406531754
1.3205670231285749,0.14409831838923082,0.7777453764067652,-0.021656109807221213,0.7912781956914315
1.3230539666749563,0.24972653642804998,0.667013307737184,-0.026412109819826668,0.7127185245522837
1.325540910221338,0.3457771869974014,0.5371297042281262,-0.016802854681156276,0.6390246616034989
1.3280278537677195,0.43225026625244944,0.3833061701836944,-0.007193555470585977,0.5777678253559236
1.330514797314101,0.4947805603979336,0.21511951983646016,-0.0023726166264488313,0.5395274229101042
1.3330017408604824,0.5333680656099791,0.042146567386638356,0.002448364054014718,0.5350362801171041
1.3354886844068639,0.5623779880362971,-0.13082427631858495,0.007269385453740895,0.5774398987487009
1.3379756279532453,0.5865987271946791,-0.29900460046490496,0.021667253096797623,0.6587649715204624
1.340462571499627,0.5820882626918178,-0.44324078430992975,0.04085356254686445,0.7327742844915007
1.3429495150460085,0.5632118007078004,-0.577898030386693,0.06003990936817516,0.8091838213275652
1.34543645859239,-4.703755491628829,-1.9814800178240346,0.016977049281813095,5.104102958039407
1.3479234021387714,-4.3539264842878405,-0.5263830771514164,-0.10748863210771553,4.386947547045309
1.3504103456851528,-3.865234579454425,0.8281595470055678,-0.21758906950776336,3.9589432419114003
1.3528972892315343,-3.2807754107478564,2.0534174420187923,-0.3181126673515706,3.883452865181229
1.355384232777916,-2.638856208455718,3.1158717919059686,-0.4186362333919931,4.104567627462025
1.3578711763242974,-1.9729957995341185,4.005945797251961,-0.48564094549832326,4.491788205541801
1.360358119870679,-1.2927709943257557,4.714062658607876,-0.5191268047813118,4.915601309351035
1.3628450634170604,-0.646065829724493,5.230645576490105,-0.5334590223118436,5.297323166626613
1.3653320069634418,-0.04245711604997193,5.541329348060265,-0.533426002519386,5.567106685751684
1.3678189505098233,0.5036899330695975,5.674844400328099,-0.49987413323100327,5.719041586287363
1.370305894056205,0.9732217006975237,5.640767546987254,-0.44716862551509706,5.741548465135363
1.3727928376025864,1.3517729732293429,5.424733585094835,-0.3800978837985589,5.603525590347322
1.3752797811489679,1.6441321503538133,5.065049748196278,-0.2986619091870679,5.3335821373191115
1.3777667246953493,1.8550876317718907,4.595234866481254,-0.23159112270720428,4.960964427184982
1.3802536682417308,1.975062607235562,4.020077350182536,-0.15973191218153815,4.481897866721189
1.3827406117881123,2.013633879790479,3.36351922277821,-0.07350747207220643,3.920891009998752
1.385227555334494,1.9755898491742583,2.668656120991906,0.007928583237799103,3.3203529340568747
1.3877144988808754,1.8800841250978593,1.940276454949216,0.08936465596804055,2.7032156926171402
1.3902014424272569,1.7319051073238154,1.1975338447004447,0.1564355350579376,2.11141059166762
1.3926883859736383,1.5454180022678607,0.4691587169004654,0.20435281608860656,1.6279394266435778
1.3951753295200198,1.320622806397453,-0.22569530847273445,0.2474817079235443,1.3624353800457627
1.3976622730664012,1.086249936114668,-0.8678746114775571,0.2762454028258219,1.4175530986664457
1.400149216612783,0.8375109845922158,-1.4525907821698663,0.28585549637998753,1.7009285683320554
1.4026361601591644,0.5839827549766485,-1.9606902006812463,0.29067719745304466,2.0663579443738054
1.4051231037055458,0.36397247034937674,-2.392172860461324,0.2859221016319573,2.4365382003370226
1.4076100472519273,0.15353811064081324,-2.737461948356018,0.2668018045049383,2.7547150620351584
1.4100969907983087,-0.03774352096329914,-2.986980651248303,0.23810470830209418,2.996693483895553
1.4125839343446904,-0.20508402458431851,-3.1455173660192726,0.22856123185638744,3.1604713562657443
1.4150708778910719,-0.3197529837286879,-3.217860489587299,0.1998641475177383,3.239878667251816
1.4175578214374533,-0.4056924184130174,-3.218375225548869,0.16159026084051042,3.2478665063673784
1.4200447649838348,-0.4820559453200175,-3.1374847609364274,0.12810478070078446,3.176885171731122
1.4225317085302163,-0.5296899545564506,-2.9799774927810425,0.08504249605413072,3.0278820207489456
1.4250186520765977,-0.5342292395357549,-2.769795431432779,0.05155701909972166,2.8213163131026793
1.4275055956229794,-0.4956738036186067,-2.5069385706782112,0.013283138796021277,2.55550581265708
1.4299925391693609,-0.4475424733941177,-2.205772114302809,-0.02499074261582024,2.2508552647702826
1.4324794827157423,-0.3946236555156645,-1.8854496694504703,-0.04889941625254046,1.926924865798683
1.4349664262621238,-0.3177637400211558,-1.5411828267019008,-0.07280809315122028,1.5752838849621393
1.4374533698085052,-0.23132794017669056,-1.1825483866371198,-0.08713996774585553,1.2081087188755797
1.4399403133548867,-0.13531625927336144,-0.8526419731168544,-0.09189504110949542,0.8681897966025943
1.4424272569012684,-0.039305507228735825,-0.5227331602357492,-0.09186171763392181,0.5321968196778482
1.4449142004476498,0.04712750605380511,-0.20239874868981245,-0.10140520834992373,0.23123423530814968
1.4474011439940313,-11.04736216896322,-1.2802756954637433,-0.1253139176460234,11.122006128688778
1.4498880875404128,-10.348015404654527,0.5627758002311691,-0.20189507315125788,10.365273804239616
1.4523750310867942,-9.452345046036626,2.180774762777395,-0.2688994327664176,9.704375937701613
1.4548619746331757,-8.422600339478723,3.5402023747213325,-0.31196178759371485,9.141692922511035
1.4573489181795574,-7.273146498132196,4.645847045132657,-0.33587054201487554,8.63686075904051
1.4598358617259388,-6.047079155056085,5.488131973080392,-0.3502025037301699,8.173701771846094
1.4623228052723203,-4.7874939432941686,6.052691954274129,-0.3597460771177996,7.725580585976355
1.4648097488187017,-3.518332882594055,6.368257414266557,-0.3501360532728768,7.2839525000445375
1.4672966923650832,-2.2922684126113717,6.444405165289131,-0.3261608365699704,6.847717378891533
1.4697836359114647,-1.1236657464233062,6.295500422854049,-0.28782042806145824,6.401467869375746
1.4722705794578463,-0.04125530705293601,5.964638822355232,-0.2446916354384694,5.96979834483216
1.4747575230042278,0.964539709053,5.4661855792251295,-0.20156286306997373,5.554291064090697
1.4772444665506093,1.841046862300336,4.828871118816414,-0.14406890204170963,5.1699328506142805
1.4797314100969907,2.5882661496327293,4.10536788304346,-0.08657496335939108,4.853932667511989
1.4822183536433722,3.2253511812905424,3.319617893858351,-0.0530230646673715,4.628775718185487
1.4847052971897536,3.7092063243654225,2.5003515764930593,-0.014682787084597138,4.4732745441142265
1.4871922407361353,4.049408382487882,1.6762993561389656,0.03323427167044457,4.3827836241786455
1.4896791842825168,4.279476175905395,0.8714032546268147,0.06678609395940072,4.367804981299236
1.4921661278288982,4.399409701638913,0.1143936970665238,0.08597267874756653,4.40173635538229
1.4946530713752797,4.39484374676398,-0.5803641014334406,0.10994763828353982,4.4343615698167005
1.4971400149216612,4.270566711653086,-1.2032933291258852,0.13871097153677603,4.439019667474226
1.4996269584680426,4.069674223256966,-1.7352403676639743,0.15310906419761672,4.426821636631892
1.5021139020144243,3.8017430852999703,-2.1809936153435054,0.1722955285210439,4.38630475297187
1.5046008455608058,3.461984891561388,-2.530976260540497,0.17711675020172102,4.292149876695931
1.5070877891071872,3.0743416557583183,-2.7660346850315833,0.16757272821774194,4.138913518590465
1.5095747326535687,2.6675437949442116,-2.9053224971972114,0.15802867151036004,3.9473613682667734
1.5120616761999501,2.227226096305584,-2.9632049021389792,0.14369617574179294,3.7096856965311633
1.5145486197463316,1.7629653636470275,-2.9396818950389796,0.11021002993591544,3.4295659737257624
1.5170355632927133,1.3130688207108094,-2.8395418744412377,0.08151224968135296,3.129503480023029
1.5195225068390947,0.882324868013469,-2.6771500455720636,0.06717964060812598,2.819599731049378
1.5220094503854762,0.4707335027675107,-2.4525064037385755,0.043270185106381476,2.4976488944456605
1.5244963939318577,0.0878715288424462,-2.203918170852217,0.02414909213111649,2.205801416275828
1.5269833374782391,-0.2518958465554547,-1.9313853423038378,0.028969973960009554,1.9479579352155543
1.5294702810246208,-0.5533570294846889,-1.649273123487183,0.043367619630936716,1.7401685517126613
1.5319572245710023,-0.8213004259870649,-1.338427896596011,0.038611608223247273,1.5708005858168446
1.5344441681173837,-1.026995618845827,-1.032368480389356,0.029067148701532375,1.4564853516474472
1.5369311116637652,-1.1848078207100432,-0.7406716770672883,0.029099450032845198,1.3975732121136142
1.5394180552101466,-1.304313840891922,-0.4441838689500024,0.014766494624220527,1.377952087099228
1.541904998756528,-1.3615716654445893,-0.2051542948454994,-0.009143315192934764,1.376971054542478
1.5443919423029098,-1.3853117169277507,0.009935872802072865,-0.013899560483142892,1.385417075254696
1.5468788858492912,-1.3755339979623025,0.19629823494348742,-0.01865585551150417,1.3895951991630333
1.5493658293956727,-1.3130848978708958,0.3443559891667243,-0.028200604579627253,1.3577806414845774
1.5518527729420541,-1.2123296292013068,0.4636859462982996,-0.028168598705292425,1.298283966082516
1.5543397164884356,-1.1067870177654888,0.5351344972001266,-0.028136645505242086,1.2296902470167617
1.556826660034817,-0.9820918561550414,0.5730668559335506,-0.01852793931234409,1.1372129615119506
1.5593136035811987,-0.8286673402646554,0.567906219915463,-0.008919287738068604,1.0046325642411373
1.5618005471275802,-0.6704554892140249,0.5483830130823457,0.005477711569705335,0.8661780979559172
1.5642874906739617,-0.5026679021834517,0.48576681948391665,0.010297847684540784,0.6991069077501425
1.5667744342203431,-0.3396697916171987,0.39442285300965585,0.03427153956550555,0.5216507382700976
1.5692613777667246,-0.18146115998110024,0.3078699407871621,0.0630335762915859,0.362884671434444
1.571748321313106,-0.02325360640316021,0.19737766673678214,0.06785353698358065,0.21000660946358685
1.5742352648594877,0.13016446336558019,0.08688805125903576,0.07267343728848452,0.17255071562345253
1.5767222084058692,0.2644278369510378,-0.02838730521071131,0.08228167957482846,0.278384975969224
1.5792091519522506,0.3747481086375133,-0.138871592319596,0.0775246496123927,0.4071013821866708
1.581696095498632,0.4850672926488776,-0.2493532097190938,0.05361394313471379,0.548034448272532
1.5841830390450136,0.576231773344,-0.3550437504635635,0.05843359240161661,0.6793479271149375
1.586669982591395,0.6242995317792911,-0.4463664043306097,0.058464773230479494,0.7696824033351489
1.5891569261377767,0.6819430021540734,-0.5281095711024033,0.05849588800406025,0.8645043355531876
1.5916438696841582,0.7204317622403078,-0.5954848439641443,0.06810374242833994,0.9371564667484412
1.5941308132305396,0.7397658097498684,-0.6580690261057378,0.05376951232941707,0.9915641466142149
1.596617756776921,0.7447335457330002,-0.6967085008389811,0.049012020020713365,1.0209960662940176
1.5991047003233025,0.7497001778987,-0.7305568780820271,0.03467765129516742,1.0473615652455697
1.601591643869684,0.7259352840913404,-0.7644025578359801,0.010766405229954756,1.0542339505994576
1.6040785874160657,0.6830156687360122,-0.7647267135834195,-0.0035681058135050847,1.025343884550981
1.6065655309624471,0.6353065395964121,-0.7458945520540445,-0.008325882752018288,0.9798175352388176
1.6090524745088286,0.5732310878530108,-0.7462132966231807,0.0012814768209725713,0.9409727978646482
1.61153941805521,0.5159429246265438,-0.7465293308665171,0.020465568674458368,0.9077014833178196
1.6140263616015915,0.4538652411343151,-0.7229006350835951,0.034861181939890074,0.8542799818094893
1.616513305147973,0.3917864385730604,-0.6896924161806708,0.03967991239243496,0.7941956546307499
1.6190002486943547,0.3344949181580564,-0.666058284428579,0.0349217591306914,0.7461501308652896
1.6214871922407361,0.27720227448256707,-0.6232678169393524,0.044528737857961076,0.683583704535061
1.6239741357871176,0.21512010215849575,-0.5708978174318857,0.04934723439790467,0.6120752615846307
1.626461079333499,0.15782520577736892,-0.532890299630409,0.035012037897669046,0.5568722562819984
1.6289480228798805,0.11968279326979114,-0.4948800507411244,0.02546516407010202,0.5097830030586687
1.631434966426262,0.0767508460226598,-0.447290261335048,0.030283418670334683,0.45483662528069607
1.6339219099726436,0.03860616868390776,-0.41406294526993515,0.039889994175482,0.4177676035086776
1.636408853519025,0.014825565920366546,-0.38083288988563613,0.03034287310497774,0.382327317061924
1.6388957970654066,-0.0089561741837475,-0.3523884958478929,0.025584071184647783,0.3534294975809619
1.641382740611788,-0.027950650243971475,-0.31915295390619614,0.011248377581109636,0.32057194642438475
1.6438696841581695,-0.03258105753648555,-0.2954914714563275,0.0017010013861522566,0.2972871144522363
1.646356627704551,-0.03242420459962836,-0.2909808526185178,-0.00784646158634672,0.29288692800113864
1.6488435712509326,-0.04184530327290659,-0.281679078315634,-0.017394012198851172,0.28530104140560086
1.651330514797314,-0.0369023388141404,-0.27237454943726025,0.011365575252039406,0.2750978991048712
1.6538174583436955,-0.012806909743163675,-0.28700928019912775,0.025759863387158077,0.28844742054543665
1.656304401890077,0.0017105621972851592,-0.29685284833845715,0.03536565799481828,0.2989569690692831
1.6587913454364585,0.02101528516660911,-0.30190525155931525,0.049759764866731615,0.30669929463453244
1.6612782889828401,0.04510725738264987,-0.31653169757171096,0.06415377983710968,0.32610226571368994
1.6637652325292216,0.05483286380141805,-0.3215785708885148,0.06418249210299543,0.33247377716132065
1.666252176075603,0.069345715960897,-0.3361994826301804,0.049845900825838285,0.34687682867564057
1.6687391196219845,0.09822261877795535,-0.35560602736071845,0.04508602177213561,0.3716666233254058
1.671226063168366,0.11752155394682695,-0.37022139636897666,0.04511445079002918,0.39103773685100757
1.6737130067147474,0.14160772974385916,-0.38962239427025125,0.05471959037181051,0.41815379085995585
1.6761999502611291,0.18005795114472922,-0.40423221244380825,0.05474782641174514,0.4458944626752662
1.6786868938075106,0.19456498994167726,-0.4188392522751081,0.04998756140922822,0.4645219164399221
1.681173837353892,0.20428245779043797,-0.42386670523397196,0.050015601187544334,0.47317635901316585
1.6836607809002735,0.21399875640558297,-0.4288913761167916,0.03567833165169887,0.48064147095307935
1.686147724446655,0.2237138842011961,-0.443490069765315,0.016552558632184855,0.4969963090024936
1.6886346679930364,0.23821624293153937,-0.4532975744651151,0.011791894603755182,0.5122154997564217
1.691121611539418,0.2383522177692204,-0.4583138885081195,0.02139633876354985,0.5170311435759198
1.6936085550857995,0.24327542046929762,-0.4681158168723276,0.026212277031124387,0.5282068076783151
1.696095498632181,0.24819744620525974,-0.4731265512999663,0.03581651525159302,0.5354750494771722
1.6985824421785625,0.24832989017062945,-0.47813449353970183,0.040632245992505034,0.5403066792841076
1.701069385724944,0.2484611542196311,-0.4735628354247954,0.05023627510638562,0.5371390765791366
1.7035563292713254,0.23901443026566865,-0.46898838211531313,0.05505179516823233,0.5292529646450799
1.706043272817707,0.22956652352355256,-0.4596227288559689,0.04071359543648079,0.5153750464051036
1.7085302163640885,0.22490583590797975,-0.4598310842183331,0.03116369173582534,0.5128337320433206
1.71101715991047,0.22024396271325886,-0.43130622029618415,0.040767293254116765,0.4859983857762153
1.7135041034568514,0.20600409593366253,-0.4410857822758212,0.0407939793001848,0.4885268709236603
1.715991047003233,0.19655144418534398,-0.4412857357017388,0.040820555749176535,0.48480087511971437
1.7184779905496144,0.20146281278449873,-0.4510596926485113,0.05042382848006355,0.4965729289296773
1.720964934095996,0.1967961838255302,-0.46083084531456997,0.05523858677409699,0.5041280664974253
1.7234518776423775,0.19691676598577446,-0.47059919258472016,0.060053233197640665,0.5136596184295364
1.725938821188759,0.19224775136147576,-0.47557633006923394,0.06007936368030187,0.5164703026950288
1.7284257647351404,0.17800073538969907,-0.4661854501038589,0.050528574155585204,0.5015638269393116
1.7309127082815219,0.17332933012961815,-0.46636856831234574,0.036189267201530484,0.4988510411470272
1.7333996518279033,0.17344513105942438,-0.4761256837627146,0.01706144207977367,0.5070206830421959
1.735886595374285,0.16877133035762004,-0.4667263756469633,0.002721904696537436,0.49631107225248183
1.7383735389206665,0.16888473350460864,-0.45732425640608687,-0.006829345678648124,0.4875594001459735
1.740860482467048,0.16899693604054855,-0.4622845352066518,-0.002015503131648444,0.4922103393217142
1.7433474260134294,0.16431953352632434,-0.4720304046595678,0.012375028294716373,0.49996675224126574
1.7458343695598109,0.16921773482483182,-0.46261984746072615,0.02197703792100114,0.4930869651893201
1.7483213131061923,0.16932632889788823,-0.4627832828753866,0.022002121712402456,0.4932786899175792
1.750808256652574,0.17901052465001888,-0.4677323069725716,0.026815488919398334,0.5015349931633338
1.7532952001989555,0.20784712768628855,-0.4583133059063367,0.022051928874638804,0.5037239347354142
1.755782143745337,0.2127405071092484,-0.4536798924392076,0.017288247516404454,0.501380944662778
1.7582690872917184,0.21284427520641835,-0.458620469418773,0.022101250787057936,0.5060868361698352
1.7607560308380998,0.20815843100504505,-0.45876982645737074,0.02212572803148838,0.5042709925299407
1.7632429743844813,0.20825978019399471,-0.44455115653366484,0.022150081879935613,0.49141478706807123
1.765729917930863,0.20835991852222524,-0.44469487923484463,0.036539521607387826,0.49244545678032015
1.7682168614772444,0.20845884508006762,-0.44483578431132065,0.04614043325078221,0.49341960305256755
1.770703805023626,0.20376815565863238,-0.4306086615595448,0.04616441281215167,0.47861929931931707
1.7731907485700074,0.21344146267171527,-0.40680191410327193,0.05576507289925736,0.46276862324598733
1.7756776921163888,0.24226716859332725,-0.3925691550732542,0.06057720288184676,0.4652671490683012
1.7781646356627703,0.2471496427155364,-0.38312198104475215,0.04144718881355658,0.45780265149365323
1.780651579209152,0.23287728755475068,-0.38803719860003527,0.05583586987721567,0.4559850248869656
1.7831385227555334,0.22818052225018037,-0.39773800108620705,0.06543601885363692,0.46318866653430785
1.7856254663019149,0.21390573275918345,-0.3882823719355146,0.031940408527869835,0.4444536562568023
1.7881124098482963,0.2139949349432302,-0.3836123278294239,0.017598281415766692,0.4396156841524825
1.7905993533946778,0.1901409015210559,-0.3980930788548718,0.01283283023275672,0.4413573873803109
1.7930862969410595,0.17586245503744002,-0.39820580194176625,-0.0015095589420912603,0.43531338431075195
1.795573240487441,0.190313208097603,-0.3887389006286197,0.008089936498020478,0.43290010061316847
1.7980601840338224,0.18082072352349465,-0.3888459884609805,0.022477702640752995,0.4294212196826831
1.8005471275802039,0.17132701728349753,-0.37458504914769186,0.03207693221870578,0.41315352531087285
1.8030340711265853,0.17140889540651605,-0.36510969632650614,0.041676027929744563,0.405491049321827
1.8055210146729668,0.1714895506616969,-0.3652083337203491,0.04169818251513924,0.405616236644948
1.8080079582193485,0.18114578912094503,-0.36530415513730574,0.04650860532207801,0.4103948989032825
1.81049490176573,0.17643559363552042,-0.365397161072186,0.04653048910055624,0.4084234205295633
1.8129818453121114,0.1669357703204276,-0.37027575538621127,0.036975429925265146,0.4078466241829913
1.8154687888584928,0.17658833527319362,-0.3847283419866949,0.03699704047684449,0.4249330750676327
1.8179557324048743,0.18145127140983353,-0.3848129049051612,0.04659532015910095,0.4279914246086279
1.8204426759512558,0.18631298158986476,-0.3848946547817236,0.06577026838025724,0.432645525333683
1.8229296194976374,0.18159665873352027,-0.4041272056228893,0.08015667459204323,0.4502457520836797
1.825416563044019,0.17209070574365404,-0.4089917349577945,0.08975453821155277,0.4527088770906805
1.8279035065904004,0.1673719288651152,-0.4186418568850905,0.08498705201973067,0.4587997013068232
1.8303904501367818,0.16744032772385464,-0.43786597558854323,0.06585421544260228,0.47339164929045724
1.8328773936831633,0.167507498647246,-0.45229888201671153,0.05150964119193624,0.4850631751765396
1.8353643372295447,0.17236184462504622,-0.4523637704845207,0.04195332870271251,0.4859029410476526
1.8378512807759264,0.17242655870785195,-0.4667910619154094,0.041973680734752605,0.49938622678881606
1.8403382243223079,0.1724900439289938,-0.4860039507163414,0.027628680130508343,0.5164455434334506
1.8428251678686893,0.16776389670299263,-0.47648361473873235,0.018071939619778377,0.5054779472470406
1.8453121114150708,0.16782492342713917,-0.4813256850049812,0.018091861975957357,0.5100656187576228
1.8477990549614522,0.17267312387994882,-0.49574175938035037,0.003746430055109329,0.5249666041208175
1.8502859985078337,0.17273169122117893,-0.49578982249481696,0.003766063241291917,0.5250313976077128
1.8527729420542154,0.17757743191371989,-0.4958350855868088,0.013362357680932746,0.5268441221336184
1.8552598856005968,0.17284513584080097,-0.5006659533000621,0.018170102884413453,0.5299735752058918
1.8577468291469783,0.1776884161497504,-0.4863404104023594,0.022977701647960203,0.5182934909847556
1.8602337726933598,0.18253046608795143,-0.4815888782308173,0.022996750131778043,0.5155328012867127
1.8627207162397412,0.18258288224504504,-0.4911997615668722,0.032592457781934314,0.52504855295156
1.8652076597861227,0.18263406787325231,-0.4912310453159505,0.037399614127245684,0.5254159055139082
1.8676946033325044,0.18747242624676674,-0.48647113435118916,0.04699502530272426,0.5234583150194347
1.8701815468788858,0.18752115070082642,-0.48170843359154825,0.06137869080739655,0.5205521497781131
1.8726684904252673,0.18278024123329262,-0.47694294468147147,0.06139699686370115,0.514444146910639
1.8751554339716487,0.1828265045046551,-0.462597862670556,0.03747313633935967,0.4988251690160246
1.8776423775180302,0.1876599405568009,-0.4674036092166567,0.027914335309887406,0.504441867130725
1.8801293210644117,0.18770374281302027,-0.45784136285929344,0.037508996613315304,0.4962442276115757
1.8826162646107933,0.17816950803895149,-0.4530647387071225,0.04710350649079764,0.48911222779472996
1.8851032081571748,0.17821084962384548,-0.4626505452738616,0.05190946114913153,0.498496967014492
1.8875901517035563,0.19261617101807083,-0.4530799612360723,0.03756165015919777,0.4937543095245098
1.8900770952499377,0.19265505245187797,-0.43871819851905736,0.02800208965908979,0.47997264919192906
1.8925640387963192,0.18790430074008357,-0.443507275734345,0.023230779190077655,0.48223064913762814
1.8950509823427006,0.18794072271958617,-0.4530819849765271,0.028036121618470133,0.4913156057790511
1.8975379258890823,0.18797591528843294,-0.4435003117451086,0.0041108899325195125,0.4817098407366928
1.9000248694354638,0.1880098786870753,-0.4387042747882153,-0.010237689749759582,0.4774033572282405
1.9025118129818452,0.1832542098577472,-0.43869387629788115,0.01372080205378623,0.4756287238391381
1.9049987565282267,0.17849731240541244,-0.43868071519126595,0.01852552506447047,0.47396756797864376
1.9074857000746082,0.17373918663682186,-0.44345319707155495,0.018541688813069612,0.47663386072566066
1.9099726436209896,0.17376823620114978,-0.4434345176263643,0.018557696194532625,0.47662769477133154
1.9124595871673713,0.16900765480874336,-0.4338362759089529,0.03772716006954724,0.4671197279985226
1.9149465307137528,0.17861105611393513,-0.4290236842991195,0.04253125678016545,0.4666606249288944
1.9174334742601342,0.17863642391036094,-0.4242083419406715,0.03296998591543243,0.46146582678547243
1.9199204178065157,-8.18189163200892,-2.1575806566162217,-0.010110266212022267,8.46159601879131
1.9224073613528971,-7.612048721558154,-0.5917403379117445,-0.13938193652695574,7.636286380899883
1.9248943048992788,-6.879401323765988,0.7969318010261794,-0.24950015237889822,6.929899941193751
1.9273812484456603,-6.022256664712154,1.9940705475917229,-0.3308881075188417,6.35243100113178
1.9298681919920417,-5.074133567132431,2.9948874957755787,-0.39312260897422036,5.905144194271609
1.9323551355384232,-4.0829160637027195,3.785017432881286,-0.4170500438456415,5.583053939335406
1.9348420790848047,-3.0821229771149756,4.374037162769999,-0.4457660423929717,5.369393868203728
1.9373290226311861,-2.0956963233984203,4.785888699218741,-0.47448220166806365,5.246123052399274
1.9398159661775678,-1.142789715240736,5.015783636037453,-0.48883331207726144,5.16749570138162
1.9423029097239493,-0.276075588548495,5.068510373632308,-0.4840309706626815,5.0990490406321225
1.9447898532703307,0.5044460573163135,4.982376135606646,-0.4600751777818477,5.028936960294451
1.9472767968167122,1.1939868196939427,4.7765345322379265,-0.4456963537092573,4.943635494549934
1.9497637403630936,1.7638162793448664,4.45098556047779,-0.39301046558954056,4.803829467510963
1.952250683909475,2.2187228402941135,4.029671233834664,-0.32595953036706327,4.611640804559097
1.9547376274558568,2.573071713229189,3.5365335657725394,-0.2684855649813116,4.381763594930626
1.9572245710022382,2.8077092856174866,3.009879779671866,-0.2158001664449838,4.121792987579301
1.9597115145486197,2.9274239615500695,2.4592866789466408,-0.16790333508613386,3.827021498480894
1.9621984580950012,2.951369355100873,1.8943310669664721,-0.11042986126696164,3.508741372025347
1.9646854016413826,2.898699080365891,1.3485317636586558,-0.05295655194633575,3.1974675404926995
1.967172345187764,2.769413138181885,0.8123119590228711,-0.0050602140781208504,2.886091726621406
1.9696592887341458,2.563511529407519,0.29524845629591345,0.05241276531062056,2.580990141460812
1.9721462322805272,2.3193014814861446,-0.17871673136818833,0.12903919255708907,2.329753236999691
1.9746331758269087,2.0415713986406447,-0.6047952041412503,0.17693503415977396,2.136608766483208
1.9771201193732901,1.7494748950768328,-0.9829869655592502,0.19610028982521222,2.016279024994559
1.9796070629196716,1.4334351651008603,-1.2941384059205507,0.2200537825070601,1.9436960290698695
1.982094006466053,-8.737139806920634,-2.993924138224188,0.2344303019608578,9.23883928410902
1.9845809500124347,-8.588706831520472,-1.9786825206296264,0.12909657154082765,8.814631897024132
1.9870678935588162,-8.129028847139624,-0.9873802560671574,0.052493093903073884,8.18894286783141
1.9895548371051976,-7.3868362726658985,-0.07747818813548069,-0.014533744502280399,7.3872568805029815
1.992041780651579,-6.429166753527527,0.7510236793669876,-0.07677234725919391,6.473338837488525
1.9945287241979606,-5.29911591852967,1.464606519355811,-0.11985750466540246,5.499096980048516
1.997015667744342,-4.058933009736451,2.048905117984684,-0.14378921697458757,4.549024587639663
1.9995026112907237,-2.7708672691908105,2.499131068004157,-0.18687471099794095,3.7360786496200937
2.001989554837105,-1.4828027289525694,2.796130752160791,-0.21559516373698528,3.172307108524526
2.0044764983834864,-0.23783501773958782,2.9446925697594115,-0.24910418871168005,2.964765205356603
2.006963441929868,0.911363429111379,2.968758533342938,-0.2682481728744932,3.1170607327205975
2.0094503854762498,1.9264853862462226,2.8731170421299654,-0.27302711645415734,3.4699699260248886
2.011937329022631,2.7883772416137695,2.6673448986164017,-0.27780622963532586,3.8687146122386378
2.0144242725690127,3.48267378650482,2.365807308575548,-0.2682203026757808,4.218767954662212
2.016911216115394,3.9902214089115007,1.9828694777378728,-0.2442693357892587,4.462432718404511
2.0193981596617756,4.311020110128741,1.5520502250724153,-0.22031853914541166,4.587188087464141
2.0218851032081573,4.449858294793597,1.0829263529035886,-0.1915795096276227,4.583739852791126
2.0243720467545385,4.41152436756437,0.5994398734749642,-0.17241745739556258,4.455401574172708
2.02685899030092,4.219960346402334,0.11595599234616216,-0.15804397932259917,4.224510506173373
2.0293459338473014,3.8943198459698505,-0.35316008496526896,-0.12930546231617157,3.9124377325284185
2.031832877393683,3.448968077630763,-0.7839663463432611,-0.07662509991937227,3.537775492969063
2.0343198209400644,2.922212269371453,-1.1716743929956979,-0.023944908912419294,3.1484470440408745
2.036806764486446,2.3475712458797364,-1.50191901953168,0.014369900570088134,2.786944202842019
2.0392937080328277,1.7250450086226667,-1.774700230563334,0.03831932835949736,2.475239293696965
2.041780651579209,1.1025175922913482,-1.9852296274246357,0.06226858425311654,2.2716863981415565
2.0442675951255906,0.4991426116769104,-2.1191420048505325,0.07185245813137975,2.178317919692418
2.046754538671972,-0.07071472172855864,-2.1860141742194683,0.08622456312192028,2.1888566003836654
2.0492414822183536,-0.5687471798106314,-2.185846140310975,0.10538489907613524,2.26108440368957
2.0517284257647352,-1.0093199709566671,-2.123426311266451,0.10539144924885768,2.353459891463075
2.0542153693111165,-1.378067883611038,-2.017908305229743,0.105397826782756,2.4458400851335123
2.056702312857498,-1.641472092915687,-1.8549269171439158,0.1149808381848949,2.479597768372068
2.0591892564038794,-1.8282630171554717,-1.648847361915218,0.11977527336577687,2.464871071456487
2.061676199950261,-1.9192870413910095,-1.4331884677723536,0.14372314880342252,2.3996558659335077
2.0641631434966428,-1.9145441639430762,-1.1840082231413376,0.16767085109804647,2.2573144093064976
2.066650087043024,-1.8379763997130214,-0.9156718430518889,0.17246476685486734,2.0606688879745785
2.0691370305894057,-1.689583746979538,-0.6712749624962244,0.17247010592630474,1.8262117212333169
2.071623974135787,-1.4837314139613387,-0.43645237666381087,0.15811006156821605,1.5546537805699079
2.0741109176821686,-1.2395730121764952,-0.21120409074570512,0.13896144032270463,1.2650923691021894
2.07659786122855,-0.9523201365206186,-0.005106916614193935,0.12460104873688316,0.9604504903253916
2.0790848047749315,-0.6459148017903293,0.16268552717731666,0.10545208008160323,0.6743831649131959
2.081571748321313,-0.344299022761421,0.30175004195690347,0.08151453427336186,0.46501561714986045
2.0840586918676944,-0.04268439426702597,0.3929330090904819,0.06715362119456536,0.4009088624443052
2.086545635414076,0.24456387559922282,0.45538803646628656,0.07673455073262758,0.5225686024637055
2.0890325789604574,0.5078689820847143,0.49869192529185424,0.07673849957681789,0.7159003678113047
2.091519522506839,0.7376541204575072,0.49890265349257046,0.06716546766358888,0.8930557984450551
2.0940064660532207,0.9243424860063155,0.45602021555551575,0.057592261575004855,1.0323179437677903
2.096493409599602,1.0727224840012735,0.3891982192093235,0.028865267976243558,1.1415086443881675
2.0989803531459836,1.182794116412889,0.30801346550231656,0.009714906740576623,1.2222800808999024
2.101467296692365,1.2354037719508986,0.2076775454823463,0.004929581144693884,1.2527476774747346
2.1039542402387466,1.2544934692282244,0.08819045347824384,-0.009432725451601343,1.2576249030336548
2.106441183785128,1.225698000315787,-0.040871009579890316,-0.023795206441365124,1.226610059983117
2.1089281273315095,1.1729593838673478,-0.1747184461214566,-0.0142158452517549,1.1859858101485812
2.111415070877891,1.086700815314877,-0.29898665197420904,-0.01421346514870514,1.1271706626133855
2.1139020144242724,0.9764991033917898,-0.4184640362862386,-0.00942285619007599,1.062427145176891
2.116388957970654,0.8327774435705584,-0.5331506049240651,-0.004632421710018875,0.9888322898154724
2.1188759015170353,0.684266257906365,-0.6334695571523072,-0.0142073716783635,0.9325802061795689
2.121362845063417,0.5357539518728763,-0.7146324955945631,-0.02857089945842617,0.8936152399119999
2.1238497886097987,0.3824521243233734,-0.7862162328737514,-0.018992585127316275,0.8745091826410243
2.12633673215618,0.2339375840921346,-0.8386439683699303,-0.009414445280654604,0.8707118528618246
2.1288236757025616,0.10457554335363206,-0.8719157081420592,0.00016352009246212162,0.8781646047930858
2.131310619248943,-0.01999920561946511,-0.8860314582871789,0.009741311007855913,0.8863106715142643
2.1337975627953245,-0.1206330472924092,-0.9001448382215824,0.02889573412691071,0.9086517624077689
2.1362845063417057,-0.19732597939183394,-0.8903138375166231,0.05283838615499015,0.9134485023623314
2.1387714498880874,-0.2740200162261156,-0.866115269023588,0.06241565384142511,0.9105703390583374
2.141258393434469,-0.31719633224011157,-0.8275491389907663,0.08156955382328235,0.8900026307499699
2.1437453369808503,-0.3316433284214575,-0.7698270503836295,0.08156966621909234,0.8421844187800651
2.146232280527232,-0.3317262123787471,-0.7073142194862694,0.05762758775385102,0.7833623835345604
2.1487192240736133,-0.3078681750993929,-0.6400106526590874,0.05283894836058245,0.7121716107933493
2.151206167619995,-0.2840112307934287,-0.5774931629402262,0.05283853813343953,0.6457187031297636
2.1536931111663766,-0.2457901670888626,-0.5006081434829297,0.06241476045271099,0.5611745912649341
2.156180054712758,-0.17883977159428954,-0.42372081071954515,0.0672024054223197,0.46480012116529407
2.1586669982591395,-0.0975252518206986,-0.36598478443937976,0.07198987643230481,0.3855367420785838
2.161153941805521,-0.04015383186133348,-0.30824645790589944,0.07198877023693662,0.3190777210412976
2.1636408853519025,0.02679331401456231,-0.2505058377002718,0.06241068359534907,0.25954989852557564
2.166127828898284,0.09852778499449266,-0.22149335036188145,0.04804401991215812,0.2471340861147486
2.1686147724446654,0.16547277696483986,-0.18290177598194202,0.04325398923745638,0.25041007798960113
2.171101715991047,0.22762829247174798,-0.1538847345314882,0.048040591665234444,0.2789319800649901
2.1735886595374283,0.28978273740075333,-0.13444223273623912,0.04803861733339154,0.32304250121908584
2.17607560308381,0.3375709043751654,-0.12936268067802947,0.043248066345592306,0.3640868218921218
2.178562546630191,0.3709927959981978,-0.13864608515404298,0.04324574545094961,0.398407562818166
2.181049490176573,0.3948368182122862,-0.14792724303605587,0.04324325144245478,0.42384969156950636
2.1835364337229546,0.4043145703380926,-0.15720616119217068,0.04802898775852604,0.4364525547749306
2.186023377269336,0.4042144583556966,-0.1808480564866768,0.033660937920508616,0.44410404931782116
2.1885103208157175,0.39932488826390933,-0.21406453253773527,0.05759994189984852,0.4567293988615674
2.1909972643620987,0.3800690561192924,-0.2520671929984504,0.062385159985280936,0.4603067079588532
2.1934842079084804,0.3608121745985641,-0.2900676415567993,0.052804995634391005,0.4659538921189698
2.195971151454862,0.34155424643606674,-0.34243109521668025,0.03843625562983988,0.48517595156463283
2.1984580950012433,0.30793006442372556,-0.3852155444540064,0.04322095671999726,0.4950555437168523
2.200945038547625,0.26951643797340097,-0.4136325930604272,0.05758229241580537,0.49703797921247667
2.2034319820940063,0.24067857983569646,-0.45641266810397196,0.05757824627201025,0.5191858596314757
2.205918925640388,0.2022628795373056,-0.49440216348369725,0.04799722176997179,0.5363277962158207
2.208405869186769,0.18299975982629835,-0.5276010864138763,0.04320442903640398,0.5601057410614062
2.210892812733151,0.14937040030486382,-0.5512210408222975,0.024046254960543578,0.571606835779699
2.2133797562795325,0.10137480383549657,-0.5652620339907473,0.014464716319155357,0.574462571402381
2.2158666998259138,0.08210860318155655,-0.5793008798751713,0.014459813292143409,0.585269526236432
2.2183536433722955,0.07241818796033006,-0.5789723758633394,0.02403154606410496,0.5839785280012689
2.2208405869186767,0.06272675444765197,-0.5786417392981327,0.028814704863378893,0.582744536995301
2.2233275304650584,0.053034305577839946,-0.592674187555521,0.02402088656360135,0.5955269373874049
2.22581447401144,0.048129247623315274,-0.5923393081615984,0.028803704644630557,0.5949890199586901
2.2283014175578213,0.057588390194536765,-0.5776371085971226,0.028797949348794205,0.5812145677805555
2.230788361104203,0.062258122997746024,-0.5629328063364252,0.02879202420430893,0.5670964635639929
2.233275304650584,0.07171525567864845,-0.5482264089253808,0.04315113938465309,0.5545784833280737
2.235762248196966,0.08595979125984632,-0.5335179239421954,0.04314487518511534,0.5421180140299396
2.238249191743347,0.09541492614077007,-0.514018955676935,0.04792684510872647,0.524991883182713
2.240736135289729,0.11923427666010877,-0.49451791509231136,0.04313183942093701,0.5105145802518664
2.2432230788361105,0.14305263593167772,-0.4750148098625915,0.03833666499335209,0.4975669061730368
2.2457100223824917,0.16208160372715685,-0.4602980510140626,0.03832972538186041,0.48950373837383565
2.2481969659288734,0.17632118315572465,-0.44079083964361665,0.03832261750630117,0.47629229151403807
2.2506839094752547,0.19055978066395252,-0.4164931835201813,0.03831534161138883,0.45961687015194136
2.2531708530216363,0.2047973993951423,-0.39219349376421864,0.0430963012667025,0.44453908999419617
2.255657796568018,0.22382244582986466,-0.3870453914882077,0.05266549672605336,0.45019359932691694
2.2581447401143993,0.23326971318431622,-0.3675300613121206,0.04786931496653324,0.43793215955504966
2.260631683660781,0.23792760797277174,-0.36237793105071203,0.05264977285257366,0.43669132133541094
2.263118627207162,0.2521613433668509,-0.3620122019868619,0.052641660690602166,0.44430768833795337
2.265605570753544,0.25681730931265834,-0.34727926879323867,0.0574217853931156,0.4357238601842836
2.268092514299925,0.2518955090541348,-0.34212115605559346,0.057413340595848794,0.4287126363671036
2.2705794578463068,0.24218434917204634,-0.3513262751085282,0.038251116618695846,0.42842334026999274
2.2730664013926885,0.23726063958390725,-0.34616421407439457,0.038242340309450285,0.4214080573432974
2.2755533449390697,0.2275475769423413,-0.3410001909881264,0.043021801996923514,0.4122012924207442
2.2780402884854514,0.21783356787719477,-0.35019942391426095,0.04301269533468677,0.4146579213809176
2.2805272320318326,0.21290701903451226,-0.3593967110249059,0.04300342394167167,0.4199341485523522
2.2830141755782143,0.1984027237952255,-0.3638036571620491,0.05735919808185841,0.4183381639038448
2.285501119124596,0.19347429879849443,-0.3682086738374135,0.0669264047814444,0.4212945233938433
2.287988062670977,0.18854494077757922,-0.36782336595102505,0.062128237711647216,0.41797504848198475
2.290475006217359,0.17403784648162457,-0.3770129517129197,0.05732990714962227,0.41918332030393834
2.29296194976374,0.1499530193162132,-0.3909890360804704,0.04295460677532503,0.4209553807476593
2.295448893310122,0.1450208826245304,-0.3953864173988406,0.019002336913683138,0.4215715411040802
2.2979358368565035,0.14966463320290835,-0.4093587172836246,0.009415114495515908,0.43596181739783046
2.3004227804028847,0.14473066122262312,-0.4233291374565997,0.009404536534097119,0.44748515978198383
2.3029097239492664,0.13979577679230415,-0.4229324763471407,0.01897060336732892,0.44584147692897413
2.3053966674956476,0.13964838671567215,-0.43211075897482365,0.018959702056157823,0.45451166127630466
2.3078836110420293,0.1490768978117636,-0.43649878382427465,0.018948639587684113,0.46164289302823
2.3103705545884106,0.14892770031328473,-0.43609655936840985,0.018937416312656552,0.461213935988677
2.3128574981347922,0.1487776043899669,-0.43569249742765015,0.009349225945445738,0.46048901822794797
2.315344441681174,0.1582034202265975,-0.4352866065291052,0.01891448876715529,0.46353048430533705
2.317831385227555,0.1628399414213888,-0.4444557018673332,0.033267995180304766,0.4745149912782755
2.320318328773937,0.16268717154837464,-0.4344693721010322,0.033256132271317185,0.46512011503903244
2.322805272320318,0.18647553411827023,-0.4244812391184869,0.04760932033393672,0.4660730571175721
2.3252922158666998,0.1958978061721306,-0.42406811819363277,0.04759713982234004,0.46954787514225843
2.3277791594130814,0.18616558800783412,-0.4236532113452478,0.04279639775737465,0.4647270180465638
2.3302661029594627,0.1907977065002855,-0.4184481239383362,0.03799549784372758,0.4614610006161679
2.3327530465058444,0.2097941652966656,-0.4180296713245588,0.028406037149601104,0.4685822242112774
2.3352399900522256,0.19527093485538605,-0.40324424895924293,0.018816419387952976,0.44843139938744664
2.3377269335986073,0.18553524541475752,-0.3980338822058793,0.0188034515961526,0.4395541701166387
2.3402138771449885,0.19016390730538946,-0.3928217732109309,0.014001924214113615,0.4366546816787043
2.34270082069137,0.18521490762980253,-0.38281952746615433,0.013988644287390883,0.4255009221925672
2.345187764237752,0.18505346006700762,-0.387180767089649,0.023552015545291738,0.4297771828786939
2.347674707784133,0.19446797166929597,-0.39632869430223305,0.028326828439922735,0.4423761240640682
2.350161651330515,0.19430483290120704,-0.3863213013881892,0.03788989002898546,0.4340900364687477
2.352648594876896,0.1893524508425598,-0.3763122105388237,0.04266439409294165,0.42342116263127166
2.3551355384232777,0.18918763590710863,-0.37587823732883185,0.03786193773656876,0.42250436353571325
2.3576224819696594,0.18423358524088362,-0.3706541807551629,0.052212941310797234,0.4171962690177318
2.3601094255160406,0.16970189932366908,-0.36064004979933806,0.047410178686146054,0.4013822432499749
2.3625963690624223,0.16953459857044495,-0.360201063427235,0.033030456940212005,0.3994718980006379
2.3650833126088036,0.15978967020631607,-0.35976042402640473,0.04738100307639037,0.3964911863494909
2.3675702561551852,0.159620731352333,-0.34495293068711375,0.052154590976998705,0.3836553187785364
2.3700571997015665,0.1642393825410332,-0.3445090124052719,0.056928027731357744,0.38587800500585395
2.372544143247948,-9.144587233689915,-1.2586485024962943,-0.096315995778264,9.231302643638301
2.37503108679433,-8.503112555844687,0.12564721785041266,-0.2735021861266791,8.508437800591434
2.377518030340711,-7.7084097733912795,1.3758692527747796,-0.42674650965047967,7.84185628653982
2.3800049738870928,-6.803574512308474,2.45849876987128,-0.5656257725261842,7.2562231815551215
2.382491917433474,-5.817337188601576,3.3831125665953783,-0.6709863610046352,6.762919879814983
2.3849788609798557,-4.783216621583948,4.140133827099542,-0.7380398712938163,6.369032281823531
2.3874658045262374,-3.715578017274436,4.71519733219513,-0.7667863029182982,6.0519886911936815
2.3899527480726186,-2.6766706148846287,5.11787987927277,-0.7572256553988268,5.825002208793239
2.3924396916190003,-1.6856480237293168,5.34339305574213,-0.7189347348930841,5.648904828468218
2.3949266351653815,-0.7281450298698493,5.401313658952596,-0.6710671541956383,5.491330945440483
2.397413578711763,0.1431659341595357,5.306006889553448,-0.6088345094958427,5.342741342854384
2.3999005222581444,0.9234964690404764,5.086203158134433,-0.5322368002996232,5.196689744995374
2.402387465804526,1.6080581754656986,4.746690858663675,-0.44606242942960606,5.031490524124239
2.404874409350908,2.182485847499062,4.3114119983706,-0.3503113963844573,4.845021771743085
2.407361352897289,2.651567892497172,3.8090969877852343,-0.24498370065921726,4.647585304700186
2.4098482964436707,3.005727507867086,3.23495741417592,-0.13965614838595997,4.418014391427742
2.412335239990052,3.249753100988077,2.61772368803391,-0.03911714237287178,4.1731166620528235
2.4148221835364336,3.38843307925059,1.9909146231517085,0.03269130129416098,3.930176648755021
2.4173091270828153,3.4313442533764373,1.3545302100606817,0.10928800637656622,3.6906394220357397
2.4197960706291965,3.397640240739028,0.7229356492349646,0.18588457007671622,3.478670468989057
2.4222830141755782,3.277744238800702,0.12486135109055896,0.23375057299900703,3.28843990098112
2.4247699577219595,3.0860214616361157,-0.43011588725551286,0.2816164355950015,3.1285517344205034
2.427256901268341,2.8416255266508443,-0.9372076720246023,0.31511694843691274,3.0087360378417474
2.429743844814723,2.558921647940604,-1.3964140127761697,0.3390405153816243,2.9347914008404308
2.432230788361104,2.24748663629141,-1.7837929024853358,0.34381033032850183,2.8898648484844633
2.4347177319074857,1.9216857058195376,-2.099344350746475,0.31506118385997794,2.8634570373130313
2.437204675453867,1.576730457370397,-2.352645173811358,0.300677109725914,2.8480563501044824
2.4396916190002487,1.2269861050806457,-2.534118574667395,0.2815044951951542,2.8295753450562793
2.44217856254663,0.8963946697374983,-2.634187756318586,0.24796653418048287,2.793556146123794
2.4446655060930116,0.5753793488958596,-2.6767947450274687,0.2144284371995635,2.7463195474711863
2.4471524496393933,-9.633689516325202,-3.404142065119616,0.10906415500768674,10.21802583116614
2.4496393931857745,-9.384886213702941,-2.0245905905458197,-0.010665471988135167,9.60079007456006
2.452126336732156,-8.939759054442867,-0.7360174550381857,-0.12560682994016759,8.970885726690634
2.4546132802785374,-16.09861704310018,0.14075430921867627,-0.331527984684989,16.102645536699505
2.457100223824919,-14.566523676409442,2.4636251807654923,-0.5039304493214924,14.78198251062597
2.459587167371301,-12.804587617109737,4.432155501412062,-0.6667562398752747,13.566356560121434
2.462074110917682,-10.875058104105497,6.022403244786604,-0.7481793059623687,12.453754529633109
2.4645610544640637,-8.811453956368432,7.215214787825081,-0.7912952768832984,11.416093617120895
2.467047998010445,-6.714331639345772,8.044108943972368,-0.8439881852557676,10.512005237939489
2.4695349415568266,-4.612421568672925,8.513874106736488,-0.8535855939678108,9.720550056388095
2.472021885103208,-2.5727613865392676,8.624510266292168,-0.8296643090685212,9.038231096358878
2.4745088286495895,-0.6576003318033337,8.419113042683252,-0.7913779432445409,8.481755812974166
2.4769957721959712,1.1139079865647046,7.955143265901504,-0.7291496892576959,8.065776754466695
2.4794827157423525,2.6890911363629,7.2709081526439245,-0.652556353148011,7.7796623511488745
2.481969659288734,4.053583911958567,6.4047149195950634,-0.5759631442729081,7.60155571420309
2.4844566028351154,5.193021107727243,5.409235993387794,-0.46585123878373835,7.512943473375736
2.486943546381497,6.083460711411617,4.327566994002063,-0.3509510559930096,7.473921123384124
2.4894304899278787,6.7296911306839915,3.1980151380852617,-0.23605099860876066,7.454647115174096
2.49191743347426,7.141289176544212,2.0828296588753457,-0.11157425937531151,7.4396666125756905
2.4944043770206417,7.327831659999981,0.9963757563943991,-0.01103966091683617,7.395268984921491
2.496891320567023,7.313260602026925,-0.008674142783497096,0.09428321730927891,7.313873474362161
2.4993782641134046,7.111941216967282,-0.9083780320173833,0.19960597260625157,7.172496153149887
2.501865207659786,6.743027122490632,-1.712312727919285,0.30014020228005833,6.963513035376856
2.5043521512061675,6.235248742914097,-2.38217101390865,0.35757868039723206,6.68437941309386
2.506839094752549,5.6173365025615745,-2.9035876900167845,0.3958634241910719,6.3357713585040285
2.5093260382989304,4.908444019122999,-3.2861395728866016,0.41499443429600014,5.921465727491153
2.511812981845312,4.137301716935465,-3.529826672530173,0.4149717113490894,5.454277528351722
2.5142999253916933,3.347005230303409,-3.644225805609731,0.410160465950975,4.96498311596116
2.516786868938075,2.5375545636547376,-3.6484905954374094,0.38619548878303434,4.460920728288789
2.5192738124844567,1.7376801413452507,-3.5378326487327585,0.34307678049015067,3.9564496460054412
2.521760756030838,0.976112387737319,-3.326617185505497,0.31432316496197643,3.4810883850351284
2.5242476995772196,0.25285130727665434,-3.0435746357346156,0.2807810295672226,3.0669395712083145
2.526734643123601,-0.4129494823039802,-2.6934934128057457,0.22329676167710844,2.7340986601691153
2.5292215866699825,-0.9877711533045973,-2.3098923500346547,0.16581237854817665,2.517695030167299
2.5317085302163638,-1.4859789112232415,-1.8927714575025274,0.12748149411909537,2.4097652678796933
2.5341954737627455,-1.8979959449512842,-1.4756495685398952,0.08436209244812432,2.405628237867548
2.536682417309127,-2.2142454433740713,-1.063315096563375,0.050819384158488745,2.4568484869622433
2.5391693608555084,-2.439515805333443,-0.6749216649567433,0.012488159953848665,2.5311879765119567
2.54165630440189,-2.5785954296659135,-0.31046928382959615,-0.021054772858196458,2.597304154225244
2.5441432479482713,-2.631484311882846,0.010888423420798432,-0.04502101028804262,2.6318919303074515
2.546630191494653,-2.612547657451827,0.28915144667247095,-0.05941055166411502,2.629171625287867
2.5491171350410347,-2.5169970585544807,0.5243197757972187,-0.06901179963287518,2.571954130336022
2.551604078587416,-2.3735629306102615,0.6924513840597317,-0.09297836679947125,2.4742544092203023
2.5540910221337976,-2.182245269112215,0.8031230679616104,-0.11215663920435759,2.3280421363395316
2.556577965680179,-1.9430440695492472,0.8659116239992057,-0.11218140620610839,2.1302131031157003
2.5590649092265605,-1.6751129406873753,0.8760286387030876,-0.1074178770830212,1.8934012095177593
2.561551852772942,-1.3832402813276374,0.8526277152007684,-0.09307764783000749,1.6275721628061262
2.5640387963193234,-1.0722144902674384,0.7861320366935853,-0.06916071776020338,1.3313266680783398
2.566525739865705,-0.7659775795813732,0.68611839965997,-0.03566708618465242,1.0289568755833263
2.5690126834120863,-0.46452954473909713,0.5621636005745843,-0.01653876901392337,0.729444406810409
2.571499626958468,-0.18223559116767796,0.4142676292679006,0.007377847726253606,0.4526388317240928
2.5739865705048492,0.09526949563107567,0.2520072822076944,0.012140748129329637,0.26968749479471216
2.576473514051231,0.3440437035958892,0.08974775917914313,-0.0070384704280090915,0.35562658833054017
2.5789604575976126,0.5592986339500869,-0.04856893339489021,0.007301032596906509,0.5614509847765268
2.581447401143994,0.7506110978807061,-0.19167322561736144,0.021640434662735686,0.7749993252207611
2.5839343446903755,0.9179810999370283,-0.32519991771067946,0.02640292983157977,0.9742388829359667
2.5864212882367568,1.0518318380304033,-0.4539374231804749,0.04553053540958807,1.146508800364319
2.5889082317831384,1.1425865100747477,-0.5635205422528338,0.06465804214223958,1.2756331749211396
2.59139517532952,1.1998219272676633,-0.6395840751552835,0.06942024077682518,1.3614182370506287
2.5938821188759014,1.2331149008090598,-0.7060700486790279,0.06460553534365587,1.4224208756328005
2.596369062422283,1.2328886286197736,-0.7581900696943031,0.06457913651541958,1.4488053758997705
2.5988560059686643,1.1991431152633145,-0.781578938431366,0.059764238364953925,1.432613559921255
2.601342949515046,1.141455171945738,-0.7953902783630422,0.0501608416074113,1.3921500330448855
2.603829893061427,1.0741900131952018,-0.7948356963607086,0.05492256024085407,1.3374096067700914
2.606316836607809,0.9925592402602743,-0.7703383959752816,0.08362620162436052,1.2592015054541275
2.6088037801541906,0.8821976477504319,-0.7410520006791357,0.09796453991549292,1.1562991864079983
2.611290723700572,0.7766240634796782,-0.7117649239830275,0.11230278579683706,1.059417839516582
2.6137776672469535,0.6662616853804577,-0.6681119661155068,0.13142934331189515,0.9526551868100714
2.6162646107933347,0.5463221147067577,-0.6100931372648932,0.1314021965838208,0.8294263236854957
2.6187515543397164,0.43117056599470377,-0.5568620608992183,0.10743294301850526,0.7124221003693915
2.621238497886098,0.31601864050012674,-0.4988419405629294,0.07388679330455794,0.5951221059857952
2.6237254414324793,0.21044314944062703,-0.43603278643913734,0.0547057647726632,0.4872408343886321
2.626212384978861,0.10965569407331,-0.38279981866950763,0.03552464819238921,0.39977752944018785
2.6286993285252422,0.013656278976284075,-0.3247778374714039,0.025920250936277256,0.32609660696897674
2.631186272071624,-0.05361307467050047,-0.27633206298120827,0.006738960456338816,0.281565595190725
2.633673215618005,-0.1256711855305791,-0.23267410205099637,-0.012442415872213175,0.2647362807599967
2.636160159164387,-0.18815283906424496,-0.20816917481076613,-0.0124702640322365,0.2808761358221176
2.6386471027107685,-0.22190441741148925,-0.18845208146504877,-0.022075003208442467,0.2919641471857368
2.6411340462571498,-0.2460795292749407,-0.1830996388160755,-0.012526212740562315,0.30698129986755796
2.6436209898035314,-0.289408589998119,-0.1825350503807086,-0.007765908490549478,0.34225237167457406
2.6461079333499127,-0.28964235183900067,-0.1723931163511132,-0.01737089635824418,0.33751122438278225
2.6485948768962944,-0.26114602018108213,-0.18619267011793328,-0.017399159000133224,0.3211972680394022
2.651081820442676,-0.24222681701007065,-0.21435691518408628,-0.007850695673147001,0.32354961194323845
2.6535687639890573,-0.22809633442963662,-0.22336703844574934,0.0016976877262617762,0.3192548414478274
2.656055707535439,-0.19002414794279043,-0.23237666331709894,0.006457588623021593,0.3002495477208851
2.65854265108182,-0.14716386625669742,-0.2557510098862994,0.011217411083732642,0.29528225971247
2.661029594628202,-0.10430388811874125,-0.2695480716730496,0.01597715585569759,0.2894662908329459
2.663516538174583,-0.0566558056369626,-0.27376785879238597,0.025525227007525686,0.28073164772416875
2.666003481720965,-0.004219614241123937,-0.29235239795442025,0.03028481864785526,0.2939471040418277
2.6684904252673465,0.03863948067653955,-0.3061480859797032,0.015890721565932964,0.3089857198122179
2.6709773688137277,0.08628669364399733,-0.3151549329630283,0.011073356434726733,0.3269413471766372
2.6734643123601094,0.12914522258590344,-0.32894975563255313,0.020621127326514,0.35399387161318946
2.6759512559064906,0.1720034753858941,-0.33795575742764594,0.034957228353489356,0.3808166190405531
2.6784381994528723,0.2196498599255674,-0.33738454510020555,0.03492804698803553,0.4040969694320813
2.680925142999254,0.2529307674828424,-0.3416013386753294,0.039687197265829255,0.4268963824525263
2.6834120865456352,0.2718462026145518,-0.35060614820886515,0.039657873301433,0.4454186524525002
2.685899030092017,0.29076137983608247,-0.34524537046685033,0.044416882491391974,0.45355198740963476
2.688385973638398,0.3144647070196453,-0.33988422544867536,0.049175822272022884,0.4656475063456551
2.69087291718478,0.3190141721129179,-0.3345227231837087,0.05872309672094467,0.46596555282942537
2.6933598607311615,0.323563392943604,-0.3339492770122843,0.05869349663517731,0.468679331118269
2.6958468042775428,0.3185355674146267,-0.32379868698389647,0.04908702277330512,0.4568588766844752
2.6983337478239244,0.3135075067071212,-0.3232245763803592,0.05384569249605775,0.4534980067633796
2.7008206913703057,0.30847921535844464,-0.3465921651530697,0.053815893281923266,0.4670992460102946
2.7033076349166874,0.30823910122298576,-0.32686381679774534,0.04899762589117174,0.45194254678810153
2.7057945784630686,0.2936335555501686,-0.32150038112758583,0.04417929440489132,0.43764708392074425
2.7082815220094503,0.2790277928280805,-0.311348254819936,0.03936089958434685,0.41993276291094395
2.710768465555832,0.2644218175802221,-0.3155610611034918,0.03933084551156085,0.4135753816486714
2.713255409102213,0.25460403764664474,-0.3101967933127585,0.044089132948663234,0.4037191080586318
2.715742352648595,0.2304208442619362,-0.3000438646924706,0.048847359337877094,0.38145268477789057
2.718229296194976,0.21102585521917983,-0.3042558984364132,0.044028718801470745,0.37288348231536644
2.720716239741358,0.19641907502607364,-0.29889088784341267,0.03921001874330976,0.35979666679914163
2.7232031832877395,0.16744689490480902,-0.288737246121777,0.03439125992693981,0.3355449577487525
2.7256901268341207,0.1528397392763382,-0.2881601931077893,0.019995636475572454,0.326796738466039
2.7281770703805024,0.13823240267428993,-0.2923713353435895,0.010388359114241297,0.3235693324231874
2.7306640139268836,0.10925967962769378,-0.29658227935816983,0.005569428607280713,0.3161166628898979
2.7331509574732653,0.08986359122332122,-0.3007930349874446,0.0007504423989264097,0.31393068994334455
2.7356379010196465,0.0800441419415584,-0.3002152087333645,-0.013645405386732534,0.31100230433574966
2.7381248445660282,0.06543612629685946,-0.29484881040430455,-0.01367609738326081,0.30233217371164534
2.74061178811241,0.055616355400161854,-0.29427065643512673,-0.004130036145994609,0.29950869006645653
2.743098731658791,0.060161640357182966,-0.30805756324630584,0.00541597244951042,0.31392390479428706
2.745585675205173,0.05991837234644415,-0.32184433064212215,0.03411554244964243,0.32914716275209804
2.748072618751554,0.059674959142582584,-0.33563096837291573,0.04844985137737545,0.3443205421959309
2.7505595622979357,0.05943140519436074,-0.33984067953328134,0.03405369003694503,0.3466748234212445
2.7530465058443174,0.0496109083042362,-0.34405028048370223,0.029234285755995515,0.3488358943505509
2.7555334493906987,0.04457868287043687,-0.34347137760811375,0.03399163929964111,0.34801620327903604
2.7580203929370803,0.06348834660558622,-0.33810398059491575,0.01959533151103443,0.3445708183608495
2.7605073364834616,0.07760948401315781,-0.3375249057570411,0.009987379756674741,0.3464766107105819
2.7629942800298433,0.08215369619204271,-0.332157356109839,0.01474459144198903,0.3424837835470229
2.7654812235762245,0.08190939087550186,-0.3220013412927054,0.033866967331631415,0.33397751957899635
2.767968167122606,0.09124178243104286,-0.307056870928224,0.04341249158850502,0.32325474361770434
2.770455110668988,0.10057406861812634,-0.3112659712234862,0.04338116497688027,0.3299751105687443
2.772942054215369,0.11948306047086066,-0.31547503848548075,0.03856139158110494,0.33954039902133915
2.775428997761751,0.12881514909476366,-0.300530469003673,0.04331838212589645,0.3298308470502403
2.777915941308132,0.12378193554946237,-0.29037428893257866,0.038498524093503406,0.31799580437302943
2.7804028848545137,0.13311384412983018,-0.2850065078071502,0.028890221567417385,0.3158839183840519
2.7828898284008954,0.13765726592056393,-0.28921553846442283,0.04801229855266875,0.3238832063604124
2.7853767719472766,0.14698901192106228,-0.28863618044171213,0.0623459325695368,0.32985395191429195
2.7878637154936583,0.1515322798422064,-0.27369163657794404,0.057525914419180424,0.3180854831592492
2.7903506590400395,0.16086388066873225,-0.27790073957592343,0.047917454824203176,0.3246568829356293
2.792837602586421,0.16540701209662723,-0.2868982889161642,0.06225097446770533,0.336964822579354
2.7953245461328025,0.16995008177520632,-0.2767422774191579,0.0670076508682591,0.3316011816646979
2.797811489679184,0.16970469070543992,-0.2713747310888963,0.05739908146579964,0.3251746934712437
2.800298433225566,0.15988243988046869,-0.2803724659485787,0.05257888030130253,0.3270101724686211
2.802785376771947,0.1548485435667447,-0.28458187807944846,0.05733545145424834,0.3290171283830533
2.8052723203183287,0.15939140938204865,-0.2887913801439983,0.05251518240197939,0.33401186657510284
2.80775926386471,0.15435742833444255,-0.3025777881044953,0.04769488054311033,0.3430077771221128
2.8102462074110917,0.14932341134560112,-0.311575901300881,0.05245135327562167,0.3494684075961488
2.8127331509574733,0.1395009593678853,-0.3109973256927425,0.033265778114026645,0.342471117389671
2.8152200945038546,0.12967847998581528,-0.30084207053876577,0.018868575736226134,0.3281439969400582
2.8177070380502363,0.12943278409562664,-0.3050521616777613,0.018836553538161382,0.33191035339714264
2.8201939815966175,0.12439866598330851,-0.29968559172376485,0.0188045023134773,0.32502321654384536
2.822680925142999,0.11936453320730633,-0.2799539665501962,0.009195616175384558,0.3044777077748575
2.825167868689381,0.1143303899968473,-0.2889529252114853,-0.009990104123072996,0.31091000827489496
2.827654812235762,0.11408464389246842,-0.3027404602553747,-0.005233834587464514,0.32356527204290075
2.8301417557821438,0.11383889578497108,-0.3069513708477083,-0.00047759106795375317,0.32738153025492606
2.832628699328525,0.11838155319656873,-0.30158566609251203,0.013855433826639896,0.3242839483789178
2.8351156428749067,0.11813581367922033,-0.30100856503178,0.018611627564739663,0.32389600086563486
2.837602586421288,0.1178900847364035,-0.3243736900046432,0.018579394215425538,0.34563211184118436
2.8400895299676696,0.13200958050269973,-0.3381622268034028,0.03291234780778218,0.36450438079583514
2.8425764735140513,0.13655228854056634,-0.33758578111862425,0.03766847248712324,0.36610053392292524
2.8450634170604325,0.13630661632461127,-0.32264436193737733,0.032847768999358706,0.35179234481733307
2.847550360606814,0.13127256799930442,-0.3124915915039357,0.042392254690955866,0.34158539946487393
2.8500373041531954,0.14060376098044025,-0.3119158820774053,0.03757151038392337,0.3441984216792689
2.852524247699577,0.14993498943160077,-0.31612883925181867,0.032750746782012286,0.3514122301191806
2.855011191245959,0.1496894508265556,-0.31555366527623585,0.023141561306639247,0.3500236837954418
2.85749813479234,0.14944395591010096,-0.3054019656951712,0.01353235801875563,0.3402748614312884
2.8599850783387217,0.14441010545577315,-0.3048273626296223,0.008711540978168841,0.3374164941310562
2.862472021885103,0.14895311350793838,-0.30425305825344484,0.003890707602925758,0.3387802991408065
2.8649589654314846,0.1439193708582579,-0.30846746467595176,0.008646665270829246,0.340499231852514
2.867445908977866,0.13888568820965408,-0.30789378401983836,0.02776781803816597,0.33890834800300335
2.8699328525242476,0.14342887625433842,-0.30732042834284945,0.02773534339750583,0.3402747970299775
2.8724197960706292,0.138395325751842,-0.29238219639539365,0.013337645402675236,0.32375686516866403
2.8749067396170105,0.12378504073204888,-0.27744430682348,0.018093548028108586,0.30434430531561085
2.877393683163392,0.11875163849508608,-0.2672951716059937,0.013272632082882652,0.29278801746579863
2.8798806267097734,0.12808352636906162,-0.2619347993748393,0.013240108257566163,0.2918741669235965
2.882367570256155,0.12783869174902085,-0.26136319873504466,0.01320757396013228,0.2912522837181333
2.8848545138025368,0.12280554194060644,-0.2464267649833145,0.013175029917505299,0.27564639131466045
2.887341457348918,0.12256088755840366,-0.23149071663128673,0.02271928349584229,0.2629168858938787
2.8898284008952997,0.11273952260397524,-0.22134346552250506,0.03226352877865679,0.250487654337965
2.892315344441681,0.10770666098919845,-0.21119661683224455,0.027442556527708106,0.23865839539309003
2.8948022879880626,0.10746230665337897,-0.2058385823485751,0.03219838406580067,0.23442355954763763
2.897289231534444,0.10721806020376867,-0.20526937051121985,0.04653101211268762,0.23621253563721487
2.8997761750808255,0.10697392555610918,-0.1999121830910644,0.05128682810537022,0.23246212688141057
2.902263118627207,0.10672990661422843,-0.20413223843215045,0.05125423608089008,0.2359835597015984
2.9047500621735884,0.101697603949639,-0.2131411415686877,0.056010043395062326,0.24271109129872448
2.90723700571997,0.10145382808270009,-0.21257369086548294,0.046400637480262574,0.24006972412068692
2.9097239492663514,0.10599858288096664,-0.21679510458025986,0.051156438970387796,0.24668359935526718
2.912210892812733,0.09617825891848097,-0.22101698766035494,0.06070064193522562,0.24856253590273078
2.9146978363591147,0.08635806999911766,-0.22045094502377882,0.0463028271616821,0.24124735691612098
2.917184779905496,0.10048003655493143,-0.21988538819967163,0.0366934152787497,0.24452449450846317
2.9196717234518776,0.11460214580234318,-0.22410872868749454,0.05102602027311853,0.25683073967369885
2.922158666998259,0.11435919158578,-0.2379093779568513,0.04620501296571966,0.26798096955405504
2.9246456105446406,0.11411638765885346,-0.23734532752543824,0.03180720069919829,0.2652678880806766
2.927132554091022,0.1138737378014606,-0.23678179544324074,0.012620987494138092,0.2630439813786426
2.9296194976374035,0.12320805242126409,-0.2505839997298631,-0.01135362595095124,0.2794664021385954
2.932106441183785,0.12775412531142205,-0.25480993181185907,-0.02096302565810859,0.28581229212333276
2.9345933847301664,0.12751196021300604,-0.24467119636630397,-0.011418807612113113,0.2761406951102357
2.937080328276548,0.13205836749460775,-0.24889822128156514,-0.0066629877214481326,0.281840615220454
2.9395672718229293,0.1366049475506954,-0.2674910144930709,-0.0019071619745769652,0.3003597706029517
2.942054215369311,0.14594010740309638,-0.27171916398314044,0.02200228359911094,0.30921500530876533
2.9445411589156927,0.13612183413841716,-0.2567942743042586,0.05070013972616039,0.29503043438416615
2.947028102462074,0.1358805513532777,-0.26102357986015035,0.06982119713117108,0.30244310712580125
2.9495150460084556,0.15000466602922935,-0.2748302818196926,0.07936545649778992,0.32300458095936485
2.952001989554837,0.15455216521237747,-0.2742723713589359,0.06975611186706843,0.32245561028690295
2.9544889331012185,0.1447346492164041,-0.2785034695046784,0.0697235838405792,0.3215177745529991
2.9569758766476,0.13970573494282912,-0.27794677732964024,0.07447946977572606,0.319873873303091
2.9594628201939814,0.1490422326387334,-0.28217910915541555,0.07444696370759196,0.3276903830736596
2.961949763740363,0.14880212929512449,-0.29120047263043336,0.06004925966923658,0.33248413876420346
2.9644367072867444,0.14856223513123568,-0.290645665409508,0.03607476165259449,0.3284007140016838
2.966923650833126,0.14353415039132678,-0.2948799050364799,0.04083069688971541,0.33048957098732057
2.9694105943795073,0.1432946852664858,-0.3039031990612573,0.05516345276681278,0.34049012870631623
2.971897537925889,0.12869023001174384,-0.30813874835997757,0.05513101334767967,0.3384524961853157
2.9743844814722706,0.12366280475068925,-0.3075865604160972,0.05031018593615855,0.33531044755024164
2.976871425018652,0.12342400967070888,-0.31182344932025297,0.05506618115426498,0.33985237091432796
2.9793583685650336,0.10882023498385385,-0.30169580920761296,0.04545698305935275,0.3239267542890458
2.981845312111415,0.10858190409083235,-0.29635726074209545,0.031059398948775296,0.3171471931983763
2.9843322556577965,0.09876700385437653,-0.295807811272482,0.03102704275831769,0.313400478050869
2.986819199204178,0.09374074768511165,-0.29525906479320785,0.03578310849966293,0.311842386427859
2.9893061427505594,0.0982915423383578,-0.3090762385457704,0.030962386861947522,0.32580364934887396
2.991793086296941,0.09805418127344578,-0.31331732317485894,0.026141685133611148,0.3293413960744832
2.9942800298433223,0.09302866789582875,-0.30319392257193956,0.021321003960194318,0.31786077604023794
2.996766973389704,0.08800340891639469,-0.29785965719544105,0.021288747305252542,0.3113168580840407
2.9992539169360852,0.08776681103108763,-0.28773772754717397,0.021256512489399526,0.30157561621555273
3.001740860482467,0.09231887760052493,-0.2919817540159455,0.030801106791846777,0.3077739885358273
3.0042278040288486,0.09687120864994136,-0.2962265337133667,0.03555732088790364,0.3136853732800785
3.00671474757523,0.09663540418942829,-0.2861068637158972,0.04031355873176068,0.3046649336990069
3.0092016911216115,0.09161146753418647,-0.2855647676272226,0.04028141763459736,0.30259294456482255
3.0116886346679927,0.1009530152653999,-0.28981184909374047,0.04024930154581341,0.30951966890851196
3.0141755782143744,0.10550643738642329,-0.2844829050856825,0.030640404451453662,0.30496059745631626
