Time (s),Acceleration x (m/s^2),Acceleration y (m/s^2),Acceleration z (m/s^2),Absolute acceleration (m/s^2)
0.0,-0.22885907880700498,-0.1405444923041741,-0.003218566089492114,0.2685881446324491
0.002486943546381497,-0.23381738659877657,-0.14071298315445757,-0.017582658188631584,0.2734590714770433
0.004973887092762994,-0.22919774329153816,-0.14566911265152527,-0.022369904453411138,0.2724912999269359
0.007460830639144491,-0.23415375914178713,-0.14104766842668104,-0.02236870816862968,0.2742677283129868
0.009947774185525988,-0.23910862450490486,-0.13642545472720302,-0.03194427926034571,0.2771376480877592
0.012434717731907486,-0.24406233639774513,-0.13180246917422833,-0.046308214374017,0.2812165813867657
0.014921661278288981,-0.24422648853778675,-0.13196711272375694,-0.051095303515140245,0.2822633993018697
0.01740860482467048,-0.25396628794478293,-0.14170778634640646,-0.03672874001015458,0.29313644001792866
0.019895548371051976,-0.2637049250580388,-0.14665927774622922,-0.03672734706898595,0.3039706059335955
0.022382491917433474,-0.2686539936583723,-0.15160998792328195,-0.022360704738142445,0.30929041023458326
0.02486943546381497,-0.2783902975088248,-0.14698310793150426,0.0015827836930295547,0.3148137496496542
0.02735637901019647,-0.28333702711256126,-0.1519322487615935,0.00637269833297438,0.32156475309147625
0.029843322556577963,-0.2978593895957643,-0.1568806014973254,-0.003202557468322098,0.3366630295575411
0.032330266102959464,-0.3075921721842838,-0.1522513572374895,-0.012777773720902275,0.3434482372512142
0.03481720964934096,-0.30774696876621876,-0.15240972369751882,-0.01756454707608235,0.34386833814170503
0.03730415319572246,-0.3079005832123115,-0.16214410196736395,-0.0031976675451996783,0.34799957474545007
0.03979109674210395,-0.3032646094541557,-0.1718776831912434,0.011169251617562992,0.348763692933005
0.04227804028848545,-0.30820425472646285,-0.15766844856770934,0.015959403798003535,0.34656010283186167
0.04476498383486695,-0.31793111300464383,-0.14345841251376745,0.03511480562345781,0.35056177531401667
0.04725192738124844,-0.3228683749658252,-0.13882437950087523,0.03511663387685715,0.35319877388195586
0.04973887092762994,-0.323016037949865,-0.1341895407346967,0.02075329190298092,0.3503953377832356
0.05222581447401144,-0.327950905959429,-0.12955389407703155,0.006389989686592656,0.3526710083893028
0.05471275802039294,-0.33288457305850594,-0.12970584072556424,-0.0031848694288267865,0.3572756463739838
0.05719970156677443,-0.33302863333342037,-0.12028016861236335,-0.022336495381695798,0.35478769511819436
0.059686645113155926,-0.32838308421322027,-0.11564208560706435,-0.041488081509523766,0.35061346646738967
0.062173588659537427,-0.32852472979006253,-0.1157915896341124,-0.051062821150480886,0.3520562483715838
0.06466053220591893,-0.3382419708583492,-0.1159402753134473,-0.055849117604317655,0.3618962589293777
0.06714747575230041,-0.34316959495386257,-0.10651133396055767,-0.05584697085112822,0.36363294586176087
0.06963441929868192,-0.33851919627570976,-0.11623518346934647,-0.0558447841919687,0.3622492291844838
0.07212136284506342,-0.3434443856473322,-0.14032341850749974,-0.0462657509676081,0.3738786267318595
0.07460830639144492,-0.3435799506728232,-0.14046881051653992,-0.05105188776166969,0.37467981594462935
0.0770952499378264,-0.33892588894012265,-0.13103656747750758,-0.05583798459590383,0.36764006954339473
0.0795821934842079,-0.33427060138045894,-0.13118030070788667,-0.04625883149271992,0.36205660570156306
0.0820691370305894,-0.3391908922684149,-0.14090000826009197,-0.03189123507674729,0.3686737373345948
0.0845560805769709,-0.3488983559407438,-0.14104207492152243,-0.03188880861387666,0.37767688013847867
0.0870430241233524,-0.3490277801167455,-0.14597170873804854,-0.022309535487847754,0.3789800079408048
0.0895299676697339,-0.3491559691405182,-0.1556889078109358,-0.01751862564554507,0.3826954782151539
0.0920169112161154,-0.34928292073883266,-0.15104005697658485,-0.022304482393883163,0.3811943696674948
0.09450385476249688,-0.3446202293415065,-0.15117876765032445,-0.027090299079484126,0.37729564874760907
0.09699079830887838,-0.33516789272208913,-0.14173982802177632,-0.036664479010550366,0.3657485190407798
0.09947774185525989,-0.33050271531823283,-0.13230004289864805,-0.06060382881623738,0.36112071423680026
0.10196468540164137,-0.3210478883098781,-0.14201302374584124,-0.05102431528259821,0.3547434654108893
0.10445162894802287,-0.3163802161818081,-0.13735994552143937,-0.017502745040081535,0.3453556744992596
0.10693857249440437,-0.30692289016120733,-0.1231292097626886,-0.007923151282271945,0.3307948595851128
0.10942551604078588,-0.31182952142083864,-0.13283963794541132,0.011233289241904032,0.3391315476717103
0.11191245958716736,-0.3167348979150369,-0.13297240507780694,0.025601366579762086,0.344467830196343
0.11439940313354886,-0.316850614262573,-0.1283159127473641,0.025604274098283142,0.34280441081593305
0.11688634667993036,-0.3025998617857698,-0.1284469658787155,0.025607221765367782,0.3297287206215977
0.11937329022631185,-0.30271305839336066,-0.13336556277274036,0.02082180626702268,0.3314439872312867
0.12186023377269335,-0.2980365888149188,-0.12870649178629412,0.011248027608928624,0.3248348617766566
0.12434717731907485,-0.2885704510852778,-0.12883496121505855,0.0016742891164316376,0.3160287260913029
0.12683412086545634,-0.2886798532242658,-0.12896256609045542,-0.0031110058857546363,0.3161915233965641
0.12932106441183785,-0.2935763899945649,-0.13866611142187235,-0.00789626071418148,0.3247733642901929
0.13180800795821934,-0.2888948495423803,-0.1435803856341984,-0.007893072045410676,0.3227039848178106
0.13429495150460083,-0.27942363331935866,-0.14849379045067312,-0.012678246517573655,0.3166839285384722
0.13678189505098234,-0.27473954612169144,-0.1534063242913617,-0.01267497748817803,0.3149221706867671
0.13926883859736383,-0.2700541828089079,-0.1487411789528741,-0.007883264955998115,0.308407759038654
0.14175578214374532,-0.2605791382647954,-0.14407515953015704,-0.022245125521989095,0.2985866448821055
0.14424272569012683,4.7288366390866745,10.213119714020399,0.8588244749934777,11.287483764370538
0.14672966923650832,6.055125157828676,10.505091685397694,0.8444626947929024,12.154612673321942
0.14921661278288983,7.094110760504162,10.413992269767265,0.7965821315312436,12.625853855060582
0.15170355632927132,7.836216642170725,9.963763485207114,0.7103943818862959,12.695965273660592
0.1541904998756528,8.267077594541156,9.211866173020088,0.6098414624571031,12.392536340601467
0.15667744342203432,8.396270425905282,8.206184367850986,0.5045001798811484,11.751312240579502
0.1591643869684158,8.247737154489316,7.004178910967907,0.40873574411562785,10.828238790076105
0.1616513305147973,7.850208201815187,5.6585222403011155,0.28424092859366645,9.681189785419795
0.1641382740611788,7.2467791993411605,4.2218867937634705,0.1645345565524785,8.388516465004884
0.1666252176075603,6.447026955258675,2.775675429172209,0.0591934346270957,7.019404142279116
0.1691121611539418,5.494047100976688,1.353406971123937,-0.06530126043086426,5.658668415082392
0.1715991047003233,4.450088881160724,-0.0018229491616437166,-0.17064230206571018,4.453359761868362
0.1740860482467048,3.32472910392816,-1.242130297162064,-0.23288767368327967,3.556817110590376
0.1765729917930863,2.1706402072544013,-2.343573054974027,-0.2855561985337829,3.2071102126167705
0.1790599353394678,1.0404946290903054,-3.2630555914304096,-0.35258989322736944,3.443033618589444
0.18154687888584928,-0.03697720923993836,-3.986212695303836,-0.4052583378514054,4.00693065657527
0.1840338224322308,-1.0521984997178697,-4.5369863819468295,-0.42440791913443654,4.676696397522886
0.18652076597861228,-1.962073611107803,-4.872281020245291,-0.43876905700875923,5.2708038742715955
0.18900770952499377,-2.747448928800387,-5.02561543222775,-0.44834175148536204,5.745110652993297
0.19149465307137528,-3.4035360481720667,-4.996989616698221,-0.43397238929459014,6.061542286849661
0.19398159661775677,-3.9159697579834574,-4.815133992400284,-0.4100261804095524,6.220004499904398
0.19646854016413826,-4.275173250340382,-4.484836961493648,-0.3621379148820676,6.206610408346947
0.19895548371051977,-4.476358120693815,-4.030040539436984,-0.3142496093270193,6.03139797983595
0.20144242725690126,-4.53867798112117,-3.489051951667645,-0.26157286043801165,5.730750535407004
0.20392937080328274,-4.476498040404425,-2.8906016170000544,-0.18974245826858116,5.332036629133168
0.20641631434966426,-4.285029894069191,-2.2442663409851575,-0.11791201611503688,4.83860680835815
0.20890325789604575,-3.9738503476269043,-1.5883533491135222,-0.04608153399301429,4.279775280870453
0.21139020144242726,-3.576478223215452,-0.9324394469716086,0.016172181440650135,3.696065657270664
0.21387714498880875,-3.1120671330366765,-0.3148318600855231,0.0784259368098148,3.128934573975066
0.21636408853519024,-2.5949822859970078,0.2644694125633409,0.13589132877682708,2.6119616360231226
0.21885103208157175,-2.039588891027743,0.7767339520539487,0.16462634072223636,2.1886846069584163
0.22133797562795324,-1.47940577036636,1.207596549408374,0.18378458590883184,1.9185170402042235
0.22382491917433472,-0.9287981329939325,1.5570572055918754,0.2029428709582337,1.8243571257326139
0.22631186272071624,-0.3973427845961297,1.8203275182315815,0.20294758256964052,1.874209508932397
0.22879880626709773,0.10059506579619786,1.9974074882571413,0.19337552736357289,2.0092660689892177
0.2312857498134792,0.5458618058070115,2.0787203099397744,0.18380351196000078,2.1570412534311516
0.23377269335986073,0.9240922263557405,2.0834195974547685,0.17423153633773403,2.285812829197593
0.23625963690624222,1.244863134938499,2.016293754998671,0.16944800379535252,2.3756761894597034
0.2387465804526237,1.4890209191047006,1.8629775734689722,0.1407224943887222,2.3890733678995146
0.24123352399900522,1.651777176339868,1.6617782802687877,0.1072086213763015,2.345499644329072
0.2437204675453867,1.7522855207062606,1.4270610861818858,0.07848319137539939,2.261231412549344
0.24620741109176822,1.7713923396788447,1.1444607820523398,0.040180994401241676,2.109321173989352
0.2486943546381497,1.7234628439499857,0.8427077885892693,0.0018788370700910662,1.9184587880519939
0.2511812981845312,1.6180738408669668,0.5361673165230441,-0.02205807068199661,1.7047360218777898
0.2536682417309127,1.4600137344320103,0.2439929798865763,-0.055571745481982404,1.481303783111334
0.2561551852772942,1.2540709286226095,-0.03381522058625608,-0.07472017075421888,1.25674996203589
0.2586421288236757,1.019399037352486,-0.3164108974605955,-0.07471494320482819,1.0699871850284446
0.26112907237005717,0.7559980612294183,-0.5559100168349773,-0.08428648278262507,0.9421641187075476
0.2636160159164387,0.4830216141177982,-0.7523125780287994,-0.11779999947600395,0.9017543649142199
0.2661029594628202,0.2100465032167176,-0.9199837903401711,-0.12258305678946257,0.9515862093442123
0.26858990300920166,-0.07250407758042085,-1.039770039842592,-0.12257767135298536,1.0494778999742556
0.2710768465555832,6.525882250164918,5.266481896747144,0.9931257271169205,8.4444815957905
0.2735637901019647,7.746892986937916,5.290349607929754,0.9596123680830981,9.429899565857975
0.27605073364834615,8.584832796284584,5.208873377500182,0.8925802251484214,10.081091977624226
0.27853767719472766,9.049278485281237,5.022053206032716,0.8063945082434412,10.380786656671185
0.2810246207411092,9.192902490862593,4.720312287443345,0.710632023977908,10.358368702213648
0.28351156428749064,9.030070023376421,4.3371694455131795,0.5957159656798492,10.035341595478473
0.28599850783387215,8.584723099786737,3.896566697365111,0.47122313995808796,9.439425510837978
0.28848545138025367,7.914322560275374,3.4080808501434405,0.35630716006159346,8.624295418265156
0.2909723949266352,7.061964035038927,2.8717119043342465,0.22702600935607542,7.626900163408622
0.29345933847301664,6.051589540968458,2.320978683648205,0.11211010773021002,6.482379709532871
0.29594628201939815,4.945448321493298,1.760669591856547,0.025924665111284995,5.249579849903258
0.29843322556577967,3.7914244100576435,1.2003614360332673,-0.06983754509729323,3.977517305682279
0.30092016911216113,2.623036630120605,0.6592078298754553,-0.151234506328505,2.7088277910985763
0.30340711265854264,1.4785922084375007,0.1419971771017532,-0.20390100865639482,1.49932442736322
0.30589405620492416,0.4059751783802113,-0.34648211858668354,-0.25177906871794065,0.5901342249061942
0.3083809997513056,-0.5756608466252505,-0.7822880402249073,-0.285291879908387,1.0123000765375294
0.31086794329768713,-1.4519506564972287,-1.1606321841467007,-0.304439442264016,1.8835899632844457
0.31335488684406865,-2.203740637857554,-1.486302953343837,-0.318798562462165,2.677163011751689
0.3158418303904501,-2.831030790633242,-1.7640887508255116,-0.3379460471805942,3.3527528971141884
0.3183287739368316,-3.3050906948532655,-1.9748359630167331,-0.3427282831756049,3.8653672863155406
0.32081571748321314,-3.6259203504922004,-2.1281213962817116,-0.3331452704851543,4.2174856059828025
0.3233026610295946,-3.822250177470206,-2.2383102603222818,-0.29483179918666913,4.439206576680868
0.3257896045759761,-3.8845033691686246,-2.2814605382950814,-0.2565182892407947,4.5122311826407016
0.3282765481223576,-3.8222567322736296,-2.281514246577123,-0.203839530725757,4.456063771876695
0.3307634916687391,-3.654663880135572,-2.2288945783204688,-0.1559491369623558,4.283556845817886
0.3332504352151206,-3.415243636089226,-2.137966743295949,-0.11284710799053776,4.03082192103165
0.3357373787615021,-3.089630790289672,-2.0087307413306332,-0.07932184717093449,3.686069663871168
0.3382243223078836,-2.70176735947786,-1.8268213623077947,-0.04100814458331037,3.261672089963404
0.3407112658542651,-2.2851721670586773,-1.6449110426121993,-0.012271210229679141,2.8156517458321626
0.3431982094006466,-1.858998826499322,-1.4438461688410087,0.0021005525282049575,2.353842137553757
0.34568515294702806,-1.418458934688609,-1.2284151442099909,0.03083756357040457,1.8766940270724353
0.3481720964934096,-0.9779177018197674,-0.993829565311332,0.04999780625318628,1.3951774141841238
0.3506590400397911,-0.57089395139028,-0.7544546420354217,0.05479287721371939,0.9476940276355873
0.3531459835861726,-0.2021760869987768,-0.5342323909302418,0.05479958304974808,0.5738313445391475
0.35563292713255407,0.13781269769407417,-0.31400919867790833,0.05959473035866303,0.3480598344919766
0.3581198706789356,0.42991878908292713,-0.1033618718992586,0.05481310913595472,0.4455539458945451
0.3606068142253171,0.6693537835005617,0.08334437944770601,0.04524312265801633,0.6760382483409414
0.36309375777169856,0.8513292772569843,0.24610955534906997,0.026096367560279887,0.886573444193349
0.36558070131808007,0.9806336732802085,0.3897220590944839,0.011738053759106748,1.0553025473398283
0.3680676448644616,1.0620553744756327,0.5046050839959029,0.006956584529902443,1.1758555622674964
0.37055458841084304,1.0955943804058192,0.6147006465907561,0.006963556507127322,1.2562772076317918
0.37304153195722456,1.0668854806499453,0.6960667301966921,0.006970566324927319,1.2738925035116855
0.3755284755036061,1.009447497967928,0.7391265280756576,0.006977613937447558,1.2511358690226837
0.37801541904998753,0.9184920285348684,0.7534568467542568,0.00698469929852763,1.1880124630774107
0.38050236259636905,0.7892306685036438,0.7582112993831611,-0.0025849842789167354,1.0944295796270915
0.38298930614275056,0.6503938372471456,0.7342362725340261,-0.0025778235603883815,0.980878021268718
0.385476249689132,0.4924047275536847,0.6958969760042164,-0.0025706252335577773,0.852491422269528
0.38796319323551354,0.32962854879110454,0.6384050062934064,0.002225013974559431,0.7184851306226182
0.39045013678189505,0.15727689702408448,0.5569719598848812,0.011809094016358657,0.5788723876097541
0.3929370803282765,-0.019861825063944266,0.470751449847127,0.016604808203327437,0.47146276553245664
0.395424023874658,-0.16348039156915467,0.37495507263075156,0.007035349846683303,0.40910468228388874
0.39791096742103954,-0.30230922309379205,0.28394803795134305,0.007042735499554809,0.4148095403282164
0.400397910967421,-0.44113672366015866,0.18336513558639078,0.007050158472624801,0.4777803749053782
0.4028848545138025,-0.560809280710562,0.08278317189874418,-0.002519187923681443,0.5668919202004116
0.40537179806018403,-0.6661152983103302,-0.017797853405511432,-0.016876900418260732,0.6665667138378815
0.4078587416065655,-0.7426895672649274,-0.11837794063638496,-0.026446172419937852,0.7525294214774209
0.410345685152947,-0.7857436850417606,-0.20938028347932747,-0.045592213939347204,0.8144396181822077
0.4128326286993285,-0.8096428624107076,-0.29559328559673403,-0.059949815065488465,0.8639970691321023
0.41531957224571003,-0.8287523101627932,-0.35786333406541315,-0.05036536256726798,0.9041201398127974
0.4178065157920915,-0.8334952225085425,-0.415344042540589,-0.031204066456012924,0.9317717818124321
0.420293459338473,-0.8047179870388352,-0.4728238147324384,-0.026407943383910393,0.933718789526985
0.4227804028848545,-0.7807278312091961,-0.5207258444060274,-0.045553800042414494,0.9395565444161886
0.425267346431236,-0.747159545972531,-0.549473325342209,-0.05033440992008309,0.92881746065764
0.4277542899776175,-0.6944363256227762,-0.5638546612985249,-0.05511498302909246,0.896220704272577
0.430241233523999,-0.6273465744354536,-0.5686582560482045,-0.0646839227412137,0.8491878157915802
0.43272817707038047,-0.5698323099878992,-0.5638841100598131,-0.06946442246748319,0.8046735096129571
0.435215120616762,-0.5171051299560363,-0.5399554171768912,-0.07424488558006637,0.7513067755586376
0.4377020641631435,-0.4595882287158607,-0.5208141945007148,-0.06466010217006612,0.69760281964758
0.44018900770952496,-0.3972816073043053,-0.4825184259449453,-0.050286878930339896,0.6270450359194581
0.4426759512559065,-0.339762073419127,-0.4490101286418202,-0.04070202255391564,0.5645396503320096
0.445162894802288,-0.2966064347782107,-0.41550089981711036,-0.011963516491830362,0.5106461599067594
0.44764983834866945,-0.263026289158542,-0.37241393339163364,0.007198219281283613,0.45598989126247363
0.45013678189505096,-0.2294448310367429,-0.324537633262457,0.011994781392177245,0.39763485847410646
0.4526237254414325,-0.19586206154991936,-0.27187200002159484,0.026368186389323256,0.3361125002194779
0.45511066898781394,-0.1718547884955707,-0.22399384091688912,0.02158801429760082,0.28314899162608964
0.45759761253419545,-0.1574230130502568,-0.18090315657072775,0.007231071704234537,0.23991716381506833
0.46008455608057697,-0.15256673641012633,-0.13781154430028852,0.021604585118160102,0.20672539490685507
0.4625714996269584,-0.1524975564705182,-0.09471900475812545,0.040766537884122656,0.18408993781004512
0.46505844317333994,-0.15721547446649495,-0.05641394193210747,0.021621300065461924,0.16842422293887854
0.46754538671972146,-0.16193208833212708,-0.013319549864129865,0.01684130813164586,0.16334944536107826
0.4700323302661029,-0.17622420598165153,0.024987364107758925,0.02163815870825303,0.17929737602988174
0.47251927381248443,-0.20009182870782094,0.04414158931034162,0.012069835139492113,0.20525813197721873
0.47500621735886595,-0.219169747861494,0.044143125016532725,0.0025015473319509596,0.2235849986089185
0.4774931609052474,-0.2382463680937358,0.05851079372668222,0.0025101018717936796,0.2453388381479561
0.4799801044516289,-0.2525332874338503,0.05372577144206936,0.01209549870443638,0.2584682202285266
0.48246704799801043,-0.2716073138908477,0.053730073993075056,0.0025273178533087304,0.27688235975922054
0.48495399154439195,-0.285891642211166,0.04894689395329621,-0.021406037416070944,0.29084024472505654
0.4874409350907734,-0.2953862738004544,0.034587827202101185,-0.03097414723672287,0.29901298690411693
0.4899278786371549,-0.3096680167234789,0.015441276244991364,-0.030965414983956663,0.3115952029776062
0.49241482218353644,-0.32394846910246644,-0.00849275974728192,-0.026168244033172527,0.32511461763159216
0.4949017657299179,-0.3382276323982608,-0.027637474977719734,-0.021371037759855938,0.3400271792016196
0.4973887092762994,-0.33335189480866945,-0.041992870304279784,-0.030939006180197737,0.33740792674793607
0.4998756528226809,-0.3380516777527416,-0.06113575323982179,-0.04050693938860128,0.34591520535280845
0.5023625963690624,-0.3475385794253616,-0.0898545279911076,-0.03570962747954454,0.3607382401191076
0.5048495399154439,-0.3522357947190331,-0.10899558217751215,-0.04048908711007826,0.3709305301408488
0.5073364834618254,-0.35214332518471864,-0.11855891671376995,-0.0356917050545178,0.3732760855107005
0.5098234270082069,-0.3472611723911221,-0.1424865491302394,-0.021317481368475555,0.375961664994446
0.5123103705545884,-0.33280093460428073,-0.16162486708847235,-0.021308432709188807,0.37058482030349155
0.5147973141009698,-0.30876261342809624,-0.17597387154521948,-0.021299349171448156,0.356026427660488
0.5172842576473514,-0.2990882270854892,-0.19032196679143976,-0.02607863413134659,0.35546633283991846
0.5197712011937329,-0.2942009705745544,-0.19988075049130716,-0.03564628764471145,0.35745934499859916
0.5222581447401143,-0.27494723227002826,-0.1998618203227811,-0.050002309767405606,0.3435708933215387
0.5247450882864959,-0.2892110470481934,-0.19984198393848818,-0.04520468395375943,0.35443379033402356
0.5272320318328774,-0.28431998007584613,-0.2046096456844153,-0.030830216900341156,0.3516439398760536
0.5297189753792588,-0.26506243638051336,-0.20937640327954288,-0.026032521944355125,0.338783508496259
0.5322059189256404,-0.26016883760816983,-0.2141422577767247,-0.030811599141788548,0.3383697463866616
0.5346928624720219,-0.25048557221845547,-0.20933040360169697,-0.040379045228334576,0.32892659827871673
0.5371798060184033,-0.24080104528926696,-0.2093060517952079,-0.03558124697876508,0.3210298924820954
0.5396667495647849,-0.23590366191510032,-0.2140692034504612,-0.02120660776943062,0.3192583307980473
0.5421536931111663,-0.22621661724601708,-0.20446624639275024,-0.025985547578253332,0.30603211026804605
0.5446406366575478,-0.2213167197297368,-0.19965079502315008,-0.03555285650034534,0.3001758417838466
0.5471275802039294,-0.211627164549041,-0.1948344471543959,-0.030754921310506944,0.2892963597383165
0.5496145237503108,-0.2210899701451154,-0.18522880061239233,-0.021168548705414736,0.2892033729564144
0.5521014672966923,-0.22097471845182914,-0.18041066319709564,-0.03552415866298553,0.2874713889046943
0.5545884108430739,-0.21606981466126435,-0.16601482611995344,-0.049879734637697126,0.2770109658965121
0.5570753543894553,-0.2303172772626828,-0.1611949038476035,-0.03550485676368886,0.2833556777019718
0.5595622979358368,-0.26850551147993096,-0.16116249425806428,-0.021129945018834917,0.3138710464937455
0.5620492414822184,-0.2683852760682183,-0.1563407919219313,-0.021120209420045555,0.31131842681559496
0.5645361850285998,-0.2730522028452731,-0.16109500802419063,-0.016322036742026924,0.31745159626686126
0.5670231285749813,-0.2825062937615581,-0.16584833716103686,0.007629782920233197,0.32767924948245136
0.5695100721213628,-0.2823823408220517,-0.1562355706210674,0.0172164262686465,0.32318066970178716
0.5719970156677443,-0.287045555968964,-0.15141032294772216,0.007649489927040065,0.3246209355429946
0.5744839592141259,-0.2869191345582047,-0.15137259541579118,0.007659393761459299,0.32449178530640044
0.5769709027605073,-0.2915798852420996,-0.1513339859922942,0.0028809277551822277,0.32852565278657075
0.5794578463068888,-0.29623940672710936,-0.14650609265673742,-0.00668590814753145,0.3305548708631163
0.5819447898532704,-0.3056861043752961,-0.1416773200416821,-0.011464307361750414,0.3371170238442762
0.5844317333996518,-0.315131576922977,-0.14163607279206047,-0.011454269943110162,0.34568755862751216
0.5869186769460333,-0.3102106164806337,-0.1463823522448089,-0.011444199267504729,0.34320458814370836
0.5894056204924149,-0.310076838415626,-0.15591615974912187,-0.006645692070131659,0.34713348990818355
0.5918925640387963,-0.3147302448286608,-0.15587228670545628,-0.006635555047067143,0.3512767105338459
0.5943795075851778,-0.328959241155262,-0.1414623311670402,-0.030567401534943528,0.35938856342023134
0.5968664511315593,-0.33361021624379916,-0.14141671444137582,-0.044922408346886655,0.3651198245471101
0.5993533946779408,-0.3382599788788311,-0.14137022796518384,-0.049700575538155434,0.3699668929443
0.6018403382243223,-0.338120127898201,-0.1556880831090317,-0.044901903163914625,0.37494023659751713
0.6043272817707038,-0.33319066547419074,-0.16042826469290183,-0.04489160124022362,0.3725164473327602
0.6068142253170853,-0.3330484004337405,-0.16037917747050834,-0.04009286318147254,0.3718200576564936
0.6093011688634667,-0.3329049316567928,-0.14596401624642752,-0.02571728572227272,0.36440714365270377
0.6117881124098483,-0.33754866467776135,-0.14591320239948047,-0.016130078878410004,0.36808958570548456
0.6142750559562298,-0.33740279508387594,-0.15064993075767097,-0.0017544360640098233,0.3695120103780197
0.6167619995026112,-0.3276789217963389,-0.14580899284031767,-0.00653237393530226,0.35871494266610865
0.6192489430489928,-0.332319063671795,-0.15054400342049945,-0.020887085906229785,0.3654254060724625
0.6217358865953743,-0.3369580130178639,-0.15048975404062093,-0.03045336207032001,0.3702907990614127
0.6242228301417557,-0.3463841754367981,-0.14085784289516878,-0.03044279916164072,0.3751662203862531
0.6267097736881373,-0.3558091499035156,-0.13601348147127634,-0.016066993914147787,0.381258398714621
0.6291967172345188,-0.34129092212488277,-0.13595667130648037,-0.0016911563429360399,0.36737796614300017
0.6316836607809002,-0.33634831766462325,-0.1358990106292901,-0.0016804964629990593,0.3627692875013049
0.6341706043272818,-0.3266161288963514,-0.14062890432006903,-0.011246611007958762,0.35578233604925563
0.6366575478736632,-0.3264595681284806,-0.14535795062972623,-0.020812693391009773,0.35796361776037544
0.6391444914200447,-0.3358786377213202,-0.14050934449997454,-0.011225130384602267,0.36425724251069286
0.6416314349664263,-0.33093132344635956,-0.1356598941648346,0.007939271317059848,0.3577459709791559
0.6441183785128077,-0.3211944343299275,-0.12602119790839428,0.007950091738646137,0.34512376175140663
0.6466053220591892,-0.3210331827312274,-0.12117006398662289,0.0031725407877623013,0.3431538340687948
0.6490922656055708,-0.3160823611000591,-0.13068330066637435,0.0031834250518372187,0.34204724566455263
0.6515792091519522,-0.3063419718595425,-0.1354072963034585,0.012771147798124716,0.33517703058396897
0.6540661526983337,-0.301388824085715,-0.1257652459050851,0.003205289051823712,0.3265920915136224
0.6565530962447153,-0.29643451690588035,-0.12091076441105919,-0.00636053795859759,0.3202082013422081
0.6590400397910967,-0.2914790527797697,-0.1256322568109094,0.0032272799954551346,0.31741757591060255
0.6615269833374782,-0.2960992408197654,-0.130352918143831,0.008026726259906525,0.3236218039890162
0.6640139268838597,-0.29114147022831316,-0.13028434677988132,-0.0111158124988755,0.3191565885111481
0.6665008704302412,-0.27181734018064607,-0.13500335106054973,-0.0206815130909348,0.3042010785717066
0.6689878139766227,-0.281222483066885,-0.13493312605651342,-0.00630516560741512,0.3119820325003097
0.6714747575230042,-0.2858380781638261,-0.13486207680976747,0.0032828099778683395,0.3160727187391914
0.6739617010693857,-0.266510514720791,-0.1300018017320057,-0.0014943930274924355,0.29653086874865037
0.6764486446157671,-0.2567586185220402,-0.13950591584675287,-0.001483161393883492,0.2922141141514355
0.6789355881621487,-0.2565823921210618,-0.14422080762524558,-0.00626030181340731,0.29440339107666436
0.6814225317085302,-0.26119343476236023,-0.13456967218950489,-0.025402620978022483,0.2949174463959418
0.6839094752549116,-0.2562265390610585,-0.13449452791383898,-0.0397565056576461,0.29209826617096
0.6863964188012932,-0.2416817076043751,-0.1344185699404128,-0.05411035922360341,0.2817912892739939
0.6888833623476747,-0.2462893629124761,-0.1391302033823174,-0.05409897176580536,0.2879971571442256
0.6913703058940561,-0.2556842976337036,-0.1390526234016427,-0.06366435993650121,0.2979316076844546
0.6938572494404377,-0.25550130442730357,-0.13418583181098231,-0.0684413138252804,0.2965990011125955
0.6963441929868192,-0.2505287892445922,-0.13410663707337722,-0.05406462352156716,0.2892615561460261
0.6988311365332006,-0.24076675472730932,-0.12923823438038795,-0.04447630567711691,0.2768560874793342
0.7013180800795822,-0.24058041348878537,-0.1243690288942303,-0.04446476366228502,0.27445164585054266
0.7038050236259636,-0.24518136487167091,-0.1290758291070926,-0.04924159420661667,0.28142353480124566
0.7062919671723452,-0.24978120822910443,-0.128993426919207,-0.04444158739883797,0.2846137924684617
0.7087789107187267,-0.2543799462449414,-0.13369863084191902,-0.02527633996816192,0.2884846170990216
0.7112658542651081,-0.2541891782930499,-0.1431914427554437,-0.020476271885787156,0.29246402402692556
0.7137527978114897,-0.2444205037575392,-0.14310665458850513,-0.03004138320087435,0.284821666923752
0.7162397413578712,-0.24901594195455462,-0.1525978815214013,-0.025241254040530237,0.2931419002767641
0.7187266849042526,-0.24882188232751062,-0.15251151218126635,-0.02044109441449571,0.2925575649571968
0.7212136284506342,-0.24383832761107138,-0.15242435512638863,-0.030006114332328693,0.2891205301343791
0.7237005719970157,-0.24364208719044678,-0.15712481560397062,-0.02520589392059769,0.29100689238819666
0.7261875155433971,-0.2530215671403752,-0.15703608890944976,-0.0108288365478586,0.2979891111418809
0.7286744590897787,-0.25282315694379415,-0.1569465803083201,-0.010816958863737014,0.2977730416887367
0.7311614026361601,-0.24304685937457615,-0.1568562917548264,-0.010805050955175588,0.2894692060324624
0.7336483461825416,-0.2476346938177588,-0.16155362853253719,-0.0012163062292387394,0.2956754908258164
0.7361352897289232,-0.2522214531054091,-0.166250189293355,-0.0012043380146788962,0.30208647317735704
0.7386222332753046,-0.2568071400399803,-0.16615757269809128,-0.005980743038501046,0.3059313900660214
0.7411091768216861,-0.26618016075361217,-0.1756409906976657,-0.005968714707213607,0.31896278959673713
0.7435961203680677,-0.2707637114268028,-0.17075842868929936,-0.0011682530677550318,0.3201137191831768
0.7460830639144491,-0.27055779488989573,-0.1610866953211496,-0.010732971448119244,0.3150645020647009
0.7485700074608306,-0.275139220623004,-0.16577940589069273,-0.02508606325423557,0.3222013542989859
0.7510569510072121,-0.28929639479499725,-0.1608945458212383,-0.02507391525121605,0.3319761439357211
0.7535438945535936,-0.2842989003415522,-0.15122052046656265,-0.025061737446165466,0.3229885465916933
0.7560308380999751,-0.2984539666916407,-0.15112254182960516,-0.029837933205369538,0.3358617202674098
0.7585177816463566,-0.3030311767987055,-0.14144699867960853,-0.029825695933988428,0.3357450218326762
0.7610047251927381,-0.30281893686714956,-0.13177069971612765,-0.015448219036985122,0.3306077332738048
0.7634916687391196,-0.31218245975069986,-0.1268820503267878,-0.005859115840989304,0.3370330430529994
0.7659786122855011,-0.321544941710148,-0.12199264926692344,-0.010635193031818702,0.34407334006773777
0.7684655558318826,-0.3165411756945275,-0.11231409530014957,-0.03456485397477316,0.33764996822665655
0.770952499378264,-0.3115363745832294,-0.10742319715924964,-0.07285969539433523,0.337495468398218
0.7734394429246456,-0.3161073479437435,-0.10731995694456575,-0.06327047417103238,0.33977136648699174
0.7759263864710271,-0.3254656953909626,-0.10721597344425904,-0.03931601359145276,0.3449187335629165
0.7784133300174085,-0.3300346132277372,-0.10711124877488443,-0.024938330301361944,0.34787581959762176
0.7809002735637901,-0.3346025077260554,-0.11658259170165275,-0.005772214383823027,0.3543778454183219
0.7833872171101716,-0.34395778516603637,-0.12126479439619331,0.013393930797047204,0.36495411453835175
0.785874160656553,-0.33415843191398575,-0.12115785899900322,0.018194895236705477,0.35591029576160177
0.7883611042029346,-0.33872327418795245,-0.13541540093971083,0.013419082212051237,0.3650354216451922
0.790848047749316,-0.3480755083310976,-0.14009540577296153,0.008643298320494708,0.37531052319978964
0.7933349912956975,-0.3478499273741278,-0.12083266570180973,-0.0009208598012975244,0.3682403468627045
0.7958219348420791,-0.3380465343164769,-0.12072281278079133,-0.0152733921961552,0.3592808558749889
0.7983088783884605,-0.3330305421262403,-0.13976584918931412,-0.00568387898482392,0.36121481291445084
0.800795821934842,-0.3375903571385451,-0.1348661472316124,0.003905663188705333,0.36355382147210746
0.8032827654812236,-0.33257236909454796,-0.1299657257038782,-0.0008699756787251545,0.3570661386922282
0.805769709027605,-0.3275533876648066,-0.13942979676921707,0.0039312209724151614,0.3560159329245395
0.8082566525739865,-0.32253341588671525,-0.13931634603572451,-0.0008443601809524637,0.3513368207011809
0.8107435961203681,-0.31751245680506573,-0.12962537572049992,-0.015196719180455176,0.34328972971954624
0.8132305396667495,-0.31249051347198276,-0.12951050132928632,-0.019972242786268524,0.33885421857557
0.815717483213131,-0.3026791856265486,-0.12939491845329743,-0.0343245443208815,0.33096209552745204
0.8182044267595125,-0.29765528297599,-0.12927862933167056,-0.03910001054408241,0.3268645626401545
0.820691370305894,-0.29741880859405323,-0.12916163621079546,-0.02472183485609314,0.32519508774396927
0.8231783138522755,-0.28760455560063014,-0.14340915130520315,0.004021579382122553,0.321401210609172
0.825665257398657,-0.277789333724196,-0.14807916027408163,0.008823005567608178,0.3149161746650304
0.8281522009450385,-0.26797314605956146,-0.14796006870560463,0.013624460261654647,0.30641053320316475
0.8306391444914201,-0.26773280234906166,-0.1478402821950091,0.023214346744500958,0.3067189403802047
0.8331260880378015,-0.2579146924199979,-0.14771980302423593,0.01365064837469987,0.2975356600017398
0.835613031584183,-0.2528840293486366,-0.14759863348220037,-0.0054898282468212045,0.29285803236311375
0.8380999751305646,-0.26700602621796665,-0.1570535825053665,-0.0006882599173803072,0.3097717216212502
0.840586918676946,-0.2619734595942027,-0.16171944243551684,0.004113336722147309,0.3078963967512442
0.8430738622233275,-0.23778633261266247,-0.16159621558220527,-0.0054502483283016545,0.2875506600143885
0.845560805769709,-0.2327518749777114,-0.15668390426177758,-0.015013805146736559,0.28097810502837806
0.8480477493160905,-0.24208168651739054,-0.15655931743794937,-0.03415414041253406,0.29031167412121034
0.850534692862472,-0.2418337537849266,-0.1564340541201954,-0.038929237562713936,0.29063837202854503
0.8530216364088535,-0.23200807994148384,-0.1563081166449578,-0.04370430659660407,0.2831431491354111
0.855508579955235,-0.23175828143579805,-0.16096991067559951,-0.04847934755241212,0.28631007718222673
0.8579955235016165,-0.23629595812130852,-0.1656310352414212,-0.04367755382751959,0.29185124356077013
0.860482467047998,-0.23125590321704065,-0.16071468605793182,-0.029298925459780634,0.2831376522480305
0.8629694105943795,-0.23100332987005195,-0.16537447876899192,-0.010131865807162299,0.284277876986413
0.8654563541407609,-0.22596143463194068,-0.16045680246239424,-0.01969519814934273,0.27783602399171076
0.8679432976871425,-0.22091862402129223,-0.1555384661541943,-0.043623712562688155,0.27367915739203186
0.870430241233524,-0.22066330456268957,-0.160196278866795,-0.053186989162469445,0.27782008127466756
0.8729171847799054,-0.22040707614603533,-0.16006503302733632,-0.0531734313059431,0.2775382997175963
0.875404128326287,-0.2201499419874382,-0.1647215376707809,-0.04358303902989924,0.27838581720479333
0.8778910718726685,-0.2294687119494719,-0.15980058523674812,-0.03399261901158823,0.2816870869475985
0.8803780154190499,-0.22442137265831583,-0.15966738809290382,-0.033978977928070364,0.2775125191181272
0.8828649589654315,-0.2097963306677629,-0.16432194865210414,-0.014811695893754973,0.26689996160683715
0.885351902511813,-0.2095356058185471,-0.14982225273172967,-0.014797999507255355,0.25801329095372694
0.8878388460581944,-0.22363920135548065,-0.1353219160380168,-0.02436108216389954,0.2625261428264118
0.890325789604576,-0.2281651039274051,-0.1399745542832025,-0.019558927297923745,0.2683928876368192
0.8928127331509574,-0.23269012343089332,-0.1398381533026707,-0.014756744905900732,0.2718771122798008
0.8952996766973389,-0.2276374564867635,-0.1301243122189768,-0.024319744984245162,0.263329827824961
0.8977866202437205,-0.23216071964315652,-0.12998664676211513,-0.03867112092765268,0.26886908278098537
0.9002735637901019,-0.2462599161723639,-0.12505994942573118,-0.033868856169727124,0.2782643287987733
0.9027605073364834,-0.25078143607078107,-0.12970943263114254,-0.02427816070641242,0.28338188840944395
0.905247450882865,-0.25051368594167367,-0.13914669552417092,-0.024264244533508617,0.28758940050384635
0.9077343944292464,-0.2550334757138817,-0.1390065306157302,-0.0003082844435482457,0.29045651021766267
0.9102213379756279,-0.2595524053605248,-0.13886574702397025,0.018859299607022706,0.2949691848424627
0.9127082815220094,-0.26407047818020796,-0.13872434723204918,0.018873297622842955,0.2988877102265034
0.9151952250683909,-0.27337610079697566,-0.13858233372872064,0.014098919530564302,0.3068197112973448
0.9176821686147724,-0.2826808731993307,-0.14322811232860522,0.018901375256977104,0.31745870632344725
0.9201691121611539,-0.2871963953808188,-0.14308487889089916,0.028492261447762957,0.3221286405294732
0.9226560557075354,-0.28692267066029514,-0.12857582928027567,0.014141158147177535,0.31473216417724176
0.9251429992539169,-0.28664810568188176,-0.12364298260903173,-0.004998321397259531,0.3122174031924852
0.9276299428002984,-0.28637270377430224,-0.12349793807298415,-0.0049841606175853315,0.31190689000460503
0.9301168863466799,-0.2956732749117761,-0.11856389155299185,0.004606833812104583,0.3185926941959226
0.9326038298930613,-0.2953962091514799,-0.10884084557585716,0.0046210485772189,0.31484377735106256
0.9350907734394429,-0.28554150983662907,-0.1086940126345981,-0.009729919675766752,0.3056845000311412
0.9375777169858244,-0.2852627935964378,-0.12291179858684886,-0.014504054378383202,0.3109542397776706
0.9400646605322058,-0.30413687042420645,-0.11797538273295238,-0.014489758883909687,0.32653848164486066
0.9425516040785874,-0.30385651711478057,-0.11782678422216586,-0.019263839865828913,0.3264705646756505
0.9450385476249689,-0.2987869469910749,-0.12246600560731125,-0.024037894036577967,0.3238045437781427
0.9475254911713503,-0.30329337338059603,-0.12231624280567388,-0.019235114788170193,0.3275944493296434
0.9500124347177319,-0.3077989930138453,-0.12216590170053054,-0.024009115434378003,0.33202585029268755
0.9524993782641133,-0.31709221258677744,-0.11722658153955123,-0.03357149268730453,0.3397301691399821
0.9549863218104948,-0.316807825518577,-0.12186349485663639,-0.03355703661831555,0.34109233998301036
0.9574732653568764,-0.311734238514123,-0.12649983758906247,-0.02396574725962175,0.337275557095013
0.9599602089032578,-0.311448261603014,-0.13592401563995127,-0.019162834604275147,0.34035653646330927
0.9624471524496394,-0.3111614948582807,-0.1405592249563563,-0.014359895363975639,0.34173758674988586
0.9649340959960209,-0.29650873171666925,-0.1308286614901637,-0.019133736211262686,0.3246531480102076
0.9674210395424023,-0.28185518554109756,-0.1258859411199258,-0.03348435717795617,0.31050091459394596
0.9699079830887839,-0.2863544730190605,-0.12094266312739554,-0.04304654833484989,0.31381366653782794
0.9723949266351654,-0.29085298427978973,-0.12078723343967468,-0.03824350307297841,0.3172500271926907
0.9748818701815468,-0.2905623194176501,-0.12541965466824,-0.02865202806452949,0.31776955479509944
0.9773688137279284,-0.2902708851717958,-0.12526312278859386,-0.009483720020678987,0.31628780826108177
0.9798557572743098,-0.2947670882855129,-0.11552923710116758,0.014473017706855273,0.31692918641715545
0.9823427008206913,-0.28968572222493616,-0.11058321019222506,0.00969936184455733,0.3102265972762367
0.9848296443670729,-0.2846035970618302,-0.12000185133226005,-0.004651074357580498,0.30890335750260495
0.9873165879134543,-0.27952071623136965,-0.11505474323378051,-0.004636274329190115,0.30230931143903683
0.9898035314598358,-0.2696486798524188,-0.11010709849658351,-0.004621448062337663,0.2912994017633429
0.9922904750062174,-0.2741411046493786,-0.10037051644365835,0.00018180773222908897,0.2919376969211063
0.9947774185525988,-0.2786327841084023,-0.10978701632427423,0.01456189634382632,0.29983573195754093
0.9972643620989803,-0.273546915039869,-0.11441458418895412,0.03373041442119451,0.29842311013054285
0.9997513056453619,-0.26846030753928657,-0.10467641605349431,0.03853374865218662,0.2907110912694637
1.0022382491917432,-0.2633729650653931,-0.11409133782080216,0.024183495685658585,0.2880399166029865
1.0047251927381249,-0.2582848910807457,-0.10914052891369108,0.014621672092381743,0.2807784416705279
1.0072121362845063,-0.24840768573138447,-0.10897760528264078,0.0002714712009908027,0.2712610743917643
1.0096990798308878,-0.23852975580774,-0.11360256960108872,-0.01886710701921146,0.2648734715915217
1.0121860233772693,-0.24780471806491688,-0.12301542454664638,-0.038005659278573134,0.2792568765649713
1.0146729669236507,-0.24750215605860448,-0.11806255951981193,-0.057144185607731046,0.2801098769461687
1.0171599104700322,-0.23762207327004892,-0.11789759048769044,-0.06191747607634035,0.27239285121240575
1.0196468540164139,-0.23731808646540098,-0.11773211681989304,-0.052325530714972146,0.2700346027069419
1.0221337975627953,-0.23222498917225176,-0.12235454453069439,-0.047521962835419984,0.26675347629430657
1.0246207411091768,-0.2271311882030458,-0.12697647299774895,-0.0427183691478934,0.26369766857545623
1.0271076846555582,-0.22203668705348767,-0.13159790492299983,-0.03791474968291553,0.26087511805714525
1.0295946282019397,-0.21694148922283374,-0.1314304396920143,-0.033111104470982866,0.25580053843404127
1.0320815717483214,-0.21184559821386362,-0.1312624833348912,-0.02351903022228008,0.2503228750962022
1.0345685152947028,-0.20674901753285774,-0.12151723192467134,-0.023503736928242702,0.240964768285798
1.0370554588410843,-0.20165175068956792,-0.12613670478042138,-0.03306522461936545,0.24013997153360356
1.0395424023874658,-0.20134220451751028,-0.13075569466252457,-0.03783828336520223,0.24303800257300429
1.0420293459338472,-0.19624357589268832,-0.13537420429607794,-0.042611316516563136,0.24218472405009422
1.0445162894802287,-0.1959326749757574,-0.1399922364099262,-0.04259592078364349,0.24454417156336988
1.0470032330266104,-0.19562110196981597,-0.13024458377569603,-0.04258049951726406,0.23883962417892296
1.0494901765729918,-0.2096740703625572,-0.1300732657311956,-0.023411439466721973,0.2478514993666264
1.0519771201193733,-0.21893797040283325,-0.13947828501632875,-0.01381916058443089,0.259959604697473
1.0544640636657547,-0.21383599898341993,-0.15367124105430863,-0.009015259580657187,0.2634804730785855
1.0569510072121362,-0.20873336960194405,-0.163075329951627,-0.004211333165693887,0.2649168136439178
1.0594379507585177,-0.20363008579835873,-0.17247895777927358,-0.00419578469048254,0.2668928761283078
1.0619248943048993,-0.20810295775648407,-0.17709372397114143,-0.004180210865373013,0.2732883134344438
1.0644118378512808,-0.21257518238210865,-0.17213122796462477,-0.004164611721069633,0.27355933871133636
1.0668987813976623,-0.21225835990453468,-0.1671682791615181,0.005427819352313179,0.27023749948907455
1.0693857249440437,-0.22151770383748964,-0.162204880326426,0.005443469042745619,0.2746090815511448
1.0718726684904252,-0.22119960445567022,-0.1476642275867417,0.0006707406397126192,0.26595946874127224
1.0743596120368066,-0.21609246863847092,-0.1426999369950983,-0.008890365887671337,0.25911052781832355
1.0768465555831883,-0.21098470326840252,-0.14731201132623228,-0.008874640609397133,0.2574764706534984
1.0793334991295698,-0.22502992519200266,-0.13755843675663382,-0.0040704868767686975,0.2637752066026318
1.0818204426759512,-0.23907452469639096,-0.12301602270826217,-0.004054711361467511,0.26889777032543377
1.0843073862223327,-0.22917648875142416,-0.11804998192664717,0.0007494925460083124,0.257794924248694
1.0867943297687142,-0.22885464417374435,-0.11787191387929008,0.005553721494157671,0.2574860774175811
1.0892812733150956,-0.23332059122050902,-0.11290501471657555,0.015146378772033842,0.25964486019473587
1.0917682168614773,-0.2329975268315594,-0.11272609387330457,0.024739061027982956,0.2600135398207227
1.0942551604078588,-0.2470390678715883,-0.12691196078741251,0.024754961589966484,0.278832844136213
1.0967421039542402,-0.26108000796605885,-0.14109740829837714,0.02955929038741445,0.29823648475041376
1.0992290475006217,-0.26554354406368597,-0.14091722924875283,0.029575240748101805,0.3020690883860122
1.1017159910470031,-0.26521808307704253,-0.13594823308570225,0.02001440932002474,0.29870241085504307
1.1042029345933846,-0.2744688385622284,-0.13576722925940343,0.0008767960714024525,0.30621341031023586
1.1066898781397663,-0.28371900747666423,-0.14037422058239546,0.005681224212537472,0.3165970203842917
1.1091768216861477,-0.28818019010095186,-0.1401924032295523,0.005697273789571966,0.3205217478089926
1.1116637652325292,-0.2830639867185378,-0.13043337669898847,0.0009249447704107183,0.31167120793701986
1.1141507087789106,-0.2779472075766368,-0.13025075709327494,-0.013424166197465226,0.3072460222055259
1.116637652325292,-0.272829856284652,-0.12049093395535593,-0.02777325250574414,0.29954223274938313
1.1191245958716736,-0.2772887430954055,-0.12030752339351647,-0.02775710422593214,0.30353484819295556
1.1216115394180552,-0.2769586616629345,-0.11054691495635094,-0.03731773799215432,0.30053175247441255
1.1240984829644367,-0.27183961560497355,-0.10557432143742274,-0.03251313723554361,0.2934277049839182
1.1265854265108182,-0.27150841518262514,-0.11017814899242317,-0.037285318590491556,0.29537474335625213
1.1290723700571996,-0.27117666069877994,-0.10520478717820092,-0.037269072129031855,0.29324701582507323
1.131559313603581,-0.2660559524590377,-0.100231045476177,-0.02288759124364681,0.28522951135720415
1.1340462571499625,-0.26572310073262684,-0.1000453300501225,-0.013294489248835362,0.28424387024558173
1.1365332006963442,-0.26060130251020247,-0.104647643746131,-0.0180665728186149,0.2814081897618502
1.1390201442427257,-0.26505577138663755,-0.10924958609259638,-0.03241543866622543,0.28851480840797916
1.1415070877891071,-0.2695097043578858,-0.10427435330017731,-0.037187473544120664,0.2913615103060799
1.1439940313354886,-0.2643862984225253,-0.10408715818364822,-0.03238267748615975,0.28597707791619426
1.14648097488187,-0.2688391705036174,-0.1086880035993647,-0.022789453846677077,0.2908727229049132
1.1489679184282517,-0.2685031142846272,-0.11328848908586098,-0.017984609300494725,0.29197885250749284
1.1514548619746332,-0.2633781334125345,-0.12267702082475518,-0.008391337241350882,0.2906683800123542
1.1539418055210147,-0.2726178448181243,-0.127276795039168,0.005990362296222074,0.3009248349823611
1.1564287490673961,-0.2722802355519159,-0.12229941127493404,0.006006875996273919,0.29854606885644447
1.1589156926137776,-0.262365309268515,-0.12211008236151422,-0.0035533928557764938,0.2894115656339373
1.161402636160159,-0.26202668290628484,-0.11713200452915551,-0.017902040974698608,0.28757324651460303
1.1638895797065407,-0.2568991501638969,-0.10736518065105116,-0.01309705179420284,0.2787400009630217
1.1663765232529222,-0.25655952134406096,-0.11675163020424284,-0.013080441951325739,0.2821787183847923
1.1688634667993036,-0.25621939679100947,-0.12134933946491389,-0.01785221148174365,0.284064680900862
1.171350410345685,-0.251090376851419,-0.11158150467241246,-0.013047150460396395,0.2750764215040675
1.1738373538920666,-0.25074927183533074,-0.1018133386698521,-0.013030468884300817,0.270944544836015
1.176324297438448,-0.24561927877394668,-0.09204484434158378,-0.008225360149122452,0.26242854270235716
1.1788112409848297,-0.24527720798211328,-0.09185283121472487,-0.003420227611675486,0.2619342461660507
1.1812981845312112,-0.24972306313642978,-0.09644889885757246,0.0061733320116292845,0.2677724936979251
1.1837851280775926,-0.25416844459554405,-0.10583305016082134,0.0014017054025980968,0.2753256208791633
1.186272071623974,-0.23945974275951082,-0.10564007805628384,-0.008158300835326315,0.26185368503557194
1.1887590151703555,-0.2247505745932124,-0.09586998543873726,-0.012929880098930369,0.24468562828122037
1.191245958716737,-0.2244061537435294,-0.09567638848620641,-0.008124629105543235,0.24408626087887594
1.1937329022631187,-0.22406127393776043,-0.10505929009743431,0.0014690487866388935,0.2474733662815587
1.1962198458095001,-0.2189275355461071,-0.1096534832121625,0.011062750219187123,0.24510311430755857
1.1987067893558816,-0.21379334558165475,-0.10467056741267022,0.011079668513110263,0.23829872293373205
1.201193732902263,-0.21344711105972985,-0.10447575556436295,0.01109661027042641,0.23790331540351198
1.2036806764486445,-0.21788883567757217,-0.10428064725324715,0.006325172131960599,0.24164024066157344
1.206167619995026,-0.21275331317369245,-0.09450843874684134,-0.008023049261714377,0.23293816042075333
1.2086545635414077,-0.2076173538903502,-0.09910114955663518,-0.017582843989060848,0.23072745801620825
1.2111415070877891,-0.20248096153135525,-0.09890516931306959,-0.017565808769425928,0.2260294890876701
1.2136284506341706,-0.19255573648235552,-0.089132097609252,-0.022337153603679383,0.21335695654841427
1.216115394180552,-0.1874184890920737,-0.09372395396186484,-0.04626208849295743,0.21459275484398754
1.2186023377269335,-0.20143443303166164,-0.09352712800645113,-0.05582179023554268,0.2289961282402456
1.221089281273315,-0.201084748771245,-0.10290683262237854,-0.04143945223157175,0.22965652742741208
1.2235762248196966,-0.2007346499861546,-0.11228626408906273,-0.041422301084590885,0.23370582328064748
1.226063168366078,-0.20038414039284463,-0.1168770220078108,-0.04140512687498443,0.23564470400568546
1.2285501119124596,-0.19524482038949864,-0.11189070598147532,-0.02702271968342984,0.22665016512910324
1.231037055458841,-0.18052829037632268,-0.11169252889567716,-0.022217096153390514,0.21344620867749925
1.2335239990052225,-0.175388167357088,-0.11628249367658228,-0.022199853006753756,0.21160212914345589
1.236010942551604,-0.17982445505629957,-0.11129539329087379,-0.022182586965712403,0.21263952212266837
1.2384978860979856,-0.17947194723948723,-0.11588484394884624,-0.02216529807308021,0.21478076576278943
1.240984829644367,-0.1791190509553739,-0.11568563861999692,-0.031724793012605446,0.21557658474371238
1.2434717731907485,-0.18355417325460366,-0.11548618355643558,-0.026919055226150235,0.21852649415089312
1.24595871673713,-0.17362370458816256,-0.11528648169128797,-0.022113294718396403,0.20958330434215383
1.2484456602835114,-0.17326966529172472,-0.12466334259960066,-0.02688431817402126,0.2151420285813391
1.250932603829893,-0.18249205910126337,-0.12925155925612408,-0.02686691567647337,0.2252357617322904
1.2534195473762746,-0.18213727647333755,-0.1242627312774669,-0.0172726839501518,0.2211641007860516
1.255906490922656,-0.17699372446788386,-0.12406207156268678,-0.0028900263604025866,0.2161631984261017
1.2583934344690375,-0.1766382134669438,-0.12386117973076294,0.016281057047400793,0.21635092585813143
1.260880378015419,-0.17628234389339104,-0.12366005872212282,0.0354521629072444,0.21822953683337284
1.2633673215618004,-0.18071452281247063,-0.11388190483767113,0.035469677891828866,0.21652927066460426
1.2658542651081819,5.1539233514974345,7.380170861987136,1.1176663656265475,9.070778685983212
1.2683412086545636,6.384899927633151,7.562331979045039,1.093741908682139,9.957513917137385
1.270828152200945,7.295053824890092,7.48113113088939,1.0315102474409255,10.499959366406213
1.2733150957473265,7.903538652798302,7.155721927856495,0.9357597851758843,10.702613041712548
1.275802039293708,8.210354407604475,6.619623190241988,0.820855731800151,10.578427804342615
1.2782889828400894,8.249019908795894,5.906353738340607,0.6915864905858857,10.169052847344338
1.280775926386471,8.048265572537915,5.059009199086752,0.557528868125198,9.522551719016096
1.2832628699328525,7.636821814994436,4.115896796093931,0.42825967100985807,8.685911593833124
1.285749813479234,7.048207455648141,3.129688962935636,0.2846252859093834,7.717071523314669
1.2882367570256155,6.315941313980115,2.124327713262614,0.13141411609446685,6.66491954826803
1.290723700571997,5.492695822751136,1.13333186736542,0.002144984757283197,5.60840022856905
1.2932106441183784,4.59283618815838,0.19022024553436045,-0.11754731811341657,4.598276347183149
1.29569758766476,3.664246439639454,-0.6619115253007195,-0.23245119588870544,3.7307991632097313
1.2981845312111415,2.730868590029422,-1.4278518514133625,-0.3186246320181141,3.098051939803871
1.300671474757523,1.8022794422005506,-2.074081912515611,-0.4000096431547142,2.776694920624141
1.3031584183039044,0.9215746222663037,-2.5766596949604152,-0.4335105994675761,2.7706328533188076
1.305645361850286,0.11269614305751657,-2.9643156216247477,-0.4526463242511589,3.0007925986523363
1.3081323053966674,-0.6147791925571799,-3.2178960821829388,-0.4765704308393808,3.310578201293544
1.310619248943049,-1.2512745817104385,-3.3374010795910154,-0.471764096043108,3.5953435729016605
1.3131061924894305,-1.7872132215359249,-3.3467726334069736,-0.4334389165954935,3.818754699293232
1.315593136035812,-2.2273835191297047,-3.25079914990794,-0.39511371579256505,3.960435241578913
1.3180800795821934,-2.5669970749481696,-3.0446922287307476,-0.38551891361046486,4.001031065017774
1.3205670231285749,-2.7916886828082457,-2.7763359060359702,-0.34719367026009706,3.952481525514431
1.3230539666749563,-2.930188766410751,-2.440941781461009,-0.2801379857965518,3.8239613332731217
1.325540910221338,-2.982497329535673,-2.048086664604396,-0.22265908683779578,3.6248484624007693
1.3280278537677195,-2.9390375693234083,-1.6265009783462947,-0.16996857011944222,3.363381718045745
1.330514797314101,-2.8333283127981113,-1.2144919522072695,-0.10291282241652056,3.084368829938688
1.3330017408604824,-2.6797347737036734,-0.797694379184942,-0.021491843785792497,2.796025157134542
1.3354886844068639,-2.4591033425427176,-0.4000502788393634,0.016833525871833288,2.491488077936055
1.3379756279532453,-2.200164443021774,-0.0263480574492454,0.05037051306128326,2.200898676689756
1.340462571499627,-1.9172832888874793,0.32820068534700564,0.11742634428701848,1.9487123559012107
1.3429495150460085,-1.6200366905668497,0.620500316708112,0.1461749696859247,1.7409499256383967
1.34543645859239,-1.3180014584876463,0.8505508336756709,0.17013521244131447,1.5778182898402442
1.3479234021387714,-1.0111775964378338,1.0327174432522468,0.20846068577512966,1.4602880902921485
1.3504103456851528,-0.7187187214873154,1.1717885457999428,0.22284416306513322,1.392589141741564
1.3528972892315343,-0.4502016440660494,1.2581873317201042,0.21807404757145932,1.3539841846361902
1.355384232777916,-0.19604956132336798,1.2823369914142888,0.20851554919442705,1.313888246503632
1.3578711763242974,0.034160716309453776,1.2586027318858788,0.17980345791204932,1.2718400350384094
1.360358119870679,0.23085237840068906,1.2061381634588448,0.1606681935846872,1.2384976214732495
1.3628450634170604,0.3844486145179886,1.1153664765356193,0.1415329495097506,1.1882233333768584
1.3653320069634418,0.5045262275097697,0.9862876681596262,0.10803251566388816,1.1130952803105676
1.3678189505098233,0.6054504235442925,0.8332669453356294,0.06495529530452693,1.0320480647465176
1.370305894056205,0.6584907789065717,0.6658811117485213,0.031454901649587086,0.9370150328176252
1.3727928376025864,0.6780124997640375,0.49370697108367523,0.017108141275897992,0.8388922526944756
1.3752797811489679,0.6927460022446955,0.3023793104254362,-0.002027002482353879,0.7558666415039318
1.3777667246953493,0.6643840559918517,0.11105174010080798,-0.011585319728958154,0.6737008850141312
1.3802536682417308,0.6120802704922849,-0.051545322921823455,-0.025932020490015972,0.6147939878753844
1.3827406117881123,0.5501998519121919,-0.2045654948767126,-0.045067104831179705,0.5887257109012793
1.385227555334494,0.47874279645661305,-0.3480087787161734,-0.05941376617792038,0.5948401220782482
1.3877144988808754,0.3881322936898136,-0.46272156411049536,-0.07376040791712413,0.6084394144644802
1.3902014424272569,0.2927335497774586,-0.5534922573308405,-0.09289543343614781,0.6329898669361075
1.3926883859736383,0.2021233675648021,-0.6251092646475742,-0.09287682620094273,0.6635070107460261
1.3951753295200198,0.1019365332954694,-0.6679957823693061,-0.08806979624044686,0.6814438429491557
1.3976622730664012,0.006538253134931671,-0.6917286200850363,-0.10241636022469791,0.6992998952098306
1.400149216612783,-0.07928307339195606,-0.6915193774219321,-0.09760929166015231,0.7028601773431808
1.4026361601591644,-0.15552745008060526,-0.6673680573265379,-0.07843699393654724,0.6897255060429288
1.4051231037055458,-0.23656009068728007,-0.6288514693850495,-0.07362988704568707,0.6758965951386874
1.4076100472519273,-0.2984389824056231,-0.5759696165420247,-0.059245954456406125,0.6513961225846538
1.4100969907983087,-0.341164129030679,-0.5087225017409716,-0.04965040620053962,0.61453780156369
1.4125839343446904,-0.38867755095885925,-0.4414753378852394,-0.05442004899009589,0.5907048792014058
1.4150708778910719,-0.4170372353832006,-0.364651321275522,-0.05440126961570968,0.5566418417077971
1.4175578214374533,-0.44060839605899155,-0.2926156648128373,-0.05438247147006159,0.5317115187530997
1.4200447649838348,-0.4498142301396156,-0.21579156479553108,-0.030421638024460407,0.49982428625777103
1.4225317085302163,-0.44944314473905994,-0.14854423412220097,-0.020825995914774964,0.47381246495816154
1.4250186520765977,-0.44907195029122626,-0.08608527240891872,-0.020807141894565007,0.4577217799252117
1.4275055956229794,-0.4343354406280293,-0.03320308591110699,-0.0016346561163391726,0.43560577590314775
1.4299925391693609,-0.4195988295027881,0.010102322437517408,0.007961041423152793,0.4197959180593382
1.4324794827157423,-0.3952853140667494,0.06298456298588073,0.00797995064853474,0.4003513635592167
1.4349664262621238,-0.35660649479093043,0.10629001952183081,0.022364088085481626,0.37278132036479544
1.4374533698085052,-0.33708119870826264,0.12565347915500302,0.01759463041541487,0.36016954669406887
1.4399403133548867,-0.3031906063666781,0.12586334227779616,0.027190400803609904,0.3294016433082758
1.4424272569012684,-0.2740883348368812,0.12607321924509174,0.03199778589139868,0.3033854482443531
1.4449142004476498,-0.24977438790763257,0.12149470381179883,0.022439978960209217,0.2786606548558369
1.4474011439940313,-0.2063067527653762,0.09776258309382513,0.008093786572210604,0.228441476686804
1.4498880875404128,-0.1772042564395342,0.06924206413062084,0.02247803189062303,0.19157524334587983
1.4523750310867942,-0.16725530603683114,0.05508675728364798,0.041650698234397154,0.1809521176690519
1.4548619746331757,-0.15251788874125727,0.031354643033298935,0.046458172242266116,0.16249055909168444
1.4573489181795574,-0.14256881497809004,-0.00674268485701246,0.04168885715400528,0.14869193526935115
1.4598358617259388,-0.1278312818904242,-0.03526321270016819,0.04170796284948253,0.13901037718364845
1.4623228052723203,-0.11788209990161963,-0.06378375004939585,0.017785069325226388,0.13520674886440523
1.4648097488187017,-0.11272127279339572,-0.09230429981540533,0.008227403061603411,0.14592415586774335
1.4672966923650832,-0.11234880434641903,-0.11603646158664294,-0.00611864930527517,0.1616296758795839
1.4697836359114647,-0.10718789169963217,-0.13019183494960362,-0.02525308785859437,0.17051943132954317
1.4722705794578463,-0.10202694195178025,-0.15392403609033645,-0.034810702721134845,0.18791990526367972
1.4747575230042278,-0.111231168841054,-0.16807945463032814,-0.03957989729743794,0.2054011788200139
1.4772444665506093,-0.12522376950287506,-0.18223490011088073,-0.039560671672282055,0.22462323568610162
1.4797314100969907,-0.12963953775109172,-0.19160197211022467,-0.029964622610668457,0.23327152435100992
1.4822183536433722,-0.14842049396075974,-0.20096907684505805,-0.010791750198446692,0.25006734042624684
1.4847052971897536,-0.15762462530247584,-0.20075941056894608,-0.010772474443879076,0.2554719351306139
1.4871922407361353,-0.16204033886733982,-0.19576137949415662,-0.01554158547295259,0.25459994108544215
1.4896791842825168,-0.17603284838565786,-0.19076338983068597,-0.010733873412199557,0.2597950165974925
1.4921661278288982,-0.18044854434410373,-0.16661183118465672,-0.02029135495119405,0.24644049694067302
1.4946530713752797,-0.1848642371497286,-0.14246031972234352,-0.029848820217560856,0.23528850575564397
1.4971400149216612,-0.20843354384867785,-0.1326740682873213,-0.025041059339461214,0.24834251599367743
1.4996269584680426,-0.21763764496208787,-0.11809946647855352,-0.025021685687798723,0.24887690379346533
1.5021139020144243,-0.21726494757198384,-0.10352492049410733,-0.025002296032463178,0.2419640085088339
1.5046008455608058,-0.22168066539936493,-0.08416202988892518,-0.029771293784527586,0.23898095032979966
1.5070877891071872,-0.23088480220260243,-0.07437600749666418,-0.024963469074362976,0.24384986603954772
1.5095747326535687,-0.24008895841802425,-0.050224839585910175,-0.010578821993842524,0.24551406057588554
1.5120616761999501,-0.2397163311598794,-0.040438948946063924,-0.010559369236933236,0.24333254672422516
1.5145486197463316,-0.23934373082185284,-0.04022993512170414,0.008613712345569624,0.2428539997693929
1.5170355632927133,-0.2437595644754718,-0.025655784373464385,0.013421599417961616,0.24547318361895587
1.5195225068390947,-0.2385986259091245,-0.020658516162381346,0.013441098526781659,0.2398681756827286
1.5220094503854762,-0.21428411222958377,-0.025238133345169,0.01824901621801267,0.21653561074727332
1.5244963939318577,-0.22348846370571818,-0.02502942881480541,0.01826854575582537,0.2256264733588907
1.5269833374782391,-0.21832765087782718,-0.02482080874268222,0.013499687044459918,0.2201483073629447
1.5294702810246208,-0.20837848412791465,-0.0389774859379437,0.008730843307912295,0.2121722523855499
1.5319572245710023,-0.20800617715621184,-0.04355744664432448,0.003962014449310658,0.21255474224728815
1.5344441681173837,-0.20284552373895032,-0.03856069370417803,0.008770007011836611,0.20666433321418612
1.5369311116637652,-0.19768493093144995,-0.03835243991780768,0.013578014256861337,0.2018281547162851
1.5394180552101466,-0.19252440246651276,-0.05729789808249963,0.02317443940612307,0.20220224853237503
1.541904998756528,-0.1825755387543881,-0.06666665110967118,0.032770879040173284,0.19710961476980102
1.5443919423029098,-0.19178036012491778,-0.07603550847014962,0.02321371977804887,0.20760535124098106
1.5468788858492912,-0.18183164374156474,-0.0758276663503823,0.018444978121038957,0.1978706619683419
1.5493658293956727,-0.16709460328886494,-0.07561993421489976,0.013676250647989718,0.1839185165520741
1.5518527729420541,-0.16672285576927282,-0.08498912152503024,-0.0006692693831276131,0.18713660607953028
1.5543397164884356,-0.1711395982609279,-0.08957002113729917,-0.015014775433662919,0.19374466253492337
1.556826660034817,-0.1659796245191839,-0.09415103918620904,-0.03414867092648244,0.19385506354340487
1.5593136035811987,-0.17039655153906613,-0.0987321784826376,-0.03891734268345992,0.2007425899152317
1.5618005471275802,-0.17481357639116857,-0.108101845154422,-0.024532387487994356,0.2069966991338815
1.5642874906739617,-0.1648654928231853,-0.11268323536508928,-0.024512628686530036,0.20119396417710836
1.5667744342203431,-0.15491751450205138,-0.10768794859505526,-0.03885806638391642,0.19262938481758546
1.5692613777667246,-0.15454645177172033,-0.08353918100096758,-0.03404987744339749,0.17894913990140185
1.571748321313106,-0.1589639050124999,-0.09290937190004644,-0.02445327193190927,0.1857407790224326
1.5742352648594877,-0.14901626464101347,-0.09749129752004437,-0.02443345991696866,0.1797425775469365
1.5767222084058692,-0.1438571476336012,-0.10207336396796363,-0.01962523154479534,0.1774795770509918
1.5792091519522506,-0.1482749610028396,-0.10186717070658524,-0.01002858692312536,0.18017479591727822
1.581696095498632,-0.15269290179750766,-0.096872720515365,-0.010008736121205786,0.18110665652630015
1.5841830390450136,-0.15711097370410876,-0.0918784194904001,-0.005200469286997134,0.18207840867909653
1.586669982591395,-0.15674077708589562,-0.09167267372408361,-0.005180593170605263,0.1816545866605411
1.5891569261377767,-0.1467939123031443,-0.09146708266444259,-0.009949107882089692,0.1732445227072321
1.5916438696841582,-0.1416355929943683,-0.08168484243541574,-0.014717610211778975,0.16416352438014634
1.5941308132305396,-0.15563103279502605,-0.07669116575868884,-0.01948610027090325,0.1745916990525061
1.596617756776921,-0.15526141213436284,-0.0764860553911646,-0.02904298149159068,0.1754984830167419
1.5991047003233025,-0.1453151380009967,-0.07628111076554989,-0.02423464070498582,0.1658994123014743
1.601591643869684,-0.1593110373022495,-0.08565314127156753,-0.019426287985007562,0.181917145648458
1.6040785874160657,-0.15894188713756008,-0.08544853637311833,-0.005041116804591184,0.18052531322170456
1.6065655309624471,-0.15378449780624598,-0.08524410545198569,-0.00023274055912914093,0.17583026886175313
1.6090524745088286,-0.15820408292465937,-0.08025144792499406,-0.00021275604303561124,0.17739467864968322
1.61153941805521,-0.16262383950427406,-0.07525896984553837,-0.004981163371613917,0.1792630405461713
1.6140263616015915,-0.16225536787352224,-0.07984348058323398,-0.014537962660744697,0.18141978435039136
1.616513305147973,-0.16667547831838264,-0.08442817622232202,-0.024094750706588286,0.1883862761044491
1.6190002486943547,-0.16630736784015604,-0.08901305948350657,-0.019286317665279995,0.18961389032879775
1.6214871922407361,-0.17072784671792623,-0.08880972976298374,-0.014477873615412307,0.192989052979535
1.6239741357871176,-0.17514851526633785,-0.08860659309334551,-0.02403462863616923,0.19775184983531974
1.626461079333499,-0.16999257047618432,-0.08840365218260704,-0.014437759604206235,0.19214871490257932
1.6289480228798805,-0.16004841929561864,-0.08820090973448647,-0.004840879920200436,0.1828068136460427
1.631434966426262,-0.1596812753098057,-0.08799836844836806,0.00475601029582684,0.18238542202729557
1.6339219099726436,-0.1641027388190095,-0.08779603101927025,0.009564507602950911,0.18635807403040955
1.636408853519025,-0.15894760347918185,-0.08759390013781099,0.019161418520599938,0.18249436142755102
1.6388957970654066,-0.16336948618473857,-0.08739197849017444,0.02875833960666796,0.1874939706167242
1.641382740611788,-0.17257998722477214,-0.08240186543776495,0.023990060777840938,0.19274190627429869
1.6438696841581695,-0.17221390024395294,-0.08698877361873603,0.02401019519239611,0.19442521350406908
1.646356627704551,-0.1718480354846802,-0.08678749574483247,0.019241936086148215,0.19347885885012509
1.6488435712509326,-0.18105920318548335,-0.07700963116385662,0.014473686655259499,0.1972876224083762
1.651330514797314,-0.1854821969794231,-0.06723198917994821,0.004917043454682357,0.1973523830151068
1.6538174583436955,-0.17075181049561733,-0.06224297577229576,-0.009427993640908738,0.18198696624927518
1.656304401890077,-0.17038687056232998,-0.062042593595109885,-0.00940781147617642,0.18157498725541313
1.6587913454364585,-0.17002217080068477,-0.06663084529789964,-0.018964426779188415,0.1835942743986126
1.6612782889828401,-0.17444611810900473,-0.06164252356450062,-0.03330943635672767,0.18799140242336546
1.6637652325292216,-0.17887031274089932,-0.06623124431616878,-0.028500823734916025,0.192856069277749
1.666252176075603,-0.17371795162554543,-0.07082020354748675,-0.01890379900295791,0.18854914893530286
1.6687391196219845,-0.18293105493014616,-0.061044193927890955,-0.028460378891285387,0.1949362912256146
1.671226063168366,-0.17299080297396408,-0.07042204132507601,-0.03322854692778776,0.18970824481002335
1.6737130067147474,-0.16305081259546395,-0.08458853839871461,-0.009266286640944088,0.18392023375524527
1.6761999502611291,-0.17705310394916102,-0.07481326784260878,-0.009246034684819548,0.1924326267053361
1.6786868938075106,-0.17669045402120603,-0.06982665218935091,0.005139435371855683,0.1900570748331511
1.681173837353892,-0.1811164796371632,-0.07920550068528298,0.024313316756641612,0.19916783853492537
1.6836607809002735,-0.18075437769634983,-0.07900779932953172,0.019545189415266506,0.19823317542875835
1.686147724446655,-0.17081574841398817,-0.0740219540380358,0.009988666495985399,0.1864324087818639
1.6886346679930364,-0.175242611922733,-0.07382477404195287,-0.004356252134776639,0.1902079052734369
1.691121611539418,-0.17488135846794894,-0.06405105196575134,-0.009124356650255905,0.18646522646808897
1.6936085550857995,-0.17452039489205012,-0.05906600035061382,-0.013892453825837592,0.18476785679332555
1.696095498632181,-0.16937132139227773,-0.06365802509191054,-0.023448947117190144,0.1824523000394167
1.6985824421785625,-0.16901094812222778,-0.06346191879853835,-0.037793836660251046,0.18444644158201692
1.701069385724944,-0.16386247194962877,-0.06326608735539052,-0.03298510598998483,0.1787219201437622
1.7035563292713254,-0.15871429969849377,-0.06785893664207432,-0.009022755243492497,0.17284812502066757
1.706043272817707,-0.16314324150846105,-0.06766366257194134,-0.004214011120966532,0.176668747582206
1.7085302163640885,-0.16278409091288387,-0.062680267693624,-0.008982067120065551,0.17466583450185033
1.71101715991047,-0.1576368514012979,-0.08163917447224023,-0.008961713418713657,0.1777488228811176
1.7135041034568514,-0.1620667364193824,-0.08623315888313288,0.0006354531639551908,0.18358155829308345
1.715991047003233,-0.16649694280642963,-0.0716738201383822,0.005444222526969966,0.18135051148546513
1.7184779905496144,-0.16135066739687104,-0.08105679064772131,0.010252997850033196,0.18085730603002192
1.720964934095996,-0.15620472030149318,-0.08565165301068944,0.019850182312262987,0.17924884949633943
1.7234518776423775,-0.15584750830584082,-0.08067000642285693,0.03423577577186698,0.17879648800830641
1.725938821188759,-0.15070222822955748,-0.07568866003516161,0.024679358164604537,0.17043768823440644
1.7284257647351404,-0.15034569016853888,-0.07549601967263353,0.005546139308457043,0.16832776122759363
1.7309127082815219,-0.15477789757302318,-0.07051528119373351,-0.008798670979183854,0.1703115353402596
1.7333996518279033,-0.15921045056787042,-0.0703232537325098,-0.018355072842439313,0.17501496017370208
1.735886595374285,-0.14927814263221623,-0.07013153645638504,-0.027911469746323192,0.16727655668639724
1.7383735389206665,-0.15371139712286863,-0.06515172852706153,-0.03267945851579945,0.17011727820657727
1.740860482467048,-0.1581450075086605,-0.06017223574111119,-0.027870635976409375,0.17148560786179018
1.7433474260134294,-0.15779057389384477,-0.05040465724870158,-0.03263861555583247,0.16883060714073558
1.7458343695598109,-0.15743650301806333,-0.05500260879574581,-0.02304138079951734,0.16835214488102873
1.7483213131061923,-0.15229439497506275,-0.06438928620044182,-0.023020948456617063,0.16694168738234633
1.750808256652574,-0.14715265649391018,-0.04983427199386181,-0.032577318675290456,0.15874079712047673
1.7532952001989555,-0.1467996942983345,-0.05443319850586059,-0.037345281643325734,0.16095898050957644
1.755782143745337,-0.13687030182544246,-0.06382085821661265,-0.022959627549091977,0.15275380834036745
1.7582690872917184,-0.13651809574912233,-0.06363204360032215,-0.013362373144016004,0.15121104607719554
1.7607560308380998,-0.1457430794565726,-0.0682319670470779,-0.0037651152582345304,0.1609683901562855
1.7632429743844813,-0.14539164304826863,-0.06804382433937928,0.010620549277543745,0.1608772450222846
1.765729917930863,-0.145040596541054,-0.07743282785523231,0.015429410350790818,0.16513837887788513
1.7682168614772444,-0.13511313666498143,-0.08203377004468182,0.01066146780934396,0.15842590073294
1.770703805023626,-0.13476288006640408,-0.08663505663291104,0.0011051248207945008,0.16021201010676211
1.7731907485700074,-0.13920142678450437,-0.08644828669833338,0.0011255911927801066,0.1638646101128985
1.7756776921163888,-0.1388519735325106,-0.0862618659538148,0.005934463451128025,0.16357321885981124
1.7781646356627703,-0.1432913302992257,-0.0860757967857051,0.0011665314804787386,0.16716102693783244
1.780651579209152,-0.14294269378649527,-0.07631327493349849,0.010763811727397155,0.16239516397023138
1.7831385227555334,-0.1330176640107325,-0.07133951273198891,0.025149497395704046,0.15302131300889513
1.7856254663019149,-0.13266985758413907,-0.066366109228432,0.010804765087097934,0.14873632546927898
1.7881124098482963,-0.14668768115216924,-0.061393066784074524,-0.0035399654332035624,0.1590563290354162
1.7905993533946778,-0.14155231479193442,-0.07078559771475179,-0.017884694322416905,0.1592718460927601
1.7930862969410595,-0.14120577841841958,-0.07060168776741937,-0.022652615097692674,0.15948921952634978
1.795573240487441,-0.14085967201882477,-0.06562974260450005,-0.027420534557986542,0.15779922696588075
1.7980601840338224,-0.13572559557440633,-0.06065816788197864,-0.04176525950280663,0.1544188703694027
1.8005471275802039,-0.1353803590213813,-0.06526377256968585,-0.04174477349002359,0.15598021583687835
1.8030340711265853,-0.13503556232901942,-0.06029294570908261,-0.04172428664055694,0.15365792687478325
1.8055210146729668,-0.13947961210116983,-0.055322496256977605,-0.04170379911494315,0.15573807384392435
1.8080079582193485,-0.13913570497466948,-0.06471763648393836,-0.01774129447270134,0.15447287917441221
1.81049490176573,-0.1387922475411802,-0.06453635209145103,-0.0033555961176663374,0.15309960399723074
1.8129818453121114,-0.1432376463862189,-0.05477864537595378,0.011030102428611244,0.1537510536258976
1.8154687888584928,-0.14289509812818885,-0.06896334186943198,0.03020420432372717,0.16151546535763792
1.8179557324048743,-0.1425530093402163,-0.07836002393314345,0.035013096123167387,0.1663958254370727
1.8204426759512558,-0.13742297994855912,-0.07339188720289558,0.0446103909443778,0.1620541005508804
1.8229296194976374,-0.1322934165138187,-0.07800095054995504,0.04463087866207438,0.15993002116470834
1.825416563044019,-0.13195272559028642,-0.0778220062763384,0.025497752470766244,0.15529945857162655
1.8279035065904004,-0.13640091040559277,-0.06806665331790196,0.015941432126899358,0.15327232924318251
1.8303904501367818,-0.14084957086067634,-0.07746531384588007,-0.0031916958167226284,0.16077830507585242
1.8328773936831633,-0.14051030685006177,-0.07728757018091681,-0.012748018245325454,0.16086959565048894
1.8353643372295447,-0.1353831215821386,-0.07711023119928839,-0.01272753532590798,0.15632199947673414
1.8378512807759264,-0.13504482489943925,-0.06735649248912479,-0.027072263827562892,0.1533196311021746
1.8403382243223079,-0.14428382331766754,-0.06239156623319575,-0.04141699395740339,0.16256043982673873
1.8428251678686893,-0.1487349100647311,-0.06700385796669162,-0.03660811260275132,0.16718775183224385
1.8453121114150708,-0.14360968500257548,-0.0620397566162616,-0.027010829893644228,0.1587521904072108
1.8477990549614522,-0.14327336126778012,-0.061864474343731324,-0.01741354931998451,0.1570277075382353
1.8502859985078337,-0.1525143453496457,-0.061689610022639396,-0.022181481012818693,0.16600678185573733
1.8527729420542154,-0.1521790271292291,-0.05672676251945852,-0.007795801900581267,0.16259506884038888
1.8552598856005968,-0.147055813082428,-0.056552740654506106,-0.012563738716902861,0.15805528199783905
1.8577468291469783,-0.1371447063580719,-0.06116754660035406,-0.017331678352181967,0.15116390545911332
1.8602337726933598,-0.14159932337945336,-0.06578277920211306,-0.022099620978574208,0.15768999863171285
1.8627207162397412,-0.14605445732085431,-0.0560332306570932,-0.026867566768734363,0.1587245840606699
1.8652076597861227,-0.13614490134970408,-0.06543772635851353,-0.017270305934877328,0.15203878998984638
1.8676946033325044,-0.12623586854840502,-0.06526584852830997,-0.0028846452912691944,0.14213882886370963
1.8701815468788858,-0.13548097531275133,-0.06030600262333419,0.011501011667634842,0.14874199774602664
1.8726684904252673,-0.14472661146907612,-0.06492340073377045,0.016309858126584587,0.15945799290806334
1.8751554339716487,-0.1396075701570319,-0.06954123834092885,0.0163302972307644,0.1568213508511694
1.8776423775180302,-0.13448906443110886,-0.05979430759845661,0.016350732124875478,0.14808785944078343
1.8801293210644117,-0.13415950069810878,-0.054836223894816793,0.006794355992196799,0.14509288870222767
1.8826162646107933,-0.12904207539679763,-0.054666989329819504,-0.0027620247032302814,0.14017120148433007
1.8851032081571748,-0.13350200156036246,-0.05928660599584612,-0.0027416034978315906,0.1460999741987282
1.8875901517035563,-0.13317407229294953,-0.054329866016886275,0.006855619430860216,0.14399328939322606
1.8900770952499377,-0.12805829065243196,-0.05416198143131279,0.02124124058451926,0.14065431503853
1.8925640387963192,-0.12773146633006638,-0.04920614766843068,0.021261646503418774,0.13852303083326117
1.8950509823427006,-0.12261679572858142,-0.04903917343125164,0.0069168370086192255,0.13224054506757316
1.8975379258890823,-0.12707949184495365,-0.04887265745428104,0.0021488285222712733,0.13617030277646172
1.9000248694354638,-0.1315427510672481,-0.04870660178474262,-0.012195992416737411,0.1407997537170666
1.9025118129818452,-0.1264297697761464,-0.04854100846223419,-0.021752416027812416,0.13716371164133428
1.9049987565282267,-0.12131735762615792,-0.048375879518701925,-0.021732039171427076,0.13240244902247655
1.9074857000746082,-0.12099392094401906,-0.04821121697841191,-0.02650007198976212,0.13291389755555896
1.9099726436209896,-0.12067105940834999,-0.04804702285792306,-0.02169130470357139,0.1316834601762366
1.9124595871673713,-0.1203487760105515,-0.05267170248637276,-0.0073057374950060705,0.1315732112946887
1.9149465307137528,-0.12002707373445687,-0.04772004790388529,-0.012073790468512868,0.1297284772803697
1.9174334742601342,-0.11491755223598304,-0.052345674384978835,-0.0168418505258785,0.12739608066131453
1.9199204178065157,-0.1145970211243415,-0.05697177727447933,-0.007244707889629609,0.12818247325118873
1.9224073613528971,-0.11906548336044503,-0.04723314858905159,-0.012012782665536292,0.12865405784840697
1.9248943048992788,-0.12832294189748178,-0.04707180689998536,-0.007204058436373728,0.1368737771817841
1.9273812484456603,-0.12321578639965136,-0.05169935084878885,0.002393061292783827,0.13364385372557053
1.9298681919920417,-0.1181092297655364,-0.05632737906904639,0.002413366375813908,0.1308754680062701
1.9323551355384232,-0.1177916782452742,-0.060955893506690284,0.0024336632677428582,0.13265151010801923
1.9348420790848047,-0.12226313476082024,-0.060796492779356726,0.007242355102869524,0.13673675205755373
1.9373290226311861,-0.13631200554653955,-0.060637582137289314,0.012051038374453427,0.14967667403265908
1.9398159661775678,-0.12641947026635664,-0.04611395354144587,-0.002293900385588188,0.1345869278668172
1.9423029097239493,-0.1261043550605831,-0.045956028827514483,-0.007062041442640776,0.13440289200823963
1.9447898532703307,-0.13057825949901947,-0.05537540658091045,-0.002253384984344464,0.14185272380776506
1.9472767968167122,-0.12547597650277886,-0.0504300720976647,-0.026175157761256784,0.1377408862136739
1.9497637403630936,-0.12995112222706368,-0.040696833907845065,-0.04530853671962731,0.14351442421537214
1.952250683909475,-0.13442689289706694,-0.045329307173957556,-0.03092310212641536,0.14519495124814505
1.9547376274558568,-0.12453808140949091,-0.04517388048779836,-0.03090288737396918,0.13603456048935172
1.9572245710022382,-0.11943830389500992,-0.04980736235480121,-0.04045948933156929,0.13558485187892702
1.9597115145486197,-0.12391596651510256,-0.06401815795182131,-0.03565089158761481,0.1439599853289386
1.9621984580950012,-0.12839426546201665,-0.05428744588492007,-0.011688691012151864,0.139888668882853
1.9646854016413826,-0.11850799359935377,-0.04934564791589979,-0.0020917110380818116,0.12838813329218263
1.967172345187764,-0.12298757366514135,-0.06355797583726686,-0.006859951856482027,0.13860959024556135
1.9696592887341458,-0.12746779850618467,-0.06819401155034122,0.007525409583399423,0.1447587463911569
1.9721462322805272,-0.12237186428114277,-0.053676950229287534,0.026699163128814263,0.136267873929767
1.9746331758269087,-0.1172765804214202,-0.058314020242943077,0.021930888665753656,0.1327979109395396
1.9771201193732901,-0.11218194970925649,-0.06774001342825331,0.007585795962658182,0.1312670695956041
1.9796070629196716,-0.11187637823862212,-0.05801291497304595,0.012394304748568175,0.12663112216853123
1.982094006466053,-0.12114827209485962,-0.0530747432597396,0.01241439822875634,0.13284558512438255
1.9845809500124347,-0.13042082739370547,-0.048137096740342056,0.002857672889410523,0.1390501297913477
1.9870678935588162,-0.12054043360123029,-0.05756518713909031,-0.011487468142886925,0.13407352023224026
1.9895548371051976,3.629082286425477,4.750139933982911,1.0707117386093028,6.072931027211004
1.992041780651579,4.534392764527629,4.850844060778901,1.051578168928362,6.722887957593907
1.9945287241979606,5.2338012274757535,4.755223119245013,0.9989257630491011,7.141615705329726
1.997015667744342,5.727307672557656,4.501584334214596,0.9223313274170337,7.342820287309157
1.9995026112907237,6.0053352904290715,4.1186581238891495,0.8217948618367732,7.328215573172792
2.001989554837105,6.087037691676833,3.62559809983827,0.7021047694329194,7.1196868293981685
2.0044764983834864,5.981991680256099,3.0511346802809713,0.558472646689161,6.7383632283341965
2.006963441929868,5.709350866771715,2.414421476804453,0.4339941232920115,6.214054174740798
2.0094503854762498,5.293057265157943,1.7585541176063249,0.30951558576364313,5.5861227783340075
2.011937329022631,4.747476082717577,1.1074746176118087,0.17067182394626812,4.877925589440555
2.0144242725690127,4.10133773672354,0.46118297515347395,0.055770064205256986,4.127562388057319
2.016911216115394,3.3833726444580012,-0.1276483749037478,-0.04955490361773052,3.3861423843888874
2.0193981596617756,2.622311223212554,-0.6542310308889938,-0.16445669300158627,2.707689124888161
2.0218851032081573,1.8468838902874438,-1.1233533977634818,-0.25541648090211844,2.176727024499504
2.0243720467545385,1.066667449712423,-1.4967082505957654,-0.3176458641971003,1.8651578835902778
2.02685899030092,0.32954593208779137,-1.7790839943289396,-0.3655100530459521,1.8458976079703555
2.0293459338473014,-0.3453270518979705,-1.9800574372169941,-0.3990090476473451,2.049167257096237
2.031832877393683,-0.9914703280699729,-2.094840177543857,-0.4229312515204935,2.355894654777214
2.0343198209400644,-1.5609998657991344,-2.1138554102641307,-0.4324882615442469,2.663109343023943
2.036806764486446,-2.0156084410869166,-2.0658335568856687,-0.4324684812382902,2.918454155850367
2.0392937080328277,-2.38402647640954,-1.9555630223056053,-0.41808350748191714,3.111688093890373
2.041780651579209,-2.6614655709915804,-1.787832211411771,-0.3941217437952531,3.2303366621247473
2.0442675951255906,-2.838348920727162,-1.5722179324031267,-0.3557947870580236,3.2641513067351324
2.046754538671972,-2.9242533347820445,-1.3135085901491421,-0.30789104079080687,3.2204594820271755
2.0492414822183536,-2.919178815671529,-1.0452230094315913,-0.2599873118346476,3.1115413382479225
2.0517284257647352,-2.8327021725415684,-0.7817264017418402,-0.21208360039020135,2.946231019295065
2.0542153693111165,-2.674400214528171,-0.5038651553196445,-0.15939150333799113,2.7261148643353166
2.056702312857498,-2.463426557397962,-0.23079288495785688,-0.0971226175587212,2.4761196583126197
2.0591892564038794,-2.1902043969856333,0.0039715845991668,-0.049218959855162225,2.1907609591346686
2.061676199950261,-1.8738873490376429,0.21958186513996836,0.0034730828525724178,1.8867119691903618
2.0641631434966428,-1.5432058359308545,0.40646114854073634,0.046588300402016,1.5965166416478251
2.066650087043024,-1.1933714567899876,0.5646094333276879,0.08491509591177326,1.322924721818054
2.0691370305894057,-0.8387494240103803,0.6892383147164467,0.11845346918002164,1.0920536960752867
2.071623974135787,-0.5032817566179385,0.7611941779711673,0.1376266133641355,0.9228489517942361
2.0741109176821686,-0.1726032470656491,0.7996306349281412,0.16158814154323586,0.8338535607051064
2.07659786122855,0.13413248896172042,0.8141244907926746,0.17118444023380697,0.8426709462664886
2.0790848047749315,0.41213704575079596,0.7998873408188039,0.16641550923345783,0.9150796818833877
2.081571748321313,0.6422568076377734,0.7521307802702575,0.15206975165998493,1.000659645912105
2.0840586918676944,0.8340685788912803,0.6852200177017389,0.14251237727170363,1.0888097375705839
2.086545635414076,0.9875723571499275,0.5895782450761402,0.12816657922525287,1.1572935408547083
2.0890325789604574,1.0979797367426714,0.4747822676473854,0.11860916395841414,1.2021005938542804
2.091519522506839,1.1557139086888641,0.3647741006401479,0.11862853458856293,1.2177058398699379
2.0940064660532207,1.1751400806201788,0.24518853272641783,0.10907107763141433,1.2053912749129272
2.096493409599602,1.161046653538483,0.12560236918970036,0.09472519620417508,1.1716561567434771
2.0989803531459836,1.1038568184955633,0.010804012002978869,0.09474450338487905,1.1079680154842715
2.101467296692365,1.013147379835338,-0.08962973353052073,0.07082177240775422,1.0195669795785556
2.1039542402387466,0.9080719485533715,-0.1804872720584516,0.03253380971008646,0.9264063729804921
2.106441183785128,0.7790537157343256,-0.26176860489825193,0.013399438330663926,0.8219653517377808
2.1089281273315095,0.6308810824348483,-0.32868533003702316,-0.00094655189490922,0.7113690197894498
2.111415070877891,0.4779192563634369,-0.37644904545179125,-0.024869371131060802,0.6088835562281181
2.1139020144242724,0.3297450419192796,-0.4002713491095622,-0.039215406300090905,0.5200834487653089
2.116388957970654,0.16241642027070463,-0.42409425888908414,-0.05356146424618835,0.45727876011075275
2.1188759015170353,-0.00012459419956345474,-0.42397575945586174,-0.06790754517295561,0.4293796627942529
2.121362845063417,-0.13872439041790824,-0.41428106202774506,-0.0870420526043354,0.445476793753875
2.1238497886097987,-0.26295977722106245,-0.39501016785145904,-0.09659977678302667,0.4842647974163714
2.12633673215618,-0.37761916011405733,-0.35658627152291533,-0.10136912123300235,0.5291745438543047
2.1288236757025616,-0.48749094459054404,-0.3181629875496257,-0.10135008615791818,0.590886577668254
2.131310619248943,-0.568633116210691,-0.27974031714761116,-0.10133107508173822,0.6417680676588297
2.1337975627953245,-0.6258340804449845,-0.22216464824134174,-0.1013120882080969,0.6717808916541937
2.1362845063417057,-0.663882242752283,-0.16937799862777858,-0.07256270581873459,0.6889803226048544
2.1387714498880874,-0.687566008579765,-0.12616877281228023,-0.043813348039128286,0.7004178644592556
2.141258393434469,-0.6825201700816277,-0.07817176200858089,-0.034217628354078045,0.6878338847672147
2.1437453369808503,-0.6631099393221622,-0.039752177341883854,-0.024621933685869735,0.6647565470528993
2.146232280527232,-0.6341237217132001,-0.006121616645712091,-0.010237860917658992,0.6342359043967208
2.1487192240736133,-0.5907731160140639,0.03229672557718377,-0.010219023534125071,0.5917435099179083
2.151206167619995,-0.5234813176518278,0.056349234912663526,-0.014988615098017632,0.5267186960686823
2.1536931111663766,-0.4609787486040695,0.08040112019929069,-0.0006046192110868986,0.4679381501419446
2.156180054712758,-0.40326541091449425,0.09487557368459232,0.013779350642169064,0.4145048089300488
2.1586669982591395,-0.3311876933334066,0.10934940090793166,0.02816329425859898,0.3499082034447357
2.161153941805521,-0.25432240452088756,0.10945739081768968,0.04733561475543446,0.2808940481216669
2.1636408853519025,-0.18224635312481724,0.09998794565412217,0.05214269864843324,0.21431328359616114
2.166127828898284,-0.11974794446052123,0.10488308094938059,0.042584545734706936,0.1647831132348996
2.1686147724446654,-0.0428851639091582,0.08583556908222567,0.061756785694280225,0.11410864464392764
2.171101715991047,0.00524635667608131,0.07636423224680344,0.06177538512136671,0.09836268821006049
2.1735886595374283,0.05337703525908816,0.06689226276517646,0.04264034381342796,0.09561318753928612
2.17607560308381,0.09671846657400945,0.03826604632952657,0.047447291450861684,0.1143240899554607
2.178562546630191,0.12569384204717482,0.019216001845939967,0.03310059794858233,0.13139195652731941
2.181049490176573,0.15466836971902215,0.01453053162974216,-0.0003997368955435121,0.15534992993422536
2.1835364337229546,0.16448843440039673,-0.014097591875726234,-0.0003812767600646083,0.16509189113992223
2.186023377269336,0.164730840836665,-0.02836114309126936,0.00442555823132551,0.16721300764550875
2.1885103208157175,0.16018399046557472,-0.03783692962994456,-0.009921248724607423,0.16489079786802002
2.1909972643620987,0.1508478814173131,-0.06167856573450914,-0.024268084548101143,0.16476731692538937
2.1934842079084804,0.13672251183485323,-0.06636722911338166,-0.029038142799855393,0.1547283686978069
2.195971151454862,0.11780787987401498,-0.07105653398744582,-0.02901982700131356,0.14060539798281413
2.1984580950012433,0.08931558038322585,-0.08053488460566482,-0.029001540673728954,0.12371026594058467
2.200945038547625,0.06082241818474399,-0.08043707192476468,-0.02419488069753939,0.10370574403396278
2.2034319820940063,0.02753998815293618,-0.0851283068123001,-0.024176653913917434,0.09268112085352823
2.205918925640388,-0.01053171150450044,-0.0898201868435331,-0.033735263843510666,0.09652280009620785
2.208405869186769,-0.04381587592614483,-0.08972430958264788,-0.0289286940848843,0.103957453098443
2.210892812733151,-0.06752410355774685,-0.08962907922335361,-0.024122154798861928,0.1147813345271947
2.2133797562795325,-0.10081000943342694,-0.07995768998729869,-0.03368085614603977,0.1330048505160726
2.2158666998259138,-0.1293083853318781,-0.07507535268654708,-0.01929757176335478,0.1507626060205538
2.2183536433722955,-0.14823082965912954,-0.07498206816105268,-0.014491125092165547,0.1667473601397618
2.2208405869186767,-0.17194255408912268,-0.055735820638013855,-0.019261516331402717,0.18177384195826587
2.2233275304650584,-0.19086675368085082,-0.05085543417716076,-0.028820342359427542,0.1996171460063707
2.22581447401144,-0.20021502680018538,-0.05076410294417011,-0.038379200054320606,0.21008573036057163
2.2283014175578213,-0.2047757784401406,-0.0458850210934556,-0.033572879653259946,0.2125222172967445
2.230788361104203,-0.21412581690051274,-0.04100659272908125,-0.033554994635352386,0.22058409683279337
2.233275304650584,-0.21868833718626995,-0.03134041530317555,-0.023960335237211083,0.22221815433791803
2.235762248196966,-0.2136749376090672,-0.03604010285809656,-0.023942514937326465,0.21801172445028053
2.238249191743347,-0.19908561978719874,-0.040740446182660595,-0.00955951733108229,0.20343611363968442
2.240736135289729,-0.19407399860648894,-0.04065304269493408,0.00961185074426929,0.19851895247103665
2.2432230788361105,-0.18906326901711967,-0.03098948980158367,0.004841169170537896,0.1916473456339534
2.2457100223824917,-0.16968822263514916,-0.030903401499419836,7.045435329544603e-05,0.17247932655575332
2.2481969659288734,-0.15031407098463578,-0.045183181812873396,8.810941719161747e-05,0.15695810784403175
2.2506839094752547,-0.1405176222554383,-0.040310008192408375,0.004894134166899988,0.14626705532702056
2.2531708530216363,-0.13072207134219715,-0.030649091280128715,0.014488528407436974,0.1350464519626682
2.255657796568018,-0.11613901644586438,-0.03535404502694739,0.009717678662937601,0.12178921511930477
2.2581447401143993,-0.09198005575336698,-0.04484806345036674,0.009735198020386804,0.10279325625806765
2.260631683660781,-0.07739880403905952,-0.04476593723604827,0.014541086285888127,0.09058701448702344
2.263118627207162,-0.07718366610226401,-0.03989607033931808,0.014558536625299823,0.08809634345519564
2.265605570753544,-0.06739262680622254,-0.04460367334454807,0.009787548845485716,0.08140669466372347
2.268092514299925,-0.05760249424214031,-0.04931194022293717,0.005016526074006933,0.0759926333621722
2.2705794578463068,-0.04781326984632445,-0.054020871574680385,-0.004542935201806486,0.07228417253682415
2.2730664013926885,-0.03802495504076353,-0.06351887130863787,-0.004525625212961515,0.07416889848004742
2.2755533449390697,-0.037814357873708626,-0.058652326720439074,-0.009296754111936423,0.07040206480025886
2.2780402884854514,-0.028027866457130235,-0.05857485165652765,-0.014067918769544718,0.06644155990966388
2.2805272320318326,-0.03260749877135405,-0.0584980433500788,-0.02362752269680435,0.07101781382652918
2.2830141755782143,-0.037188046219721216,-0.048845095702231944,-0.02361035612304896,0.06577418241268769
2.285501119124596,-0.041769510151967726,-0.0487696225242531,-0.014016419238117805,0.06572387745524566
2.287988062670977,-0.055928698543864175,-0.04869481769377293,-0.009210922192339766,0.07472647240886962
2.290475006217359,-0.05093519279407205,-0.04383227839695358,-0.013982268494961758,0.0686379364979931
2.29296194976374,-0.05073101081001191,-0.04375881176909724,-0.013965248373528638,0.06843608132690805
2.295448893310122,-0.06010455720314617,-0.0388976116524371,-0.009159862016060671,0.07217676261099103
2.2979358368565035,-0.06947902660924976,-0.043613888478935436,0.0004338903898979396,0.08203471623460581
2.3004227804028847,-0.08364282361022979,-0.04833083606713595,-0.009126007944274761,0.09703234346051501
2.3029097239492664,-0.08823073949192162,-0.05783685818465534,-0.013897540603597491,0.10640914993924118
2.3053966674956476,-0.08803117880652156,-0.04818993866534793,-0.009092304453840683,0.10076918492732337
2.3078836110420293,-0.09262094941162091,-0.03854369121396761,-0.023440719602463744,0.10302292821400998
2.3103705545884106,-0.09721164918891229,-0.03847492288273724,-0.023423962992355385,0.10714059207941667
2.3128574981347922,-0.10180327932540079,-0.04319523075099729,-0.004253631487761922,0.11066991019184554
2.315344441681174,-0.11118424431335505,-0.04312780856582199,0.005339854805397337,0.11937528263658578
2.317831385227555,-0.1062009320284088,-0.03827265670294144,0.010144899023922349,0.11334175396123661
2.320318328773937,-0.10121855357325399,-0.03820658216672701,0.019738307625463136,0.10997517581819073
2.322805272320318,-0.11060232003542164,-0.038141181988610384,0.024543273786957087,0.11954076814579896
2.3252922158666998,-0.11041021592474093,-0.038076456508321144,0.014982990685901143,0.1177485555353941
2.3277791594130814,-0.10543064565767457,-0.03322400273324133,0.0006342647815866798,0.11054346517648939
2.3302661029594627,-0.10524041695571751,-0.018795417658716396,-0.004137694145807558,0.10698567006297205
2.3327530465058444,-0.10983953088442083,-0.013944314869579255,-0.00412128959678526,0.11079779551070579
2.3352399900522256,-0.10007437521272872,-0.023459097977655663,-0.013681731711905343,0.10369377818741014
2.3377269335986073,-0.09509856425669105,-0.028186153981116124,-0.01845381070927843,0.10088973847535271
2.3402138771449885,-0.0757584857544214,-0.028125483147277475,-0.023225930087674485,0.08408230964066224
2.34270082069137,-0.07078456063169364,-0.03285389237195746,-0.027998090024944133,0.08290793274985786
2.345187764237752,-0.08017678987689558,-0.0280061719372795,-0.01840508073740388,0.08689885096187798
2.347674707784133,-0.08478156118162156,-0.027947532035094813,-0.013600515682943737,0.0902992341611361
2.350161651330515,-0.07981047218282256,-0.03746637620447224,-0.013584395037588237,0.08920749186294495
2.352648594876896,-0.08441713710339488,-0.04219749469106038,-0.01356831565643013,0.09534663488916618
2.3551355384232777,-0.08423634690839432,-0.04214088768925883,-0.01834068103454989,0.09595830936673061
2.3576224819696594,-0.07926810250812538,-0.0372965553812743,-0.01353628138514118,0.08864364631650062
2.3601094255160406,-0.0790892114377934,-0.0516065145386575,0.000844883118302775,0.09444071969317182
2.3625963690624223,-0.0836996745762199,-0.05634034539731525,-0.008716010939231467,0.10127111577516412
2.3650833126088036,-0.09309949278643131,-0.04670964478247708,-0.018276947128347487,0.10575137478599687
2.3675702561551852,-0.08334665031406974,-0.037079622788370514,-0.013472715659624157,0.09221212833433978
2.3700571997015665,-0.07838316459203376,-0.03702708617666728,-0.008668526664823872,0.08712100181204853
2.372544143247948,-0.07820903643576532,-0.03697522841551537,0.0009240230062133037,0.08651401455895116
2.37503108679433,-0.07803586332446666,-0.03692404960141271,0.015304933184010494,0.08767680641725868
2.377518030340711,-0.06828683940106434,-0.02729674317794517,0.015320590418534508,0.07511940571038844
2.3800049738870928,-0.06811557871436569,-0.022458519177962266,-0.0038174087786178035,0.07182401936012016
2.382491917433474,-0.077522082015901,-0.03198618430169464,-0.008590241332639081,0.08430054230202222
2.3849788609798557,-0.08214114008020329,-0.03193772199486622,-0.008574714050817889,0.08854778766829939
2.3874658045262374,-0.0819727536266554,-0.022313132292439697,-0.013347633739728693,0.08599748563932673
2.3899527480726186,-0.07701692335851651,-0.02705443181860101,-0.018120597244283942,0.08361761063991537
2.3924396916190003,-0.07685045660351603,-0.02700800730238262,-0.01810520140867311,0.08344593133678281
2.3949266351653815,-0.07668495071226455,-0.02217385874171196,-0.01808984971698102,0.0818504999375251
2.397413578711763,-0.07173200301916183,-0.03170559940339901,-0.00849773569161627,0.07888559312418476
2.3999005222581444,-0.08114522744392105,-0.03166121265907851,-0.008482472776098149,0.08751532819093075
2.402387465804526,-0.08098260800717294,-0.026829101789876297,-0.013255657811637178,0.08633479001256789
2.404874409350908,-0.0760325486351201,-0.031574476705160226,-0.0180288876386836,0.0842789227544164
2.407361352897289,-0.07587185655794637,-0.04589733734096635,0.0011398541843234966,0.08868147190987288
2.4098482964436707,-0.07092372570822592,-0.03627886037874273,0.015520147576294718,0.08116160150900142
2.412335239990052,-0.07076496328339543,-0.0314494656515949,0.01074678241785243,0.07818083045483601
2.4148221835364336,-0.0801839731441637,-0.03619755637864852,0.005973371832597607,0.08817830690152695
2.4173091270828153,-0.07523873921292062,-0.03136951916504849,0.005988318983993324,0.08173600537859847
2.4197960706291965,-0.07029447195808991,-0.026542160525390823,0.0012148170753683019,0.07514835230228877
2.4222830141755782,-0.07492797851128119,-0.0217154803212094,-0.013135537368825112,0.07910945829251802
2.4247699577219595,-0.07477404938602228,-0.021677881721915426,-0.013120727901458906,0.07895088674737463
2.427256901268341,-0.07462108836054193,-0.016852557923539457,-0.013105964637084355,0.07761495890449575
2.429743844814723,-0.07925749919649383,-0.031181525351852812,-0.017879651048808398,0.08702712579292514
2.432230788361104,-0.07431807235768623,-0.04072276721703805,-0.013076577327662875,0.08574681640376919
2.4347177319074857,-0.07895642153348564,-0.03589947667776805,-0.01306195358571216,0.08771261915247079
2.437204675453867,-0.07880733715442667,-0.040653670122436036,-0.008258973332615938,0.08905912600235974
2.4396916190002487,-0.07387081959530845,-0.03583173404415785,-0.008244443358437437,0.08251534401906321
2.44217856254663,-0.08330048249548488,-0.03101047484545605,0.0013468461491790151,0.08889563503722106
2.4446655060930116,-0.08794271291509059,-0.04534350555700284,0.015726491722197977,0.10018621059283733
2.4471524496393933,-0.08300910785846016,-0.05010040599388077,0.015740879932520713,0.09822595364392848
2.4496393931857745,-0.07807647427409659,-0.04528117588055469,0.0013900106341644403,0.09026767335963902
2.452126336732156,-0.07314481245309584,-0.04525102488995447,-0.01774930967734356,0.08782287194354377
2.4546132802785374,-0.07300252599005991,-0.0452215494012731,-0.003369854583716858,0.08594017251027922
2.457100223824919,-0.08243801846275578,-0.04040434578122243,0.011009552529539945,0.09246484895880677
2.459587167371301,-0.07750927351023534,-0.04037622034496202,-0.0033415084018777463,0.08745908945232174
2.462074110917682,-0.07258150131717767,-0.05471397939515299,-0.00811581095698699,0.0912554670263554
2.4645610544640637,-0.07244310541074372,-0.05468720265948246,0.006263451364217687,0.09098309996512183
2.467047998010445,-0.07230568266056364,-0.04508429309532325,0.0062774551798518985,0.08544069096426007
2.4695349415568266,-0.06738082991933919,-0.04984726692881036,0.001503006991756095,0.08382830841015614
2.472021885103208,-0.07203375730407208,-0.0641877204517014,-0.0032714900176067374,0.09653822193858257
2.4745088286495895,-0.07189925499292937,-0.05458683002140008,-0.0032576326648499077,0.09033181638217291
2.4769957721959712,-0.07655412974865106,-0.04498661182656294,-0.012820631046897901,0.08971453954431152
2.4794827157423525,-0.08599838167635737,-0.040175468762097655,-0.012806872017558035,0.09577998701232338
2.481969659288734,-0.08586680090320953,-0.04494180371042944,-0.01279316235154404,0.09775754815384415
2.4844566028351154,-0.0761593875002724,-0.04492040626024174,-0.007991098861685586,0.088780363054107
2.486943546381497,-0.07602975480281021,-0.04489967926898064,0.0015993183198403926,0.08831230170775162
2.4894304899278787,-0.08547790284776918,-0.04009121894098033,0.0016128791008789278,0.09442658042320679
2.49191743347426,-0.07577341173314528,-0.040071831429028926,-0.00316201332850774,0.08577505422934416
2.4944043770206417,-0.0756467013835776,-0.04484151623280841,-0.017513762417902257,0.08966558359986347
2.496891320567023,-0.08509777178472566,-0.04961186951920782,-0.01750035169404285,0.10004614270091246
2.4993782641134046,-0.07539620298324712,-0.04480608412232856,-0.012698587924855786,0.08861956180185884
2.501865207659786,-0.06569560821178577,-0.04478936946536072,-0.012685277877274359,0.0805165624591904
2.5043521512061675,-0.07036119736552082,-0.039984918357462096,-0.012672018356298054,0.08191502816934777
2.506839094752549,-0.07023935708027862,-0.039969536876574896,-0.0030820028456126636,0.08087416090890298
2.5093260382989304,-0.07490689389658328,-0.04474322444755385,0.00650796189086833,0.08749487102208427
2.511812981845312,-0.07957540437683225,-0.049517577162481174,0.011309472410541588,0.09440412912570854
2.5142999253916933,-0.07466808174590972,-0.049504191100986805,0.016110931912463045,0.0910249937943689
2.516786868938075,-0.060184925852112936,-0.04949146897087742,0.01612393695608283,0.07957142793543037
2.5192738124844567,-0.06485635644839455,-0.05905621678782591,0.0209252940628204,0.09017677996395418
2.521760756030838,-0.07910556670796404,-0.03989120735195728,0.016149793153564573,0.09005451086474191
2.5242476995772196,-0.07420213650555452,-0.02551526325563369,0.0017974341111841596,0.07848704664068643
2.526734643123601,-0.07408808222207108,-0.030293593797546148,0.0018102334211427262,0.08006261735388191
2.5292215866699825,-0.07397500029929122,-0.03507258502179056,0.006611384327785075,0.08213462906789404
2.5317085302163638,-0.06428608384140916,-0.03985223624129253,0.006624080076500505,0.07592614665552551
2.5341954737627455,-0.06896334917752439,-0.03984414343626641,0.006636723874681394,0.07992212084110188
2.536682417309127,-0.07364158605695864,-0.039836709215149035,0.0018609122901640518,0.08374669899541395
2.5391693608555084,-0.07353239085236557,-0.04940673949430474,-0.012491758108144069,0.0894655376810285
2.54165630440189,-0.078212569880036,-0.0494006202558408,-0.02205607746901528,0.09510046226081399
2.5441432479482713,-0.08768212279833071,-0.04460675407105574,-0.012466835940140086,0.09916319461138574
2.546630191494653,-0.07799903264674468,-0.03981354349887756,0.0019107564100142582,0.08759348337532517
2.5491171350410347,-0.06352850900994944,-0.03023258444526089,0.01149989283437236,0.0712890465251788
2.551604078587416,-0.0730009714162338,-0.03501748940536764,0.006723766586965496,0.08124392549037013
2.5540910221337976,-0.0728975962125083,-0.03501464429952961,-0.0028408157958264013,0.08092067154547286
2.556577965680179,-0.07279518961116133,-0.025435644996686158,0.001959758864117589,0.07713593404975312
2.5590649092265605,-0.07269375116662657,-0.030222507275335264,0.001971877183521542,0.0787506806593442
2.561551852772942,-0.06780487709568989,-0.025433213698540236,-0.007592864258835874,0.07281484261227468
2.5640387963193234,-0.0629169702384288,-0.01585616673895185,-0.0219460622424279,0.06849520286549488
2.566525739865705,-0.07239524005820192,-0.025433382138175364,-0.01714570026436668,0.07862507709138761
2.5690126834120863,-0.06750926611821773,-0.02064603578179902,-0.012345391703446396,0.07166706706455335
2.571499626958468,-0.04825904788621754,-0.015859336746274266,-0.012333539976394192,0.0522739942348514
2.5739865705048492,-0.04816340805478858,-0.020650090775488295,-0.012321741858176694,0.0538327544057289
2.576473514051231,-0.05285713609604731,-0.02544149031983922,-0.012309997442923049,0.05993898817143406
2.5789604575976126,-0.057551828105398106,-0.025445131137815657,-0.02187511346424209,0.06661972835404985
2.581447401143994,-0.06224748348121362,-0.025449415616316973,-0.02665188005302177,0.072337712607717
2.5839343446903755,-0.07173250492483935,-0.025454342809732022,-0.002698280698378852,0.07616269788679167
2.5864212882367568,-0.0716416818390323,-0.025459911760265186,0.011678457947677856,0.07692284487459691
2.5889082317831384,-0.06676341689046339,-0.03504292813857379,0.00690152915616693,0.07571652231916415
2.59139517532952,-0.06667451604878244,-0.04462658432190958,0.0021245461211432115,0.08025918523633739
2.5938821188759014,-0.07137497862568415,-0.04942247599569294,-0.007440894563735867,0.087134009544324
2.596369062422283,-0.07607640059522364,-0.05421900547384295,-0.017006389663015042,0.09495544519124671
2.5988560059686643,-0.07599037791413338,-0.044650961776917075,-0.02178353594007376,0.09078969303389568
2.601342949515046,-0.07590531316245308,-0.03508355383524808,-0.026560736797726747,0.08773793395811721
2.603829893061427,-0.08060960890290952,-0.03509358724677769,-0.016972782356360128,0.08954074075103242
2.606316836607809,-0.07573805439967218,-0.04468106095675717,-0.012173285977363335,0.08877408959801178
2.6088037801541906,-0.06607905218085902,-0.04948076393744971,-0.016950651059991273,0.08427402748363161
2.611290723700572,-0.06599781139791766,-0.03991588846939953,-0.007362861080425276,0.07748032643778867
2.6137776672469535,-0.07070592790375585,-0.03992845006332102,-0.0025635293964487715,0.08124149831309549
2.6162646107933347,-0.06104978757307006,-0.039941640975743375,-0.0025526560833881717,0.07299950205057716
2.6187515543397164,-0.05618300282577393,-0.044743863412151086,-0.0073302412153566365,0.0721960910011163
2.621238497886098,-0.06089397610358688,-0.03518150296449951,-0.012107881544938692,0.07136116080930553
2.6237254414324793,-0.06560589987003018,-0.025619768454999026,-0.016885577143810337,0.07242671709337486
2.626212384978861,-0.06074196657138742,-0.040000675334541214,-0.0072981181215006075,0.07309516439747774
2.6286993285252422,-0.06545578855857281,-0.054382205839003994,0.011866092132436279,0.08592257392697136
2.631186272071624,-0.06538215492309107,-0.04482234219237036,0.021453440268730972,0.08212258301685983
2.633673215618005,-0.06530946802048143,-0.040051503130191346,0.007098716259655191,0.07694050486344048
2.636160159164387,-0.07002613018907966,-0.04964649409492328,-0.00725606335879192,0.0861457122591832
2.6386471027107685,-0.0747437371094043,-0.04966529727500557,-0.01682249533061686,0.0913031452888839
2.6411340462571498,-0.07946228776510694,-0.035319508128321964,-0.021600579718910495,0.089600825194215
2.6436209898035314,-0.06502816784142218,-0.04012794866347136,-0.016801913265195978,0.07823822062215842
2.6461079333499127,-0.055383392889243765,-0.054513810994475165,-0.021580109311319262,0.08065219721095133
2.6485948768962944,-0.06489317180170084,-0.05932348058298764,-0.02156995795568406,0.09052989661529032
2.651081820442676,-0.0648270835719843,-0.054556956160190406,-0.0071946526157571355,0.0850339653090187
2.6535687639890573,-0.05997353041836179,-0.04500263976588004,-0.007184613270252882,0.07532383822258945
2.656055707535439,-0.05990931786231807,-0.04023733674848584,-0.011963033334131623,0.07315246955430046
2.65854265108182,-0.06463444476763314,-0.04504944912447373,-0.007164702900782416,0.07911003276762843
2.661029594628202,-0.06936050666071064,-0.05465057225804992,-0.011943235304521238,0.08910783243857963
2.663516538174583,-0.05493388908996971,-0.059463898181502994,-0.0023566139955910614,0.08098914116727912
2.666003481720965,-0.04529660746961234,-0.05470102223584883,0.01680675765517492,0.07298254301394785
2.6684904252673465,-0.05002546723589052,-0.04515034639117266,0.007239653036020144,0.06777546552768184
2.6709773688137277,-0.0547552572064991,-0.04038867592633588,-0.002327507979172694,0.06807937006337211
2.6734643123601094,-0.049909169502473705,-0.035627606147750956,-0.016683128757424726,0.06354980964080635
2.6759512559064906,-0.0498524128294528,-0.04044394231128878,-0.026250402703540843,0.06935459016312553
2.6784381994528723,-0.05937338923550978,-0.040472473059794734,-0.021452523221048736,0.07498954045356455
2.680925142999254,-0.06410688747056054,-0.03092479366531009,-0.011866296993440884,0.07215847066520784
2.6834120865456352,-0.05926450290824675,-0.03574291931034068,0.007296679258002925,0.06959223458103125
2.685899030092017,-0.06878825082720735,-0.03577323528320431,0.026459598852376587,0.0819247104720119
2.688385973638398,-0.06873611328610646,-0.04059254678273483,0.026468848469434647,0.08410117753805156
2.69087291718478,-0.05910808892833891,-0.04541244903550279,0.021689638032416525,0.07763051656494248
2.6933598607311615,-0.0638461929820543,-0.04544453725677622,0.016910370825236498,0.08017170926350049
2.6958468042775428,-0.06379681077580385,-0.040688809970865325,0.0025542401721843078,0.07571087415204047
2.6983337478239244,-0.05895994090262757,-0.031145265690831536,-0.01659035064023051,0.0687134771392019
2.7008206913703057,-0.05891238857945352,-0.03596751619977301,-0.030946595003873867,0.07564405787668488
2.7033076349166874,-0.0684425556861828,-0.036001946707100885,-0.04530289627025397,0.08962631313420494
2.7057945784630686,-0.07797363412509795,-0.026460152372004497,-0.05487085114893553,0.09894866137564962
2.7082815220094503,-0.07792881578180966,-0.02170734162379251,-0.06443886298880841,0.10342376938024296
2.710768465555832,-0.07309650248623789,-0.03610872288067446,-0.05485331853588882,0.09826405801814624
2.713255409102213,-0.07784190269231317,-0.03135706802635552,-0.030902621136451813,0.08942929901923707
2.715742352648595,-0.08258820823582658,-0.026605988777246292,-0.01652878741669639,0.08832831704434059
2.718229296194976,-0.08254701425632355,-0.031432290198126545,-0.0021550107593206747,0.08835520641765097
2.720716239741358,-0.07292991587682396,-0.03147076074123323,-0.002146501147265667,0.07945935362566058
2.7232031832877395,-0.06810212148510014,-0.03629820544942053,0.002650354680035605,0.07721711629910603
2.7256901268341207,-0.06806362949151812,-0.03633781607337916,0.007447153382910798,0.07751486715495284
2.7281770703805024,-0.07281443829000456,-0.036377994313852025,0.002667088302700904,0.0814396356438432
2.7306640139268836,-0.08235454625807481,-0.036418738540419326,0.002675369383641879,0.09008747641924342
2.7331509574732653,-0.0775303384756224,-0.03167164379153187,0.002683593290054631,0.0837928879890691
2.7356379010196465,-0.07270702324837092,-0.036501918376105724,0.0026917600078988357,0.08139991920582697
2.7381248445660282,-0.06309619558448465,-0.03175594735011744,-0.011665340436470828,0.07159364676308738
2.74061178811241,-0.06306306375709253,-0.02701053568070222,-0.006868884812243792,0.06894708570167037
2.743098731658791,-0.058242416101197236,-0.03184248832430914,0.002715916909606264,0.06643417268731995
2.745585675205173,-0.06299946085745806,-0.02709819030486349,-0.002064548560877455,0.06861126982420022
2.748072618751554,-0.06296898632847409,-0.02714284987786364,-0.006845071270117131,0.06891068523400984
2.7505595622979357,-0.0629393940819441,-0.02239965868666305,0.0027395587367955443,0.06686267433145052
2.7530465058443174,-0.06291068234913588,-0.032022228285944365,0.002747324853620725,0.07064506247348314
2.7555334493906987,-0.048517639384308975,-0.0416453469776874,-0.016398579563595916,0.06600916351554087
2.7580203929370803,-0.043702279988162396,-0.0416922063737184,-0.0020257179934262126,0.06043370650441155
2.7605073364834616,-0.05804140898445881,-0.04652801467698042,0.012347086321295109,0.07540631172062479
2.7629942800298433,-0.05322779797786148,-0.05615277011907516,0.0027778167796963515,0.07742123956434241
2.7654812235762245,-0.04841505840084487,-0.05620126096030953,-0.006791510014620528,0.07448975917375973
2.767968167122606,-0.05796839834967782,-0.04188508209127573,-0.006784087417637252,0.07183814551552664
2.770455110668988,-0.06752260598289139,-0.03235784499384309,-0.006776722065252372,0.07518148983171359
2.772942054215369,-0.06750087276350836,-0.04198475781931066,-0.011557817271702575,0.0803285183049431
2.775428997761751,-0.06748000342001964,-0.051612205466573524,-0.006762163068627203,0.08522380808234499
2.777915941308132,-0.07703680266517332,-0.04687497614466141,-0.006754969408193645,0.09042987318989817
2.7804028848545137,-0.07222925195382696,-0.05171508461496499,-0.006747832959975497,0.089090112045042
2.7828898284008954,-0.06742255928767543,-0.05655572238658957,-0.006740753712509928,0.08825978130599359
2.7853767719472766,-0.06740512601216708,-0.06139688759920148,-0.025887344934210077,0.09477965734970704
2.7878637154936583,-0.06738854681654549,-0.06623857838244795,-0.02588038004841131,0.0979722388211255
2.7903506590400395,-0.07694962633545382,-0.06150398621536812,-0.011508262359892996,0.09917875486257272
2.792837602586421,-0.07693474926616523,-0.0615583191686202,-0.025866621734591533,0.10186984059805859
2.7953245461328025,-0.07692072021237595,-0.05682476870140052,-0.035436634912089815,0.10198826711858101
2.797811489679184,-0.08648434376237335,-0.0664569461849207,-0.01627628527123548,0.11027685557026211
2.800298433225566,-0.08168360124689261,-0.07130123641807229,-0.006692799353604784,0.10863181205611369
2.802785376771947,-0.06730689390322392,-0.05699242751028111,-0.01626298377753521,0.0896818788929116
2.8052723203183287,-0.08644984951588203,-0.047472534123738086,-0.011468015277211308,0.09929115444915763
2.80775926386471,-0.09122843276821418,-0.05231836095000153,-0.006673103788580548,0.10537726582148726
2.8102462074110917,-0.08164264153151018,-0.052376292749103825,-0.006666652605614942,0.09722778005974655
2.8127331509574733,-0.08163449026347702,-0.05243473087302997,-0.006660258380312811,0.09725199249371363
2.8152200945038546,-0.07683876684424457,-0.04770527002357916,-0.001865517763322444,0.09046252834567499
2.8177070380502363,-0.07204387242013777,-0.04297631153364856,0.0029291659554360194,0.08393963854771348
2.8201939815966175,-0.08161501476311472,-0.05261306336728744,0.002935389487390694,0.09714814245839352
2.822680925142999,-0.07203336842706753,-0.057461910236916935,-0.00663525045466784,0.0923834608770494
2.825167868689381,-0.067240947794732,-0.05273444680650963,-0.0066291405550362725,0.08571004868054209
2.827654812235762,-0.07681455727305786,-0.04321907437131989,0.007742122542396146,0.08847770939638439
2.8301417557821438,-0.07681217801201706,-0.038492597537606255,0.017324925593532825,0.08764669875678933
2.832628699328525,-0.06723380774838905,-0.02897820762112513,0.02211926863689051,0.07648126219088766
2.8351156428749067,-0.06244465416519501,-0.024252709209677814,0.017336748392001056,0.06919603733327183
2.837602586421288,-0.05765631164955981,-0.02910450356158778,0.022130978181323258,0.068272268131796
2.8400895299676696,-0.06244558453495186,-0.0195915720041846,-0.0018052685150902192,0.06547167109459284
2.8425764735140513,-0.05765885721842218,-0.01965592905885094,-0.020953168411132594,0.06441998625711015
2.8450634170604325,-0.05766133732472073,-0.014932362675447841,-0.01615910818029853,0.06171646501808841
2.847550360606814,-0.057664619182911214,-0.005420870755790563,-0.01615350769786339,0.060129277030462364
2.8500373041531954,-0.04809189378736306,-0.005486661153707217,-0.025724770236191574,0.0548151211106521
2.852524247699577,-0.048096772039992186,-0.015129731753203313,-0.03050768578505192,0.058931546352953626
2.855011191245959,-0.052890848226879617,-0.024773273788824657,-0.020925447653196372,0.06204056156952114
2.85749813479234,-0.057685716619885086,-0.024840478486332085,-0.025708475710507273,0.06786469624729308
2.8599850783387217,-0.05769297147671071,-0.02490815034399807,-0.030491559942721125,0.06984719134734282
2.862472021885103,-0.05770101368157421,-0.03455309385140737,-0.02569789365455044,0.07199795144909307
2.8649589654314846,-0.06249824410464472,-0.029833290247316846,-0.011327476789979585,0.07017383738667805
2.867445908977866,-0.06250785364116129,-0.029902350644708697,0.003042884067712137,0.06935878808307919
2.8699328525242476,-0.05772983981305396,-0.02997186954646036,0.007836382336581238,0.06551683949242357
2.8724197960706292,-0.04816420012837286,-0.025253441446960956,0.017418228037575645,0.05710447571679495
2.8749067396170105,-0.0481761420422922,-0.03011227411340922,0.01742321127111701,0.05942438897757543
2.877393683163392,-0.0577656630352863,-0.03497155870305679,0.022216542060832012,0.07108766760253361
2.8798806267097734,-0.06256755061319291,-0.03025448636481265,0.022221413830116887,0.07296453636899505
2.882367570256155,-0.05779339890883439,-0.02553786152055082,0.007861020003707253,0.06367146114215674
2.8848545138025368,-0.06259681864301825,-0.025610085263597426,-0.011287832711088797,0.06856860315588449
2.887341457348918,-0.07218940392146411,-0.03047115535877598,-0.00649472432438003,0.07862558611218522
2.8898284008952997,-0.07220594219581916,-0.020967456281534513,-0.01127847800901094,0.07602983873127565
2.892315344441681,-0.07222323750589071,-0.016252599061732376,-0.03042749701462455,0.08003858811016538
2.8948022879880626,-0.07224128723752932,-0.025903388080587675,-0.035211361347363024,0.08443713083545247
2.897289231534444,-0.06747168544300275,-0.03076620778946637,-0.03520687757452201,0.08208844076245761
2.8997761750808255,-0.07227963944262128,-0.03562945923337857,-0.03041404562146255,0.08613256535296464
2.902263118627207,-0.07229993662167644,-0.03570473680884367,-0.030409672052861936,0.08617921571034305
2.9047500621735884,-0.07232097763363038,-0.03578044154519544,-0.020828546830511385,0.08333301966282045
2.90723700571997,-0.06276595315799272,-0.04543337778432299,-0.011247476516450305,0.07829599236686671
2.9097239492663514,-0.06278847378319813,-0.04550992993853864,-0.011243267671419588,0.07835787918879149
2.912210892812733,-0.07238853680354673,-0.045586902334380675,-0.01602751689391191,0.08703532169635173
2.9146978363591147,-0.06762412289895775,-0.036087486009543035,-0.006446610820169951,0.07692130677132987
2.917184779905496,-0.06764884261941079,-0.03137688859574794,0.0031342406726793115,0.07463711215132901
2.9196717234518776,-0.07246269322095061,-0.041031914396918,0.007926634349445294,0.08364981434539717
2.922158666998259,-0.0677004619860665,-0.045898947787677,0.007930570296540651,0.08217639506799448
2.9246456105446406,-0.06293895278626105,-0.045977986416529504,0.0031460486016836597,0.07800759344162544
2.927132554091022,-0.06296656616023905,-0.03648062460435364,0.01272668263514376,0.07387552285047601
2.9296194976374035,-0.06299489599367258,-0.02698366662570706,0.017518859205978288,0.07073461397151902
2.932106441183785,-0.06302393948019869,-0.03664072338857416,0.007945771765161425,0.07333276789393531
2.9345933847301664,-0.06784209712149353,-0.04150977591098082,0.007949437007139792,0.07993000179377258
2.937080328276548,-0.06787255944609155,-0.03201401516480873,-0.006412161575481079,0.07531731081767265
2.9395672718229293,-0.0726921302516435,-0.03688385867741273,-0.015985410605994232,0.08306682962349948
2.942054215369311,-0.07751240336279952,-0.046542497406679484,-0.020770309987682367,0.09276735695767406
2.9445411589156927,-0.05360295599065584,-0.04183631566296375,-0.035132069583479364,0.07653637378662363
2.947028102462074,-0.053636221779701954,-0.051495730952880514,-0.03512867269253839,0.08223550473069599
2.9495150460084556,-0.06324698787820338,-0.0659439342137702,-0.03512532917524602,0.09789061591861115
2.952001989554837,-0.06328163810234477,-0.05166209977467906,-0.030333635609455456,0.08714165320518226
2.9544889331012185,-0.0633169761784746,-0.04695745176265431,-0.02554199521240541,0.08286395638550013
2.9569758766476,-0.06335299918069487,-0.06619519769658044,-0.025538811200048528,0.0951190705420854
2.9594628201939814,-0.06817810749186431,-0.05670289860440869,-0.02074727682615851,0.09107097532702343
2.961949763740363,-0.06821549152242479,-0.047210971952919234,-0.020744198624498722,0.08551345468964512
2.9644367072867444,-0.05867674499172565,-0.05208462524151303,-0.01595276984632754,0.08006409591785044
