Time (s),Acceleration x (m/s^2),Acceleration y (m/s^2),Acceleration z (m/s^2),Absolute acceleration (m/s^2)
0.0,-4.862807122400454,3.5293000703771806,-0.11402646322463816,6.009646755904083
0.002486943546381497,-4.856163316038362,3.5077140797238067,-0.10878337662721904,5.991511832597826
0.004973887092762994,-4.839944985527772,3.4957064049373447,-0.09396359223499573,5.97108531919626
0.007460830639144491,-4.818940681276893,3.483700348191086,-0.08872072751581506,5.946951216643956
0.009947774185525988,-4.812304163598365,3.4764844215823723,-0.08826638333359149,5.93733999792145
0.012434717731907486,-4.800881966182586,3.469270330528653,-0.09260056387007509,5.923924302684211
0.014921661278288981,-4.784674235938229,3.4524813770854212,-0.10172327330445441,5.901108610041379
0.01740860482467048,-4.76846952302806,3.435694476545397,-0.11084611249296294,5.878314808588155
0.019895548371051976,-4.757056377545399,3.418909737514281,-0.10560387564845186,5.85915363776777
0.022382491917433474,-4.745646542870267,3.4069156718693185,-0.10036177690281534,5.842799670650054
0.02486943546381497,-4.729451762306789,3.3949239847959936,-0.10948503038501478,5.822818029649245
0.02735637901019647,-4.708472182400599,3.3829347847467854,-0.09945481701786285,5.798607532064754
0.029843322556577963,-15.97376297891061,10.007675182070706,-0.0606943343226245,18.849889921653865
0.032330266102959464,-15.952791046262082,10.627760519481473,-0.18473971927044808,19.16963652730601
0.03481720964934096,-15.625365344219954,10.941390856428411,-0.2944200531651333,19.07754594231635
0.03730415319572246,-15.020216438902843,10.962931511087136,-0.38015853351802775,18.599389498015277
0.03979109674210395,-14.185228509615461,10.721113011528905,-0.4515319711182375,17.78670439392648
0.04227804028848545,-13.158708928923545,10.244665885757339,-0.5133287734309651,16.684373114281655
0.04476498383486695,-11.97417666597097,9.552743855065444,-0.5511837346364992,15.327740391124262
0.04725192738124844,-10.679515899757844,8.693231060595785,-0.5746736655129236,13.782400950049377
0.04973887092762994,-9.33218761581697,7.723588450056872,-0.5885869735141451,12.128065751308
0.05222581447401144,-7.956133976327905,6.667758147838049,-0.5929236627698184,10.397625932741201
0.05471275802039294,-6.575297143355943,5.573624294850877,-0.5876837374055537,8.639744931349982
0.05719970156677443,-5.266291715372406,4.474705821964335,-0.55371358826158,6.932778617722267
0.059686645113155926,-4.038694644243671,3.4045216599634247,-0.5245320426973485,5.3081970598706
0.062173588659537427,-2.921236494993628,2.420532756148406,-0.49056229818518204,3.825343494598986
0.06466053220591893,-1.9330710258786765,1.5323160245278102,-0.4374391488727003,2.5052163577389526
0.06714747575230041,-1.088563591704892,0.768601992300503,-0.3699510021842656,1.3829618432085897
0.06963441929868192,-0.4164447571061203,0.1533327832517966,-0.3264050887818577,0.5508878834423665
0.07212136284506342,0.1168041565841218,-0.3230683021706985,-0.273282589518109,0.4389757539961735
0.07460830639144492,0.48245258500766575,-0.65102435033595,-0.20100670184245395,0.8348633994232265
0.0770952499378264,0.66134677058949,-0.8018048344317948,-0.1478846564026135,1.0498287551246939
0.0795821934842079,0.7061590057048894,-0.8041400675922236,-0.0851860373570048,1.0735727504952484
0.0820691370305894,0.6073123397138356,-0.6867603630559141,-0.027276058741831477,0.9171761322744242
0.0845560805769709,0.38396024205000634,-0.44008880760601155,0.006691662091490969,0.5840791079954215
0.0870430241233524,0.060044585622315516,-0.07849050473646257,0.02629392771862804,0.10226183174191958
0.0895299676697339,-0.37401157974450205,0.3549390220254031,0.036319137400216306,0.516899846083188
0.0920169112161154,-0.8703243642208989,0.8649882822416315,0.05113249704288414,1.2281220459000322
0.09450385476249688,-1.4193171043756059,1.4085617521550458,0.06115719595717195,2.000561784855592
0.09699079830887838,-2.0018363299695876,1.961717521171511,0.06160482677948309,2.803476320488535
0.09947774185525989,-2.598728570593508,2.514878888537268,0.04768698215186262,3.6166669816138968
0.10196468540164137,-3.186051952344399,3.0441039434148482,0.05292248128457189,4.406846565331802
0.10445162894802287,-3.759018214424194,3.520662371521473,0.07252291683118806,5.150780624729204
0.10693857249440437,-4.303262289214802,3.9541310850096103,0.06818105820900122,5.844473254615508
0.10942551604078588,-4.794842302275097,4.330144979300707,0.054262111364717924,6.460929702618627
0.11191245958716736,-5.224181588939454,4.6008201264423345,0.03555447561049263,6.961385151737171
0.11439940313354886,-5.596068694314756,4.814040664754417,0.036000163545885755,7.381887859157313
0.11688634667993036,-5.905715356675798,4.960229892577016,0.02208034793295255,7.712447212335122
0.11937329022631185,-6.124391297501399,5.001080688190014,0.008160234743186834,7.906898469319626
0.12186023377269335,-6.276038674596392,4.974900382857781,0.003816626634186804,8.008639699164085
0.12434717731907485,-6.3558692256433424,4.886477484459808,0.0042611163091024196,8.017153732885813
0.12683412086545634,-6.363883091441772,4.731023694090082,-0.019236720123902984,7.92981483056076
0.12932106441183785,-6.304868815905195,4.522904325976769,-0.05231167666718761,7.759559964278186
0.13180800795821934,-6.197980152698802,4.276484694198826,-0.08059854731636307,7.530589315504771
0.13429495150460083,-6.038428838674018,3.99176490272287,-0.09930893270082386,7.23924527436765
0.13678189505098234,-5.8262150137874364,3.6926870719635176,-0.12280804672431067,6.898971011293559
0.13926883859736383,-5.585280834379171,3.3936165155390787,-0.13194228004137898,6.536773196209687
0.14175578214374532,-5.3252032466074075,3.094553336949055,-0.13628844322137468,6.160570145096663
0.14424272569012683,-5.041193986445535,2.8146512528142247,-0.14063494350617312,5.775437357575467
0.14672966923650832,-4.74761840292142,2.539545156351055,-0.1354049781694613,5.385861547516544
0.14921661278288983,-4.44926503819265,2.2931771671742696,-0.13496376107916852,5.0072783143078325
0.15170355632927132,-4.160499240824908,2.104277808052542,-0.1440996994551913,4.664601135118643
0.1541904998756528,-3.8956863591484874,1.939328358422012,-0.14365918390837074,4.354079081936458
0.15667744342203432,-3.6356729180132294,1.807905727431051,-0.12885381500291437,4.062418490467672
0.1591643869684158,-3.4091894752310266,1.7243752273756763,-0.11404880657662986,3.8221786893203293
0.1616513305147973,-3.221024571768259,1.6791601537755727,-0.09924416249865153,3.633789690908454
0.1641382740611788,-3.0616015383836217,1.6818374152548325,-0.08443988663030311,3.4941538554617417
0.1666252176075603,-2.9261321089065464,1.7084650970164386,-0.06963598282501948,3.3890929873051974
0.1691121611539418,-2.814616420234398,1.7686201073245729,-0.06919766488919876,3.324886613692563
0.1715991047003233,-2.750996625610928,1.862302547619741,-0.07833653333993951,3.322994105539372
0.1740860482467048,-2.7209076514594304,1.9751473091964105,-0.06832217208465252,3.362917373352289
0.1765729917930863,-2.714772827262779,2.1071544931228434,-0.06309660154597196,3.43716056399156
0.1790599353394678,-2.742169095521594,2.248747393637465,-0.06265982553667904,3.546869386171599
0.18154687888584928,-2.7935197851890057,2.395137708107842,-0.047858234579935655,3.680044543434172
0.1840338224322308,-2.849671418308511,2.54153713370826,-0.028268639112340566,3.818486259016746
0.18652076597861228,-2.9345661465346993,2.673580560777148,-0.03740986616352515,3.970026571880765
0.18900770952499377,-3.038627298005523,2.800844896057229,-0.05133990291077595,4.132871129564175
0.19149465307137528,-3.142701393941155,2.8945998195294744,-0.06527034980395285,4.273118344401811
0.19398159661775677,-3.2467885685631503,2.978787447497033,-0.06962440396384295,4.406774128991133
0.19646854016413826,-3.3556773591308398,3.048619476137949,-0.06919047246334742,4.5342517100785935
0.19895548371051977,-3.459791092657388,3.094519198104745,-0.08312217232738917,4.642533012031541
0.20144242725690126,-3.5591299025086904,3.1116983091630797,-0.082689087368788,4.72830937178922
0.20392937080328274,-3.6536939217601043,3.114522118150726,-0.08225643127411786,4.801717757099303
0.20641631434966426,-3.7386948798734845,3.0982023204131215,-0.08182420775988142,4.856273491472756
0.20890325789604575,-3.8045561026945554,3.0483738044420527,-0.05745040393181,4.875503106251787
0.21139020144242726,-3.860854529051854,2.9985554917174673,-0.04744225005040548,4.888740481811142
0.21387714498880875,-3.9028018875119344,2.934382270299301,-0.03264613652306991,4.882983478534766
0.21636408853519024,-3.9303983096580177,2.8414890280286857,-0.013062067029020241,4.849975400614428
0.21885103208157175,-3.9388555234467852,2.7486062824088493,-0.012632061839534359,4.8030801470796805
0.22133797562795324,-3.9281736598464283,2.66052253411885,-0.0026257046928801486,4.7443582654338625
0.22382491917433472,-3.907929656154402,2.567661073652294,-0.0021966125207963927,4.675981438340712
0.22631186272071624,-3.8781236427136223,2.479598804557658,-0.02092159560467799,4.603117523255385
0.22879880626709773,-3.838755749550555,2.4011242268348383,-0.03485864097393332,4.527986128760908
0.2312857498134792,-3.794614509693004,2.3178722269723573,-0.053584558890309,4.446853071858113
0.23377269335986073,-3.7361232458863416,2.2442081111486196,-0.06273414300404134,4.358786818289695
0.23625963690624222,-3.6680704905128927,2.184920378667581,-0.062307396916310154,4.269953207729432
0.2387465804526237,-3.6000331789488165,2.1447975285975205,-0.07624634081976644,4.191206131019896
0.24123352399900522,-3.541588246241319,2.1142628498082763,-0.09497417165472655,4.125769600604908
0.2437204675453867,-3.473582207184316,2.0837396309303653,-0.08976047307003654,4.051641783537018
0.24620741109176822,-3.3960151895191,2.0723815802750414,-0.07975886190737747,3.9792016859868373
0.2486943546381497,-3.328040933931907,2.0658235826684326,-0.06975774503714938,3.9176969861933
0.2511812981845312,-3.2696595674889855,2.0688541359731842,-0.07412233595993811,3.869925741392691
0.2536682417309127,-3.2160828135951256,2.0862617378054207,-0.05933381496272183,3.8339532083908985
0.2561551852772942,-3.152945588670945,2.108469675572036,-0.06369941212659569,3.7935165576324685
0.2586421288236757,-3.099401632033309,2.125901236429863,-0.06806551767827962,3.7590396989658905
0.26112907237005717,-3.060239472689829,2.1481333205651674,-0.0724321351150401,3.7396241532176173
0.2636160159164387,-3.030670832656817,2.189531231230954,-0.07679926792338065,3.739640468815962
0.2661029594628202,-2.991542223636622,2.211787834901494,-0.06680170961803533,3.7209935193207304
0.26858990300920166,-2.9572189802184226,2.238845240958081,-0.047227866984094646,3.7094207878514673
0.2710768465555832,-2.951643243274336,2.265915138601377,-0.0372313567566227,3.7212841096637432
0.2735637901019647,-2.9556615234336725,2.288209216771584,-0.032023779058102164,3.738029157624355
0.27605073364834615,-2.945331927643136,2.3009391641467345,-0.026816733999909914,3.73764903894423
0.27853767719472766,-2.9398081923676656,2.323258685742563,-0.02639862832290696,3.7470922081485574
0.2810246207411092,-2.9438788437444154,2.336014259746767,-0.035557868756734834,3.758277481828173
0.28351156428749064,-2.9431787942601857,2.3392059773610816,-0.044717652058814394,3.7598119218799106
0.28599850783387215,-2.9568617792726095,2.3280455261980526,-0.04430117497521735,3.7636139743440924
0.28848545138025367,-2.970562710523553,2.321686610201259,-0.034308440881241964,3.770364518485786
0.2909723949266352,-2.974704902699399,2.3105525131202342,-0.01952785646103017,3.7666833569080413
0.29345933847301664,-2.9884420900304023,2.2898549217510182,-0.01911303834811484,3.7649152708085656
0.29594628201939815,-2.992620779804126,2.2691707325751582,-0.0330639898831766,3.755796609604696
0.29843322556577967,-3.001606302167951,2.238923228515909,-0.03743869779366982,3.7448390182349556
0.30092016911216113,-3.0106103736034724,2.2134777088194393,-0.051390778678136684,3.7370977243340238
0.30340711265854264,-3.0100563068852946,2.1832574558501125,-0.06055502588115402,3.7189674642707633
0.30589405620492416,-3.009521027680454,2.1482625583310906,-0.06014303937607757,3.6980895095661825
0.3083809997513056,-3.004216251304107,2.11806991134276,-0.06452003240561233,3.6763702572669215
0.31086794329768713,-2.9989304993189894,2.0831027963992876,-0.059320798278626796,3.651906400391525
0.31335488684406865,-2.9888754862520672,2.0481497046892625,-0.04454534025290613,3.623572570333798
0.3158418303904501,-2.9788397328737104,2.0275759337538286,-0.04892408149602723,3.60374026353663
0.3183287739368316,-2.9592465495940616,1.997439554282032,-0.0533034119603073,3.5706786705080833
0.32081571748321314,-2.9444612630234817,1.967317459913982,-0.04331812490618603,3.541478021599686
0.3233026610295946,-2.929695586087699,1.956363350637774,-0.04769864346466157,3.523173136172671
0.3257896045759761,-2.9149496346273494,1.940635296264548,-0.04250295423099004,3.5021141081695593
0.3282765481223576,-2.890646717435027,1.9201333829113691,-0.03251946370992442,3.470419019183208
0.3307634916687391,-2.8615753528548504,1.904434503038806,-0.03211338503442285,3.437515897552969
0.3332504352151206,-2.8373124621398533,1.8887503388478968,-0.03170791472339829,3.408625124910081
0.3357373787615021,-2.81785815948908,1.8826577822005572,-0.026514652603543354,3.389015780235051
0.3382243223078836,-2.803212558686255,1.8813685146962569,-0.021322005129590593,3.3760928253188602
0.3407112658542651,-2.7646453531759705,1.8896710242721344,-0.035283588704571045,3.3489349710681244
0.3431982094006466,-2.740463882468011,1.8932001852796936,-0.03966898651569295,3.331054316751063
0.34568515294702806,-2.72109145244794,1.8823792750849417,-0.03447820165928839,3.308909061041752
0.3481720964934096,-2.6921629652580172,1.8859387973091652,-0.05801846378137476,3.287532923157171
0.3506590400397911,-2.672832145857817,1.8943020287025323,-0.07677095271044365,3.2769354029424353
0.3531459835861726,-2.658310702178608,1.8931038423848814,-0.06200525158237902,3.264092921255999
0.35563292713255407,-2.6246567284418174,1.8919211277662225,-0.06160539664511333,3.236044455927471
0.3581198706789356,-2.600600754961868,1.8859655639828643,-0.07078298761012469,3.2132539001100517
0.3606068142253171,-2.590931295019361,1.8704488298569926,-0.0655960108945699,3.1962175516177513
0.36309375777169856,-2.5764948448592646,1.8693130238171949,-0.04125606618375599,3.1834507895671815
0.36558070131808007,-2.5525031102516182,1.8729814207330613,-0.031281979712312946,3.166119090070704
0.3680676448644616,-2.542898216450687,1.8479352785544814,-0.03567375445947718,3.1436394115279103
0.37055458841084304,-2.5381034650291348,1.8372703080368846,-0.020912570149034693,3.1333638026212483
0.37304153195722456,-2.518965350477839,1.836198186411814,-0.001363639694586638,3.1171801481793113
0.3755284755036061,-2.5094259967275847,1.8207769773075009,-0.005757385957304351,3.10040010025131
0.37801541904998753,-2.490331897381723,1.80058356727102,-0.01972860190213943,3.073148769515771
0.38050236259636905,-2.4808367721597713,1.79477164916545,-0.014546870519644983,3.0620202439223188
0.38298930614275056,-2.4809407270519723,1.784187688965484,-0.014154211310303921,3.0559111476446725
0.385476249689132,-2.4810670609582393,1.773620168920238,-0.023339030479794687,3.0499126175869935
0.38796319323551354,-2.466850669006807,1.7487039576691945,-0.03731292757957583,3.024022157543128
0.39045013678189505,-2.447868462474455,1.728592746764411,-0.03692229218652976,2.996907764580667
0.3929370803282765,-2.443274158823936,1.7228634207864808,-0.0317439337857266,2.9897917417761892
0.395424023874658,-2.433914248499235,1.7027856374214534,-0.031354661848505216,2.9705892699725447
0.39791096742103954,-2.424577238088024,1.6875130872252528,-0.030966075871489807,2.9541892459464973
0.400397910967421,-2.4152632303982005,1.677045847138119,-0.030578178657798105,2.940563597429376
0.4028848545138025,-2.396395521135998,1.6665955904443623,-0.034979376316995214,2.919156712575875
0.40537179806018403,-2.377551018826305,1.6561623934118224,-0.053746478265052744,2.8980185307205115
0.4078587416065655,-2.358729824889243,1.636169525329773,-0.04378385738056245,2.870988353965758
0.410345685152947,-2.339932040279262,1.6257706750702754,-0.03382193633281183,2.8494834908139453
0.4128326286993285,-2.3259461688039393,1.6153891112432945,-0.04301433113643505,2.8322001683461995
0.41531957224571003,-2.316772310481853,1.6146017153986978,-0.03305381794823248,2.824086612139365
0.4178065157920915,-2.3028337582207854,1.599466545501705,-0.02788241607495756,2.803946143795669
0.420293459338473,-2.293707417738127,1.5939256923770984,-0.03707693484826713,2.793397130753961
0.4227804028848545,-2.2798165809969255,1.574037213301879,-0.04148376366375395,2.770717902366707
0.425267346431236,-2.275526556087252,1.5637431984104373,-0.03152609854339872,2.761214912483739
0.4277542899776175,-2.25689542406072,1.5534669142481685,-0.02156915209647714,2.7399455536802377
0.430241233523999,-2.223923282093134,1.5432084336532272,-0.01640133027732027,2.706953275911723
0.43272817707038047,-2.224494260084658,1.532967829114854,-0.01602263570561213,2.7015961584044446
0.435215120616762,-2.2250896310100003,1.5275335760926503,-0.020433070986644708,2.6990369027689423
0.4377020641631435,-2.2017674740029873,1.5221173430546135,-0.020055832070658752,2.676756143544865
0.44018900770952496,-2.183258304238023,1.507142394796433,-0.024467728174686343,2.653053653987994
0.4426759512559065,-2.169562216483445,1.501762415682675,-0.028880358540327222,2.6387733209692414
0.445162894802288,-2.1511024983814537,1.4916122664817237,-0.02850532239464343,2.6178162016204456
0.44764983834866945,-2.142244453688997,1.4958456308491774,-0.02334262227043915,2.6129122313438513
0.45013678189505096,-2.12383456243273,1.4857321588815628,-0.02775747064685241,2.592073257779457
0.4526237254414325,-2.1102381273921194,1.4612719202403757,-0.03217306338682313,2.5669935109364976
0.45511066898781394,-10.34708575847318,5.277129657080818,-0.022224193018315574,11.615109772429863
0.45759761253419545,-10.24734844594942,5.49212667858209,-0.2804266579139494,11.629713871663565
0.46008455608057697,-9.913004699132498,5.5730670572355665,-0.509899454673814,11.383617001785677
0.4625714996269584,-9.387150238753817,5.529527667906349,-0.6914889724613573,10.916612241630336
0.46505844317333994,-8.708092381728896,5.385450595058914,-0.8251952137064844,10.272044498602474
0.46754538671972146,-7.9045616378360135,5.155201116154701,-0.9205949874648809,9.481861018033163
0.4700323302661029,-7.000500113035227,4.848356104971496,-0.9681114894961365,8.570344135990982
0.47251927381248443,-6.058157139350005,4.469704031602555,-0.9773215288261916,7.59175074840374
0.47500621735886595,-5.077532805139719,4.043186979057367,-0.9434367045051264,6.558869807390336
0.4774931609052474,-4.092146021504587,3.5975354332998055,-0.885610632169648,5.520165436558524
0.4799801044516289,-3.1450925056830155,3.1375378633254067,-0.8086317174805266,4.515488452827616
0.48246704799801043,-2.2507375544881056,2.6679827377621503,-0.7124999627632231,3.562528263062275
0.48495399154439195,-1.4330232708690593,2.212812138150888,-0.6020037736484749,2.704163788879506
0.4874409350907734,-0.7015265473084775,1.776814532381998,-0.47714315243164407,1.968978152995817
0.4899278786371549,-0.07061267910258451,1.3552015813352185,-0.3379181013929813,1.3984799318376215
0.49241482218353644,0.4453530389600544,0.9862805754023354,-0.19390542943825295,1.099403482936338
0.4949017657299179,0.8463705225605043,0.6604747714004728,-0.06425875209872522,1.0754994989943665
0.4973887092762994,1.1420164945302214,0.3777842324150167,0.051021928390792226,1.2039625564016572
0.4998756528226809,1.3179256616097654,0.14778582779892546,0.1663018197716024,1.3365721064301386
0.5023625963690624,1.3884631509732404,-0.029520380109256505,0.24327369327677495,1.4099232121973369
0.5048495399154439,1.3679940903073922,-0.15413432934557392,0.28672595003745727,1.4061923741165863
0.5073364834618254,1.2613068011719024,-0.23084436164161715,0.33017741112192667,1.324085000594524
0.5098234270082069,1.073189605640945,-0.269227222425265,0.36405126773093954,1.1647972151782875
0.5123103705545884,0.8275844395853553,-0.25491764089950264,0.36440550111964143,0.9395053898364987
0.5147973141009698,0.543644836071953,-0.20228076656654315,0.3599705290819486,0.682675617052482
0.5172842576473514,0.2022171021222432,-0.12568174930662956,0.3363811395443115,0.41211640290168233
0.5197712011937329,-0.16318001820078543,-0.01554372277713556,0.3032141370501211,0.3446855647758269
0.5222581447401143,-0.5238161836355542,0.10897975906334256,0.2508927128769116,0.5909375055780072
0.5247450882864959,-0.8844798756429353,0.24788875515746955,0.198570478239521,0.9397785484778498
0.5272320318328774,-1.2355943652023054,0.40597172738760046,0.14624743108697302,1.3087760655884944
0.5297189753792588,-1.577159729412302,0.5592867173329723,0.09871197270406107,1.6762990478491915
0.5322059189256404,-1.8852340282478426,0.7126221861128423,0.04638729443012046,2.0159587055513764
0.5346928624720219,-2.1550289344421607,0.8659781911437019,-0.005938202419084604,2.3225208713954335
0.5371798060184033,-2.3817561202047948,1.009777982818374,-0.02474569659039716,2.587088351838314
0.5396667495647849,-2.5702040638614663,1.1392332144663753,-0.04355401329951292,2.8117073458857487
0.5421536931111663,-2.706007629931473,1.2543439423533482,-0.07672836446532116,2.983578934916824
0.5446406366575478,-2.8035321023300934,1.350321819039877,-0.10032673542865389,3.1133947256350787
0.5471275802039294,-2.8579891511647615,1.4271669000215728,-0.11434912811632003,3.1965580038212384
0.5496145237503108,-2.86937884933594,1.494456047048846,-0.1331607544004747,3.237972458822003
0.5521014672966923,-2.8329128658958247,1.5378241048841987,-0.15197321285642396,3.226979104479433
0.5545884108430739,-2.7725332892898713,1.5716363378251492,-0.1468444887625875,3.190383193673278
0.5570753543894553,-2.693028594153029,1.5815275898599788,-0.13692819726458438,3.1260809102805194
0.5595622979358368,-2.5800336413091083,1.5818631245109882,-0.1126475335704793,3.028457363377255
0.5620492414822184,-2.443125307652985,1.5630661883105808,-0.08836770947424988,2.9016970948071035
0.5645361850285998,-2.2918804695484294,1.5251368340429783,-0.06887713011357022,2.7538159902769195
0.5670231285749813,-2.140664406147844,1.492017130704699,-0.06375260393075166,2.6101003069944526
0.5695100721213628,-1.9703235728291846,1.4397651136994216,-0.029898502828970663,2.4404902140233395
0.5719970156677443,-1.8143768609610367,1.3827460446031699,-0.010410458461322492,2.2812405386328534
0.5744839592141259,-1.6584591281755015,1.3305367812810727,-0.010076875902667481,2.1262446589229564
0.5769709027605073,-1.5121472481723883,1.2544069546447747,0.014197872990981963,1.9647716629710366
0.5794578463068888,-1.380229690796768,1.1878754383785606,0.01931815661374081,1.8211137382478206
0.5819447898532704,-1.2483413120775941,1.1357306858530491,0.0004955699379642908,1.6876730926981711
0.5844317333996518,-1.1452125973912723,1.059665520163871,0.015190951115846119,1.5603312702255363
0.5869186769460333,-1.0612668050158456,1.002775620459391,0.029885475229400882,1.46039012529048
0.5894056204924149,-0.991715596013391,0.9459074223309993,0.025425527337368692,1.3707250389620285
0.5918925640387963,-0.9317706309092595,0.8890609742580655,0.020964719076770777,1.288047143554811
0.5943795075851778,-0.8910087796525714,0.8418131309669505,0.021291452139486466,1.2259687266894506
0.5968664511315593,-0.8694301050142638,0.8041639401494467,0.021617321592568572,1.1845065043023755
0.5993533946779408,-0.8622462659069954,0.7713250457827601,0.021942325839185983,1.157105187519945
0.6018403382243223,-0.8694573240253948,0.7480848980901347,0.027054866618627216,1.1473094695241033
0.6043272817707038,-0.8862749372050657,0.7200783336186791,0.022589732404759033,1.1421498880948224
0.6068142253170853,-0.9222759727034758,0.7016706084422017,0.013335324968517526,1.1589272813553955
0.6093011688634667,-0.9583068773168262,0.6880733649578019,0.013656852737295111,1.1798235191348607
0.6117881124098483,-0.9943677105828305,0.6792866484871656,0.009189104232447676,1.2042765190350846
0.6142750559562298,-1.0400353381397913,0.6848873105966173,-0.004856325368201908,1.2452982440732416
0.6167619995026112,-1.0857330118044253,0.6857217825343713,0.00025098237119003386,1.2841458635825505
0.6192489430489928,-1.1314607894934559,0.6865785117537304,0.0005690093788714989,1.3234779540040684
0.6217358865953743,-1.1772187285827214,0.7066111552722338,-0.00869064911980999,1.373032697011693
0.6242228301417557,-1.2230068859069212,0.7123009331870629,-0.022739591243034596,1.415498340304504
0.6267097736881373,-1.2544601077984383,0.7180130984013957,-0.03678941509313027,1.44587912101826
0.6291967172345188,-1.2859436599699254,0.7285360967804615,-0.03647491211594911,1.4784269884383276
0.6316836607809002,-1.3126691943109692,0.7342931638310399,-0.036161293663363736,1.5045246768668885
0.6341706043272818,-1.339425168809767,0.7544379545840971,-0.035848561110460864,1.53770007787338
0.6366575478736632,-1.3470580243107566,0.755451687149306,-0.030748312496172048,1.5447388229723802
0.6391444914200447,-1.3451446210378841,0.7564880157617639,-0.020860549163879583,1.54341288449
0.6416314349664263,-1.348050221992884,0.7623353842974729,-0.0013968691208159356,1.5486757538007692
0.6441183785128077,-1.346198073033265,0.7729938329138277,-0.0010876936005370652,1.5523433578427985
0.6466053220591892,-1.330011419473742,0.7740981914088665,-0.010356217258260969,1.5389170338614542
0.6490922656055708,-1.3042787160470617,0.7608600958227159,-0.00526042477241262,1.509992955817182
0.6515792091519522,-1.283365223583587,0.7667984083593602,0.004622875952234651,1.4950008251329723
0.6540661526983337,-9.776263692604962,6.37040303574592,-0.09083959269981356,11.669002461941155
0.6565530962447153,-9.391493313519355,6.4960971362638205,-0.25812900871884814,11.422173840683564
0.6590400397910967,-8.77691053205108,6.430278013303397,-0.39668890359494746,10.887607446185669
0.6615269833374782,-7.9995530433811775,6.2064645274732175,-0.5065192785289412,10.137534838617023
0.6640139268838597,-7.112093332186454,5.853387135662514,-0.5971969413464571,9.230420180708135
0.6665008704302412,-6.124108252717574,5.375834277759889,-0.6639334898963618,8.175885502619739
0.6689878139766227,-5.097847095205319,4.8216900231376645,-0.7067289253320332,7.052390052969247
0.6714747575230042,-4.057251922774653,4.210108020847159,-0.7207948454707207,5.891166940540503
0.6739617010693857,-3.040630007968182,3.560241919540551,-0.7109196547545107,4.735626687834108
0.6764486446157671,-2.0862886227852524,2.9151873840724374,-0.6771033542893896,3.648203209006898
0.6789355881621487,-1.1990162154398136,2.270156045695149,-0.619345945165561,2.6409918130291263
0.6814225317085302,-0.41233165352454393,1.6538783585040733,-0.5615894450590169,1.7946347043418354
0.6839094752549116,0.25939980919220085,1.0902963728751807,-0.47510343510654884,1.21727470842196
0.6863964188012932,0.816178129445984,0.5746217188634992,-0.3694647229916761,1.0643500553440601
0.6888833623476747,1.2484264578746238,0.12121963940627478,-0.2686153263431166,1.282738093004798
0.6913703058940561,1.5800867689008902,-0.2603330262785315,-0.17255524617229057,1.610659118127909
0.6938572494404377,1.792005407607375,-0.5748246493328104,-0.07649608015455733,1.8834963256278667
0.6963441929868192,1.884182332900416,-0.8126783913363551,0.01956217073011146,2.052065279147516
0.6988311365332006,1.885347924150563,-0.9882594308692791,0.11561950551745426,2.131797684551001
0.7013180800795822,1.7955021413486636,-1.0967793336291132,0.17815710001671015,2.1115143377561805
0.7038050236259636,1.6337985583088055,-1.1526032789932033,0.235905373216875,2.013316515849013
0.7062919671723452,1.4241791527071725,-1.136577623495162,0.2888643242007465,1.8448678952791129
0.7087789107187267,1.161855482839714,-1.0726443539497619,0.313091935465204,1.6119865486778588
0.7112658542651081,0.8707695274655509,-0.9751686509293389,0.3373186260462351,1.3501767747949323
0.7137527978114897,0.5604980559240387,-0.8489388887636784,0.37112120171420315,1.0828602190087742
0.7162397413578712,0.23582943477516227,-0.6987434421805123,0.37619243505197275,0.8278759982551591
0.7187266849042526,-0.06971754895867194,-0.5245822829849833,0.3668975351814616,0.6439416973428369
0.7212136284506342,-0.3609313342771443,-0.3503973999814116,0.3528133079198579,0.6144322551934961
0.7237005719970157,-0.6426003596398155,-0.17140036244969226,0.32915134913900523,0.7420605885621022
0.7261875155433971,-0.8859942397243479,0.007620453292465967,0.2815464480856651,0.9296839605816387
0.7286744590897787,-1.1006898152313804,0.18187667053028234,0.2243638139440236,1.1379526851520583
0.7311614026361601,-1.277110313041122,0.34657991215211537,0.17196865591380295,1.3344293183980038
0.7336483461825416,-1.4200441694559414,0.492153397329429,0.12436097324930095,1.5080471018427197
0.7361352897289232,-1.5199146102787575,0.6042319415169426,0.06238715193906863,1.6368044533221522
0.7386222332753046,-1.5815100707352978,0.7019691830153771,0.014777611190270434,1.7303621631129518
0.7411091768216861,-1.6048305821932414,0.7805767431279844,-0.03283285965728666,1.7848975449947442
0.7435961203680677,-1.5994529821235064,0.8352662427623119,-0.0804442612874059,1.806208962854554
0.7460830639144491,-1.5749541074600368,0.8756145123914099,-0.10411457776689126,1.804998908647666
0.7485700074608306,-1.5217571813189528,0.8968331721322418,-0.12299742302995575,1.7706448044722558
0.7510569510072121,-1.4398622329208468,0.88934543838656,-0.14188120103448476,1.6983135263483529
0.7535438945535936,-1.3484229042318383,0.8675165437630761,-0.15597750908234786,1.610949491976453
0.7560308380999751,-1.2474392234015155,0.8457117204761913,-0.1700747511007048,1.5166602622846497
0.7585177816463566,-1.1225460080837046,0.8095657804244194,-0.16501931439980844,1.3938212465104134
0.7610047251927381,-1.012050511921309,0.7495019384328883,-0.15038800619646864,1.2683122434174439
0.7634916687391196,-0.9015875514999144,0.689462232175531,-0.15012284365314343,1.1448821558582276
0.7659786122855011,-0.805522362793591,0.6438118922926028,-0.14507021403419884,1.0413478749283929
0.7684655558318826,-0.6951245513607079,0.5933973257894571,-0.12086490790906268,0.9219147759540308
0.770952499378264,-0.5943361587506972,0.5334301492400133,-0.0966605390741222,0.8044417030033045
0.7734394429246456,-0.5175224193405175,0.47348718878711127,-0.06288030138866674,0.7042538638646674
0.7759263864710271,-0.44074134041331503,0.418356866861624,-0.02431259865775104,0.6081665065202893
0.7784133300174085,-0.3735697519636613,0.37282760550314054,-0.00011104463220235061,0.5277829055002702
0.7809002735637901,-0.32558448345592517,0.32732261639940896,0.004935956913234563,0.4617030590590293
0.7833872171101716,-0.30157396050453195,0.2770535141679744,0.019558825461126972,0.40998542781497954
0.785874160656553,-0.2775961882729856,0.2363855263175103,0.03896915726695127,0.3666829093565633
0.7883611042029346,-0.2632279946385244,0.2101070733263506,0.053590145280942636,0.34103645420162354
0.790848047749316,-0.2536809969896034,0.17906455868196547,0.06342178910901097,0.3169234730079078
0.7933349912956975,-0.25853202214838594,0.16241161204544108,0.073252491692406,0.3139781294015212
0.7958219348420791,-0.268204283129186,0.15057144276754197,0.08308225266705271,0.31860313490951675
0.7983088783884605,-0.27312099242035665,0.13396725981101465,0.0976994750041662,0.31951133096972023
0.800795821934842,-0.30201258854744284,0.12696428835260276,0.10273894840866404,0.34334650963440416
0.8032827654812236,-0.32136026634727993,0.12956254322099836,0.09341226924099288,0.3588658878152666
0.805769709027605,-0.34074085001554266,0.12739682889730597,0.0888730504780586,0.3744765653331054
0.8082566525739865,-0.36015435658399203,0.1204671594373874,0.10348650179131447,0.39361523487073763
0.8107435961203681,-0.37960080256179496,0.13271556511296545,0.10852220298423987,0.4165180177007534
0.8132305396667495,-0.4038686072565442,0.14498844592773352,0.09440334715637277,0.4393671509503262
0.815717483213131,-0.42816938281403694,0.15249741146160423,0.08028354734391208,0.4615516535079961
0.8182044267595125,-0.43813793421900343,0.16481928087120856,0.06616280331656199,0.4727660745985314
0.820691370305894,-0.4481394858583456,0.1771656629685321,0.05204111485876872,0.48469056990641507
0.8231783138522755,-0.4581740516390738,0.18953656950268494,0.028341675129039956,0.496639530568531
0.825665257398657,-0.45866483830938,0.19714360851980173,0.01900650054275843,0.4996001234431997
0.8281522009450385,-0.46397706870159555,0.20477519432451308,0.00967038096744055,0.5072485749212339
0.8306391444914201,-0.4645339485298482,0.19806612755861153,-0.00924349039446426,0.5050815996821388
0.8331260880378015,-0.45554708631272833,0.18659322508441312,-0.009004693763420946,0.4923629393091968
0.835613031584183,-0.45138170333502947,0.1942985133446924,-0.013555245868777988,0.4916107190492831
0.8380999751305646,-0.43767260044543543,0.18766317855855874,-0.018106743503480516,0.47655285953152365
0.840586918676946,-0.4192081912604708,0.1906292464095305,-0.017870783445976812,0.4608626499376077
0.8430738622233275,-0.410353695524705,0.1888315156398641,-0.008058962460248509,0.4517880516409949
0.845560805769709,-0.4015323158694124,0.167904784613639,0.006540316063539109,0.43527346934750927
0.8480477493160905,-0.3783788510946775,0.16136788452047934,0.006773438788680863,0.4114073754605852
0.850534692862472,-0.35525851941244047,0.15485561296990502,-0.007359594325903274,0.3876119710639059
0.8530216364088535,-0.3321713285645654,0.1483679771560058,-0.021493573346008432,0.3644349350170669
0.855508579955235,-0.3139056891049736,0.13711658057680864,-0.006898078362194582,0.3426154138485829
0.8579955235016165,-0.305250011080222,0.13067823631615427,0.0172732773461437,0.33249471698277117
0.860482467047998,-0.28226228410853577,0.11947614380214144,0.007924863912274205,0.306609441204973
0.8629694105943795,-0.2545193205447876,0.09393350208902129,0.008152311249309818,0.271422267922133
0.8654563541407609,-0.24596314220016374,0.08278073642033235,0.027532426042345293,0.2609761524106134
0.8679432976871425,-0.2278633338587317,0.08122944842488078,0.03254638510780872,0.24408848680798526
0.870430241233524,-0.20979670636431913,0.06533762607833138,0.03277099515904247,0.22216570731456772
0.8729171847799054,-0.2013400700589641,0.04468208022731357,0.0377830629234559,0.2096708657602827
0.875404128326287,-0.19291662150263272,0.043204831308850444,0.03800578186124781,0.20131547321381194
0.8778910718726685,-0.18931476671637648,0.04654067282760055,0.03343915208724724,0.1977986147990826
0.8803780154190499,-0.19053450790206694,0.035535994598739684,0.03844838369119152,0.19759677077844554
0.8828649589654315,-0.18221063680276117,0.03413281595177997,0.0386682668548719,0.18937000858220768
0.885351902511813,-0.16434315462557886,0.027965929285963753,0.04367560837555118,0.17233201803521295
0.8878388460581944,-0.16087407868333825,0.021823739914722307,0.05347040842372586,0.17092638588900896
0.890325789604576,-0.1813802158330764,0.020494652785146616,0.05368745722278767,0.19026601522995573
0.8928127331509574,-0.1684007259536412,0.014401862517772646,0.049115158291176186,0.17600715019470511
0.8952996766973389,-0.16024283483735507,0.003545370008875892,0.0349651085204723,0.1640514997769301
0.8977866202437205,-0.15690654122231273,-0.007286420889104139,0.030390921417540184,0.159988633072258
0.9002735637901019,-0.1392382300746886,-0.008516703366819645,0.035392597221671096,0.14391822292074674
0.9027605073364834,-0.12160310911324063,-0.01451068757913454,0.03560492622487743,0.12753661031839023
0.905247450882865,-0.11836638556819773,-0.015691567441245002,0.031027908693719297,0.12336757126225745
0.9077343944292464,-0.11516284626046935,-0.02163615051072565,0.03602675486926543,0.12259091007960343
0.9102213379756279,-0.1072040841652388,-0.03234443806488052,0.04102465840456482,0.11925561174490586
0.9127082815220094,-0.10406690173337751,-0.04302802842027775,0.04602161960679041,0.12165245882164814
0.9151952250683909,-0.09138608433005552,-0.04889852025227981,0.04622923547626101,0.11348843070887106
0.9176821686147724,-0.06916162679836452,-0.05474431923487311,0.04643590966734834,0.09968231947803023
0.9201691121611539,-0.06612394342137695,-0.0701422347195586,0.05143004584780897,0.10925821983244485
0.9226560557075354,-0.07269622143891635,-0.05678504321110989,0.04205803109718076,0.10138125923342539
0.9251429992539169,-0.06493643765026008,-0.04819157137457797,0.027896672430179237,0.08554176067239837
0.9276299428002984,-0.05720979493873429,-0.05872703294853299,0.028099583515404092,0.08666840040989147
0.9301168863466799,-0.04472788242912573,-0.06923781878330537,0.033089958112809015,0.08882231895402745
0.9326038298930613,-0.03227909541072799,-0.07972393336359218,0.03329098999553892,0.09222871335099737
0.9350907734394429,-0.029440232018210055,-0.08539697820605685,0.03349108291081393,0.09633807026586531
0.9375777169858244,-0.026634476631240966,-0.09104536181942668,0.028901833978340008,0.09916637162648419
0.9400646605322058,-0.014285013156937754,-0.10624589638332926,0.014734840330888233,0.10820983143304398
0.9425516040785874,-0.011545444952943185,-0.11184497450525299,0.010143715715816626,0.11289592813633909
0.9450385476249689,-0.013627358305202453,-0.11263100574312324,0.01991686393252401,0.11518736830917053
0.9475254911713503,0.0034112742505008065,-0.11339240000287143,0.03447747883241803,0.11856715277454866
0.9500124347177319,0.0204168507632585,-0.10934076089694145,0.049037157600112735,0.12156024273630578
0.9524993782641133,0.02302417306891913,-0.11962970898559311,0.044442287472136854,0.12967843588369382
0.9549863218104948,0.025598463390407944,-0.1251056386119611,0.035058078940032544,0.13242269835425582
0.9574732653568764,0.03292813777397319,-0.12098015442459609,0.0400381458284258,0.13161881758790864
0.9599602089032578,0.04501320940823739,-0.13119528133750125,0.04501727873249095,0.14582505357768505
0.9624471524496394,0.057065288622928256,-0.13180901140423718,0.030841864939777253,0.14690569521275848
0.9649340959960209,0.06429598620791366,-0.1276097569420167,0.021453921633307615,0.14449392604084405
0.9674210395424023,0.06191691341191963,-0.1425395438901531,0.026430256047783374,0.15763814314316008
0.9699079830887839,0.07387010186310716,-0.1430795586841529,0.03140565882890556,0.16405751268684832
0.9723949266351654,0.10494397036465086,-0.14359502130165414,0.03159172727552573,0.18063998530439052
0.9748818701815468,0.11204290497156033,-0.15366274873806596,0.03177686533960333,0.1928098080363532
0.9773688137279284,0.10953213203623147,-0.16370594504469294,0.03196107366521517,0.19954557028711956
0.9798557572743098,0.11656528168369151,-0.16893621792935676,0.022567546268197347,0.20648536211276744
0.9823427008206913,0.11398875792745555,-0.17414198207575415,0.01796149377829437,0.20890543821036361
0.9848296443670729,0.11616778847287745,-0.17932324918156617,0.03729653015785317,0.21689355439369082
0.9873165879134543,0.12310239151267732,-0.18448003127781476,0.05663063949866576,0.22889759733652043
0.9898035314598358,0.1300041823662168,-0.19918914736851923,0.05202180590473304,0.24348238571136094
0.9922904750062174,0.14166158343907587,-0.21387380350785312,0.042623643375032216,0.2600515007146545
0.9947774185525988,0.14370940429981283,-0.22374560940073085,0.0332245559597375,0.2679894806312987
0.9972643620989803,0.14093606824108873,-0.23359298172214205,0.023824544400776304,0.273854460173652
0.9997513056453619,0.15249520895797442,-0.22905072419428674,0.019212012772431564,0.27584075921413714
1.0022382491917432,0.15923323402312806,-0.22448406078871352,0.014598558520338756,0.27561101987498043
1.0047251927381249,0.16115016472914656,-0.22946981248313003,0.024349392383321344,0.28145810228648754
1.0072121362845063,-11.209423459615959,8.327233949419279,0.034099305190220974,13.964066825533457
1.0096990798308878,-11.049554535791733,8.992673401337749,-0.13332262510889592,14.247056020979528
1.0121860233772693,-10.51143437420576,9.33731417737586,-0.2624382482865357,14.062167773299477
1.0146729669236507,-9.65252379166851,9.361156261900703,-0.37240117679875695,13.451436530903697
1.0171599104700322,-8.515918394597907,9.08814165555951,-0.4632114098086717,12.463135627326851
1.0196468540164139,-7.18302101554432,8.547000761999493,-0.5348689464677161,11.177347526370768
1.0221337975627953,-5.730446083308449,7.795194404470112,-0.5825853825954255,9.69239257589173
1.0246207411091768,-4.210866009663401,6.8566645826609305,-0.6111491206403432,8.069618640190802
1.0271076846555582,-2.672164802634855,5.745776489302935,-0.6014065464379552,6.365226000038441
1.0295946282019397,-1.1957452930669614,4.5391445599753215,-0.5629344657341395,4.727635281507736
1.0320815717483214,0.19445052846302657,3.2990180199809864,-0.5148864909039705,3.344613430980361
1.0345685152947028,1.4457502518769672,2.0397620611060265,-0.4812046376314836,2.5460520340338424
1.0370554588410843,2.5294234841188974,0.7948954881040664,-0.43794688838622164,2.687310826098752
1.0395424023874658,3.426316639191498,-0.3829092813015582,-0.3803248389077325,3.4685605390129184
1.0420293459338472,4.117276131514531,-1.4553450396594805,-0.30833848824460475,4.377792200519993
1.0445162894802287,4.626244005805999,-2.427200209710904,-0.23156464207489513,5.229441331799781
1.0470032330266104,4.924489870674628,-3.2697443912640733,-0.1547917027451664,5.913187747891879
1.0494901765729918,5.012013755063151,-3.954247184433905,-0.08280807259098921,6.384607259137552
1.0519771201193733,4.931911318208319,-4.466343399603918,-0.0012485406555438061,6.653718822787042
1.0544640636657547,4.703336203154639,-4.810821460743807,0.06115647414611658,6.728232656603684
1.0569510072121362,4.335865246713899,-4.997258195448101,0.11398377947238991,6.617046864849712
1.0594379507585177,3.8582288993854967,-5.0352304316146235,0.16681018299256323,6.345652163226521
1.0619248943048993,3.299157612073598,-4.934314997443374,0.2052704757852073,5.93919535051061
1.0644118378512808,2.71611225600773,-4.699300318115206,0.24372986886154102,5.43323968880891
1.0668987813976623,2.099516056334515,-4.339763222431161,0.2821883632826072,4.829196907348535
1.0693857249440437,1.463734255202242,-3.8892225560925993,0.28712713687795954,4.165454603450102
1.0718726684904252,0.8566509184004998,-3.3620435518177265,0.27769980401121863,3.4805609923492855
1.0743596120368066,0.30220809551381,-2.786956652581874,0.2634831724159987,2.81564921439281
1.0768465555831883,-0.19480577675884525,-2.192692301656014,0.24447724319582242,2.214862962542106
1.0793334991295698,-0.6391790679651022,-1.5840389260040668,0.2350472274256461,1.7242321186955478
1.0818204426759512,-0.99739292069802,-0.9753617595234507,0.22561631958930484,1.413161676477335
1.0843073862223327,-1.2598704937613254,-0.40496805300542915,0.22097292414195913,1.3416787313694967
1.0867943297687142,-1.4553421721321445,0.12235376571005974,0.21154023558817414,1.4757169624431512
1.0892812733150956,-1.5550775005563038,0.5874500585323714,0.18295304512249722,1.6723741868151765
1.0917682168614773,-1.5686532499561856,0.9951092036838074,0.14957656387158735,1.8636760701135688
1.0942551604078588,-1.5200114008307677,1.3213891591773317,0.11619919633167264,2.017425642217084
1.0967421039542402,-1.404363513374423,1.5854435126224198,0.07803254036849516,2.1194237629059063
1.0992290475006217,-1.2312863573613442,1.7729070281012191,0.035076597178193225,2.1588181469925773
1.1017159910470031,-1.0247219121471671,1.8598376627712812,-0.003091825392443681,2.1234548943835247
1.1042029345933846,-0.7942469467487168,1.8797542133511014,-0.04126112944757665,2.041079762242075
1.1066898781397663,-0.5446498264862838,1.8422334596759908,-0.06506610380018785,1.9221605425419195
1.1091768216861477,-0.27593051298512483,1.7281217613789033,-0.08408355385493671,1.7520309683839592
1.1116637652325292,-0.0024541774586868126,1.5422074944151603,-0.08873667172539434,1.544760232439386
1.1141507087789106,0.2470487992902083,1.3275862610243863,-0.0694486495153619,1.352161789362113
1.116637652325292,0.4821552633908065,1.0746812266459282,-0.054949905881400696,1.1791662007863988
1.1191245958716736,0.6932884480591623,0.7930691697246504,-0.04045203622821525,1.0541555612977795
1.1216115394180552,0.8804483935183351,0.4923268684308959,-0.04032024923213662,1.0095547739108222
1.1240984829644367,1.0340583337154805,0.18203110066168193,-0.030612526997432,1.0504042488221894
1.1265854265108182,1.1493299062811257,-0.11387614599716755,-0.020905674861037227,1.1551467687444505
1.1290723700571996,1.221474749207191,-0.40018330415262726,-0.01598809483011543,1.285458229212284
1.131559313603581,1.2600697108062546,-0.6673135967204611,-0.006282978941483108,1.4258760774638641
1.1340462571499625,1.2746916397489425,-0.9009018435646561,0.0034212708164691463,1.5609210784911722
1.1365332006963442,1.265340578421629,-1.115313284738309,0.01791305910527008,1.6868110090346955
1.1390201442427257,1.2272281662450546,-1.2818175306779098,0.01325037067384116,1.7746325609267424
1.1415070877891071,1.1651428496335918,-1.4147798219675598,0.0277404334443645,1.8330110027892708
1.1439940313354886,1.0838730753529238,-1.5094117861737926,0.047018038824726105,1.8588478904123078
1.14648097488187,0.9882072905183539,-1.5657134544458935,0.051929574911602217,1.8522173066940657
1.1489679184282517,0.8877223459134096,-1.583684858194361,0.052051849732585254,1.8162648729105246
1.1514548619746332,0.7776298827069452,-1.5633260290896929,0.06653847796487788,1.747319054082009
1.1539418055210147,0.6818719623341556,-1.5237906123423874,0.0762358477321321,1.671137070308614
1.1564287490673961,0.595660226651171,-1.4602902368188937,0.061990347166892334,1.578322363937284
1.1589156926137776,0.5094179145349875,-1.363248128321701,0.08126281753553322,1.4575855777742899
1.161402636160159,0.4183566685222183,-1.247029529509852,0.09574603370697687,1.3188147150138982
1.1638895797065407,0.3559953580496866,-1.1259996832962338,0.08628638384012,1.1840833255190903
1.1663765232529222,0.30796881968705336,-0.9905818162447928,0.07682588598534856,1.04019197522943
1.1688634667993036,0.2551234870178688,-0.8311991551707361,0.07694134824072663,0.8728688333614637
1.171350410345685,0.22140142384102013,-0.6813705570222215,0.07226756211132823,0.7200743204622132
1.1738373538920666,0.2163794843252279,-0.5554612657149867,0.06280452907167877,0.5994178073918575
1.176324297438448,0.22090410304638153,-0.43910610549048723,0.06770586388601352,0.4961823038221946
1.1788112409848297,0.22061011822799215,-0.3227283041568323,0.06302955144417055,0.3959736189745055
1.1812981845312112,0.2538048049425806,-0.22548150968909075,0.06314080320683502,0.34531949156283837
1.1837851280775926,0.2965461954224379,-0.15215416034522677,0.053674410721125554,0.3375966186088714
1.186272071623974,0.3344691288625701,-0.09316948466483632,0.02984197218303919,0.34848342046440456
1.1887590151703555,0.3819388647002018,-0.05331592138976404,0.025162312359263694,0.3864621919481694
1.191245958716737,0.4198018394489671,-0.027805102861281572,0.039635432782441526,0.4225845189801849
1.1937329022631187,0.46721171650184967,-0.016637064979758254,0.020588898469863892,0.4679609841727704
1.1962198458095001,0.5193801429653491,-0.024600247203399928,0.011118340853112585,0.5200812653542721
1.1987067893558816,0.5523651529780688,-0.06127149254696507,0.03037737477018254,0.5565826469818712
1.201193732902263,0.6044740241542517,-0.10270882101802714,0.035270371902949904,0.6141514039113811
1.2036806764486445,0.6565531945742045,-0.1441238661391151,0.025797333823978974,0.6726806735211772
1.206167619995026,0.6702954893450388,-0.19509347162612434,0.025900278715210945,0.6985902448109077
1.2086545635414077,0.6935849936457903,-0.2651944814261449,0.03079080484448582,0.7431933328902272
1.2111415070877891,0.7216333564365696,-0.33527331979424524,0.03089210716705537,0.7963147759353609
1.2136284506341706,0.7400754203396334,-0.4101184278157062,0.030992590606773618,0.8466813410589787
1.216115394180552,0.7536996415594648,-0.4801530368421827,0.035880660095100936,0.8943698956497229
1.2186023377269335,0.7577176699591359,-0.5501655884123253,0.04555631725074427,0.9374932640199782
1.221089281273315,0.7521295590194683,-0.6249445242895582,0.04565435373896243,0.9789478290520105
1.2235762248196966,0.7560889757981946,-0.6853362698592318,0.04096317451371334,1.0212905187919692
1.226063168366078,0.7504423610844286,-0.7361292673304676,0.041059587856654645,1.0520151735053165
1.2285501119124596,0.7256129626000108,-0.7725351524926776,0.05552040205678743,1.0613233477006885
1.231037055458841,0.7151196582399129,-0.804130771315843,0.06519200548852844,1.0780873900374677
1.2335239990052225,0.7093856963048291,-0.8213393567070346,0.07007439981476438,1.08753704603899
1.236010942551604,0.6988343253822016,-0.833737755071625,0.07016758670556733,1.0901429029206917
1.2384978860979856,0.6882540043053729,-0.8509028130307494,0.07504837447875445,1.0969783180072092
1.240984829644367,0.6728563855502332,-0.8393157475371984,0.055986344896709284,1.077182022897961
1.2434717731907485,0.6670067351553053,-0.8277070189209992,0.03692351625228696,1.063654191909222
1.24595871673713,0.6563398995168335,-0.8112882644818833,0.03701350352498878,1.0441938092265188
1.2484456602835114,0.6456443385901026,-0.7804827184098455,0.041891098459046816,1.0137873296801352
1.250932603829893,0.6492853192470328,-0.7592324383463671,0.032402689485234504,0.9995275161359831
1.2534195473762746,0.6481092853915632,-0.7379606588987344,0.02770189160364467,0.9825471870049992
1.255906490922656,0.6421162944812949,-0.7166674215215512,0.037365513180491305,0.9629754463557102
1.2583934344690375,0.6360948075647551,-0.680987557913884,0.03266313602619775,0.932430983343767
1.260880378015419,0.6396216892795982,-0.6548631265414002,0.027959971840642694,0.9158293399568471
1.2633673215618004,0.647908594569555,-0.6335057661506918,0.0280444256896768,0.9065878845845751
1.2658542651081819,0.6513787753232579,-0.5977619057289134,0.047281709286313145,0.8853525653180913
1.2683412086545636,0.659609096974001,-0.5715736043462138,0.05694140446724916,0.8746558577742918
1.270828152200945,0.6773880218963729,-0.5501525013497783,0.06660031963810731,0.8751902133399327
1.2733150957473265,0.6951388027638294,-0.5287102362843665,0.07147005324995348,0.8762764618380161
1.275802039293708,0.7080730958281378,-0.5168236588519632,0.07633901040081348,0.8799442299905996
1.2782889828400894,0.706614154276948,-0.5097044089885983,0.08120719287466471,0.8750410023201917
1.280775926386471,0.7147040547944861,-0.49777572350366617,0.07649779582109417,0.8743194322527459
1.2832628699328525,0.7323428577159903,-0.4954028560004984,0.06221082103649245,0.8863522083433358
1.285749813479234,0.7308002037056063,-0.4977974469922386,0.04313467364368151,0.885286301734356
1.2882367570256155,0.734018170199874,-0.5097479438224157,0.04799977537310873,0.8949467128553638
1.290723700571997,0.74199681828093,-0.5121007774214514,0.04328730479718068,0.9025964077766333
1.2932106441183784,0.7307941926746948,-0.5192212021490961,0.024208860416131017,0.8967925499974111
1.29569758766476,0.7339291781943762,-0.5454744725509459,0.01949486397829503,0.9146444601763777
1.2981845312111415,0.7370366266917834,-0.566918616794621,0.019568510675357587,0.9300551778059091
1.300671474757523,0.7353281968992678,-0.5883420831528539,0.02442980234543235,0.9420460600238212
1.3031584183039044,0.7383807577482233,-0.6097449167599689,0.02450193419175406,0.9579119749259839
1.305645361850286,0.7414059684454017,-0.6311271629309001,0.03415011802482226,0.9742538357105812
1.3081323053966674,0.7539806983929753,-0.6572772704801944,0.043797549059213736,1.0012085342937542
1.310619248943049,0.7617398006242242,-0.6738300751191404,0.04386742251509723,1.0179483507271956
1.3131061924894305,0.7551065317236052,-0.6903624293372643,0.039148143579121,1.0238743747344168
1.315593136035812,0.7628113750671193,-0.6972975725182207,0.04879332740436304,1.0346428791475741
1.3180800795821934,0.7657007810548839,-0.6994239541806624,0.05843776590714356,1.0387042535168471
1.3205670231285749,0.7589864102733794,-0.7206836372972472,0.0632930576498012,1.048547226973741
1.3230539666749563,0.7713987467748873,-0.7371346518089532,0.06335920452030841,1.0688488715533266
1.325540910221338,0.7742074349897428,-0.7439886411081447,0.05863620841192052,1.0753392280709686
1.3280278537677195,0.7769893461307731,-0.7364572487560217,0.06827768450436977,1.072727162631437
1.330514797314101,0.784532948308674,-0.7289057317625454,0.07313002142005764,1.0733794822014675
1.3330017408604824,0.7824730965692628,-0.7356993473038989,0.06361641442713939,1.0759018192486893
1.3354886844068639,0.7851750660947923,-0.7424729327992927,0.06367888204102456,1.0825067853711305
1.3379756279532453,0.7878505189990148,-0.7252845191909105,0.04937540957901376,1.0720000023955703
1.340462571499627,0.7857111176066245,-0.7272297840676005,0.03985961224618606,1.0713514399365298
1.3429495150460085,0.7835453310920721,-0.7339435653354465,0.03513149197128662,1.0741744107460485
1.34543645859239,0.805295242118381,-0.7262722977398992,0.02082584072699234,1.084622327395523
1.3479234021387714,0.8126536903900277,-0.728158046067592,0.02088467705330821,1.09135527226157
1.3504103456851528,0.8008323390573839,-0.7348124553403523,0.020942792932491017,1.0870696299590248
1.3528972892315343,0.8033500780352221,-0.7175051541342072,0.025788593632768197,1.0774275129445627
1.355384232777916,0.805841764235284,-0.704966611023393,0.030633677786408242,1.071119644978265
1.3578711763242974,0.8083074647285378,-0.7163504880946716,0.030689644030291063,1.0804910150390221
1.360358119870679,0.8107472467824353,-0.7037728011022808,0.03553330096679019,1.0741833499055204
1.3628450634170604,0.8131611778591068,-0.6911756157556872,0.03558784392154024,1.0678114663307596
1.3653320069634418,0.8203377289338727,-0.6929241912729722,0.04043008150588001,1.0745848109173415
1.3678189505098233,0.817911757891878,-0.6994417704185985,0.05484841901524895,1.0775930507258098
1.370305894056205,0.8298253493700394,-0.6963631927833562,0.06926605178850309,1.0855089095216608
1.3727928376025864,0.8417133616302441,-0.6980537180252484,0.08368298180942801,1.0967056204106351
1.3752797811489679,0.8344222497997413,-0.6997249926650673,0.09331080774575717,1.092969561864902
1.3777667246953493,0.8271056957521512,-0.6918002600460316,0.07420751498818312,1.0808321733859187
1.3802536682417308,0.8389173815431721,-0.6982215868949853,0.06946873541592069,1.0936734716823349
1.3827406117881123,0.8411269562056596,-0.718989023477349,0.06951766438885443,1.108725609877751
1.385227555334494,0.8385228921931402,-0.744525813556772,0.0408354806693616,1.1220993112313276
1.3877144988808754,0.8454704687764594,-0.7413131844328791,0.02172941282851859,1.124650042621692
1.3902014424272569,0.8428161421591762,-0.747658413346246,0.02177626951948497,1.1268568491364324
1.3926883859736383,0.8401367886398341,-0.7539847444692809,0.01703403615713661,1.1289875893499728
1.3951753295200198,0.8374324780476698,-0.7555038254283732,0.01707952140239044,1.127994191287039
1.3976622730664012,0.8394916837017616,-0.757004110622916,0.026701130599667167,1.1307141375607324
1.400149216612783,0.8415260724483054,-0.7680624579037021,0.026745252495576466,1.139649673532353
1.4026361601591644,0.843535714619766,-0.7647369020091328,0.04594230904356955,1.1395111789244807
1.4051231037055458,0.8407322773924679,-0.7661811076889302,0.0651386889976262,1.1393451192826918
1.4076100472519273,0.8474810413863758,-0.7723951265387856,0.06039237779503104,1.1482445672877972
1.4100969907983087,0.8542052707805003,-0.773802203639697,0.05564539407976099,1.1539206666271
1.4125839343446904,0.8609050365533066,-0.7704023908379334,0.06526294985867942,1.157124270938913
1.4150708778910719,0.8580036031996903,-0.7621957401031323,0.06051462725930712,1.1492495592547973
1.4175578214374533,0.8598662519713804,-0.7635475134879384,0.046188831654774276,1.15087279262417
1.4200447649838348,0.8569162476720507,-0.7600925532439322,0.05101598502312932,1.1465813428401437
1.4225317085302163,0.8587304685383468,-0.7614077183437691,0.06063087946293777,1.1492762221041564
1.4250186520765977,0.8653089863162506,-0.7627046579174079,0.06066830707604254,1.155057868893174
1.4275055956229794,0.8718634695796195,-0.7544066178914592,0.06549347988937981,1.1548006973559821
1.4299925391693609,0.8736055870487356,-0.7460904575894687,0.05595278669087378,1.1502036371735673
1.4324794827157423,0.8705354109088497,-0.7377562298087654,0.055988246154393906,1.142475750278897
1.4349664262621238,0.8770182234490429,-0.7437691974207512,0.0512346503943828,1.1510771358578271
1.4374533698085052,0.8834772904979653,-0.744975800166503,0.056057211450195155,1.1570062560828787
1.4399403133548867,0.8803358780236399,-0.7413760911789415,0.06087912476260904,1.1525346131632146
1.4424272569012684,0.8819592687332674,-0.7473353336612467,0.05133518245503055,1.157150618372897
1.4449142004476498,0.8835591321886584,-0.7580651776434011,0.0465789998959405,1.16512194935157
1.4474011439940313,0.8851355414060447,-0.7496236599809296,0.05139898249572816,1.161052287222661
1.4498880875404128,0.881900166213702,-0.7507412541583123,0.05142992238632971,1.1593124560616155
1.4523750310867942,0.87864148321114,-0.7518412072017906,0.056248628303984916,1.1577737106413315
1.4548619746331757,0.8753595658064175,-0.7529235728812305,0.056278295706377435,1.1559911429663516
1.4573489181795574,0.8768428908550252,-0.7539884050682328,0.05151892669447378,1.1575863553221788
1.4598358617259388,0.8783031286972054,-0.75024735441457,0.061124136653093686,1.156729717248998
1.4623228052723203,0.8845287564374624,-0.7512772816321744,0.07072871772743738,1.162674170338707
1.4648097488187017,0.8907314446615799,-0.7475014342496991,0.05639065542458077,1.1641910525053334
1.4672966923650832,0.8873344607551956,-0.748496673173761,0.05162877509783925,1.1620134445926198
1.4697836359114647,0.8791262821833192,-0.7494746494455042,0.056443078860755946,1.1566162247427656
1.4722705794578463,0.8804721931682902,-0.7456470142002858,0.04210314890738154,1.1545533456173853
1.4747575230042278,0.8865838647661777,-0.7465906286273634,0.027762600637224466,1.15939608331755
1.4772444665506093,0.8974613714666191,-0.7475171440467734,0.0277866461317533,1.1683282465222866
1.4797314100969907,0.8939511745895325,-0.7580034218299616,0.027810077552805623,1.172387005416483
1.4822183536433722,0.8952069621271499,-0.7541075001954183,0.03740970366596663,1.1710991046108261
1.4847052971897536,0.9108056155391737,-0.7549830473324373,0.04700871995771827,1.1839662540837594
1.4871922407361353,0.9168051931495009,-0.7558417149155021,0.05181872523696285,1.1893332756117962
1.4896791842825168,0.9084173666679531,-0.747106751384301,0.06141652827559696,1.177778671896112
1.4921661278288982,0.9047958245088723,-0.7431434218643584,0.0662253245662896,1.1727333128733353
1.4946530713752797,0.9155174485472377,-0.7391633782829965,0.07582192288492351,1.1791029057631668
1.4971400149216612,0.9118518941950828,-0.7447434826102914,0.07584111540774963,1.1797748118280698
1.4996269584680426,0.9177412534857354,-0.7598837902562812,0.0662829042738391,1.1933422838577354
1.5021139020144243,0.9236087953064951,-0.7606423401088,0.06630090490535956,1.1983429335231948
1.5046008455608058,0.9246661919594406,-0.7661728010166287,0.05195310284345389,1.201968157841755
1.5070877891071872,0.9209135191597371,-0.7716868253038998,0.042393113513826464,1.2022393448029303
1.5095747326535687,0.917139256033948,-0.7676076620501244,0.042409342382946136,1.1967307508867295
1.5120616761999501,0.9229202851183484,-0.7635121736905353,0.037636581637690014,1.1983944276964702
1.5145486197463316,0.9143146657947525,-0.7689772227336227,0.03765164006811794,1.195288635924522
1.5170355632927133,0.9152644907341332,-0.7744260584786709,0.032877713184618074,1.1993855727304177
1.5195225068390947,0.9161930294496452,-0.7702819302957926,0.02331480313972456,1.197199857750482
1.5220094503854762,0.9171003581777613,-0.7709101042262829,0.018539718728085575,1.1982149961248494
1.5244963939318577,0.9179865532359768,-0.7810990397392268,0.03291767206609997,1.205777174662824
1.5269833374782391,0.914063287700831,-0.786483583089669,0.04729505202937645,1.2067746029555304
1.5294702810246208,0.9149074446874952,-0.77748698391897,0.04730665081519625,1.201573785382891
1.5319572245710023,0.910942294105928,-0.7876281218161036,0.056894487184653286,1.2055749268040286
1.5344441681173837,0.9117447192217112,-0.8073302465508414,0.05211654669699328,1.2189244006353057
1.5369311116637652,0.9125263934122188,-0.7934977847131708,0.06649165475642427,1.2111004471846538
1.5394180552101466,0.9180757967665223,-0.765284406118353,0.10001981352616873,1.1993862405222993
1.541904998756528,0.9236046028024982,-0.7705742005635505,0.0904517820065287,1.206238610624064
1.5443919423029098,0.9243244851058106,-0.7662715948188183,0.07609478892546839,1.203053750957915
1.5468788858492912,0.9298123272892047,-0.7380114356337444,0.061737239769831476,1.1887065785464237
1.5493658293956727,0.9209145931080627,-0.7432546196190475,0.028225523425913224,1.183768472952845
1.5518527729420541,0.9263617795837664,-0.7436939770344866,0.02344367526535862,1.188182007968864
1.5543397164884356,0.9222119472755108,-0.729752758115795,0.03302648749669679,1.1764797969160665
1.556826660034817,0.9228303833646114,-0.7301614397141201,0.03782034900902609,1.1773623160715807
1.5593136035811987,0.928217165129448,-0.7449200788104906,0.056978875254801054,1.1915282714569884
1.5618005471275802,0.9240071599438493,-0.7596635224755643,0.061771648484160835,1.1977869742003089
1.5642874906739617,0.924565655158283,-0.7839686344309813,0.04262186422926817,1.212948924637893
1.5667744342203431,0.9251043248951263,-0.8034702618450482,0.04262515454645843,1.2260503160185259
1.5692613777667246,0.9304116499689292,-0.813380058573772,0.05220471496932255,1.236922912047637
1.571748321313106,0.9261224979629379,-0.8136980818393802,0.0617837410321016,1.2343519272387922
1.5742352648594877,0.9170253497899963,-0.8092127922291659,0.0665738315899631,1.224823624166907
1.5767222084058692,0.9270622996909441,-0.7999242470537102,0.05699818217833119,1.2257944775957923
1.5792091519522506,0.9322914087486573,-0.7954093103066548,0.061787214895659304,1.2270537484860338
1.581696095498632,0.9327127546911396,-0.7956680393823077,0.061787318637771094,1.2275416019029517
1.5841830390450136,0.9379032219290044,-0.7863352817541771,0.047421688941575724,1.2248405796748816
1.586669982591395,0.9430744849523303,-0.7769879015363266,0.042632344586571946,1.2226680662006657
1.5891569261377767,0.9386498149697076,-0.7819911662009784,0.04741928775107951,1.2226292357087867
1.5916438696841582,0.9294176931879199,-0.7774031166945634,0.05699411729342607,1.213021509975496
1.5941308132305396,0.9393202141306796,-0.7823774238818872,0.056991625431624726,1.223799388561664
1.596617756776921,0.9444154391526967,-0.7921257420606262,0.056988620985501726,1.23394951917285
1.5991047003233025,0.9447034462428006,-0.78749451560082,0.07135031609541187,1.2319509247739169
1.601591643869684,0.9449727167411319,-0.787637415467175,0.061769486378436156,1.2317311407431342
1.6040785874160657,0.9404349253766529,-0.7925544993741918,0.042611343975240246,1.230599939046741
1.6065655309624471,0.9358785535468479,-0.7926690184256628,0.03302950434689933,1.2269000725072299
1.6090524745088286,0.9456688893161793,-0.7927694337151117,0.018658759712364414,1.2341479540830909
1.61153941805521,0.9410755908911086,-0.7832789964027991,0.009075918892179402,1.2244311439523918
1.6140263616015915,0.9412523497044964,-0.7881397809177311,0.009069387386551497,1.2276817803799371
1.616513305147973,0.9414108406093824,-0.7929866351518604,0.013850764055014508,1.2309646696844072
1.6190002486943547,0.9367627384790178,-0.7978196169824137,0.03778526103826252,1.2310435798120243
1.6214871922407361,0.9368849281662783,-0.812215590950466,0.052142460594042817,1.241034395576911
1.6239741357871176,0.9369890845802693,-0.8218094050176581,0.056922364901822675,1.2476214964579861
1.626461079333499,0.932286882645748,-0.8218127138072777,0.06649018610179169,1.244570573722704
1.6289480228798805,0.9275668039422358,-0.826590785243781,0.07605752305264701,1.2447558992985126
1.631434966426262,0.9276173300618857,-0.8217784673485737,0.0664707646518714,1.2410528284413669
1.6339219099726436,0.93722694260798,-0.8217410280826671,0.04730671971851308,1.2473534322377064
1.636408853519025,0.9372421065918684,-0.8312669287830903,0.032930600391580356,1.2532006613864295
1.6388957970654066,0.9276629003142856,-0.8312026142008624,0.03770761880969964,1.2461452993090965
1.641382740611788,0.9324314186841725,-0.8311249490233465,0.0424841638688882,1.24980075836834
1.6438696841581695,0.9228173200921912,-0.8453992012716016,0.04247183442563873,1.2522361887808044
1.646356627704551,0.9179742961358035,-0.850083412416502,0.042459035976579074,1.2518471896233057
1.6488435712509326,0.9226908284537381,-0.8499660438620169,0.04244577069749056,1.255229972587174
1.651330514797314,0.9226017854041968,-0.8450471537019664,0.0520088474042133,1.2521995314721697
1.6538174583436955,0.9224956486258908,-0.8496920100001959,0.04720625166980419,1.2550709795818678
1.656304401890077,0.9223724964350133,-0.8591122675473208,0.047191598949499536,1.261377008448096
1.6587913454364585,0.9222324071440926,-0.8541543711799764,0.051964891416611536,1.2580908761025924
1.6612782889828401,0.9220754590605373,-0.8491835889828794,0.051949324603123515,1.254605377131098
1.6637652325292216,0.9266901338054969,-0.8394115757643408,0.051933304001217095,1.25142457450863
1.666252176075603,0.9264997030311708,-0.8344151962973863,0.0519168317819787,1.2479366077454142
1.6687391196219845,0.9262926483412373,-0.8389829120374666,0.04711150679536402,1.2506517865234992
1.671226063168366,0.9308574513284797,-0.8435379744807716,0.047094137851418694,1.2570878119307516
1.6737130067147474,0.9354057869327319,-0.8289268284835067,0.03749951715774458,1.2504038895469065
1.6761999502611291,0.9255725234394492,-0.828668355424905,0.032692856842905016,1.2427568395777338
1.6786868938075106,0.9300881590017207,-0.8283974034796304,0.037462562393887566,1.2460777203642313
1.681173837353892,0.9345875618732318,-0.818537224140178,0.03744342601545547,1.242923613205186
1.6836607809002735,0.9342824069302813,-0.8182414888174048,0.04221225651291327,1.242652254060433
1.686147724446655,0.9387495789906886,-0.8179334489957468,0.05655745937020917,1.2463806181306278
1.6886346679930364,0.9384123495702006,-0.8128247594743825,0.06132542346864511,1.2430054847039336
1.691121611539418,0.9332707968029683,-0.8220690916474558,0.056516150969665446,1.2449843560975964
1.6936085550857995,0.9329018054401508,-0.8265128903389947,0.05170645067418356,1.2474385329671893
1.696095498632181,0.9325170502469635,-0.8213678103253277,0.05168472806162683,1.243746131634075
1.6985824421785625,0.9321166092825419,-0.8209991196543842,0.061239388610205836,1.243636277410324
1.701069385724944,0.926912157257936,-0.8158300697618688,0.08037043447658121,1.237418383869486
1.7035563292713254,0.9264805788159827,-0.8154375253530648,0.08992425453487307,1.2374938352294047
1.706043272817707,0.9356103552486861,-0.8054563345190173,0.08511244761883674,1.2374856655351822
1.7085302163640885,0.9399363545349086,-0.8002517652589698,0.06593501588119288,1.2362162693864387
1.71101715991047,0.9298818479405846,-0.7998238755965499,0.05154557475453814,1.2276218592793375
1.7135041034568514,0.9246005266189112,-0.7802307069381511,0.04673252970911079,1.2107146729127336
1.715991047003233,0.9288808717261947,-0.7702027371969371,0.027553866291833984,1.206976033644454
1.7184779905496144,0.9331461544204975,-0.774528427666854,0.037105216532538066,1.2132735997571935
1.720964934095996,0.942184855782173,-0.7740542230216465,0.041867759334538235,1.220092271885456
1.7234518776423775,0.9368434402500303,-0.7735685845169953,0.0418414968417995,1.215662246411026
1.725938821188759,0.9314871954637463,-0.7682831667473509,0.04181483451702661,1.2081704763839993
1.7284257647351404,0.9309046023797305,-0.7725632375668301,0.03699937118070018,1.2102918194548262
1.7309127082815219,0.9207305286291749,-0.7816204515257437,0.04654872225322748,1.208652977548343
1.7333996518279033,0.9296954716807964,-0.7906664631508824,0.04652087327053778,1.221331780338642
1.735886595374285,0.9338574924332796,-0.7901245236242258,0.03691582636843194,1.2238257054183195
1.7383735389206665,0.9284282650186548,-0.7895714973835513,0.041675600282548686,1.2194831070683037
1.740860482467048,0.918196270160365,-0.7937958455199094,0.051223390504588906,1.2148333509728235
1.7433474260134294,0.9223151984922857,-0.7980092224563546,0.06555919916508479,1.2213853008327993
1.7458343695598109,0.9359967239949303,-0.792634879267299,0.07031781843182294,1.2285375512166237
1.7483213131061923,0.9305105039941604,-0.7920380835994392,0.07507605707230347,1.2242591793655715
1.750808256652574,0.9250102289645932,-0.7914304897879916,0.06546870725058263,1.2191358806483596
1.7532952001989555,0.9290727826845697,-0.7812353488166952,0.0510725777303751,1.2149540377981458
1.755782143745337,0.9379098389145761,-0.7806063315590435,0.05104128391406704,1.221321547941585
1.7582690872917184,-6.398677622002469,5.550302500519512,0.00791398807709598,8.470477896128152
1.7607560308380998,-6.294100069978412,5.910082960010949,-0.13577014750711314,8.634999120907201
1.7632429743844813,-5.921385601938929,6.068760990401541,-0.2507242310749671,8.482660552298276
1.765729917930863,-5.3475717875279125,6.045490147518077,-0.33215985719306396,8.078044646895258
1.7682168614772444,-4.5870237599290276,5.854635583903823,-0.39444223371133624,7.448028562660155
1.770703805023626,-3.6828370723122648,5.500985645499106,-0.4375713585208896,6.634425421012931
1.7731907485700074,-2.69247248787424,5.008482291564112,-0.45675882619465646,5.704641232205381
1.7756776921163888,-1.6542371565972473,4.420221094679807,-0.4711582479093188,4.743083932495004
1.7781646356627703,-0.601649825211505,3.7505672075457706,-0.46161600828123994,3.826463932875393
1.780651579209152,0.41261714620251766,3.0138857829026993,-0.42334370188996395,3.071315729724514
1.7831385227555334,1.355045010774451,2.238907183494833,-0.37549493991884475,2.6438322199856317
1.7856254663019149,2.211268634843748,1.463938578749953,-0.3132813169519544,2.670387672482652
1.7881124098482963,2.938192464754887,0.6889799115774577,-0.23191442757568304,3.026789153578002
1.7905993533946778,3.5214513667000116,-0.05245005182611884,-0.16970149626156683,3.525928152104543
1.7930862969410595,3.965833820077135,-0.7459861584997078,-0.1170657142803666,4.037082810471037
1.795573240487441,4.25218628760601,-1.3916284653962177,-0.04048825630372299,4.474299644537023
1.7980601840338224,4.394874055170949,-1.9558582061790981,0.01693524986935735,4.810466306521749
1.8005471275802039,4.393897198616265,-2.4338870343849015,0.055204806320197974,5.023264502173426
1.8030340711265853,4.263621003667072,-2.8448686201026248,0.10783923836984854,5.126731008146206
1.8055210146729668,4.032775965928197,-3.1696494068081407,0.12216611157119317,5.1307781000803105
1.8080079582193485,3.686996951038986,-3.38907583792657,0.14606946120117748,5.010101579777007
1.81049490176573,3.269379664399283,-3.531878390033906,0.17954928933102465,4.816144339539186
1.8129818453121114,2.8086546013627824,-3.6028455230518968,0.19866358142783547,4.5725817380684575
1.8154687888584928,2.3143986439161295,-3.5828236802469347,0.2082007428779491,4.270411473855176
1.8179557324048743,1.815342287240313,-3.486178128073011,0.2225259857056905,3.9368037003147394
1.8204426759512558,1.3162740098264263,-3.3368509395693504,0.2224856986905266,3.593974310978197
1.8229296194976374,0.8411359033572174,-3.1492073810781496,0.22244509385141242,3.267185112100663
1.825416563044019,0.4186584627459906,-2.9088822989629395,0.20803896328271776,2.9462096578302943
1.8279035065904004,0.04884176289172304,-2.625452556130406,0.203209325638543,2.6337578993370907
1.8303904501367818,-0.2635257180785333,-2.322860225389603,0.1840141663670991,2.3449918217788355
1.8328773936831633,-0.508867098811242,-2.005893766208763,0.16960710079661823,2.0763723399738256
1.8353643372295447,-0.6776054980480106,-1.679341637995351,0.14083451768999744,1.816362273739128
1.8378512807759264,-0.7745292445871943,-1.3527807034161166,0.11685003236979163,1.5631906832887132
1.8403382243223079,-0.8044266673243776,-1.0453646317161787,0.0976536468744218,1.3226585769175585
1.8428251678686893,-0.7625092886127092,-0.7618818821166529,0.0832453632394099,1.0811171111489886
1.8453121114150708,-0.6631422441859063,-0.4927557038141934,0.07362518349734337,0.8294495085961283
1.8477990549614522,-0.5111138632373735,-0.257139765862457,0.04485109307629642,0.5739075369180738
1.8502859985078337,-0.33515449166362155,-0.05024572064832755,0.025653513924808635,0.3398694874543178
1.8527729420542154,-0.1352640555416753,0.10877276290611526,0.006455641425908709,0.1736938512959837
1.8552598856005968,0.09334592226802951,0.24385764582850378,-0.017530925720091517,0.2617008712054516
1.8577468291469783,0.32673349887868874,0.3454320659722012,-0.022364168894057457,0.4760023608572285
1.8602337726933598,0.5648987478992722,0.40870756457945534,-0.03198610268305835,0.697979641169774
1.8627207162397412,0.7982649361915397,0.4384724896025869,-0.0463967250757058,0.9119417133725841
1.8652076597861227,1.0124669271888656,0.4299383824234764,-0.051230824102797,1.1011634250511733
1.8676946033325044,1.1931395842162438,0.39747039777624504,-0.046488397759208766,1.2584617418333925
1.8701815468788858,1.3594365937306239,0.33628007718559294,-0.03695784736331653,1.4008990060556115
1.8726684904252673,1.4969928188361425,0.25594417220967713,-0.03221597755698369,1.5190565454073883
1.8751554339716487,1.5914431225250454,0.15646262783934306,-0.017897576383758107,1.5992160858942959
1.8776423775180302,1.633210770996906,0.03304698581930321,0.005997358148642107,1.63355608843921
1.8801293210644117,1.6606030635405975,-0.09036079210903303,0.02510361806827177,1.6632491692561
1.8826162646107933,1.6592548628066375,-0.22333756737084087,0.04899801200147991,1.6749349760294263
1.8851032081571748,1.6195894346499733,-0.36109499135376355,0.07289213861031918,1.6609553857589856
1.8875901517035563,1.5607604647305207,-0.5036331186888052,0.0967859998738394,1.6428594207288771
1.8900770952499377,1.4779796219887558,-0.6317983906477385,0.09194917784585144,1.6099837330686375
1.8925640387963192,1.3808237852073013,-0.7408024583845116,0.07753528777989693,1.5689086426538248
1.8950509823427006,1.2692930264082685,-0.8545873928956302,0.06790954160578799,1.5316775459690986
1.8975379258890823,1.1529642241335893,-0.9539996352146156,0.06307194128898175,1.4978050193197878
1.9000248694354638,1.036625853483229,-1.0390392395752448,0.058234085471163155,1.4688726664342278
1.9025118129818452,0.9250663894342794,-1.1001294534891497,0.06297278275146923,1.438748835156009
1.9049987565282267,0.8134975001997337,-1.151635540987027,0.06771122844428668,1.4116045524696823
1.9074857000746082,0.7210728704693609,-1.2031343626962503,0.07244942450110159,1.4045381085388808
1.9099726436209896,0.643004168205932,-1.2211071492774943,0.06761056622923611,1.381712060818986
1.9124595871673713,0.5649262546050516,-1.2199191645100247,0.06277146221368213,1.345839774099938
1.9149465307137528,0.5107812172974074,-1.2235124787284484,0.062720517715535,1.327333455048338
1.9174334742601342,0.48056912718382105,-1.2079451289782583,0.06266933135165331,1.3015396904115464
1.9199204178065157,0.46471324839519224,-1.1780055721401177,0.05304109841494942,1.2674655377359347
1.9224073613528971,0.46321365157289107,-1.1480590716478933,0.05777783743686271,1.2393323999215848
1.9248943048992788,0.4712820039068907,-1.1037404709254948,0.057725937062349075,1.2015332031096992
1.9273812484456603,0.49849518241610213,-1.0546266299095626,0.057673802534232266,1.1679302388863908
1.9298681919920417,0.5352764507053478,-1.0055060051268714,0.057621435771306295,1.1405627711293496
1.9323551355384232,0.5768374755659422,-0.9420134397328126,0.0575688386886295,1.1060944647915438
1.9348420790848047,0.6279667302952021,-0.8689373900730737,0.057516013197506766,1.0736398343945643
1.9373290226311861,0.6886642847346031,-0.8150083290033194,0.04788615456483747,1.0680777861245936
1.9398159661775678,0.7397765953079148,-0.7610726960838821,0.04783287797558344,1.0624448427589954
1.9423029097239493,0.7860921349032571,-0.7071305440633204,0.04777937868900928,1.05842208968443
1.9447898532703307,0.8419761829111825,-0.6579703289169418,0.04293725528084735,1.0694355774032422
1.9472767968167122,0.8834867920207704,-0.6183805065257304,0.04767171960421557,1.0794516920067307
1.9497637403630936,0.9154124347031095,-0.5739959193944797,0.05240596690679311,1.0817567316444232
1.952250683909475,0.9569067932495467,-0.5439702331745191,0.05235159575265946,1.1019595796239177
1.9547376274558568,0.9792395166067539,-0.523515096819346,0.047508608022280185,1.111411334888309
1.9572245710022382,0.9919874801415318,-0.4982653525448839,0.052242215553112814,1.1113220826520642
1.9597115145486197,1.0143043657181052,-0.4777978590710119,0.04739880693646725,1.1222079964724234
1.9621984580950012,1.0126714185332304,-0.4669010716990538,0.03776678736122285,1.1157626731950743
1.9646854016413826,0.9918771102005357,-0.46557504231039193,0.028134562012267494,1.0960711087067805
1.967172345187764,-7.839586987222935,7.771810694888318,0.032867342711075054,11.039078125895863
1.9696592887341458,-7.735898100659391,8.122702108724718,-0.20182024466244997,11.21887429210356
1.9721462322805272,-7.445469028464436,8.215025636874252,-0.3838355957167341,11.093646155924732
1.9746331758269087,-6.982664912892263,8.091876857739663,-0.5466975318456893,10.702100660986403
1.9771201193732901,-6.361850896345884,7.743678913302179,-0.6808292445644675,10.044960846111445
1.9796070629196716,-5.6213341379801225,7.2039505755289115,-0.7718655220719199,9.170173268245668
1.982094006466053,-4.785056587138184,6.539729439731767,-0.838959975813399,8.146697584176408
1.9845809500124347,-3.8817485966358083,5.765380664803869,-0.8629589906757644,7.003733618375738
1.9870678935588162,-2.9449289227606643,4.909634619703622,-0.8582277747923168,5.789099530369951
1.9895548371051976,-2.0129047252734287,4.029952093416423,-0.8247663263396063,4.5795784523603515
1.992041780651579,-1.1000411474865377,3.121544631869225,-0.7529978368577588,3.394280064642212
1.9945287241979606,-0.23985694614824093,2.2131426043378633,-0.6668643211333354,2.3238415532371315
1.997015667744342,0.577224751721428,1.35741839680631,-0.5663657773555535,1.5800453511680093
1.9995026112907237,1.346415608985311,0.549583555522851,-0.4658674136788754,1.5270591094480492
2.001989554837105,2.0198316584672815,-0.20557356651575853,-0.35100401834014505,2.0603844885573244
2.0044764983834864,2.592684562716757,-0.8841110029226749,-0.23614079950239208,2.7494413949797782
2.006963441929868,3.0649743874455493,-1.4812404004829565,-0.14521977197359348,3.407232000010007
2.0094503854762498,3.446278004847461,-1.9873850025514292,-0.06387572400356589,3.978770079205221
2.011937329022631,3.722230270355385,-2.388179649052101,0.036621766114441456,4.422639638886474
2.0144242725690127,3.892831249203094,-2.702778003040089,0.10838866695779892,4.740347262766134
2.016911216115394,3.9772346197448565,-2.9455453241385445,0.16579019026355013,4.951981306935546
2.0193981596617756,3.961075236931304,-3.0973280486161876,0.23755675772525997,5.033884313978211
2.0218851032081573,3.86350677879307,-3.15333782259,0.2949579511883602,4.995720593280401
2.0243720467545385,3.7084713265184,-3.1423051153056565,0.3044749491734411,4.870271656895476
2.02685899030092,3.500757347850607,-3.0785951859340956,0.29962657668106196,4.67149081266786
2.0293459338473014,3.2307881004079433,-2.962208083570821,0.3043548520666661,4.393779734589162
2.031832877393683,2.932082471526811,-2.7979322605167685,0.309082970439011,4.064611277464383
2.0343198209400644,2.5998521218152817,-2.5905561689571592,0.31381093354297285,3.683570227624353
2.036806764486446,2.2532507283170364,-2.3640218742425008,0.3041735331579627,3.2799786287157544
2.0392937080328277,1.9114319679089453,-2.113541021684825,0.2945359809807151,2.86485239800955
2.041780651579209,1.5648190973782987,-1.8534788697600857,0.2753214721018349,2.441279304210659
2.0442675951255906,1.2229889866258434,-1.6125658867877186,0.2465300082479729,2.0388349235792274
2.046754538671972,0.9050953120241982,-1.362071701125203,0.21294999446149632,1.649176928954391
2.0492414822183536,0.620714943135717,-1.1163615708938859,0.17936983578013788,1.2898541528360619
2.0517284257647352,0.3554827327514313,-0.9041659640569888,0.15536634055733067,0.983881478442249
2.0542153693111165,0.12855235673390197,-0.69675450861418,0.11699749389967096,0.7181093003678698
2.056702312857498,-0.06486452582708524,-0.5132808656479866,0.0738401041512784,0.5226059842100842
2.0591892564038794,-0.21997944937293967,-0.35374508283891437,0.03547097965158663,0.41807263983257187
2.061676199950261,-0.3367923518378011,-0.22772401438682266,0.0018901220947249442,0.4065598203787728
2.0641631434966428,-0.4200915746491398,-0.1304293044088478,-0.022114063509581783,0.4404290707306632
2.066650087043024,-0.45551184612675244,-0.047495790259292736,-0.022176365515692353,0.4585179203058944
2.0691370305894057,-0.4526299113662171,0.011499674228822254,-0.027027202165522013,0.4535819097226592
2.071623974135787,-0.4258109189581598,0.04176863866597058,-0.0510317817448005,0.43088722495340925
2.0741109176821686,-0.37505480770760524,0.0433110561066794,-0.06545968266121704,0.3831800182939762
2.07659786122855,-0.31472672655641176,0.02570368637030329,-0.07988770988972327,0.3257232538419108
2.0790848047749315,-0.21609619474008257,-0.011053517239747457,-0.0799506518085078,0.23067694368774339
2.081571748321313,-0.1031051681945685,-0.038230181373036576,-0.0560717001208797,0.12343523820486349
2.0840586918676944,0.009881203607245537,-0.08455677239725734,-0.03219286977716784,0.09101575032629852
2.086545635414076,0.13722819093624605,-0.13566812667121297,-0.01789096577160265,0.19379758419121676
2.0890325789604574,0.2645706439628047,-0.2011410970287244,-0.0035891798220202276,0.3323676409830035
2.091519522506839,0.4110622359203083,-0.2666105195750563,0.010712489708250672,0.4900694730174836
2.0940064660532207,0.5288189933780936,-0.32249963360835343,0.03459085109162885,0.6203644641774588
2.096493409599602,0.651359799170501,-0.3879620982206964,0.034527082712831,0.7589310226047551
2.0989803531459836,0.7595310994278127,-0.4486327491337039,0.03446320279540949,0.8828060641727629
2.101467296692365,0.8533329533803073,-0.5140884385417817,0.03918761627675238,0.9969953466473848
2.1039542402387466,0.937553823396734,-0.5699640019085024,0.03433511480806395,1.097745432851475
2.106441183785128,1.012193768343364,-0.6066826778881524,0.03427090995748294,1.1805823103841566
2.1089281273315095,1.0724644435834052,-0.6529749315674436,0.058148616608502124,1.2569556498220822
2.111415070877891,1.1040006976561911,-0.69926400134006,0.08681462307712096,1.309703959975494
2.1139020144242724,1.1163793955189498,-0.7407615287891383,0.09153851103375743,1.342910978537131
2.116388957970654,1.1287542085853282,-0.7726791553664523,0.09147389534692962,1.3709436947106346
2.1188759015170353,1.1363367914827645,-0.795016925712352,0.05789035767702977,1.3880434104733315
2.121362845063417,1.1247619920129626,-0.8077748843350552,0.033883529484088015,1.3851851486389024
2.1238497886097987,1.1036066743936004,-0.8157414789305095,0.04339542894188675,1.3730495313232103
2.12633673215618,1.0776592993360397,-0.8141283504210981,0.05769563769568897,1.3518444152393925
2.1288236757025616,1.0421315207245152,-0.807723946236476,0.0863609639482128,1.321330502147544
2.131310619248943,1.0018117988969868,-0.8061051169928648,0.1006609893346031,1.289792609230305
2.1337975627953245,0.9567001906837429,-0.7901182932504809,0.11017252204741723,1.2456725720660513
2.1362845063417057,0.9163735593679121,-0.7645519220365906,0.11010716031318424,1.1985006168336731
2.1387714498880874,0.8521015414819125,-0.7437712568841883,0.10046490567363975,1.135502495301067
2.141258393434469,0.8021914198539066,-0.7277763412300584,0.08124575966540704,1.0861723391824367
2.1437453369808503,0.7570664439198874,-0.7022020084144036,0.071603337101239,1.0350672920224848
2.146232280527232,0.7119382662467073,-0.671836704922661,0.0619608328668626,0.9808464700641286
2.1487192240736133,0.6668069425316754,-0.6414688771038906,0.05231824848348232,0.9267421529345402
2.151206167619995,0.6312493349224714,-0.6158869711704087,0.061829198748400316,0.8840901163995623
2.1536931111663766,0.6004770954151853,-0.6046678365177467,0.05697486193028922,0.8540738080103415
2.156180054712758,0.5697018758148947,-0.5790810958415014,0.042543642855164876,0.8134525827701278
2.1586669982591395,0.5485005376961704,-0.5534920015822586,0.018535543023526557,0.7794548107643573
2.161153941805521,0.5225079258402511,-0.537477402722168,-0.0006842261083814805,0.7495978649704229
2.1636408853519025,0.5060893047580846,-0.5214605348236421,-0.005538856409849302,0.7266898600499454
2.166127828898284,0.5040331321274689,-0.51022984327121,-0.019970362997572266,0.7174835932932856
2.1686147724446654,0.5067626554723796,-0.5133621766305647,-0.0104599211497316,0.7214281137623814
2.171101715991047,0.5047011221235533,-0.5069155600857291,0.008627260647125823,0.7153747530882508
2.1735886595374283,0.5122137958197029,-0.505255245243418,0.018137570580895712,0.7197046664713185
2.17607560308381,0.524512326824362,-0.5035928702889687,0.0324362200764039,0.7278537410561501
2.178562546630191,0.532019961886485,-0.49714007326727616,0.05631161391258743,0.7303180746464721
2.181049490176573,0.5395251575213652,-0.49068529872310274,0.05145652698029757,0.7311000151486174
2.1835364337229546,0.5470279667290566,-0.49380539438045545,0.02744776736822807,0.7374528756717025
2.186023377269336,0.5641052489549913,-0.501711997861034,0.03216936972227202,0.7556219484931676
2.1885103208157175,0.5811802501677894,-0.5048283433245508,0.032102512237708325,0.7704886181514151
2.1909972643620987,0.5886762161401925,-0.5079428747496779,0.03203559966700453,0.7781850236956029
2.1934842079084804,0.6057468123706481,-0.5158440359728287,0.036757036757308015,0.7964768357567696
2.195971151454862,0.6180268809189359,-0.5045898507659805,0.04626682493012524,0.7991925688615591
2.1984580950012433,0.6398816835699175,-0.5029107792817107,0.05577656228131822,0.8157688678700182
2.200945038547625,0.652157658669249,-0.5251720715685364,0.06049784690141635,0.839508967192282
2.2034319820940063,0.6596432609667617,-0.5378549443284486,0.04606547023495544,0.8523726886904515
2.205918925640388,0.6767037516553103,-0.5361710340416423,0.031633046963326805,0.8639490696272784
2.208405869186769,0.6841855684876619,-0.5249087836849937,0.03156578844223645,0.8629226629985011
2.210892812733151,0.6820887622996707,-0.5327986526927297,0.045863696061086756,0.8667311939598508
2.2133797562795325,0.6799901903693899,-0.5263218571905486,0.060161561242967565,0.8619865253043685
2.2158666998259138,0.677889903135565,-0.5150552430422275,0.0505173687649485,0.8528590907678522
2.2183536433722955,0.6709995475176946,-0.5229408659275028,0.04087313660184222,0.8516913497985231
2.2208405869186767,0.6688959801970347,-0.5308251514980626,0.0360172694418015,0.8546896615057048
2.2233275304650584,0.6667908476944819,-0.5291313319007398,0.03116136532695002,0.8517987037189105
2.22581447401144,0.664684199651588,-0.5226478490975799,0.04545903889557046,0.8467776471129288
2.2283014175578213,0.6625760855100165,-0.5209515482249771,0.05496827489771583,0.8446414007926726
2.230788361104203,0.6556781511910046,-0.5144656609918821,0.04532386471864136,0.8346514284430967
2.233275304650584,0.6487788490560811,-0.5127670322420657,0.05004463294129913,0.828461519699677
2.235762248196966,0.6370898246256003,-0.5254325066726446,0.059553774260393766,0.8279549599697044
2.238249191743347,0.630187933180095,-0.5333085089119844,0.06906288668550076,0.8284470285546677
2.240736135289729,0.6232848198381968,-0.5268182700819786,0.0642067615801345,0.8186232128186387
2.2432230788361105,0.6068037261970614,-0.5346922477197067,0.049773803583612164,0.8102987062937781
2.2457100223824917,0.5998983135743619,-0.5282000593709753,0.0353408206501129,0.8000764106965588
2.2481969659288734,0.6025686298049708,-0.5264953556369796,0.025696217408020416,0.8005914118459114
2.2506839094752547,0.5908727059204728,-0.5391549803303595,0.016051591839648438,0.8000476867146099
2.2531708530216363,0.5887526059536636,-0.52787174391249,0.011195348562459628,0.7908245980417392
2.255657796568018,0.577054763852442,-0.5213761031807964,0.006339085547820034,0.7777309467022466
2.2581447401143993,0.5653560332843378,-0.5292449015029224,0.006271207402237522,0.774446213871642
2.260631683660781,0.5632332677144485,-0.5275361588556287,0.015780118726743453,0.7718647063491612
2.263118627207162,0.5563213038037504,-0.5210383149886364,0.006135400874690333,0.762241406574056
2.265605570753544,0.5541969946120466,-0.5145398095025961,0.00127907171738606,0.756232213294601
2.268092514299925,0.5616487896759532,-0.5176174851692146,0.020364745800323547,0.7640627898077991
2.2705794578463068,0.5786767350087532,-0.5254829746498308,0.03945040778068254,0.7826592201982212
2.2730664013926885,0.5813388598190079,-0.5285595071358729,0.048959252271080445,0.787227432767891
2.2755533449390697,0.5792120163541736,-0.5220587149893183,0.05846808715988061,0.7819529263334853
2.2780402884854514,0.5770846533379748,-0.5059806337425354,0.05361170372836277,0.7693616273361741
2.2805272320318326,0.5749568159702789,-0.4946905087387341,0.058332119814807015,0.7607211551343618
2.2830141755782143,0.5632517426066661,-0.5025535851709018,0.06305253000977551,0.7574881207373529
2.285501119124596,0.5659114946411274,-0.5056278815191257,0.04861932225769117,0.7604467192599829
2.287988062670977,0.5637825033809563,-0.4943366260739044,0.04376291770057961,0.7510889454400835
2.290475006217359,0.5664416198513327,-0.48304506357661037,0.043694914232748516,0.745719711202098
2.29296194976374,0.5595236782717874,-0.4813300352974954,0.04362690974298289,0.739356921033408
2.295448893310122,0.5526055292592313,-0.4844031723949205,0.03398209879422964,0.7356453543879681
2.2979358368565035,0.5504756199059917,-0.4826877025558489,0.029125692545465043,0.73270671641236
2.3004227804028847,0.5483455904594152,-0.4809720632769685,0.03863449882981662,0.7304174400498801
2.3029097239492664,0.5510038876030383,-0.4792562885833176,0.03377809891237327,0.7310491325940083
2.3053966674956476,0.5536621511752613,-0.4871172189890993,0.033710107255805255,0.7382149646348887
2.3078836110420293,0.5467436174895972,-0.48540127493507734,0.033642121715690365,0.7318980621150345
2.3103705545884106,0.5398251359361592,-0.4836852966321912,0.03836254678268958,0.7258335405327572
2.3128574981347922,0.5376951523800487,-0.4867577208192775,0.043082980301299756,0.7265709179851776
2.315344441681174,0.5451421124815987,-0.48025337080201824,0.047803423430785585,0.728085427858094
2.317831385227555,0.5478008484150916,-0.4785374896559573,0.04773547400456124,0.7289462078980586
2.320318328773937,0.5360945954702574,-0.4768217070232872,0.047667536491115214,0.7190469731638902
2.322805272320318,0.5291770086538048,-0.4655292490736893,0.05238801535338844,0.7067462715738718
2.3252922158666998,0.5366249361268797,-0.4542369551058041,0.047531701767518086,0.7046678622797312
2.3277791594130814,0.539284805923789,-0.4573100675861994,0.04267540350566712,0.7083655764365774
2.3302661029594627,0.5275798525144659,-0.4699602155477325,0.05218433165474856,0.708467578261073
2.3327530465058444,0.5206637300856973,-0.46824541458947877,0.06648168069458116,0.7033948407393965
2.3352399900522256,0.5137480760176767,-0.4569541000797632,0.06641383845879822,0.6907640213056859
2.3377269335986073,0.5116213341261711,-0.45045151387484683,0.07113441933798903,0.6853634521184635
2.3402138771449885,0.5047067380609518,-0.4535260910376011,0.07106661779532608,0.6822501527012212
2.34270082069137,0.5073695378682901,-0.46138945983744684,0.05663362828843077,0.6881216821601288
2.345187764237752,0.5148213701081445,-0.45967644175028743,0.04698906519125501,0.6917741296606722
2.347674707784133,0.5031202578541651,-0.45317547138032754,0.03734452627064755,0.6781538286896291
2.350161651330515,0.4962082571780775,-0.4418865798584535,0.027700012608212532,0.6650215595371338
2.352648594876896,0.5036622139856344,-0.44975181476405846,0.01805552528001897,0.6754837693635668
2.3551355384232777,0.4967517474150711,-0.4480407869999907,0.02277627531752202,0.6693441596763486
2.3576224819696594,0.48984210628244307,-0.45111873719876217,0.0131318438638246,0.6660524374719231
2.3601094255160406,0.4972985391988307,-0.444620485917822,0.02264105522054649,0.6674622318667858
2.3625963690624223,0.49039066468757553,-0.4381228701629465,0.03693870048065229,0.6586342846874429
2.3650833126088036,0.48348373094992625,-0.44120272678665406,0.03208276409093358,0.6553210419091959
2.3675702561551852,0.4861545826619552,-0.4442832792069207,0.032015263695772234,0.659362485690219
2.3700571997015665,0.474461241052744,-0.44736455732901526,0.03673620033245584,0.6531447502892159
2.372544143247948,0.4771341636700317,-0.4408697842642444,0.031880365071801364,0.6504148941217547
2.37503108679433,0.4798081779740391,-0.4295873929314853,0.03660137222127524,0.6450588161283572
2.377518030340711,0.4729065145406415,-0.4326710260571711,0.03653401284062774,0.6420120889660742
2.3800049738870928,0.47558282366299487,-0.4261786963315246,0.03167828794500949,0.6393831537483858
2.382491917433474,0.4686835288672282,-0.42447564285386497,0.03161100518466853,0.6331216922965324
2.3849788609798557,0.47136228003751235,-0.42277349128884856,0.04590897220432666,0.6348444358325762
2.3874658045262374,0.4788307102520778,-0.42107227046802587,0.050630173401001954,0.6396437449832705
2.3899527480726186,0.4863004523848382,-0.4097952024289109,0.04098620644742823,0.6372598426406622
2.3924396916190003,0.47940633246487485,-0.4128843322977822,0.05049589557332901,0.6347076011315448
2.3949266351653815,0.46772519291869163,-0.42076288180533084,0.045640418518539505,0.6307862606291464
2.397413578711763,0.4751990859296821,-0.4094888625679176,0.026419776259597683,0.6278481539458243
2.3999005222581444,0.4730976269538657,-0.40779272257194954,0.031141196329997456,0.6253687258896831
2.402387465804526,0.4709976578059082,-0.41567448972859866,0.040651066413992964,0.6295050311716159
2.404874409350908,0.4688992134561082,-0.4091921751941272,0.035795774190335194,0.6233667027278115
2.407361352897289,0.46680232867112903,-0.4074994198542887,0.02136372393382935,0.6200133868995826
2.4098482964436707,0.45991863469379723,-0.40101944451966265,0.02608533651535616,0.6107554258478468
2.412335239990052,0.453036569204156,-0.39932908312881477,0.03559540291749208,0.6049569260514591
2.4148221835364336,0.44615616635864774,-0.40242836282645156,0.030740310797016335,0.6016218735176778
2.4173091270828153,0.4536426700714885,-0.3959521006431439,0.02588527104741445,0.6026937741262189
2.4197960706291965,0.4563425008116664,-0.39905393669848976,0.03539549455669011,0.6072440724095384
2.4222830141755782,0.4494672888062067,-0.3973686877167921,0.03532896564486876,0.600974919192227
2.4247699577219595,0.4473822773606114,-0.3908963802302199,0.04005089518899396,0.5954451749564317
2.427256901268341,0.44051069297619083,-0.3940022505788634,0.03998447745908429,0.5923564826396764
2.429743844814723,0.41927576194961214,-0.38753271170696424,0.030341310040009617,0.5717467641327976
2.432230788361104,-11.659156833561484,3.502330496442933,-0.003243816129426591,12.173835365169053
2.4347177319074857,-11.508005420403649,3.67160287529624,-0.123020143319021,12.080148607760817
2.437204675453867,-11.093489863702775,3.7115868893190065,-0.2427964108743108,11.700442072425059
2.4396916190002487,-10.420398534648164,3.627070916216638,-0.33863060131033684,11.038796118069488
2.44217856254663,-9.536615434513648,3.4515737537690696,-0.40573431042882824,10.150123923094268
2.4446655060930116,-8.475659354813839,3.209037393268239,-0.44889594067758587,9.073931345111333
2.4471524496393933,-7.271049087263991,2.880308196275611,-0.48248070115047526,7.835631293132522
2.4496393931857745,-5.980245440383245,2.498904961028784,-0.501700187665497,6.500735697579348
2.452126336732156,-4.6176135930082,2.083981275956596,-0.4921891894054866,5.089949258198888
2.4546132802785374,-3.2310375474184374,1.6355371163588672,-0.4683129154805279,3.651561621912069
2.457100223824919,-1.8827665160560927,1.1823028776097986,-0.42528296172489277,2.2635183776413004
2.459587167371301,-0.5728004683980481,0.7386437452741821,-0.37267613393912846,1.0062715636633628
2.462074110917682,0.670130205954814,0.2997712917881956,-0.3152808346089291,0.7989614039395819
2.4645610544640637,1.8220835205232069,-0.11994929697931012,-0.22436664298314035,1.8397599245802694
2.467047998010445,2.8255986653857117,-0.48221081840610003,-0.14781759144095652,2.8702587220591806
2.4695349415568266,3.70461768686566,-0.8013785062413574,-0.07605687252328686,3.7910663887568004
2.472021885103208,4.449563807845015,-1.0774523841218318,-0.018661292057641887,4.5781950552543424
2.4745088286495895,5.031706637725899,-1.305644072212732,0.03394595740440387,5.198454622237576
2.4769957721959712,5.460623012273046,-1.50510720712911,0.08655327998553553,5.66491331419945
2.4794827157423525,5.726736153771706,-1.6375345854912733,0.1439490798031482,5.957998643099225
2.481969659288734,5.839622897589467,-1.7172914402916748,0.18219134104737655,6.089620609011935
2.4844566028351154,5.818436885536235,-1.7587430043717769,0.21085687114521257,6.082092186616741
2.486943546381497,5.667966549262826,-1.757100897140891,0.23473407419800196,5.938716060891046
2.4894304899278787,5.402577126862696,-1.7267303511387877,0.2394577410205141,5.676863335238793
2.49191743347426,5.022268646270952,-1.6436893721921475,0.2393930823440833,5.289820994650753
2.4944043770206417,4.565348361787344,-1.541496805820798,0.23932850225410718,4.824509943903246
2.496891320567023,4.031816300952203,-1.4249410774723694,0.2392640015103762,4.2829017057727095
2.4993782641134046,3.464768120991647,-1.2892338058036088,0.2344111775470683,3.7042800296988685
2.501865207659786,2.859415445731969,-1.1439518192821008,0.22477003111338512,3.0879449514225628
2.5043521512061675,2.2301235120842646,-0.9938835429051585,0.21034056295324355,2.450611868173386
2.506839094752549,1.6151995733650049,-0.8438174015202864,0.18633437048496582,1.8318345903849973
2.5093260382989304,1.0098552528119207,-0.6937534165050114,0.1575398577622309,1.2352814421531428
2.511812981845312,0.42845578674833185,-0.5484800124076679,0.14311063879439878,0.7105528412053451
2.5142999253916933,-0.10984518537752397,-0.40799721030691893,0.11910469770277388,0.43899159147268413
2.516786868938075,-0.5858940243125306,-0.27709343445254886,0.07594522856436114,0.6525490455770617
2.5192738124844567,-1.009267510920357,-0.16534551226560446,0.047151055333744196,1.0238082188793143
2.521760756030838,-1.3656004096574244,-0.08233027101832135,0.023145372077474136,1.36827572536791
2.5242476995772196,-1.6596810984560144,-0.00410571459196829,-0.010437030463444685,1.6597189934050187
2.526734643123601,-1.872355938840803,0.054962926718213456,-0.044019344951673034,1.8736796385070291
2.5292215866699825,-2.022778519092424,0.09966403604652685,-0.06802476405504265,2.026374404177956
2.5317085302163638,-2.101372007763249,0.13478599667550917,-0.08724169040754326,2.107496783498358
2.5341954737627455,-2.108136380239389,0.15075198207477536,-0.10167012332803615,2.1159636036014056
2.536682417309127,-2.0574368220606676,0.15235037582267008,-0.08736804553898736,2.0649189061960063
2.5391693608555084,-1.9588501156391172,0.13958115832488982,-0.0682774729711415,1.965003432214312
2.54165630440189,-1.8075878336180666,0.11723271345489428,-0.049186808279156224,1.8120531524921513
2.5441432479482713,-1.6132267587937146,0.08530502191310285,-0.030096050802532304,1.6157609025860162
2.546630191494653,-1.3853436741537122,0.048586467867299366,-0.01579360320619827,1.3862853884679596
2.5491171350410347,-1.1335153628771484,0.007077032311862741,-0.006279464839924032,1.133554848229027
2.551604078587416,-0.8721070116544337,-0.03922330361213655,0.003234768261719978,0.8729945996675944
2.5540910221337976,-0.6011185974054265,-0.08073775197656685,0.017537500059063404,0.6067699042052255
2.556577965680179,-0.3157616939201727,-0.13661994462885962,0.017475117905757287,0.344493594082023
2.5590649092265605,-0.03518989178021592,-0.18771628670788187,0.012624429072250365,0.1914030015132973
2.561551852772942,0.21665481492298244,-0.229238393167583,0.022139047464529327,0.3161956469561272
2.5640387963193234,0.46850286843190153,-0.27076308877716304,0.026865360421016504,0.5417834766432256
2.566525739865705,0.6916238709565643,-0.30750198819948693,0.036380175196939035,0.7577760676947641
2.5690126834120863,0.8764410377994258,-0.33945510927247735,0.06026029904247743,0.9418120659615765
2.571499626958468,1.0468964073168827,-0.3761992763296842,0.06498690931995021,1.1143344567709168
2.5739865705048492,1.1982015977555296,-0.39858089363800264,0.0649252165897849,1.2644244071459563
2.576473514051231,1.306414613893037,-0.41138838192131955,0.07444043140737655,1.3716781408192122
2.5789604575976126,1.3763238802418274,-0.42419856507951703,0.07916734440125417,1.4423866729691412
2.581447401143994,1.4222946277679829,-0.4274346535871123,0.06952914951524924,1.4867604695770982
2.5839343446903755,1.4395384739698296,-0.42588506773568735,0.0790446705710135,1.5032954363348865
2.5864212882367568,1.4184786328392178,-0.43391503431381073,0.09334869818210301,1.4862966959114405
2.5889082317831384,1.3782687381040755,-0.441947763365083,0.09328761963678822,1.450394815198916
2.59139517532952,1.3141204067053387,-0.43082965814931606,0.09322664546057702,1.3860800283837487
2.5938821188759014,1.230822062039511,-0.4197143483459014,0.07880056625215737,1.3028018313819945
2.596369062422283,1.1331621273184134,-0.39902504356968205,0.06437459252717126,1.2030883094551363
2.5988560059686643,1.0211406222492472,-0.3783385665743224,0.06910233811663424,1.0911660618339805
2.601342949515046,0.8899691630349765,-0.3720201432916195,0.05946498032322545,0.9664265011125964
2.603829893061427,0.758801382296585,-0.36091617626925343,0.054616132968156705,0.842035002864146
2.606316836607809,0.6276372991906506,-0.34981508451479293,0.05934419990682649,0.720986065574091
2.6088037801541906,0.510842142651921,-0.33871688357407814,0.06886077834912285,0.6167905874137414
2.611290723700572,0.3892623181905805,-0.31804478221116783,0.06401225553913648,0.5067299129852723
2.6137776672469535,0.2676862477363755,-0.3021640056507877,0.04479863199734346,0.4061599819860924
2.6162646107933347,0.16047915967816861,-0.29107456901610185,0.03516192484096159,0.3342369314983639
2.6187515543397164,0.07242947558290214,-0.2704112773289613,0.015948521299559815,0.2803972952286401
2.621238497886098,-0.010827996444448651,-0.25453935539300465,0.011100438480701413,0.2550112716829418
2.6237254414324793,-0.07971643187767885,-0.2434588179111139,0.015829273565271862,0.2566660698876845
2.626212384978861,-0.13902421633160733,-0.23238127612629356,0.015769817088740368,0.27125168635736546
2.6286993285252422,-0.1887513322801755,-0.21651834114229151,-0.00344314041821292,0.2872614013481284
2.631186272071624,-0.21453255241558755,-0.21502364052541845,-0.01786758186718096,0.30426737010815275
2.633673215618005,-0.22594466621032228,-0.2087435751407729,-0.013138296815146333,0.3078920057335824
2.636160159164387,-0.22777605999484973,-0.19288975567595923,-0.0275625113472735,0.2997466987028835
2.6386471027107685,-0.22002671695721032,-0.200981019242934,-0.03240980506908109,0.29975910617613066
2.6411340462571498,-0.19790821714259021,-0.2090753629720421,-0.027680177512667825,0.28921680802052735
2.6436209898035314,-0.16620894741383108,-0.20280759049668218,-0.032527241496094206,0.2642240609839097
2.6461079333499127,-0.12971729481037664,-0.2061197318754764,-0.01822057663897958,0.24422102664266515
2.6485948768962944,-0.08843324322752677,-0.20943499378788077,0.005663010871874263,0.2274104765018611
2.651081820442676,-0.04235677673631533,-0.207964986096977,0.019969908204371833,0.21317206480094184
2.6535687639890573,-0.0010646862236982635,-0.2160749318107098,0.03427692244363989,0.2187793800292092
2.656055707535439,0.04980825385007337,-0.21461123055874687,0.04379565070923164,0.2246261370690819
2.65854265108182,0.1054736555690845,-0.22751591171778696,0.038949286795759264,0.253781853263349
2.661029594628202,0.16114313084345078,-0.24042377796654968,0.024526234454167906,0.2904689962908935
2.663516538174583,0.2120282914097653,-0.2341812285282736,0.029256914032350423,0.3172582720306158
2.666003481720965,0.25812915215186183,-0.22794188905383228,0.04835292263144275,0.3477444019722976
2.6684904252673465,0.299445727780953,-0.22170577177829998,0.053083840746442235,0.37634968749086256
2.6709773688137277,0.3407664361563905,-0.2298380987634503,0.05302647543029693,0.4144383220100245
2.6734643123601094,0.37251448500491086,-0.2331852686949567,0.06254603705171746,0.4439081186751239
2.6759512559064906,0.39947829184289596,-0.22695889008581593,0.07685412269362857,0.4658323728743106
2.6784381994528723,0.4168694673753315,-0.22552418459699775,0.06722031283289276,0.478706466558877
2.680925142999254,0.43905323541814645,-0.22409276047525806,0.057586624465290726,0.49628774732595415
2.6834120865456352,0.4564528030158221,-0.21787622583471755,0.052741461300868764,0.5085281436706652
2.685899030092017,0.45470297372316243,-0.21645139861811513,0.03831961376395654,0.5050489036474031
2.688385973638398,0.4577457774885387,-0.22939509663621083,0.03347469551661497,0.5131021948981055
2.69087291718478,0.44642761420906824,-0.23276531432592407,0.03820670693520256,0.5049129219345444
2.6933598607311615,0.4303253035357715,-0.23613886923504168,0.04772724507133752,0.49317271046648303
2.6958468042775428,0.41422726163187307,-0.23472736881942824,0.06682471361281728,0.4807771877921905
2.6983337478239244,0.3933450978529458,-0.2428960336855468,0.07155709632118779,0.4678025942842061
2.7008206913703057,0.3724672280286671,-0.23670285774704913,0.061924393555152335,0.44563966311152364
2.7033076349166874,0.3468052611820447,-0.2209362547094944,0.06186862227059642,0.4158298260710342
2.7057945784630686,0.32593601613144624,-0.22432665475036417,0.06660137949717537,0.4012386800821355
2.7082815220094503,0.30028269824894205,-0.22772045471473934,0.05696905229926408,0.3811453492868949
2.710768465555832,0.28421052934356184,-0.23111766460000016,0.047336850979093015,0.36936672473372945
2.713255409102213,0.2633543111383885,-0.22972989095462193,0.042493179193957786,0.35204685238076966
2.715742352648595,0.24729086179445064,-0.23792235348008672,0.04243803727654161,0.34577565504302143
2.718229296194976,0.2360201926690666,-0.2413298518281075,0.02322940895368042,0.3383566671003499
2.720716239741358,0.21517710499601395,-0.23995239548379343,0.01359771447136815,0.3225883389890609
2.7232031832877395,0.19912681976884294,-0.23378999380506604,0.0039661475088497156,0.3071237240603338
2.7256901268341207,0.18308094453826684,-0.23241946266364177,0.008699918342697899,0.2959951476917308
2.7281770703805024,0.15746268337357816,-0.22147560120320264,0.023010623963999777,0.272718586456333
2.7306640139268836,0.1653676767069281,-0.21532362836319408,0.018167844758073315,0.27210439910830453
2.7331509574732653,0.1732771116853934,-0.2187519563166842,0.02290200094978978,0.280003352611916
2.7356379010196465,0.1668257885777228,-0.2221837871504202,0.03721309283796259,0.2803235510720587
2.7381248445660282,0.1699557340561163,-0.23040753278705983,0.03237070079537041,0.2881326864025614
2.74061178811241,0.17787855471234804,-0.22905799174335817,0.027528438393755295,0.29131796842703145
2.743098731658791,0.17622905033954994,-0.22771197901334528,0.0274747092397849,0.289247788613093
2.745585675205173,0.16979563385458774,-0.22636950282650847,0.02263270697507025,0.2838766431234194
2.748072618751554,0.17294352465796414,-0.2154537646481649,0.013002431877737308,0.27658425598164815
2.7505595622979357,0.19524953867339478,-0.214118385742335,0.012949094182754806,0.29006334567682057
2.7530465058443174,0.19840645846553884,-0.21757497064868092,0.017684290839772743,0.2949859738294647
2.7555334493906987,0.18720269632642583,-0.2258235271047515,0.012842812153767369,0.2936086727771021
2.7580203929370803,0.1999454876353831,-0.21971044944481255,0.012789868347555355,0.2973456916676959
2.7605073364834616,0.20790442113299612,-0.22317776176427584,0.003160249718055397,0.3050287672516127
2.7629942800298433,0.19671429536694762,-0.21707185815446017,-0.006469236840258574,0.29301630778787746
2.7654812235762245,0.1951055386144166,-0.20618114918734687,-0.006521784436911204,0.283935505265682
2.767968167122606,0.19828975575762842,-0.20487085195503196,-0.001785796146336338,0.285121171236155
2.770455110668988,0.19669014820624786,-0.20356416682791956,0.002950324953065575,0.2830796510437822
2.772942054215369,0.19988353049948548,-0.1926842940566722,0.01247498241957068,0.2779141740311664
2.775428997761751,0.19350470042382018,-0.1865964503741635,0.02199977316690216,0.2697152098005324
2.777915941308132,0.18234206889635107,-0.18051223911305225,0.026736294104868108,0.2579692384403059
2.7804028848545137,0.18554925664502486,-0.17443166680774214,0.036261352100313005,0.25723494840902034
2.7828898284008954,0.18397265768573778,-0.16835473987445848,0.03620973741463196,0.2519928616008534
2.7853767719472766,0.16803547252601703,-0.15749306129133744,0.03615825690691565,0.2331252966207342
2.7878637154936583,0.16646812808741496,-0.1418466372394298,0.03610691079178352,0.22166599913380539
2.7903506590400395,0.15532861462014347,-0.14535749038437107,0.026478892639394402,0.21437562894616577
2.792837602586421,0.14898214878954485,-0.14887201339239153,0.02642781593796073,0.21226631029135362
2.7953245461328025,0.14742873715320715,-0.13802500213384494,0.04074208421095982,0.20602439461988545
2.797811489679184,0.13151477284120128,-0.1319700756054858,0.045479681056212584,0.19178278786107275
2.800298433225566,0.12518227872069565,-0.13549564272774584,0.04542900998964505,0.18998280725515704
2.802785376771947,0.11885445427150843,-0.1438133056654487,0.054955281164060565,0.19449609537063417
2.8052723203183287,0.11253130546947498,-0.13776945650790706,0.06448168812696231,0.18921312312007116
2.80775926386471,0.10142443482606556,-0.14130611711307584,0.06443142442214622,0.18548785180282795
2.8102462074110917,0.10468746131081541,-0.14005808266264186,0.054804490230333514,0.18324645487497326
2.8127331509574733,0.10316677718782319,-0.1388137615061913,0.04517769236918312,0.1787558899354767
2.8152200945038546,0.09686238786005674,-0.14236156188036153,0.045127837652696456,0.1780046578440469
2.8177070380502363,0.09535110522928825,-0.15070148858894505,0.06423173289121564,0.1895481137906131
2.8201939815966175,0.10342133773572304,-0.14946833636267032,0.06897055500864013,0.19440600333392663
2.822680925142999,0.1067078803976168,-0.13866210978150262,0.06892111080807162,0.1880528434856226
2.825167868689381,0.10521073805403847,-0.14222482991566388,0.06408340044838035,0.18815919817920804
2.827654812235762,0.11808352868572625,-0.13621448452138463,0.05924582740515483,0.18975819772863742
2.8301417557821438,0.12617264357193192,-0.12541948116630097,0.05440839183009771,0.1860372418186513
2.832628699328525,0.12947808713471876,-0.11941663062831731,0.03999428723073706,0.18062239542698047
2.8351156428749067,0.1375766702989013,-0.11341753361478535,0.030368723712628665,0.1808677321186052
2.837602586421288,0.14567999389106556,-0.11221059736447181,0.03510850805748689,0.18720706749216262
2.8400895299676696,0.14899965860106756,-0.12537263232767426,0.025483220481028468,0.1963888737329322
2.8425764735140513,0.15232407162323114,-0.1433268355650763,0.01585807107829318,0.20975386291389694
2.8450634170604325,0.1508648333756697,-0.137342790748177,0.01102146330023146,0.2043152289312876
2.847550360606814,0.1446219474617959,-0.13615092128470474,0.010973397274018026,0.1989296270092762
2.8500373041531954,0.1335954173505829,-0.1445396338737419,0.006137066482772013,0.19691903128556607
2.852524247699577,0.1273620530177635,-0.15772052846708062,0.010877681007748663,0.2030152250274376
2.855011191245959,0.1307102609854689,-0.16132839826964762,0.034772047606494993,0.21052581720512994
2.85749813479234,0.13406323768217487,-0.15057484302119173,0.034724536509742165,0.20457646121804987
2.8599850783387217,0.13263258272453726,-0.13982507563732138,0.015523551147980541,0.19334796202031154
2.862472021885103,0.13120670223827358,-0.13865590560838292,0.010687914870223025,0.1911933325108303
2.8649589654314846,0.134574002218121,-0.13749052903894965,0.020217627779967273,0.1934491150702489
2.867445908977866,0.14273448520810217,-0.13154054524981662,0.015382270055512848,0.19471174218393125
2.8699328525242476,0.14132294366147935,-0.1303827634190582,0.0009702451140469748,0.19228307459970861
2.8724197960706292,0.1399161865038362,-0.12922878266058513,-0.013441640310228209,0.19093793548675073
2.8749067396170105,0.143302619211779,-0.13286700862613676,0.0008770337948806883,0.19542275159891542
2.877393683163392,0.13711703385258966,-0.12693223358385008,0.015195847594565492,0.18746676153183678
2.8798806267097734,0.13572464228792458,-0.1353664762624356,0.024726397852331772,0.19327870076820522
2.882367570256155,0.1343370429712768,-0.14859293204692925,0.04862229793003259,0.2061320654933794
2.8848545138025368,0.13295423755011937,-0.14266958626037685,0.053364724662881,0.2021861369248292
2.887341457348918,0.12678782422586898,-0.13675005400802664,0.04853048476570798,0.19269389610136245
2.8898284008952997,0.12541461103571172,-0.13083433701369396,0.03890798162987075,0.18536525952174016
2.892315344441681,0.12883459925163454,-0.12971084022176438,0.03886242528419004,0.1869051741775348
2.8948022879880626,0.1274709833810067,-0.12859116183670238,0.04839381579341939,0.18742064964587354
2.897289231534444,0.12132376444841675,-0.12747530328442247,0.05313694325824159,0.18382857097366553
2.8997761750808255,0.11996974999626109,-0.11678645925179598,0.053091807737175145,0.17564326923494097
2.902263118627207,0.1329857474446931,-0.12046664756990033,0.053046812605966664,0.18711329863963924
2.9047500621735884,0.13164133752973578,-0.11936225608946671,0.05300195791697604,0.1854346177724595
2.90723700571997,0.12551332742884314,-0.11347328584537486,0.0433804370788895,0.1746758262724457
2.9097239492663514,0.12417852419900133,-0.10758814109616699,0.024182250137981143,0.1660731621861479
2.912210892812733,0.11806012149606404,-0.10649522600417072,0.000195800457808204,0.15899516906863578
2.9146978363591147,0.11194652281752948,-0.10540613799532794,-0.004636895319814371,0.15383100694018967
2.917184779905496,0.11541453486249942,-0.0995324744002577,-0.009469450438883698,0.15269871908231425
2.9196717234518776,0.10452214096977719,-0.10802784905625717,-0.00951346154480781,0.15061673238784593
2.922158666998259,0.09842295424344771,-0.11173864914369513,-0.009557331926567159,0.14921107944124049
2.9246456105446406,0.11148218435034396,-0.11066487503019751,-0.009601061555772006,0.15737589515542408
2.927132554091022,0.11018100763783567,-0.11438333363047404,0.01429736619460975,0.15946101760810352
2.9296194976374035,0.10409623022033121,-0.11331721848488607,0.023830724784636104,0.15570716295340004
2.932106441183785,0.10280465809708039,-0.10746652968176873,0.018999014233971323,0.14992936760409123
2.9345933847301664,0.1063062905121267,-0.11119647717818948,0.018955847840649298,0.1550000261504692
2.937080328276548,0.11460112659552474,-0.11014185091758177,0.01891282229828839,0.16006979848741276
2.9395672718229293,0.10853555208268006,-0.11387945735363125,0.028446744258602052,0.1598678020489554
2.942054215369311,0.10247477583837727,-0.11762089288822342,0.028404000448599476,0.15856399770576118
2.9445411589156927,-12.334276222876976,3.2544581836672544,0.03314980083459673,12.756448052681533
2.947028102462074,-12.254136146555346,3.485340853825429,-0.1249099707915331,12.740763559004698
2.9495150460084556,-11.810072623580886,3.591721209931107,-0.2590275849378916,12.34687701055949
2.952001989554837,-11.054758092018314,3.57838765594135,-0.36920304160740613,11.62535356774881
2.9544889331012185,-10.02649978008172,3.450128595901809,-0.4506479374853427,10.613065944004962
2.9569758766476,-8.758816512773823,3.2213092405870167,-0.49857386925982006,9.345708952831743
2.9594628201939814,-7.328322745088652,2.915871607499764,-0.5512880635044546,7.906360731497737
2.961949763740363,-5.797267722168472,2.5481809075897575,-0.5656948903502634,6.357794404451105
2.9644367072867444,-4.203958672659848,2.137390755213449,-0.5561595597747129,4.7487915534199505
2.966923650833126,-2.6058564385986034,1.6882895548529926,-0.5418356850782526,3.1518875787749367
2.9694105943795073,-1.0604218621268844,1.2296077276780468,-0.49878124968118165,1.6985913059578928
2.971897537925889,0.3988262311100962,0.7852872916231091,-0.46051507685016446,0.9938876339972013
2.9743844814722706,1.7335806120402217,0.34096303814562123,-0.42224876329202843,1.8165493524605627
2.976871425018652,2.9151108581277043,-0.08899982129054251,-0.36482869575529087,2.939199255003018
2.9793583685650336,3.924263353374405,-0.4758708651768191,-0.2978316809128785,3.9642148853356645
2.981845312111415,4.732307675037335,-0.8004964785612838,-0.23083452544034877,4.805082217979371
2.9843322556577965,5.3392438201928005,-1.0820302729713611,-0.1638372293751722,5.45024373040535
2.986819199204178,5.740283382494626,-1.3061070366095386,-0.08726298611675531,5.887646705702619
2.9893061427505594,5.945003165455814,-1.4823035741974129,-0.025053812309259627,6.127064078077632
2.991793086296941,5.953403165847931,-1.5962546737733285,0.03715550196319661,6.163799053343441
2.9942800298433223,5.775060186982582,-1.652748736575323,0.0993649566530106,6.0077260210609875
2.996766973389704,5.438704645352804,-1.6661509704011128,0.16157455171010326,5.69048975144592
2.9992539169360852,4.977855360672574,-1.6364613730069342,0.214207480441301,5.244324042409797
3.001740860482467,4.402089135956042,-1.554103135428376,0.2572637427915634,4.675447566790333
3.0042278040288486,3.7401363873998914,-1.4430182718634958,0.28595493538313477,4.01904119838981
3.00671474757523,3.0255159344240248,-1.3032067798296676,0.3050694614764158,3.3083473150159435
3.0092016911216115,2.2678045797497557,-1.1298802534452046,0.31460732100908295,2.5531440941497756
3.0116886346679927,1.5053095459239354,-0.9517691099923276,0.30499170727579283,1.8068871600883976
3.0141755782143744,0.7523960387961011,-0.7736617500738612,0.3049530401313003,1.1214493565956227
3.016662521760756,0.04737128072218588,-0.585981364254307,0.285760899584238,0.6536646611388687
3.0191494653071373,-0.5953995226380215,-0.3887279496618552,0.24262688224243867,0.7513173859246037
3.021636408853519,-1.1807047789999805,-0.19626671330915002,0.2138582145941914,1.2158617248091923
3.0241233523999003,-1.6893908795710033,-0.008597652171858705,0.18030128328170747,1.6990067734866705
3.026610295946282,-2.087939005690294,0.15033722024837726,0.13716768490580833,2.0978335360693903
3.029097239492663,-2.3859259686721193,0.29011471376724485,0.09403422602594702,2.4053381697367504
3.031584183039045,-2.597716983242722,0.4155232349548119,0.05568930987896792,2.63132939463112
3.0340711265854265,-2.7089468442975555,0.5121975771741409,0.017344533058816225,2.7569984033582196
3.036558070131808,-2.7339807667444473,0.5753493405027159,-0.011423297881906436,2.7938876477553576
3.0390450136781895,-2.6632419489795636,0.6241321416929417,-0.040190989674103506,2.7356925859368166
3.0415319572245707,-2.5350376226916262,0.658545984288851,-0.049804929129035,2.619652475587274
3.0440189007709524,-2.3397909864548545,0.6594372586257222,-0.045053519661756525,2.431359532852577
3.046505844317334,-2.077502045572311,0.6363827750326858,-0.0450903746504725,2.173253535048674
3.0489927878637153,-1.7721128220364746,0.5893825372698642,-0.06428070415525688,1.8686593157104472
3.051479731410097,-1.4427769346059862,0.5328017591293466,-0.0834708949962355,1.5402760752130913
3.0539666749564782,-1.0942827921655434,0.45227523455211305,-0.10266094727691666,1.1885061998637536
3.05645361850286,-0.7457840136463754,0.3765333874321426,-0.11227405446236993,0.8429570867885507
3.0589405620492416,-0.4068574114261264,0.29599941517205375,-0.12188702330108292,0.5176920450072272
3.061427505595623,-9.888941394640073,7.833811407816549,-0.1985375003873493,12.617415750419049
3.0639144491420045,-9.353681013142788,8.160284286541987,-0.4236283422786258,12.420187160634645
3.0664013926883857,-8.60293786960002,8.228179676689368,-0.6247770295578601,11.920730980805885
3.0688883362347674,-7.675019196645004,8.071016405817492,-0.7780415457397893,11.164791719451893
