Time (s),Acceleration x (m/s^2),Acceleration y (m/s^2),Acceleration z (m/s^2),Absolute acceleration (m/s^2)
0.0,-0.010105180655760104,-0.08276760248132886,-0.01459845445016228,0.08465049065969013
0.002486943546381497,-0.005248107872656671,-0.0781556711228153,-0.01457538168835626,0.07967617784671888
0.004973887092762994,-0.009967825987883427,-0.09269664409720058,-0.019340677218194102,0.09521600273623215
0.007460830639144491,-0.009899125851700108,-0.09766009913704954,-0.03368274454801501,0.10377868247560756
0.009947774185525988,-0.0194072182378755,-0.08825763059211367,-0.028871163944907963,0.09486618778574524
0.012434717731907486,-0.024126893999928734,-0.08843125274973085,-0.014482742239376734,0.09280055657022108
0.014921661278288981,-0.019269750633617244,-0.0838157533505437,-0.014459496223789614,0.08720940792280817
0.01740860482467048,-0.019200998917548007,-0.08398793675265148,-0.024013022769564074,0.08943867810925353
0.019895548371051976,-0.023920639670979682,-0.0841593973691972,-0.0239897087881058,0.09072214335846239
0.022382491917433474,-0.023851867074123567,-0.08433013294970726,-0.023966361113613388,0.09085631156537824
0.02486943546381497,-0.03335989191031641,-0.07971173793955533,-0.033519786581207356,0.09268451675475266
0.02735637901019647,-0.033291101722261685,-0.07509261344099194,-0.028707968784745574,0.08701347895025313
0.029843322556577963,-0.018857094015141795,-0.07047275725228719,-0.023896117881504253,0.07676603389027234
0.032330266102959464,-0.02836509617847749,-0.06585216718813713,-0.023872637389045437,0.0755710885226453
0.03481720964934096,-0.03308468911893414,-0.06123084107974419,-0.02384912418522056,0.07357032878702854
0.03730415319572246,-0.03780427698686839,-0.05182037345459811,-0.033402385109733146,0.07232035532609617
0.03979109674210395,-0.032947053973192864,-0.04240916549749629,-0.028590403761016958,0.06083959952961957
0.04227804028848545,-0.023301424231238155,-0.042574021730319433,-0.00941318033997085,0.04943795770064392
0.04476498383486695,-0.02323259855642723,-0.03794973009024005,0.00018726835002702558,0.04449686190104981
0.04725192738124844,-0.023163771144077083,-0.028536288492307715,-0.004577461214042344,0.037038266775018695
0.04973887092762994,-0.00872973287063633,-0.019122098188908865,0.0002346473657635073,0.021021844222741257
0.05222581447401144,-0.008660904496795963,-0.009707157129225319,0.0050467872442965245,0.013953860674497384
0.05471275802039294,-0.008592076901854373,-0.005079866599942751,0.009858958216117486,0.014029536245640618
0.05719970156677443,-0.013311654247765592,-0.0004518212643986885,0.005094353434259347,0.0142603197082032
0.059686645113155926,-0.018031234057253043,-0.005399825764224264,0.0146949892930337,0.02387941017349041
0.062173588659537427,-0.01317401053410916,-0.015135474797554949,0.02908405894367405,0.0353343973422407
0.06466053220591893,-0.017893597805370587,-0.01529355643942143,0.0243195455755707,0.03384544294271228
0.06714747575230041,-0.02740159339786752,-0.005874068743394023,0.009978255619415677,0.029747564430564328
0.06963441929868192,-0.022544384878837087,-0.006030623061975771,0.005213802145625834,0.023912369955621394
0.07212136284506342,-0.017687183059034328,-0.006186410843560086,-0.01870423497940088,0.026475583654638327
0.07460830639144492,-0.017618392109908176,-0.0015530268746983822,-0.033045436046398535,0.037480934840377525
0.0770952499378264,-0.027126416204213022,-0.0017072759208023314,-0.03780980126887812,0.04656541977847939
0.0795821934842079,-0.03184604623474602,-0.001860752804350163,-0.03778573418153641,0.04945093294794556
0.0820691370305894,-0.03177728305652211,0.002774947634099245,-0.03297323499965721,0.045877339495320996
0.0845560805769709,-0.026920127525823456,-0.002165382745420885,-0.037737513900356845,0.0464058412683187
0.0870430241233524,-0.022062983820499482,-0.01668174214017526,-0.042501764460070035,0.050709523347337755
0.0895299676697339,-0.021994256119640843,-0.016832112164180124,-0.0424775835764315,0.050709095916379954
0.0920169112161154,-0.02671394528325427,-0.01219329769202826,-0.023299761507336925,0.037485867570351154
0.09450385476249688,-0.026645245531937256,0.002023106344156478,-0.013698718394369536,0.03002860227158811
0.09699079830887838,-0.021788157728115598,0.0018750850718376455,-0.008886051137801942,0.02360511948784634
0.09947774185525989,-0.026507892696341018,-0.007848956478262004,-0.008861759959090776,0.029031108876013074
0.10196468540164137,-0.026439241340468045,-0.017572209973797825,0.0007393648803724062,0.03175472730868716
0.10445162894802287,-0.02637060784676415,-0.02250627042150022,0.005552113196451103,0.035110783634657326
0.10693857249440437,-0.026301993082335162,-0.022651136167246122,0.005576484765065004,0.035156307998783574
0.10942551604078588,-0.0214449945951124,-0.02758361221644723,0.01996609264251603,0.04024162411609737
0.11191245958716736,-0.021376419895088483,-0.027726890312245622,0.019990516681115622,0.04031566111446514
0.11439940313354886,-0.026096269852742104,-0.03744617881839707,0.005649756654175775,0.045990774711651784
0.11688634667993036,-0.02602773869902547,-0.051953072836526726,0.0008858289356989957,0.058114969257890184
0.11937329022631185,-0.021170827306600526,-0.0616707641671419,-0.0038780733433529946,0.06531865380319439
0.12186023377269335,-0.03067914983044917,-0.0665992512706346,-0.0038535470919551784,0.07342697276422466
0.12434717731907485,-0.03539909386411266,-0.07631533926735168,0.0009594074597405466,0.08413113167291317
0.12683412086545634,-0.025753853642802582,-0.08124222001578696,-0.00859282320052479,0.08565860085889745
0.12932106441183785,-0.025685446644947874,-0.08137989203452456,-0.027721835984314325,0.08972697023327246
0.13180800795821934,-0.0351938737484328,-0.09588196714292962,-0.04685082448372846,0.11236974738524419
0.13429495150460083,-0.030337119230585408,-0.10080642729715494,-0.0468261756511108,0.1152170443716381
0.13678189505098234,-0.03505720057284861,-0.0961532710745816,-0.03722469636152681,0.10890425551627804
0.13926883859736383,-0.03498890869514337,-0.09149930371294346,-0.027623193490887488,0.10178107451911458
0.14175578214374532,-0.02534384115898025,-0.09642133046976831,-0.018021667275339937,0.10131220926243267
0.14424272569012683,-0.025275612128382474,-0.0965541400208787,-0.01320852127219041,0.10067782058543874
0.14672966923650832,-0.025207415846435766,-0.09668613434326989,-0.017972159039606694,0.10152152918689164
0.14921661278288983,-0.02992765651808632,-0.10160571543391894,-0.013158967535034094,0.1067358630456097
0.15170355632927132,-0.02028272174762824,-0.10173607534891005,-0.00834575363864154,0.10407338484304099
0.1541904998756528,-0.015426225702750651,-0.10665401944568309,-0.00832092091112635,0.10808462438368174
0.15667744342203432,-0.015358169270775324,-0.10678273982059316,-0.017872872914024285,0.10935203003668081
0.1591643869684158,-0.010501746699267733,-0.10691063855115779,-0.027424803248768725,0.11087060544790744
0.1616513305147973,-0.02479897547883614,-0.10703771441486687,-0.03218830883795398,0.11449082372751986
0.1641382740611788,-0.02951943657749212,-0.10716396620955226,-0.036951793245627584,0.11713644955214517
0.1666252176075603,-0.01029792092501225,-0.09292418279250692,-0.03692685339603585,0.1005213580527311
0.1691121611539418,-0.0006532526551115692,-0.09304878292429253,-0.027325086214256444,0.09698022004171815
0.1715991047003233,-0.0005854326601166804,-0.09796095882348377,-0.017723298587137393,0.09955303861673254
0.1740860482467048,-0.0053060585128274496,-0.08850709608859697,-0.003333087441399485,0.08872863002926226
0.1765729917930863,-0.005238324466502742,-0.079052403580961,0.0014803370141596162,0.07923959838880423
0.1790599353394678,-0.00038223141578497266,-0.07917368686226434,0.011082184491801428,0.07994644210550853
0.18154687888584928,-0.0003145868964568588,-0.07929413823333853,0.015895648101386328,0.0808723126394091
0.1840338224322308,6.789708919718098,10.009752039240658,-0.5922064940870175,12.109747793955945
0.18652076597861228,6.114611602961463,9.77021308876483,-0.4628945059964753,11.53515540331487
0.18900770952499377,5.338957768576491,9.252947580670503,-0.33358249920702043,10.68797390851309
0.19149465307137528,4.4866894322664965,8.52020475909648,-0.1946936673307622,9.631312310513083
0.19398159661775677,3.5961138196951232,7.605503448238777,-0.07017002722281696,8.413123150061137
0.19646854016413826,2.686384543244038,6.561516085553559,0.03998842086247656,7.090257705398419
0.19895548371051977,1.786232021934917,5.421761495194687,0.15014688663090503,5.71039986643023
0.20144242725690126,0.9148098681482086,4.2389121145762,0.2459401598655706,4.343470913013799
0.20392937080328274,0.07690648430274977,3.051275171129937,0.31300303034879384,3.068251240411932
0.20641631434966426,-0.6891709039410004,1.9067346989072065,0.3704891111042734,2.0610327334378864
0.20890325789604575,-1.3834222974856805,0.8196559086958528,0.4183984018736666,1.6615505663478982
0.21139020144242726,-2.0010592939141896,-0.1812307787766425,0.4327888857962865,2.05533187407901
0.21387714498880875,-2.5277166841693646,-1.071983346124459,0.4328141758934638,2.7795373788907205
0.21636408853519024,-2.949029259194583,-1.8430249859440977,0.42326267522481054,3.5032364982453665
0.21885103208157175,-3.2793622298556433,-2.4799904875332057,0.4041343835288398,4.131330784724119
0.22133797562795324,-3.499561983776652,-2.9685146402108558,0.37542930054329027,4.604341473777481
0.22382491917433472,-3.609628521863489,-3.3085974432786136,0.34193582932542554,4.9084778922693175
0.22631186272071624,-3.638292264944389,-3.5241809126611363,0.30365396961142643,5.074369659729179
0.22879880626709773,-3.580764810605877,-3.6152650477031134,0.2605837211367028,5.095088013934459
0.2312857498134792,-3.432257756434942,-3.5770614444505524,0.2127250836358936,4.961956654908464
0.23377269335986073,-3.211924716620578,-3.447877328853932,0.16965486348349934,4.715198960040468
0.23625963690624222,-2.938919305352226,-3.232501103643256,0.12658465709232303,4.370621665602967
0.2387465804526237,-2.622818330179116,-2.935721171570262,0.07872606087440204,3.9374906454479657
0.24123352399900522,-2.258833388689937,-2.586267952010011,0.03565588120195606,3.434003718594202
0.2437204675453867,-1.8709064983956742,-2.1985066543984626,-0.012202688834795694,2.8868445647087206
0.24620741109176822,-1.4686144668467223,-1.7772256815527587,-0.055272842865134564,2.306168827852927
0.2486943546381497,-1.0567456982735655,-1.3511554529135175,-0.09834298448003054,1.7181396542056928
0.2511812981845312,-0.6544538068679486,-0.939449581302606,-0.12704790398995236,1.1519620093743683
0.2536682417309127,-0.2713156001813483,-0.5421080662826023,-0.15575281162797694,0.6259011493522341
0.2561551852772942,0.07830371091412192,-0.1591309074380507,-0.1844577076669971,0.255888184101461
0.2586421288236757,0.4183461421085355,0.18553987902294233,-0.17485536581813932,0.48991115549693126
0.26112907237005717,0.7296580792088581,0.472750680190555,-0.1604646095979465,0.8841057680553916
0.2636160159164387,0.9930859080217438,0.7216551096953805,-0.1556506492424603,1.2374299344489863
0.2661029594628202,1.2038412243145449,0.9226763612240849,-0.16041348502748853,1.5252205896523705
0.26858990300920166,1.3762892371355808,1.080602838402128,-0.16517631058896143,1.7576000034700032
0.2710768465555832,1.5056415422516662,1.181069331551575,-0.1651507228838156,1.9207175692836016
0.2735637901019647,1.5918981387497098,1.2240758409332706,-0.16033672219002604,2.0144997426145097
0.27605073364834615,1.6206938157554476,1.2287759800671,-0.14594590546598063,2.0390779928536573
0.27853767719472766,1.6111821856365958,1.1951697491694815,-0.12197827299106656,2.009780451622625
0.2810246207411092,1.5681516507997388,1.1136803417939576,-0.07406861508447449,1.9248037986622908
0.28351156428749064,1.4868138070106451,1.0130381780342925,-0.030947351948881874,1.7993941717881536
0.28599850783387215,1.371957056675546,0.9028200646807174,-0.01655650046738799,1.642444626847325
0.28848545138025367,1.2379466088411322,0.7734491952198863,-0.002165641000342333,1.4597055024656485
0.2909723949266352,1.099147672553949,0.624925569756742,0.012225226169322312,1.264439413325701
0.29345933847301664,0.936406633618222,0.47640280165511495,0.01703929411735494,1.0507651262071231
0.29594628201939815,0.7545118944396181,0.34703450425645466,0.03143017584068808,0.831089045739842
0.29843322556577967,0.5774054707049451,0.20330185435637516,0.03624425777306506,0.6132229348338664
0.30092016911216113,0.38114534489779334,0.05957006193118941,0.031481539628801514,0.3870548456654992
0.30340711265854264,0.20403874266573074,-0.06500725974491406,0.04108403772308655,0.2180496514186322
0.30589405620492416,0.04129725977344395,-0.1800069173420784,0.03632133184699349,0.18822112820545037
0.3083809997513056,-0.12623271797537094,-0.2758521042716713,0.03634703499403891,0.3055326324165987
0.31086794329768713,-0.26982077157395123,-0.35254282060818376,0.050737953516446055,0.44683781068993417
0.31335488684406865,-0.3846784986171101,-0.41965587308922947,0.05555207052357858,0.5719918108295381
0.3158418303904501,-0.49953631994187647,-0.4724028585140152,0.046000982405391966,0.6890697251044676
0.3183287739368316,-0.5904522198618538,-0.5155721803449134,0.03166149551211639,0.7845068179330646
0.32081571748321314,-0.6622146026125086,-0.5252218221449718,0.0316872228339502,0.8458074381686742
0.3233026610295946,-0.7148234691089745,-0.520505397382617,0.026924550797934543,0.8846600432533933
0.3257896045759761,-0.7530672235866741,-0.515788116228542,0.022161882432019553,0.9130382101073649
0.3282765481223576,-0.7625806569997323,-0.501493172274472,0.03176442740413421,0.9132544218980652
0.3307634916687391,-0.7481521735834696,-0.472832162455048,0.04136697545967394,0.8860096812948876
0.3332504352151206,-0.7145701775731386,-0.43459349036815187,0.0366043163434,0.8371510715051659
0.3357373787615021,-0.6666230732039118,-0.3915655596342895,0.02705325640098799,0.773590193772801
0.3382243223078836,-0.6090992647108693,-0.3437483705762898,0.027079005297794723,0.6999272312698612
0.3407112658542651,-0.5563639629696122,-0.27198831025837444,0.012739546136046442,0.6194197254238925
0.3431982094006466,-0.4844751522931241,-0.21938100893148205,-0.01117671806078846,0.5319484178901664
0.34568515294702806,-0.40300964023644553,-0.1763496603457715,-0.025516174308931383,0.44064390155650857
0.3481720964934096,-0.32633263767479576,-0.10937544167251456,-0.03506722622678993,0.345956193770379
0.3506590400397911,-0.2448673388816679,-0.05197717659002388,-0.04461827743337743,0.2542684235574326
0.3531459835861726,-0.16340214809133047,-0.018520075518047907,-0.0493809249077124,0.17170244885497826
0.35563292713255407,-0.07714866289726158,0.010149474343160936,-0.04935516894970249,0.0921458665287351
0.3581198706789356,-0.0004720941739828066,0.038819875809726234,-0.04932941318018891,0.06277417172287876
0.3606068142253171,0.05705075052449482,0.04833751507351014,-0.054092061220607945,0.09228897326324507
0.36309375777169856,0.11936188688654881,0.04827919822554794,-0.05406630673205726,0.13964707854467964
0.36558070131808007,0.1768845073586086,0.05779853797479717,-0.04446374669653075,0.19132648720398068
0.3680676448644616,0.22004180438733484,0.05774192044501181,-0.04443799469818366,0.2317914157761413
0.37055458841084304,0.2584105837008842,0.052897748338799566,-0.04441224439986691,0.2674820536046861
0.37304153195722456,0.2967792477073672,0.04326602101574606,-0.03002128614470756,0.3014152419272592
0.3755284755036061,0.31120577889328904,0.02884673781273106,-0.029995540159225342,0.3139759601123291
0.37801541904998753,0.31605538630794,0.019216704684544172,-0.02518139346740078,0.31763877523084966
0.38050236259636905,0.31611647236028095,0.009587517602327011,-0.0107904430547201,0.3164458535873086
0.38298930614275056,0.3257542461002048,0.0047475791551390145,-0.010764705829117815,0.3259666351817844
0.385476249689132,0.32102669001542566,-9.151473129298537e-05,-0.025104182097527072,0.32200677638210046
0.38796319323551354,0.2875685932346127,0.00464704180699016,-0.03944366220650153,0.29029828332380925
0.39045013678189505,0.2636871814102173,0.009386441329997997,-0.03941793650314551,0.26678232445023853
0.3929370803282765,0.2350172436716081,-0.009815333585896813,-0.039392215256985,0.23849778241999461
0.395424023874658,0.19677037578914314,-0.02901626718389272,-0.029789692136537482,0.201116757897191
0.39791096742103954,0.16810019013512273,-0.03385115037050568,-0.024975577412433836,0.1732840263035098
0.400397910967421,0.1298530725197391,-0.053050403957745296,-0.010584661433968634,0.14067054013036392
0.4028848545138025,0.0868174253551437,-0.0674604155771803,-0.0009821544728509934,0.1099506145619494
0.40537179806018403,0.04857005437421569,-0.07708118616429971,-0.0009564601607010559,0.09111242647657182
0.4078587416065655,0.005534152029011252,-0.07712431335694481,0.018222841112519816,0.07944091192623966
0.410345685152947,-0.0375018792670454,-0.08195500809686518,0.03740213575320617,0.09758039792713775
0.4128326286993285,-0.06617283045945421,-0.08678486806721031,0.0470046168078504,0.1188271468045565
0.41531957224571003,-0.09005550909481941,-0.10119070093470794,0.03266507400211616,0.13934331607058992
0.4178065157920915,-0.11393831939896026,-0.10601889446684076,0.02311392694395842,0.15734103161668048
0.420293459338473,-0.13303285895659223,-0.09169264309433922,0.01356277199864131,0.16213954219769328
0.4227804028848545,-0.14255072535193603,-0.09173077115335815,0.004011608851225645,0.16956219118756424
0.425267346431236,-0.16164553277026672,-0.08697966647921573,0.0040372438269074,0.18360566435471667
0.4277542899776175,-0.1759520721541607,-0.07265092689075825,0.013639676609757956,0.19084897078959595
0.430241233523999,-0.17589353776597477,-0.053532956870033566,0.018453696922419383,0.1847832596021181
0.43272817707038047,-0.1662583338284666,-0.05356777420290326,-0.0006743088332612501,0.1746762568092003
0.435215120616762,-0.14704646124352982,-0.058390170135278474,-0.010225517732495248,0.15854537188315923
0.4377020641631435,-0.13741153419374486,-0.05363493593560964,-0.01977673673377467,0.1488279389030591
0.44018900770952496,-0.13735355357986961,-0.04409047617612005,-0.019751159514825645,0.14560246245388575
0.4426759512559065,-0.13250731034113944,-0.044122002092162216,-0.014937189714785859,0.14045660539483115
0.445162894802288,-0.11329599873650553,-0.05372951498064449,-0.01970003761389094,0.12692886035786455
0.44764983834866945,-0.09887323294618705,-0.07770141948126463,-0.019674493570970952,0.12728123380887144
0.45013678189505096,-0.09402741718884644,-0.08251889369367893,-0.010072154585943238,0.125506857572155
0.4526237254414325,-0.06523972912001824,-0.08254714894310622,-0.014835037581061528,0.10625597580522343
0.45511066898781394,-0.03645218623834212,-0.09215139657719051,-0.029174739557152662,0.10330443940561851
0.45759761253419545,-0.02202999940118394,-0.1017548313644161,-0.024360840913935533,0.10692435246308953
0.46008455608057697,-0.012396362863680954,-0.09220384145502925,-0.0099701486140642,0.09356613732915742
0.4625714996269584,0.0020255291197029957,-0.09222884822476729,0.009208933699673238,0.09270958781575347
0.46505844317333994,0.021235675654566966,-0.09225304650921551,0.01402279242310911,0.09569857479648824
0.46754538671972146,0.04523407584720496,-0.10185324444753263,-0.009893782728045863,0.11188427931979232
0.4700323302661029,0.05965551884368364,-0.10666423359961952,-0.019445162194761778,0.12375036965877673
0.47251927381248443,0.07407681039235192,-0.10189761218828375,-0.033784959582490615,0.13042975389675798
0.47500621735886595,0.07413273964072592,-0.1067069950601569,-0.03854796525492077,0.1355285634348073
0.4774931609052474,0.05982330569800265,-0.10193877052160305,-0.028945776216781738,0.12168894280453228
0.4799801044516289,0.06466733091631743,-0.08759294018245223,-0.02413200607477073,0.11152013528883442
0.48246704799801043,0.06951120112513348,-0.08761152227628743,-0.014529848514117205,0.11277722471878071
0.48495399154439195,0.06956651211562587,-0.08762930849635442,-0.009716110501702957,0.11230671448655274
0.4874409350907734,0.06962166632038097,-0.07806949387835083,-0.014479195684506507,0.10560146496767249
0.4899278786371549,0.06009985621184488,-0.06850888676133682,0.004699718852611667,0.09125539786366445
0.49241482218353644,0.050577887544521916,-0.07331269882676938,0.009513406219710419,0.08957331865925323
0.4949017657299179,0.04584416275342368,-0.06375051189535075,-3.813391103513197e-05,0.07852271314515837
0.4973887092762994,0.04589868095407895,-0.04461073105200253,-1.2885266260198591e-05,0.06400629972392186
0.4998756528226809,0.041164634622233076,-0.03983537468490095,0.009589151825458941,0.05808042744849679
0.5023625963690624,0.0316420228751107,-0.03505923464169758,0.009614363753922106,0.04819547214919019
0.5048495399154439,0.026907651471422656,-0.03507071607324086,0.014427960150751318,0.04649884802561346
0.5073364834618254,0.017384712889505827,-0.025504610871045497,0.03360674732688196,0.04563032855269497
0.5098234270082069,0.007861609569520034,-0.020726130870386772,0.033631901710073464,0.04028004739962468
0.5123103705545884,0.0031267439525216045,-0.01594687464714717,0.024080229610540016,0.029050590301279315
0.5147973141009698,-0.015973498121087892,-0.015955247439656706,0.014528537338151182,0.026847736594937072
0.5172842576473514,-0.03028550424748777,-0.01596284786741231,0.004976824561795823,0.03459469702543504
0.5197712011937329,-0.035020871982865076,-0.006392871251358123,-0.009363312370290089,0.036810350389806026
0.5222581447401143,-0.039756408843403646,-0.006398932856039874,-0.01412666382895722,0.04267412584642289
0.5247450882864959,-0.044492115703710644,-0.015981034686446627,0.00026357649430153174,0.047275906146896154
0.5272320318328774,-0.054016396757742724,-0.015985565487975695,0.00028858502484041537,0.05633287409654154
0.5297189753792588,-0.05396404291723267,-0.011200930629209793,-0.004474831929488943,0.05529559562687135
0.5322059189256404,-0.044335055053865924,-0.02556914878156702,-0.009238271381468266,0.052006962362369215
0.5346928624720219,-0.049071450639894265,-0.039936608755206215,-0.03315534694575639,0.07142980482868108
0.5371798060184033,-0.04423121394343754,-0.05909171598336593,-0.03791883239358107,0.08298234170509665
0.5396667495647849,-0.053756362434722704,-0.05909245599888813,-0.018740324738679703,0.08205403481551024
0.5421536931111663,-0.048916477059509855,-0.054304040918555785,-0.004350244237276257,0.07321663207852223
0.5446406366575478,-0.048865171965644216,-0.07345689284149204,0.00046300545565358675,0.08822660886155827
0.5471275802039294,-0.044025641378045044,-0.0830321907241216,-0.01866578595578261,0.09581760464832248
0.5496145237503108,-0.03439788616119471,-0.0878183401066952,-0.023429392244334935,0.09718133489715299
0.5521014672966923,-0.03913552045975266,-0.09260374655075099,-0.023404620386170194,0.10322218314060295
0.5545884108430739,-0.0390849318547945,-0.09260000899844556,-0.028168277357739413,0.10438316633398637
0.5570753543894553,-0.029457717887238388,-0.09259553305376489,-0.042508766815466004,0.10605981869118321
0.5595622979358368,-0.015042282737521229,-0.09259032102154485,-0.047272475814500226,0.10504249038584704
0.5620492414822184,-0.024569047186525528,-0.09737277854805404,-0.04245940469149545,0.10903163361418683
0.5645361850285998,-0.02451918884994314,-0.10215450466001741,-0.04243476374434607,0.11330243871263831
0.5670231285749813,-0.019681111904826798,-0.11172390504581431,-0.02325653670868988,0.11580346982789025
0.5695100721213628,-0.010054817206766709,-0.12129257877419342,-0.008866740523538752,0.12203117676342866
0.5719970156677443,-0.014793918891441715,-0.12607212493484887,0.0007346244733970053,0.12693927837699256
0.5744839592141259,-0.019533207851170575,-0.1308509492790022,0.010335961264477334,0.13270399101546954
0.5769709027605073,-0.009907474977090547,-0.12605224761779787,0.0007836562302525607,0.12644343125290264
0.5794578463068888,-0.005070334401329091,-0.13082963570506445,0.0008081289541639336,0.13093034385530244
0.5819447898532704,-0.014598593614185362,-0.1308179060732102,0.0008325724569271387,0.13163258206761505
0.5844317333996518,-0.019338640182865796,-0.12122865791598736,-0.003931416920663011,0.1228243727573559
0.5869186769460333,-0.00971366831397591,-0.11163870040875468,0.0008813704432046876,0.11206396207045231
0.5894056204924149,0.009487917826180803,-0.09725963278655803,-0.003882679072065187,0.09779842509585278
0.5918925640387963,0.014324100791299477,-0.10203347422689601,0.005718450795525243,0.10319258890923709
0.5943795075851778,0.009583283058212544,-0.10201821072466277,0.015319549745282046,0.10360619304864788
0.5968664511315593,0.01441907706596135,-0.10679065153741796,0.015343810796615287,0.10884661487149101
0.5993533946779408,0.024043078653306182,-0.1019855893415822,0.024944846890605277,0.10770968132380047
0.6018403382243223,0.014513270379053922,-0.08760302679488996,0.03454585104626062,0.09528032926702217
0.6043272817707038,0.004983264686126976,-0.08279657985664812,0.024993209641760217,0.08663005881959959
0.6068142253170853,0.005029867378139541,-0.07320104126424898,0.005863728976985172,0.07360757654975124
0.6093011688634667,0.009864674299096265,-0.06839322037686246,-0.013265784648380574,0.0703628128693171
0.6117881124098483,0.009910877974027898,-0.07794992657382815,-0.027606928255133667,0.08328600748484327
0.6142750559562298,0.005168477569940155,-0.0779291460124103,-0.03237129886425372,0.08454327855467501
0.6167619995026112,0.0004258755755125465,-0.06833088147149402,-0.022770493496885535,0.07202628760923951
0.6192489430489928,0.000471474480796763,-0.06352034571090437,0.00119548750534193,0.06353334398403943
0.6217358865953743,-0.009059936504022426,-0.06349754154947673,-0.003568986082175485,0.06423984662138606
0.6242228301417557,-0.009014744925177676,-0.0634740685056272,0.001243311961111715,0.06412307559183134
0.6267097736881373,-0.004181354929058301,-0.05866152611760711,0.0012671713321736888,0.058824009542656513
0.6291967172345188,0.0006518293393635854,-0.05863672390438701,-0.00349740831123313,0.05874454984611295
0.6316836607809002,-0.008880402904080487,-0.05861126144372175,-0.0034736206708707584,0.05938187909057952
0.6341706043272818,-0.013624439199931171,-0.06816194829396727,0.010915340551369113,0.07036207215605898
0.6366575478736632,-0.013580280368528208,-0.06813517411121106,0.010939055090959826,0.07033127961537408
0.6391444914200447,-0.008747927228748897,-0.05853094185233498,0.015751135886374,0.06124129053695655
0.6416314349664263,-0.023069397199558583,-0.0585028677749575,0.025351582594703714,0.06780475916262255
0.6441183785128077,-0.018237464534375303,-0.058474148234248347,0.025375184911981208,0.06630031020802757
0.6466053220591892,-0.008617340008557739,-0.06323318956568036,0.025398749135684184,0.06868617960790785
0.6490922656055708,-0.008574234395956448,-0.058414784842777845,0.030210678242863054,0.06632111024099815
0.6515792091519522,-0.013319745187652554,-0.053595743759871084,0.030234165249520828,0.0629604964193667
0.6540661526983337,-0.01806546987319635,-0.04877606938984247,0.01589240317156282,0.05438781688420296
0.6565530962447153,-0.013234602620283031,-0.05353257146531387,-0.008026205014271426,0.0557253163394956
0.6590400397910967,-0.0036155475559911943,-0.05828844645671216,-0.017579643050085636,0.060989007404900916
0.6615269833374782,0.006003291194166538,-0.05825529417376529,-0.017556314599948664,0.06113871921103893
0.6640139268838597,0.006045106185941895,-0.053433117765437466,-0.027109833288955443,0.06022112954677435
0.6665008704302412,-0.003490103382699561,-0.05818713036048617,-0.01750977953916255,0.06086472985827028
0.6689878139766227,-0.0034487250309419015,-0.05336372186427596,-0.027063380257066783,0.059933355207976144
0.6714747575230042,0.006169240442392754,-0.04375129880245776,-0.03182861918518398,0.0544545376784475
0.6739617010693857,0.015786985599480774,-0.04850347768027996,-0.027017093347337706,0.05772122308422084
0.6764486446157671,0.0062508963635093395,-0.04367824513876961,-0.017417206408046226,0.04743650369504768
0.6789355881621487,0.0015029885421243838,-0.03406400775935392,-0.01739416867250121,0.038277574413676005
0.6814225317085302,0.011120067983693471,-0.02444917214191289,-0.012582770524071307,0.02966047950469263
0.6839094752549116,0.020736923936692297,-0.024410548225024087,-0.022136625588354164,0.03893488245059133
0.6863964188012932,0.02077674897159154,-0.010006122723392519,-0.01732531428787354,0.028843756776080975
0.6888833623476747,0.025604752262119057,-0.0003895122527795003,-0.0077256436076798,0.026747721909584004
0.6913703058940561,0.020855723061833698,-0.0003491234861829895,-0.002914420532853512,0.021061265837618227
0.6938572494404377,0.01131806390726231,0.004480250166546629,-0.0028916454078782294,0.012511307898402074
0.6963441929868192,0.011356983977286739,-0.00505500796465741,0.0019194880633719436,0.012578498519637585
0.6988311365332006,0.016184079171280785,-0.019378094645943644,-0.012423037065182996,0.028138351420300814
0.7013180800795822,0.011434138749747247,-0.00975859338009366,-0.021977204536501205,0.02662643785686866
0.7038050236259636,0.001895565256204712,-0.004926927531448744,-0.017166208054497645,0.017959579101721117
0.7062919671723452,0.01151037451719944,-0.019248310521149392,0.0020099520362997225,0.022517239764966977
0.7087789107187267,0.006759742517318923,-0.02878072922549535,0.006820855469481302,0.030340543221690747
0.7112658542651081,-0.0027795248742369383,-0.028735783819625382,0.01642011518177533,0.033212816996417434
0.7137527978114897,-0.007530621786452807,-0.0334786877774369,0.040384537469291715,0.052994751309901694
0.7162397413578712,-0.017070355627735734,-0.043009444629319216,0.030830088784410847,0.055603091128412094
0.7187266849042526,-0.012245113882781822,-0.04775125128239388,0.02127559202484619,0.05369148562895534
0.7212136284506342,-0.012208510596934508,-0.05249251462199389,0.016509450166468653,0.05636553705177319
0.7237005719970157,-0.016960546532423404,-0.06202164155064871,-0.00741035373668808,0.06472447374694135
0.7261875155433971,-0.016924415808979076,-0.05718502238644563,-0.021753400107121124,0.06348049347661064
0.7286744590897787,-0.02167692582569314,-0.06192467734732121,-0.02173128596884233,0.06911442373110002
0.7311614026361601,-0.026429674018818683,-0.06187540010567094,-0.01213241498644102,0.06836876699474038
0.7336483461825416,-0.026394257822697442,-0.06661400095232972,-0.021687207426014155,0.07486265380566584
0.7361352897289232,-0.016782274669745023,-0.08092888687461519,-0.03124205035047467,0.08835833398133208
0.7386222332753046,-0.021535741912313444,-0.08087804495468198,-0.016854927502356176,0.08537643068502582
0.7411091768216861,-0.03107785365861826,-0.08561509217412944,-0.02162146910849394,0.09361231181004308
0.7435961203680677,-0.026254997374286493,-0.09992843557016773,-0.021599658911274133,0.10555359959616886
0.7460830639144491,-0.02622078708546982,-0.10466446559490583,-0.026366303895191123,0.11107367831643256
0.7485700074608306,-0.030975223535081975,-0.10939999263870526,-0.050286614364969395,0.12432444026291938
0.7510569510072121,-0.030941500823411183,-0.11413502046759838,-0.05984176742210856,0.13253383152443
0.7535438945535936,-0.035696426329982045,-0.11408114954351278,-0.04545495676959099,0.12788626442595993
0.7560308380999751,-0.03566319415104291,-0.11881519030543553,-0.02627979603216346,0.12680512822383783
0.7585177816463566,-0.030841805021427637,-0.13791395320838706,-0.007104688873551979,0.14149894710044633
0.7610047251927381,-0.03080906631454261,-0.1426470221608347,0.016858767683258336,0.1469067375797503
0.7634916687391196,-0.021199768800166496,-0.14259120764960498,0.031245363334143406,0.1475057809919188
0.7659786122855011,-0.011590719847562103,-0.1425349168569836,0.04563190437666442,0.15010935349621937
0.7684655558318826,-0.006770323503588305,-0.13768975034031383,0.03607637386631879,0.14249845395815214
0.770952499378264,-0.01152698381299977,-0.13284411531315854,0.03130919138216548,0.1369696893263834
0.7734394429246456,-0.006707088216871382,-0.12320961236395478,0.026541953261212115,0.1262143767331807
0.7759263864710271,0.002900959244290069,-0.10878624541686355,0.012197852520298369,0.1095063941628161
0.7784133300174085,0.007720351211808751,-0.08957401841136603,0.01221890541858528,0.09073263055164746
0.7809002735637901,0.012539490290103372,-0.07036133862248173,-0.002125308308043472,0.07150156449258557
0.7833872171101716,0.017358375765450518,-0.07030182330130064,-0.006892772400110658,0.07274042809924619
0.785874160656553,0.022177006926309972,-0.07024186315145364,0.002704916120778833,0.07370926364045154
0.7883611042029346,0.017418576422713716,-0.05581625221183062,-0.016427872969940083,0.06073496378434001
0.790848047749316,5.447497658742842,8.448448882456015,-0.6436879417716561,10.073026031330567
0.7933349912956975,4.781939057869286,8.324011666705465,-0.5048035376960804,9.613060802486114
0.7958219348420791,4.039765746732186,7.897905470515857,-0.3754959989750528,8.879054868336
0.7983088783884605,3.264073354513938,7.246744742953534,-0.24618851930898344,7.951735220705737
0.800795821934842,2.469227090477322,6.389683093226622,-0.12645790567933268,6.851359285435411
0.8032827654812236,1.6983225838092766,5.3793929537710605,-0.011515755106433545,5.641125841742411
0.805769709027605,0.9753018504177792,4.287700370289777,0.08427272210834147,4.39803252108292
0.8082566525739865,0.2953764862912399,3.162489371869959,0.17048433226539395,3.1808255537505015
0.8107435961203681,-0.32229989597804953,2.046855584264414,0.2423306717044067,2.0861972965735016
0.8132305396667495,-0.8489968771548388,0.9695294232510383,0.29981174008558753,1.3231288975233317
0.815717483213131,-1.2847144579234047,-0.0263934854452037,0.3333507304287533,1.3275204570735462
0.8182044267595125,-1.6294526389656627,-0.9217595327146781,0.34773604571488903,1.9041210298381694
0.820691370305894,-1.8879998242814642,-1.697415109461418,0.3621212988861604,2.564545422764385
0.8231783138522755,-2.055567611227647,-2.315052993321773,0.35735287632247115,3.116493164509138
0.825665257398657,-2.146521210439894,-2.7794615918283654,0.32385397104458846,3.526732402930334
0.8281522009450385,-2.160860622590534,-3.0954293125271755,0.29035500263603176,3.786199583575935
0.8306391444914201,-2.108162654990083,-3.277321369618063,0.2664327773993307,3.905914945889474
0.8331260880378015,-1.9932157116263207,-3.3203493640327792,0.24729889167634056,3.8805651024214565
0.835613031584183,-1.8160197931642221,-3.2293017033567564,0.22337653848888017,3.711632317244577
0.8380999751305646,-1.6100937235084882,-3.032908811789909,0.17551210421840935,3.4382760444503986
0.840586918676946,-1.389802713280115,-2.7551127102247226,0.1515896217310484,3.089526993133277
0.8430738622233275,-1.1551467631366028,-2.4198554195663364,0.13245547740881136,2.6846990053793993
0.845560805769709,-0.8965490670923366,-2.0223485408106665,0.09416765431370422,2.214172847214534
0.8480477493160905,-0.6427400457217087,-1.6056877081693277,0.051091362070526,1.7303057850618873
0.850534692862472,-0.40808490963556177,-1.17944973262404,0.017591810304365296,1.2481764446779826
0.8530216364088535,-0.1782184495203425,-0.7579998284891916,0.003245805320322148,0.7786758574601219
0.855508579955235,0.022917317377550983,-0.3604916134117193,-0.02546547645899544,0.3621158616620536
0.8579955235016165,0.20011079373623447,0.017863311551030048,-0.06375363204816509,0.21077939479144484
0.860482467047998,0.35815038223639317,0.3435461187671818,-0.07809983853955416,0.5023895070520219
0.8629694105943795,0.47309406563943923,0.6165568038351616,-0.08286930622834099,0.7815546105125671
0.8654563541407609,0.5736722632328807,0.8368953623417208,-0.10679245537028237,1.0202442558700489
0.8679432976871425,0.6455197644240358,0.9997733865416207,-0.125927269697371,1.1967039182489536
0.870430241233524,0.6790597619431902,1.1147676786390242,-0.12112013626155438,1.3109154149054005
0.8729171847799054,0.6934458684451833,1.1627246209048394,-0.12110147531756077,1.359213479864766
0.875404128326287,0.6982548899469057,1.172374628801776,-0.13544809383850342,1.3712652360930586
0.8778910718726685,0.6647564059054532,1.1437176978594912,-0.13064116891432143,1.3293074763216561
0.8803780154190499,0.6168924323040618,1.0528118069949963,-0.11146910419707545,1.2253139741195271
0.8828649589654315,0.5594513718474488,0.9427525815987194,-0.10187391661970224,1.1009752778607158
0.885351902511813,0.4972216272430696,0.8135400171674294,-0.09227879987257381,0.9579102687814501
0.8878388460581944,0.4206263912401963,0.6651741091871606,-0.07310694764567138,0.7903972307231031
0.890325789604576,0.33924246987211853,0.5072316597739501,-0.05393516690984512,0.6125997161863237
0.8928127331509574,0.26743507249522047,0.33492426107239703,-0.03476345799490943,0.4300049728400578
0.8952996766973389,0.19083898854680753,0.16740552181827306,-0.02038022455059796,0.25467524779127954
0.8977866202437205,0.1142426207482446,0.014252244096451872,-0.010785466905916863,0.11563230151471829
0.9002735637901019,0.047222775144032836,-0.11974717333866236,-0.0011907820691323678,0.12872759601903433
0.9027605073364834,-0.01979735549973838,-0.22501592842239315,0.01798063627222035,0.22659966153842434
0.905247450882865,-0.0724525618125651,-0.31591923570154856,0.032363577829485735,0.3257326179082766
0.9077343944292464,-0.11553124770232726,-0.39724550309211537,0.03716963895506886,0.4153709679101496
0.9102213379756279,-0.1490334137537105,-0.44505271859788875,0.03718722264243901,0.4708139444348633
0.9127082815220094,-0.16817065722819957,-0.4832829034353687,0.051569941846448586,0.5142987396518979
0.9151952250683909,-0.18251978534530156,-0.5023592555883067,0.04679897299895863,0.536533724561178
0.9176821686147724,-0.20165760532160293,-0.5022817796904198,0.037239525735417445,0.5425306979978346
0.9201691121611539,-0.21121890776919539,-0.4734736737440137,0.03725680969173517,0.5197872801408965
0.9226560557075354,-0.20641528993784353,-0.4255117490417346,0.04206242122304715,0.4748018194697923
0.9251429992539169,-0.20161196235559564,-0.3823380268461456,0.04686795668497368,0.4347716130352839
0.9276299428002984,-0.18723211894596148,-0.32479889854584876,0.04688501243361287,0.3778205860623416
0.9301168863466799,-0.16327576027008428,-0.2576827721397468,0.03253678150523065,0.3067866149298529
0.9326038298930613,-0.14410809684703307,-0.18577805563534078,0.00861166689752757,0.23527598759600524
0.9350907734394429,-0.12015232259130382,-0.12823836700959035,-0.0009483151100422305,0.17573434126236984
0.9375777169858244,-0.0961968413752895,-0.06591009768530975,-0.015296778120333698,0.11760937330133345
0.9400646605322058,-0.0722416537480215,-0.0035816556951262513,-0.029645319134120385,0.07816987744861381
0.9425516040785874,-0.05786356689609784,0.039593340959259926,-0.03441713183135242,0.07810482690430913
0.9450385476249689,-0.04348577472178772,0.07319169419001836,-0.029612216532088453,0.090138338510883
0.9475254911713503,-0.014743067803964394,0.0972133992608053,-0.03438418683709976,0.10416369496404021
0.9500124347177319,0.009210940039427906,0.116446854747835,-0.03436783310444547,0.12176148549261519
0.9524993782641133,0.01879944163417857,0.1165268459384281,-0.010409542371325742,0.11849170182968709
0.9549863218104948,0.028387646410769962,0.11181857803426043,-0.005604944838452752,0.1155018106740712
0.9574732653568764,0.047552360482522205,0.11189885290930635,-0.010377234182554318,0.12202568278505099
0.9599602089032578,0.04756316340341138,0.10240245582870688,-0.0007843941188578896,0.11291205757944354
0.9624471524496394,0.03799686129308799,0.08332938201139051,0.008808365075461566,0.09200616647719342
0.9649340959960209,0.04279547023532515,0.06425643330989361,0.0040358331238028455,0.07730866344320403
0.9674210395424023,0.04280537643428628,0.04518360492922513,-0.010313586968614175,0.06308905199985507
0.9699079830887839,0.047603386019222205,0.016534085426992196,-0.01987468555535088,0.05417066980688192
0.9723949266351654,0.04282428852105025,-0.007326920044273155,-0.019859059630014997,0.04777013391291487
0.9748818701815468,0.03325648675517867,-0.04555302958076002,-0.019843516146561768,0.05978994521106228
0.9773688137279284,0.03805359350120896,-0.07420223140223925,-0.015039652097414091,0.08473628655209034
0.9798557572743098,0.03806199497951179,-0.09806293365663077,-0.00544746779469385,0.1053315210397124
0.9823427008206913,0.028493287374678156,-0.13628875445893973,0.008933036450086362,0.1395216512144396
0.9848296443670729,0.018924276835534437,-0.15536087540675458,0.01852505368541557,0.15760173690333681
0.9873165879134543,0.009354962873591666,-0.16964451130668667,0.023328583601038844,0.17149635086403875
0.9898035314598358,-0.00021465499631800888,-0.1935048769711183,0.04249723916858272,0.19811662935081142
0.9922904750062174,-0.014572980576332717,-0.20299996065556947,0.052089003477499674,0.21008241257258994
0.9947774185525988,-0.009777997743367739,-0.18855296058201798,0.052103876219455,0.19586383561343226
0.9972643620989803,-0.00019491693347173378,-0.18368270486064286,0.032965050446136956,0.18661743918629187
0.9997513056453619,-0.009765755219939276,-0.1883891983646966,0.013826139131772663,0.18914814870571667
1.0022382491917432,-0.009760093149237647,-0.17873042937100836,-0.0005244547096836527,0.17899748840184693
1.0047251927381249,-0.004966334506614434,-0.15949480608328592,-0.0005099247432980292,0.159572922731961
1.0072121362845063,-0.009749689714523835,-0.1498359466710597,-0.0004954812350206339,0.15015363087849856
1.0096990798308878,-0.004956545949800106,-0.13060024274611326,-0.005269527809495855,0.130800453655296
1.0121860233772693,-0.00016371030770701012,-0.12572971580766934,-0.00046685480942620927,0.12573068913974517
1.0146729669236507,-0.00973639320036157,-0.11607075747663531,0.004335730821614092,0.11655906938333642
1.0171599104700322,-0.014520981794220678,-0.10162337265953791,-0.005226981179557555,0.10278856996387709
1.0196468540164139,-0.01451747653350488,-0.08717596958745988,-0.0291549911144795,0.09306137923596433
1.0221337975627953,-0.009725877858935528,-0.07272855317528393,-0.048294686002732234,0.08784310925280102
1.0246207411091768,-0.01451139616865671,-0.07743474162313069,-0.053069259503784494,0.09498982120882601
1.0271076846555582,-0.014508821935414473,-0.058198909970915924,-0.048267115237328184,0.07698917748027874
1.0295946282019397,-0.00492975226903869,-0.04375148306696941,-0.038676656822321576,0.05860357080370647
1.0320815717483214,-0.004927800877369215,-0.043669272481968946,-0.019509481236374526,0.04808230899929724
1.0345685152947028,-0.00013775822249451064,-0.029221863227570033,-0.0003423954172809829,0.02922419378597893
1.0370554588410843,-0.004924834684795987,-0.019562873521886015,-0.00032901294271248105,0.02017593285631053
1.0395424023874658,-0.00013541739887745763,-0.014692308304996349,-0.009892527467721735,0.01771283040342826
1.0420293459338472,-0.00013471673792431194,-0.00982176919974842,-0.009879326005973965,0.013931488834468382
1.0445162894802287,-0.01449953975118945,-0.004951261152259523,-0.005077812171940366,0.01614112190796238
1.0470032330266104,-0.014499466921798043,-0.0048691924317809665,0.014088820381608969,0.020795154139829523
1.0494901765729918,-0.004922901971416871,-0.009575567989945633,0.009313344799561918,0.014236040794609243
1.0519771201193733,-0.004923458578987905,-0.02385879610126862,0.004537777391657727,0.02478051693240398
1.0544640636657547,-0.00492433049791241,-0.018988461800508283,0.00455052118716992,0.02013747639295736
1.0569510072121362,-0.009713921438843753,-0.014118183327856304,-0.00022523074476765714,0.01713867261742801
1.0594379507585177,-0.004927021827488609,-0.014036368964742252,0.004575731267348004,0.015563820688825569
1.0619248943048993,-0.004928842007718814,-0.013954620354017067,-0.00020020634635109502,0.014800844413171846
1.0644118378512808,-0.00493097903843398,-0.00908453914044971,-0.004976237233051961,0.01147198076495296
1.0668987813976623,-0.004933433295110867,-0.00900293693153209,0.023766461562443553,0.025888922972374877
1.0693857249440437,-0.014513011790103114,-0.02328662533641479,0.047720663191483936,0.05504685391748812
1.0718726684904252,-0.014516101610128618,-0.03757039936420714,0.04773275408748745,0.06245532745185269
1.0743596120368066,-0.0145195097600066,-0.03270065070510997,0.04295634724721786,0.05590524563072859
1.0768465555831883,-0.00973483327983271,-0.03261940093339888,0.028603039066709357,0.044462637574616104
1.0793334991295698,-0.009738879166841574,-0.042115058343234146,0.0046728292631783575,0.04347826169481909
1.0818204426759512,-0.009743244453518707,-0.03724561130791315,-0.0288342824453256,0.0480997112082597
1.0843073862223327,-0.004959526168525463,-0.03237627476410543,-0.047976279738312755,0.058090821004234204
1.0867943297687142,-0.009752934617936804,-0.041872263649227914,-0.05275316289598564,0.0680536728788579
1.0892812733150956,-0.009758260182103462,-0.041791566338810426,-0.033588125557052706,0.05449698007476337
1.0917682168614773,-0.00018709987813925189,-0.032134187810431314,-0.019211587921832418,0.03743963331923497
1.0942551604078588,0.004595335999466321,-0.032053746323273735,-0.023988760228826678,0.04029913626395623
1.0967421039542402,0.009377450441360236,-0.03676184353518286,-0.019189222832837416,0.04251583222534544
1.0992290475006217,0.01894764644208813,-0.03189327446347079,-0.004812976009636927,0.0374080071611145
1.1017159910470031,0.02372911703916969,-0.027024850726975913,-1.3633315344208086e-05,0.03596406175811113
1.1042029345933846,0.009356651953735862,-0.03173338394436831,-2.7917036042879317e-06,0.0330840535626705
1.1066898781397663,0.004560670793666011,-0.03165366913245515,0.009584758513483393,0.03338595637984532
1.1091768216861477,0.009341173248910983,-0.03636251790917955,0.014383807102868573,0.04020428003501749
1.1116637652325292,0.009332949052446804,-0.04107153193098556,0.009605950473046576,0.04320010367654409
1.1141507087789106,0.009324401222470191,-0.04578071617394386,0.009616398314706842,0.047700037191850335
1.116637652325292,0.004527126140537685,-0.05049007561330443,0.009626747038231187,0.051598613014960305
1.1191245958716736,0.004517930153140004,-0.055199615223364695,0.004848593054950001,0.05559602565191757
1.1216115394180552,0.00450840964983884,-0.06469774329765476,0.00485874273808129,0.06503638309726986
1.1240984829644367,0.009286967664841439,-0.06940765816755468,-0.009496417460074014,0.07066719695366393
1.1265854265108182,0.014065200595762217,-0.05975255816310465,-0.028640081164370557,0.06773811573948575
1.1290723700571996,0.00926630152394764,-0.06446286817537406,-0.023841828717451108,0.06935242255264515
1.131559313603581,-0.00032132650426242026,-0.0739617865313309,-0.014255273664112167,0.07532371435920585
1.1340462571499625,0.009244332842790193,-0.07867251155621302,-0.014245626227843644,0.08048453038251628
1.1365332006963442,0.009232859377405644,-0.08817185485464218,-0.004659273388963214,0.0887762947486779
1.1390201442427257,0.014009462798787897,-0.0928830147480042,0.004926977951329903,0.09406271624996526
1.1415070877891071,0.01399733620868171,-0.08322918955555769,0.014513127533462011,0.08563675779603265
1.1439940313354886,0.00919647935357143,-0.07836399751619183,0.033675981739497374,0.08578789591391868
1.14648097488187,0.009183698624692316,-0.0830758469054711,0.03847352371032642,0.09201167690124715
1.1489679184282517,0.00917059045648011,-0.07821112939489172,0.033694156509721296,0.08565265129256988
1.1514548619746332,0.009157154607831897,-0.07813505989549174,0.02891468652279805,0.08381527403818172
1.1539418055210147,0.009143390841805432,-0.06369403007335439,0.024135113495072247,0.06872433896729312
1.1564287490673961,0.01391770224594302,-0.054041658154158956,0.009778630532458976,0.0566553163167239
1.1589156926137776,0.018691685271343683,-0.05396635239962455,0.00499885066379413,0.05733005143519709
1.161402636160159,-0.00047667690794650497,-0.04910290778705839,0.01458417695801728,0.051225198794750335
1.1638895797065407,0.0042966486910103185,-0.04902813589204191,0.005015785922619642,0.04947097540421089
1.1663765232529222,0.013858048570991044,-0.04895363832580335,-0.014129516051026414,0.05280291127736919
1.1688634667993036,0.013842312559318448,-0.05845622665695949,-0.0045445026486206075,0.060244440044563495
1.171350410345685,0.013826247089112953,-0.05838229252857685,0.0002520026405292697,0.05999767241145575
1.1738373538920666,0.013809851957121144,-0.06309705082210648,-0.004528403749942456,0.06474917971717929
1.176324297438448,0.0042163203237255975,-0.06302369981350386,-0.004520512104063457,0.06332613303319486
1.1788112409848297,0.004199265275455721,-0.06773905105591282,-0.01408953262665591,0.06931614383710923
1.1812981845312112,0.013758686621873961,-0.0724547061373495,-0.023658658919876174,0.07745139147165557
1.1837851280775926,0.004164164254961966,-0.07238226664151348,-0.023651084584786375,0.07626209143566795
1.186272071623974,-0.015007495366494261,-0.07231014078828135,-0.023643616502583953,0.07754354892134921
1.1887590151703555,-0.01023746917783075,-0.07223833347264241,-0.02363625491273247,0.07669325357794773
1.191245958716737,-0.0054677739538074865,-0.06737844626456857,-0.03320580669419826,0.0753151855288809
1.1937329022631187,-0.0006984098632850655,-0.05773048404951142,-0.0284102554826422,0.06434624450204555
1.1962198458095001,0.004070622929221501,-0.05287125834859108,-0.018826408154779983,0.05627053913377525
1.1987067893558816,0.004050920943244829,-0.057589177357524335,-0.014031071586199317,0.059412071829400656
1.201193732902263,0.004030887343308309,-0.05273063266525435,0.0003409639502258699,0.0528855739353161
1.2036806764486445,-0.005566284662624432,-0.04787243577725819,0.01950129490151653,0.05199090434902044
1.206167619995026,-0.01037538526063686,-0.057379801513850914,0.029084711075228142,0.06516142002293279
1.2086545635414077,-0.0008196079527288402,-0.05252231480694425,0.02430280892069625,0.057878250071264285
1.2111415070877891,-0.0008409694786769562,-0.04287678714523002,0.00994399152904002,0.04402282445608242
1.2136284506341706,-0.0008626633316516363,-0.03802003001154608,-0.0044149346871495965,0.038285225850116615
1.216115394180552,-0.0056730929613312275,-0.042740451562444104,0.005168046646833346,0.043423943736760964
1.2186023377269335,-0.015272258492642243,-0.037884443346810404,0.009962515383438841,0.04204431757002396
1.221089281273315,-0.010506546764811886,-0.03781722014949107,0.00039166465755968716,0.039251535842056345
1.2235762248196966,-0.005741167854795726,-0.037750383467729076,-0.004390892472850183,0.03843608196741266
1.226063168366078,-0.005764525194455472,-0.03289553479228813,-0.009173559550193389,0.03463380075604026
1.2285501119124596,-0.010576618890861256,-0.04240629220888792,-0.009167933475042744,0.044656572755540934
1.231037055458841,-0.010600642405969363,-0.042340643913707954,-0.009162417787381472,0.04459880767640739
1.2335239990052225,-0.010624999158175386,-0.03748699801794464,-0.009157012705669487,0.0400251984279954
1.236010942551604,-0.010649689241054472,-0.0374221659461238,-0.013940121767461733,0.04132990902387664
1.2384978860979856,-0.010674712743664494,-0.04693455579535222,-0.01872334186846203,0.05164654442061043
1.240984829644367,-0.010700069750536945,-0.05644736569456743,-0.018718269903136076,0.06042491385752431
1.2434717731907485,-0.010725760341667723,-0.061172197085665125,-0.023501712725650492,0.06640338946344043
1.24595871673713,-0.015540187912818304,-0.0611090547233748,-0.013920057267052144,0.06457230059296425
1.2484456602835114,-0.020354949214572704,-0.056257943354822704,0.019603502902235448,0.06295694937082187
1.250932603829893,-0.010804834352324155,-0.05140727103971887,0.019608127728659497,0.056070764522661076
1.2534195473762746,-0.010831859989392845,-0.0465570425096109,0.005247430284923027,0.04808765873554933
1.255906490922656,-0.006070816222016662,-0.046495665808381936,0.005251830285619263,0.0471835084527972
1.2583934344690375,0.003478296897220179,-0.046434742331193934,0.00046771424348790447,0.046567183737940894
1.260880378015419,-0.0013381339609167542,-0.04637427678530148,-0.01868172468683227,0.05001370799222658
1.2633673215618004,0.0034219077617598237,-0.03673746722898841,-0.02346606678691643,0.04372650502360109
1.2658542651081819,0.003393212065554596,-0.03188952831363645,-0.018673715579250683,0.03711015437481763
1.2683412086545636,0.0033641822366488605,-0.027042061400784245,-0.018669881225642726,0.033032639493458214
1.270828152200945,-0.0014535850747658952,-0.0174066678432645,-0.009089353964737867,0.01969064118995663
1.2733150957473265,-0.0014832832529168005,-0.007771755625700649,-0.004297343955748545,0.009003748096654064
1.275802039293708,0.0032750876819960806,-0.012502539364385612,-0.009082254715961469,0.01579642493124247
1.2782889828400894,-0.0063320855668164144,-0.012445410424349657,-0.01386727980041158,0.01967955785374506
1.280775926386471,-0.006362786408661614,-0.007600373442674613,-0.023440822723756582,0.025450400729987444
1.2832628699328525,-0.0063938214903572765,0.002032566952873349,-0.013860867077458039,0.015399218090780698
1.285749813479234,-0.006425190813410087,0.006876599503343961,-0.01385783297508425,0.016751424789654523
1.2882367570256155,-0.01603370101525714,-0.00264508704065447,-0.00427810732574585,0.0168041142578208
1.290723700571997,-0.01606573880676221,-0.012167287317279563,0.010089906361224976,0.022537902618625042
1.2932106441183784,-0.0017329008550116543,-0.02169000591582204,0.01009259461690526,0.02398582431568447
1.29569758766476,-0.006554010384877906,-0.02642484409534651,0.014883570536216695,0.031028182503894657
1.2981845312111415,-0.011375454093067616,-0.026371806425191657,0.014886027293565363,0.03234914123336262
1.300671474757523,-0.0018320219918690483,-0.031107704105166167,0.02446517466628073,0.0396180556151471
1.3031584183039044,-0.0018657306513272243,-0.026267331723240694,0.024467399190873707,0.035945893922500194
1.305645361850286,-0.006688176714863547,-0.026215903778869176,0.024469507327099294,0.03647961221755429
1.3081323053966674,-0.0019341501805182348,-0.026165021479743533,0.038836708856401,0.04686831809178878
1.310619248943049,-0.0067572642837545605,-0.03569149598386412,0.04841539031940556,0.06052762613837654
1.3131061924894305,-0.0020039056927660948,-0.03564171851660891,0.03884034157844951,0.052753387291939055
1.315593136035812,-0.0020392843131520344,-0.02601569357374167,0.03405357905974604,0.04290246192715595
1.3180800795821934,-0.006863400084789473,-0.02596703892129515,0.02926669926903891,0.039723205524835326
1.3205670231285749,-0.006899446302136902,-0.03549575903295299,0.024479702033781692,0.04366700219003212
1.3230539666749563,-0.006935826215789698,-0.03544824508993516,0.005327377221902907,0.03651115875066413
1.325540910221338,-0.006972539751223916,-0.0449781148246311,-0.0042482587347585365,0.04571318000355641
1.3280278537677195,-0.011797990149411741,-0.05929696935641493,0.010118003956424815,0.0613000583236546
1.330514797314101,-0.021412177326195825,-0.06403960315248858,0.014907341886384984,0.06915042264436456
1.3330017408604824,-0.0214498912316492,-0.08793644055117644,0.014908158209959055,0.09173422802789229
1.3354886844068639,-0.03106474505319934,-0.11183387267588962,0.019697259403738343,0.11772771759838685
1.3379756279532453,-0.04067993205155951,-0.11657829063814473,0.024486241984806867,0.12587664901152143
1.340462571499627,-0.02635343552165803,-0.12132331209992131,0.010121492510766217,0.12456441800664665
1.3429495150460085,-0.03118088523793805,-0.13085734475013577,0.005333430743775125,0.1346266606685912
1.34543645859239,-0.03600866780592682,-0.1308151829842079,0.005333653205257249,0.1357854340968255
1.3479234021387714,-0.026471573146593763,-0.13556204110706993,0.0005453530977863608,0.1381235265404545
1.3504103456851528,-0.03130002105884799,-0.1355211168096182,-0.009031469733981723,0.13938160518937331
1.3528972892315343,-0.021763591492969248,-0.1354808177311,-0.01382000880328782,0.1379119230925424
1.355384232777916,-0.012227494277163298,-0.12586434153712478,-0.018608667582844518,0.12781872552987245
1.3578711763242974,-0.0026917292738107834,-0.12582530580236506,-0.03297425286419475,0.13010209198431064
1.360358119870679,0.0020553003392976277,-0.13057531148700763,-0.037763151515537885,0.13594186934789168
1.3628450634170604,-0.002774808610729318,-0.12574915289757937,-0.037763767005152715,0.13132650576218205
1.3653320069634418,0.006759960630002115,-0.12092364092902308,-0.04255290612013596,0.12837045541135852
1.3678189505098233,0.0067175916171751116,-0.11131037650208864,-0.042553762364828884,0.11935639340049697
1.370305894056205,-0.0029019154870446595,-0.10648617048509745,-0.037766335882698954,0.11302221792231837
1.3727928376025864,0.0018434560859965088,-0.10645102709227183,-0.0186138201750925,0.1080818847025313
1.3752797811489679,0.020953706508318515,-0.10641654720393934,0.0005385746566179961,0.10846118844040825
1.3777667246953493,0.025698416035009553,-0.0968059283664191,0.005325638512569952,0.10030034286660874
1.3802536682417308,0.025654391488588335,-0.07761917475285829,0.0005357745756633392,0.08175066450103285
1.3827406117881123,0.025610036376214118,-0.07279830712404989,0.0005341926709476752,0.07717352424975936
1.385227555334494,0.030353754209995865,-0.06318971634395565,-0.004255913976560777,0.07023107182754867
1.3877144988808754,0.039885545186686244,-0.044005003223353434,-0.00904614217937727,0.06007603275729885
1.3902014424272569,0.03505179622674909,-0.03439778516034675,-0.004259685428163351,0.049294837078601036
1.3926883859736383,0.03500612081811427,-0.02479125961682538,-0.013838560454232152,0.045072617003749496
1.3951753295200198,0.049325325813056986,-0.010397027360545152,-0.018629154104527146,0.05374133722890016
1.3976622730664012,0.05406739482663975,-0.0055803024259577505,-0.00905465986506826,0.05510362804550149
1.400149216612783,0.04923232808046751,0.013600927729644496,-0.018633901103129347,0.05436938139845816
1.4026361601591644,0.03960852912144153,0.032781449101232596,-0.018636458020372615,0.05468799275787964
1.4051231037055458,0.02998440150145182,0.03759604769864433,-0.004273927418449119,0.04827829317133298
1.4076100472519273,0.03472515541800569,0.05198673610919258,-0.004276729339625973,0.06266376595717732
1.4100969907983087,0.034677177831420436,0.05679989705245525,-0.009068057262096474,0.06716371512974942
1.4125839343446904,0.025052065667951096,0.05682392986475371,-0.004282701342152251,0.06224874721865376
1.4150708778910719,0.020215029140109586,0.07121244385862768,0.014867741624858155,0.07550436612857046
1.4175578214374533,0.01537766518416206,0.07123501515888897,0.014864448282692067,0.07437641960965961
1.4200447649838348,0.015328377382016312,0.05689163982770662,0.014861031800116109,0.060765681939850436
1.4225317085302163,0.010490359359656865,0.05691273386471485,0.024434298706875524,0.06281832430706362
1.4250186520765977,-0.003924791931600835,0.052144680082119255,0.024430635612443297,0.057717654222957694
1.4275055956229794,-0.003975059613541276,0.042587474589173446,0.02921525237007927,0.05179792526600002
1.4299925391693609,-0.008814056685734983,0.04260632347195914,0.03878814887371895,0.058288136769898136
1.4324794827157423,-0.02323018618178746,0.03304760959037134,0.03878411505796642,0.05599994312950407
1.4349664262621238,-0.028069834528707094,0.018699732421962878,0.029203150819983037,0.04461411907610283
1.4374533698085052,-0.028121404750029,0.004351091460485179,0.01962206269917388,0.03456545597244121
1.4399403133548867,-0.037750106504874203,-0.009998317104326304,0.014829253916246898,0.041772522760309
1.4424272569012684,-0.04259072952544679,-0.019560093746032514,0.0004595144122951922,0.046869805444000434
1.4449142004476498,-0.04264327349984348,-0.03391104888263197,-0.018698752588699463,0.057602529106594816
1.4474011439940313,-0.04269614143142614,-0.03868597631397597,-0.023491933900182005,0.06222086639438874
1.4498880875404128,-0.047537736318506885,-0.05303849306541153,-0.033073642896463085,0.07852887351401622
1.4523750310867942,-0.05237965451372051,-0.07218019954393728,-0.02350186306738422,0.0922276909654438
1.4548619746331757,-0.04764508904433423,-0.08174588949904527,-0.004353401143323055,0.09471745911682461
1.4573489181795574,-0.03812244289349548,-0.0817355666241868,0.024371742787629103,0.09342379434625342
1.4598358617259388,-0.03817692567991732,-0.09609125119729711,0.03394314871715842,0.10882620803771083
1.4623228052723203,-0.03344332709537701,-0.11044773691664789,0.029149219880785893,0.11902451737720193
1.4648097488187017,-0.04307526006877338,-0.11522822078356221,0.024355166156327712,0.12540412677994353
1.4672966923650832,-0.038342304320819476,-0.11522110974293254,0.024349390782637315,0.12385043101462674
1.4697836359114647,-0.024032862809344968,-0.12479161736282851,0.014766683718997697,0.12793975616242323
1.4722705794578463,-0.02887735508867001,-0.13915134391252337,0.00039544820761427957,0.14211669335044141
1.4747575230042278,-0.02893376418461424,-0.129569873042092,-0.004399105866994546,0.13283398225779325
1.4772444665506093,-0.024202089719482345,-0.12477762822761873,-0.004405381899879046,0.1271794206724637
1.4797314100969907,-0.019470734630819053,-0.1247746130054952,-0.004411783284410831,0.1263616927295748
1.4822183536433722,-0.014739698530781997,-0.12956083089419712,-0.009206713412272194,0.13072119639380905
1.4847052971897536,-0.00522057770614065,-0.13434788207388193,-0.004424962392194587,0.13452207306422195
1.4871922407361353,-0.000490178399525032,-0.13434736670660685,0.00035666306722248464,0.13434873436101427
1.4896791842825168,-0.005336903528172732,-0.12955928825655638,-0.00922704706123234,0.12999703885198574
1.4921661278288982,-0.005395542722994473,-0.12956045681025996,-0.01402247956086633,0.13042873066619107
1.4946530713752797,-0.010242902211382188,-0.12956247247494357,0.0003355754664031707,0.12996716481644932
1.4971400149216612,-0.01509057825471033,-0.1008349187378128,0.0003282947172476014,0.10195839429073127
1.4996269584680426,-0.0007849571483344864,-0.08647342887221621,-0.028409531828687662,0.09102401637682318
1.5021139020144243,0.008731944934658342,-0.08168960292974559,-0.037993871025971515,0.09051503921835068
1.5046008455608058,0.0038833217872009107,-0.0625414276620253,-0.018847916289963962,0.06543511527139524
1.5070877891071872,0.008611190449495432,-0.04339411636437207,-0.02364410419834506,0.05016219292798455
1.5095747326535687,0.013338744724638585,-0.02903607567258648,-0.018863611561451776,0.037105951576998794
1.5120616761999501,0.013277581741123423,-0.019467308883170276,-0.014083245070684924,0.02745192313419855
1.5145486197463316,0.013216105273147705,-0.005111012632950995,-0.009303004775089718,0.016950922882558617
1.5170355632927133,0.017942719099992732,0.004456003179158063,0.0002655125983466178,0.01848966278691398
1.5195225068390947,0.01788061704508337,0.0044453319937822755,0.019410710324370584,0.026762905629705024
1.5220094503854762,0.0178182028978634,0.014010583872429372,0.024190571757602086,0.033150694968816286
1.5244963939318577,0.012967073812232277,0.018786545653819875,0.02418190349659355,0.03325422916823516
1.5269833374782391,0.003327230267481718,0.013984810836782824,0.033749915461958935,0.03668381372053374
1.5294702810246208,-0.0015245206113920773,0.009182182900653313,0.03852939765419805,0.03963774879468979
1.5319572245710023,0.0032002249853709808,0.013955465344413387,0.03373194671618762,0.03664479065569671
1.5344441681173837,-0.006440549049263056,0.023516251725841375,0.028934369253505565,0.03783771255490095
1.5369311116637652,-0.016081632254752565,0.01871092566158916,0.014559858592251729,0.028647986269840685
1.5394180552101466,-0.025723024126421135,0.023481500671012068,0.00018522134153542424,0.03482942937971485
1.541904998756528,-0.02578791751388998,0.01867436041062831,-0.004612735887750574,0.03217181621884872
1.5443919423029098,-0.02585311854295974,0.01386630847888215,0.014531196837374694,0.03273856946713427
1.5468788858492912,-0.035495433334356286,0.018634148494348413,0.014521389607910606,0.04263833995183083
1.5493658293956727,-0.030772844761553786,0.009035860853624289,-0.004642157600541097,0.03240623988174206
1.5518527729420541,-0.03083896557576804,-0.0005633474639079594,-0.014229024888715358,0.03396798945230905
1.5543397164884356,-0.03569379524189831,-0.00537507609912824,-0.028604422238357685,0.046055959803615355
1.556826660034817,-0.03097212325884502,-0.01976453795372679,-0.03819154302786565,0.05299531430734899
1.5593136035811987,-0.03582756236263346,-0.03415492930731645,-0.03820198395415453,0.06252651436686403
1.5618005471275802,-0.04068330536235093,-0.03896944641891409,-0.03342414835296026,0.06550513554312826
1.5642874906739617,-0.031174141741720007,-0.04378489880812442,-0.019069632917597445,0.05703152967072215
1.5667744342203431,-0.026453684221592333,-0.06775490261442974,-0.004715244300514954,0.07288866692429022
1.5692613777667246,-0.021733528916205613,-0.07736063743306199,-0.004726192472675805,0.08049441843065887
1.571748321313106,-0.012225271934747761,-0.06781370276023857,-0.009525670801679098,0.06956215896703093
1.5742352648594877,-0.012294122662609819,-0.07742132795402457,-0.0047484693329984395,0.0785350586376196
1.5767222084058692,-0.012363273878575998,-0.09181830582801043,-0.0047597980321789635,0.0927691085622249
1.5792091519522506,-0.012432724997014144,-0.09185102585436988,-0.009559656902007774,0.09318031252059424
1.581696095498632,-0.007714072106941361,-0.09188470072628085,-0.014359642623144708,0.09331936815202792
1.5841830390450136,0.0017926853873476145,-0.09670773647504616,-0.028736561835374985,0.10090287409753655
1.586669982591395,0.006510741445964308,-0.09674332914970929,-0.038325204575091476,0.10426160748265778
1.5891569261377767,0.016016903315299424,-0.1015682880591755,-0.03833716751749883,0.10973785465530146
1.5916438696841582,0.025522768285827058,-0.11118261585026223,-0.0431376606172158,0.12195836802698326
1.5941308132305396,0.025451530332734673,-0.1016442985467001,-0.043149877225452826,0.11331926459300937
1.596617756776921,0.030168400037786203,-0.09689535535374505,-0.028797010691599567,0.10548985768660667
1.5991047003233025,0.03488497470651036,-0.1113009988143645,-0.01444427096476808,0.11753089279441674
1.601591643869684,0.0443896582900668,-0.11134240824666986,0.004696745289017201,0.11995679661272594
1.6040785874160657,0.044317241463374735,-0.10180798950947167,0.023837634764946714,0.11356547648854713
1.6065655309624471,0.03945612818760097,-0.10185135840065351,0.033401590839746476,0.11421975105138606
1.6090524745088286,0.03459472242890921,-0.10189571077429393,0.04296542017322835,0.11586871029226956
1.61153941805521,0.03452142815845549,-0.08757583914216482,0.04774071946611258,0.10554824915030943
1.6140263616015915,0.048813052672695645,-0.09719897251741427,0.038150682100665634,0.11526417012417373
1.616513305147973,0.03916237006994305,-0.09724629008638086,0.038137324703184206,0.11155710511023406
1.6190002486943547,0.024722994297239453,-0.08771779425540327,0.03333543733931421,0.09704065776084753
1.6214871922407361,0.03422534594722043,-0.07340189072889025,0.028533423357799848,0.08586831846669819
1.6239741357871176,0.02936219913312088,-0.05908698518893907,0.023731282788933328,0.07011835950348007
1.626461079333499,0.014921957855944523,-0.0591382899358992,0.004563805703922341,0.0611623289721722
1.6289480228798805,0.010058236082592376,-0.05919059732581644,-0.01460379790228572,0.06178969038643029
1.631434966426262,0.005194227863041634,-0.054455506332866666,-0.028983124673503724,0.06190641072540016
1.6339219099726436,-0.004458469427472411,-0.04014461590867224,-0.033785771251688246,0.052658773961818846
1.636408853519025,-0.009323048447836935,-0.03062313826349694,-0.024223334276930686,0.04014306606324298
1.6388957970654066,-0.009399508492629494,-0.030679478944307004,-0.014661023668706363,0.03527785145401515
1.641382740611788,-0.014264655492124079,-0.03073683351440648,-0.009887242703994659,0.03529859627646718
1.6438696841581695,-0.019130085410734188,-0.026006800834625032,-0.014690394657900896,0.03547000920043187
1.646356627704551,-0.01920739420795864,-0.026066189703886522,-0.009916866202097196,0.03386317281663401
1.6488435712509326,-0.028861791119633717,-0.026126598937278978,-0.005143463928250824,0.039269038437985876
1.651330514797314,-0.024151258814193666,-0.02139962732693279,-0.00037018778553132847,0.032270178044726254
1.6538174583436955,-0.029017813158300265,-0.011885276962282365,-0.00038544104154247805,0.03135987649460197
1.656304401890077,-0.04824985673247545,-0.007160356550322433,0.009175986319236884,0.049633840326565246
1.6587913454364585,-0.04354016222954504,-0.007224868134305229,0.018737287712653483,0.04794820536120153
1.6612782889828401,-0.04361914882183471,-0.0025020070936885297,0.013933253236119825,0.04585875847839838
1.6637652325292216,-0.06285202571585663,-0.007356985386266945,0.00912909291081121,0.06393623939468658
1.666252176075603,-0.0629315655898331,-0.0026361917043731253,0.004324806798859271,0.06313505688709824
1.6687391196219845,-0.06779978428118794,0.00687196868142248,-0.00047960503572319624,0.06814884241954783
1.671226063168366,-0.07745668102093245,0.002013880562993897,0.009081067433902135,0.07801319718765255
1.6737130067147474,-0.07274864175399315,0.0019431553181381567,0.0042764043536625,0.07290012595213582
1.6761999502611291,-0.06325247234233577,0.0018713877465712514,-0.0005283842458183585,0.06328235567223457
1.6786868938075106,-0.06812178528372559,-0.007778230648772588,0.004243508347670399,0.06869560295509652
1.681173837353892,-0.06341456318830124,-0.012640491739824622,-0.005349934393949596,0.06488305367202742
1.6836607809002735,-0.06349601522389076,-0.012715397335825163,-0.010155099114053101,0.06554808400507767
1.686147724446655,-0.05878933395195962,-0.01757975586296867,-0.005383582415049659,0.06159721229354658
1.6886346679930364,-0.05408292189011904,-0.02244516576279354,-0.005400594178713192,0.058804033227110766
1.691121611539418,-0.05416518155119615,-0.017734822132762673,-0.014994537644291484,0.05893409003048102
1.6936085550857995,-0.04467090216199332,-0.027390743288715935,-0.015011799447574248,0.05450776495627854
1.696095498632181,-0.04475369618673403,-0.022682510999200378,-0.024605992784948683,0.05588241681008692
1.6985824421785625,-0.049625159483321524,-0.017975336891677074,-0.01983510096808594,0.05638439873341337
1.701069385724944,-0.04492008126428537,-0.02284602924935175,-0.005487527228620337,0.05069386262987944
1.7035563292713254,-0.03063846069835313,-0.027717783050196232,-0.0007168847572227577,0.04132196383205199
1.706043272817707,-0.016357103590146527,-0.037379003209091266,0.013630439819833029,0.04301782896016638
1.7085302163640885,-0.011652815739568334,-0.05182969129653259,0.023189236635994703,0.0579641760945013
1.71101715991047,-0.01652559630118028,-0.07106984885890455,0.02795950578755857,0.07813931605678182
1.7135041034568514,-0.01182183114359614,-0.07115746081688235,0.02315284405241158,0.07575746899949296
1.715991047003233,-0.007118326052609758,-0.07124614194975498,0.018346058171285762,0.07391387663314718
1.7184779905496144,-0.007203483489020557,-0.08091270037195564,0.00396234160557718,0.08132930226466811
1.720964934095996,0.0022879073722959498,-0.0810035242517757,-0.01042149890015942,0.0817032012878213
1.7234518776423775,0.016567444079871485,-0.09067222829569355,-0.024805463240067382,0.09545283753770954
1.725938821188759,0.006904707585335235,-0.10513041058428385,-0.015247534704833754,0.10645452330001857
1.7284257647351404,0.0020301186887031197,-0.10043605589248905,0.0038870768542889067,0.10053174658584499
1.7309127082815219,0.016308888233684538,-0.09095437553333152,-0.015285661654232285,0.09366071597145079
1.7333996518279033,0.025799000506114833,-0.10062738743600175,-0.020093313593449125,0.10580737583209596
1.735886595374285,0.025712053077681374,-0.10551307630207774,-0.000959072207308509,0.10860496657011784
1.7383735389206665,0.020836450165302334,-0.09124623344924432,0.0038098360590339553,0.09367255534553243
1.740860482467048,0.030325805951417484,-0.09613408669405699,-0.00578658867515891,0.10096980607884204
1.7433474260134294,0.03502650806054575,-0.10102302398473606,-0.010594733007460277,0.10744652627905381
1.7458343695598109,0.030150154082708103,-0.09154783656518806,-0.02019140345540471,0.09847705796009724
1.7483213131061923,0.02527355157341804,-0.0916505422171654,-0.020211389933058044,0.09719606257899936
1.750808256652574,0.025185104772418254,-0.08696593213523318,-0.010654692313508463,0.09116405718726654
1.7532952001989555,0.020308007963047325,-0.07270560412987015,-0.005886520428861175,0.07571770718977157
1.755782143745337,0.015430665394096155,-0.06323476926804483,-0.0011184708280644884,0.06509986525240014
1.7582690872917184,0.024918287959492358,-0.06334183195133836,0.00843785994184465,0.06858794522495887
1.7607560308380998,0.02482885999515666,-0.058661583275271045,0.0036288587341832823,0.06380299567209449
1.7632429743844813,0.029527592403993497,-0.04440562095115652,-0.0059686676739474365,0.05365969510755899
1.765729917930863,0.019860872851190925,-0.03493915594670094,0.003587297457411154,0.04034931959435015
1.7682168614772444,0.014982315568895399,-0.03026218924378421,0.00356633434669007,0.033955686096807935
1.770703805023626,0.02446872815307438,-0.020797915158750957,-0.015608363504515665,0.03570564302275978
1.7731907485700074,0.019589691641628937,-0.020911544584570674,-0.001264359428629902,0.028681829095986173
1.7756776921163888,0.009922013639380944,-0.021026271787687456,-0.0012856864827295311,0.02328526249973653
1.7781646356627703,0.005042501755560258,-0.016353694329871438,-0.0060955378782203695,0.01816661014648899
1.780651579209152,-0.0046256496774602085,-0.02125902302912852,-0.006117106824591545,0.022600037411364366
1.7831385227555334,-0.014294036361986173,-0.021377048756555883,-0.010927199810677024,0.027941034067485947
1.7856254663019149,-0.00959744735533169,-0.026284578959756555,0.008204603239104102,0.029160000019567176
1.7881124098482963,-0.004901091632331267,-0.031193211100317253,0.017759479238179665,0.03622756161748673
1.7905993533946778,-0.009781774843166002,-0.03131454261472477,0.022525831664388818,0.03979568808833679
1.7930862969410595,-0.014662689352440528,-0.03143697755497321,0.027292063997482074,0.04413767975415925
1.795573240487441,-0.024332237481379526,-0.03634891994791678,0.02248136975817694,0.04918042037675345
1.7980601840338224,-0.029213611585976296,-0.05562717711556431,0.022458959070663198,0.06672497866826467
1.8005471275802039,-0.03409521397887194,-0.05575292647193608,0.022436428779796458,0.06909606184755435
1.8030340711265853,-0.03418864032781349,-0.060668185249608264,0.02720218237296379,0.07476262806240402
1.8055210146729668,-0.029493889616602542,-0.06558455073406932,0.027179413378526363,0.07687615580468932
1.8080079582193485,-0.034376170785734295,-0.07050202350589885,0.027156525287693967,0.08300441736448397
1.81049490176573,-0.029681869529294025,-0.08020900744073556,0.022345114952964096,0.08839571491674914
1.8129818453121114,-0.02977619477933585,-0.08991709974834805,0.012745182549052103,0.09557272770461238
1.8154687888584928,-0.039447548823094536,-0.0900494942929142,-0.006431675067736009,0.09852099763368696
1.8179557324048743,-0.039542317342058375,-0.08539459487425827,-0.035185457718878155,0.10046814484903019
1.8204426759512558,-0.049214112576046964,-0.08074080526691052,-0.0495741486223924,0.10676470729333754
1.8229296194976374,-0.04930932019822848,-0.08087652922008459,-0.030444134314707938,0.09949506194415177
1.825416563044019,-0.039827939158888825,-0.08580176713735632,-0.04004465777565969,0.1027218701051873
1.8279035065904004,-0.035135178365117814,-0.08115130943603566,-0.05922210553789675,0.10642966487908168
1.8303904501367818,-0.030442633438659217,-0.07650196310963864,-0.04966925085089002,0.09615788459818427
1.8328773936831633,-0.04011551327840995,-0.07185372848570815,-0.030539706805983613,0.08777748227582968
1.8353643372295447,-0.04021180021670184,-0.07678341250704124,-0.03056389313324459,0.09190665305816982
1.8378512807759264,-0.04030829982398698,-0.08171420880981595,-0.021011389717111584,0.0935064139722991
1.8403382243223079,-0.03561660770574315,-0.07706931100482572,-0.011459003002620705,0.08567105808286381
1.8428251678686893,-0.03092512610404441,-0.08200233259934997,-0.011483539432912693,0.08838901319843277
1.8453121114150708,-0.021445450616337458,-0.08693646715339609,-0.011508192167992704,0.09027898515284016
1.8477990549614522,-0.026331193437632627,-0.08229490820157315,-0.016321364326906007,0.08793276179699452
1.8502859985078337,-0.031217143516779566,-0.07765446253432895,-0.001981039104942184,0.08371768102843044
1.8527729420542154,-0.02652649311898342,-0.07780353359638736,0.012359170421694543,0.08312516929780138
1.8552598856005968,-0.026624451107068237,-0.07316531484612288,0.021910861139618376,0.080883314281529
1.8577468291469783,-0.02193420973837157,-0.0637398063571104,0.036250839898270826,0.07653754545723863
1.8602337726933598,-0.022032574547574124,-0.05431541149781971,0.026648686986469272,0.06438750488623327
1.8627207162397412,-0.0173427377842148,-0.05925734025191831,0.0170464192183708,0.06405297288769735
1.8652076597861227,-0.007864698334592246,-0.059411979335466825,0.017020843449060408,0.062300448474866515
1.8676946033325044,-0.012752068362387237,-0.049990925400031916,0.007418346613631499,0.0521223535189129
1.8701815468788858,-0.01285123346495537,-0.04057098503270051,-0.0021842644290615,0.042613730641548636
1.8726684904252673,-0.012950595837390833,-0.03594056147481384,-0.0022101828183096472,0.038266523225381585
1.8751554339716487,-0.017838557670988187,-0.04088805794229611,0.007340591667853502,0.04520986295166018
1.8776423775180302,-0.01793831119232181,-0.04104826434440012,0.036044865893893885,0.05749761187587814
1.8801293210644117,-0.018038258585139633,-0.03163277720558533,0.04559541352300833,0.05835197598073859
1.8826162646107933,-0.008561592068505264,-0.041372016267080536,0.040780638103074196,0.058719715878442186
1.8851032081571748,-0.0038735204593211003,-0.05111236804157926,0.035965749824436344,0.06261799651857743
1.8875901517035563,-0.013550849250462238,-0.041700219016374884,0.031150748918367555,0.05378571315505228
1.8900770952499377,-0.004074754048308926,-0.03228918221584731,0.021547232297688623,0.0390317579467407
1.8925640387963192,-0.004175653619626796,-0.04203287063898786,0.011943603517696744,0.04389587637002966
1.8950509823427006,-0.013853546805657257,-0.051777670696896205,0.011916669455846574,0.054907694841549004
1.8975379258890823,-0.01874322248307364,-0.037581565454983146,0.016678027030510023,0.04518671305514048
1.9000248694354638,-0.009267872845247604,-0.03296337779703018,0.011862466521280979,0.036238044302003
1.9025118129818452,-0.00458111000382988,-0.03792310733926918,0.007046794811154555,0.03884335150631878
1.9049987565282267,-0.019048142746582064,-0.042883947031949976,-0.002557391175960433,0.04699366877314579
1.9074857000746082,-0.023938549974909407,-0.052634299760919045,-0.03131530115495984,0.0657576746292731
1.9099726436209896,-0.019252330508550186,-0.06238576174605903,-0.05528491827637616,0.08555149143920335
1.9124595871673713,-0.024143096444977863,-0.06734992918193194,-0.05531262900924183,0.09043444584159717
1.9149465307137528,-0.029034039956300328,-0.07231520487840903,-0.05055204638325428,0.0928868867296402
1.9174334742601342,-0.02913675653146075,-0.06770478165912497,-0.026637960184093146,0.07837390486286068
1.9199204178065157,-0.02923964829657566,-0.06788386892398757,-0.002723983437796562,0.07396348273550912
1.9224073613528971,-0.02934271405401584,-0.06806406276638466,0.0020362708314163314,0.07414754147792742
1.9248943048992788,-0.0294459526027408,-0.068245362574757,-0.0027803904769783117,0.07437892314928586
1.9273812484456603,-0.03433776605862704,-0.06363936439199414,-0.0028087571413664136,0.07236670501545021
1.9298681919920417,-0.03922974989356215,-0.05903447087637925,-0.017202442180497712,0.07293809735206203
1.9323551355384232,-0.034545096255767016,-0.0640074879813004,-0.022019428728496493,0.07599458819235656
1.9348420790848047,-0.02986061057138445,-0.0689816083537047,-0.02204811983955146,0.0783341428957961
1.9373290226311861,-0.02517629162262497,-0.0643800246153643,-0.02686532188634594,0.07416453835492638
1.9398159661775678,-0.03006894482903827,-0.07414475260507603,-0.0268942279585076,0.08440903553224528
1.9423029097239493,-0.034961762325662615,-0.06954537161307295,-0.03171164442511021,0.08405065097821168
1.9447898532703307,-0.02548953292397732,-0.06494709078727334,-0.04131757101280087,0.08108626619108006
1.9472767968167122,-0.025594271994743845,-0.07471511925050756,-0.03176999084488408,0.0851278340018264
1.9497637403630936,-0.03048757498364746,-0.08927264949896152,-0.01264571028505479,0.09517884305643509
1.952250683909475,-0.02580423069257426,-0.08467766404283772,-0.0030983423358410533,0.0885763220878884
1.9547376274558568,-0.021121044521816623,-0.07529537192980396,-0.0031278867167436886,0.07826413757943577
1.9572245710022382,-0.026014821868535043,-0.07070257886220865,0.001630866815460763,0.07535439828694948
1.9597115145486197,-0.02612035152521963,-0.06611088055648029,0.0016011119042165234,0.07110193282242101
1.9621984580950012,-0.021437632242206572,-0.07109708266502901,-0.003217151164635723,0.07432844207466063
1.9646854016413826,-0.011966662766774716,-0.07608437753407582,-0.008035518783167106,0.07743773682537555
1.967172345187764,-0.0024958451634667367,-0.06191915084432109,-0.008065587341674174,0.06249211297058185
1.9696592887341458,-0.0073903881344342115,-0.04775501481407174,-0.008095759869311436,0.04899694484895309
1.9721462322805272,-0.01707348377726564,-0.05274558163678433,-0.012914439393473032,0.05692436187910166
1.9746331758269087,-0.007603114225650298,-0.06252564023890672,-0.027310028939794506,0.0686520262913331
1.9771201193732901,0.0018671085068683868,-0.0579415762017752,-0.04170572157123331,0.07141484130557023
1.9796070629196716,-0.01739323423094885,-0.05814700164445341,-0.02737109706774632,0.06657909095162468
1.982094006466053,-0.01750010796246032,-0.05356510873939513,-0.022613381691908074,0.06071935181229222
1.9845809500124347,-0.003241914731556883,-0.05377270291559588,-0.017855768501449987,0.05675246301926457
1.9870678935588162,-0.0033490731808535346,-0.05398137961643856,0.0012669527679509685,0.054100007447143474
1.9895548371051976,-0.01303317870794024,-0.049402734260665326,0.02038957246047346,0.05501116763698004
1.992041780651579,-0.0035638101060427863,-0.04482516888302879,0.025146880922036985,0.051520502015907146
1.9945287241979606,0.005905420631273528,-0.049825488814018826,0.015538878461214267,0.05252532791159494
1.997015667744342,-0.0037790984867963062,-0.0500384827580187,0.02029598531017207,0.054130013502752435
1.9995026112907237,-0.008675349565516188,-0.05504095599646286,0.015476185179361224,0.05782975734683955
2.001989554837105,-0.00399492798868728,-0.060044503825376516,-0.00849732825813021,0.06077422543148428
2.0044764983834864,-0.013679849059302196,-0.0554723181960326,-0.01810573144469707,0.05993441304855394
2.006963441929868,-0.018576498194881386,-0.05568960763686315,-0.0037722174225951477,0.05882727520645103
2.0094503854762498,-0.018684874091560333,-0.051119564050373434,0.015349600845736333,0.056550372188351905
2.011937329022631,-0.023581782083489267,-0.0465505892756779,0.015317707079249843,0.05438464818597004
2.0144242725690127,-0.023690414220983946,-0.0563478917682283,0.01049731156108713,0.062020272352645324
2.016911216115394,-0.023799172512738054,-0.05656945339672603,0.0008884146151384442,0.06137827751268209
2.0193981596617756,-0.028696458964910077,-0.04721527260722658,-0.008720580112710152,0.05593583146786757
2.0218851032081573,-0.028805465620215742,-0.052227364423171885,-0.01832967229521465,0.062397350349499545
2.0243720467545385,-0.028914594479820088,-0.06202892060169063,-0.02315045828314055,0.07224669185272578
2.02685899030092,-0.029023844222122064,-0.052677922914891706,-0.00402932446465698,0.06027920496903359
2.0293459338473014,-0.02913321352308812,-0.057693192954582084,0.005514906250290608,0.06486650009385414
2.031832877393683,-0.029242701056279297,-0.06270951908544253,0.005482234195605784,0.0694094679476069
2.0343198209400644,-0.029352305492877373,-0.06772689960913958,0.005449466347458909,0.07401477860458516
2.036806764486446,-0.03425042882202378,-0.07753373612373515,0.00062819972273509,0.08476418315945217
2.0392937080328277,-0.024783456428972672,-0.08734162356279906,-0.004193162019426211,0.09088653105314143
2.041780651579209,-0.02010500025917117,-0.09236215683608417,0.0005621881020623221,0.09452668991505407
2.0442675951255906,-0.029791865615178492,-0.09738373747018336,0.005317443788666054,0.10197756022253167
2.046754538671972,-0.0346904378754212,-0.10240636364765132,0.0004957987434739408,0.10812370513406155
2.0492414822183536,-0.03958911901767509,-0.10264163020705608,0.010039269913381332,0.11046895281730253
2.0517284257647352,-0.03491110105658107,-0.11724314856489082,0.014794244364081166,0.12322179404916983
2.0542153693111165,-0.030233189285864492,-0.1270573035515632,0.0147607224441213,0.13143623186648867
2.056702312857498,-0.03034378567679863,-0.11771888329426039,0.0003618978630228753,0.12156731379491137
2.0591892564038794,-0.035242888878231904,-0.1131699024591839,-0.014037019066533318,0.11935881175421788
2.061676199950261,-0.030565287575990252,-0.11819876240784977,-0.028436027991199708,0.12535466456126232
2.0641631434966428,-0.030676190375716283,-0.11365184787682825,-0.03804672523574837,0.12371468984299895
2.066650087043024,-0.02599878927946392,-0.10910596350123525,-0.04286911044367869,0.12007418101225245
2.0691370305894057,-0.026109889568529554,-0.10934951057259257,-0.04290318325692155,0.12033172868916717
2.071623974135787,-0.026221086561300844,-0.10001727707794972,-0.02857213667520142,0.10727240133757138
2.0741109176821686,-0.026332378894530606,-0.0954744709030586,-0.023817986938860614,0.10186297302888739
2.07659786122855,-0.031232168523365522,-0.10050949326993042,-0.019063927044504325,0.10696279681463212
2.0790848047749315,-0.026555244119811805,-0.10554553541657574,-0.023886763268427202,0.11142539430523155
2.081571748321313,-0.03145521759620101,-0.09621738523769086,-0.014344478643195657,0.10223981613612018
2.0840586918676944,-0.0363552809411557,-0.0916786538472083,-1.3879442008146725e-05,0.09862394342240381
2.086545635414076,-0.031678626141492805,-0.09192933905492096,0.009528228063464539,0.09770018353778298
2.0890325789604574,-0.0270020584635024,-0.0873926320071634,0.009493440923392882,0.09196036489146742
2.091519522506839,-0.017537173210788792,-0.0732801271478074,0.004670162830093361,0.0754939726063188
2.0940064660532207,-0.022437582286798652,-0.06874543549957002,-0.000153202522598761,0.07231461451128211
2.096493409599602,-0.017761267710478756,-0.0642117481406439,-0.00976505807996908,0.06733474280982998
2.0989803531459836,-0.017873438061609126,-0.06446746608755793,-0.005011790184237697,0.06708674990445901
2.101467296692365,-0.022774091957403153,-0.06472418369368649,-0.005047011738627205,0.06879935716842249
2.1039542402387466,-0.022886421372845023,-0.06019349528993079,-0.00029391572299353186,0.06439822625605894
2.106441183785128,-0.03257563488290738,-0.05087539850509337,-0.005117711717266715,0.06062729694038485
2.1089281273315095,-0.04226492445945612,-0.04634669758625565,-0.009941592698343271,0.06350728684249643
2.111415070877891,-0.047165885393150586,-0.0466073901175883,-0.02434236492287667,0.07063582864617204
2.1139020144242724,-0.04249011297316996,-0.051657473661041564,-0.04353162468512295,0.07980542984810216
2.116388957970654,-0.04739121908879601,-0.0567085424360978,-0.02920214503569163,0.07946415359540764
2.1188759015170353,-0.04750399238569747,-0.05218378731983497,-0.024449555469034934,0.07468304837281074
2.121362845063417,-0.04282843146908383,-0.0572368190891801,-0.029273855595354448,0.07724821436749983
2.1238497886097987,-0.03336453494279884,-0.057502425256918954,-0.024521431742167366,0.07085916819341424
2.12633673215618,-0.03826591469059648,-0.057769006595193684,-0.010192283516810008,0.0700387106776715
2.1288236757025616,-0.04795576267305479,-0.0676133671746375,-0.010228427126742545,0.0835221127350942
2.131310619248943,-0.05285727084947217,-0.07267029444256545,0.008888961065739664,0.09029881729486745
2.1337975627953245,-0.05297043781852745,-0.08251659242617082,0.032794671496635175,0.10339412839656559
2.1362845063417057,-0.048295262177684206,-0.08278704852946905,0.0327582846424157,0.10128787176037142
2.1387714498880874,-0.038831742523221635,-0.07348166009586699,0.027933414184072802,0.08767972528363252
2.141258393434469,-0.03415668409089001,-0.06896563440823567,0.023108463843046323,0.08035508010450028
2.1437453369808503,-0.024693278834066468,-0.05966216212648012,0.008706627381226184,0.06515471563546933
2.146232280527232,-0.024806735306598493,-0.06472485381104942,0.003881518483739299,0.06942439775160436
2.1487192240736133,-0.02970864878002194,-0.07936530339957137,0.0038447342355336644,0.08483063819978369
2.151206167619995,-0.02024540456390478,-0.07485308820692627,0.003807871722912637,0.07763608121954776
2.1536931111663766,-0.015570614529317628,-0.0751302220503205,-0.010594278607083396,0.07745471606916887
2.156180054712758,-0.025261083905730897,-0.08498510544466509,-0.02020810306387233,0.09093381074701151
2.1586669982591395,-0.02058639135918916,-0.08526412228235714,-0.02024519791647883,0.0900202093779605
2.161153941805521,-0.011123342117324853,-0.08554407635677475,-0.02985917603414201,0.09128574989027938
2.1636408853519025,-0.016025548047523264,-0.09061336812017595,-0.01553121376134392,0.09332105482262057
2.166127828898284,-0.02092779777413989,-0.10526039800408382,-0.010780133925619495,0.10786072220742693
2.1686147724446654,-0.02104168656134442,-0.10075474317717781,-0.01560593611101524,0.10410483220266968
2.171101715991047,-0.02594401963346471,-0.10103841731099417,-0.015643409939325892,0.10548255875727516
2.1735886595374283,-0.02605798893283151,-0.10611141745500774,-0.010892554991990266,0.10980573507694405
2.17607560308381,-0.02138359304168541,-0.09682012735702283,-0.01571858081010369,0.10039157781151913
2.178562546630191,-0.01192083054158366,-0.09710656062731404,-0.020544680331914478,0.09996936634593581
2.181049490176573,-0.007246506654057017,-0.10218231093402164,-0.015794046494416847,0.10364935325978726
2.1835364337229546,-0.016937426600017347,-0.09768216528448148,-0.020620292155207665,0.10126143531997685
2.186023377269336,-0.026628378998227342,-0.09797133058780805,-0.01586980360812973,0.10275846851612482
2.1885103208157175,-0.026742555787208522,-0.10304980377216166,-0.006330983747334429,0.10665133708829906
2.1909972643620987,-0.031645165506519635,-0.10812917842545167,-0.011157445426679402,0.1132158306746345
2.1934842079084804,-0.036547803413984725,-0.09884424147511917,-0.0016187682956516625,0.1053970892291336
2.195971151454862,-0.036662064766968816,-0.09913700639133394,0.0031314347943514065,0.10574525480173604
2.1984580950012433,-0.0415647547833462,-0.09943066338239781,0.0030931642744000953,0.10781304803265619
2.200945038547625,-0.046467468719670946,-0.09493680595732679,0.0030548238970844466,0.10574287079342472
2.2034319820940063,-0.04658180183212923,-0.10002064088687401,0.007804817416197096,0.11061151856949142
2.205918925640388,-0.041907752696897727,-0.09074014835986954,0.012554741946097181,0.10073557368580657
2.208405869186769,-0.042022126530483594,-0.07667213178798882,0.0029393879617138907,0.08748208338081671
2.210892812733151,-0.04213651858819656,-0.06260499124333974,-0.0018876308186648316,0.07548797438943274
2.2133797562795325,-0.04225092744543174,-0.053327126778865974,0.002862089363478759,0.06809636463140246
2.2158666998259138,-0.04236535167738997,-0.05362693842843402,-0.006753467654045053,0.06867518382436422
2.2183536433722955,-0.04726819317942382,-0.058716019566298794,-0.025945898110402155,0.07971852149226479
2.2208405869186767,-0.052171047206133636,-0.054229156907189324,-0.025984781642042876,0.07961047985305597
2.2233275304650584,-0.04270870237140062,-0.059319960389215165,-0.021235327767094248,0.07611721292981544
2.22581447401144,-0.03803477053123289,-0.06920002333020259,-0.03085114932287425,0.08477665016268576
2.2283014175578213,-0.033360846940048816,-0.0790809390293501,-0.030890229262780622,0.09121922653820465
2.230788361104203,-0.03347533349289794,-0.08896270408763307,-0.030929373781285463,0.09995792531633982
2.233275304650584,-0.03837822876455721,-0.08448010512664395,-0.021391775790510437,0.09522281594652075
2.235762248196966,-0.05285793465018984,-0.07999834867149902,-0.0070658381624131295,0.09614376274406927
2.238249191743347,-0.05297243312319139,-0.08988264122905365,0.012048439552435397,0.10502443887472311
2.240736135289729,-0.048298529399286305,-0.09497936604581225,0.016797444523300342,0.107870209321719
2.2432230788361105,-0.05798983533499902,-0.10486532627208378,0.011969580522071865,0.1204276899811885
2.2457100223824917,-0.04373912294331528,-0.1099637117589487,0.011930057962317164,0.11894307488307106
2.2481969659288734,-0.034276810721828255,-0.1150629223005466,0.0118904739774095,0.12064725116225862
2.2506839094752547,-0.034391300566861294,-0.11537455103260275,0.01663923234238851,0.12153564346971976
2.2531708530216363,-0.024928977773476357,-0.11568699771378199,0.0022343169114549255,0.1183635397617015
2.255657796568018,-0.025043454199583426,-0.12078866208515704,-0.01695906189767271,0.12451781104331211
2.2581447401143993,-0.025157921781596537,-0.1211027339093671,-0.016998887025636122,0.12485093251074356
2.260631683660781,-0.02048397577665617,-0.12620601621290328,-0.02182717461520589,0.1297072756002258
2.263118627207162,-0.02059842140328827,-0.12652169872370633,-0.017078714245664983,0.12932021378162364
2.265605570753544,-0.02071285391956401,-0.12683818111345113,-0.02669552205780512,0.1312615610283551
2.268092514299925,-0.025615675224696155,-0.13194386303671202,-0.03152398430863457,0.13805472609425137
2.2705794578463068,-0.020941673937199035,-0.13705033749043594,-0.04592931049637983,0.14605084825569217
2.2730664013926885,-0.016267655277735105,-0.13736919745466825,-0.060334693516759685,0.15091457272025183
2.2755533449390697,-0.021170424467587656,-0.13768884253327895,-0.04122130966297277,0.14527766724663022
2.2780402884854514,-0.030861576767755694,-0.14279767231343676,-0.022107981711675606,0.147757825491889
2.2805272320318326,-0.02618749747899729,-0.13833047308446522,-0.017359919157330594,0.141853697876134
2.2830141755782143,-0.021513395144971914,-0.13865245104106183,-0.007823508251316724,0.14052948314042918
2.285501119124596,-0.016839268349167824,-0.13897519908028722,0.016078058115272853,0.1409119259349571
2.287988062670977,-0.021741922316487416,-0.14408711672353292,0.025614360489740307,0.14795237022439195
2.290475006217359,-0.026644548991416717,-0.13483458687445093,0.020785399342145183,0.1390047863721689
2.29296194976374,-0.03633555028023938,-0.13037121898310922,0.02074478842467542,0.1369206821488053
2.295448893310122,-0.04123811812920025,-0.1259086058820409,0.011127318248195905,0.132956295952443
2.2979358368565035,-0.03656384780579025,-0.11186993706758797,0.001509795925988655,0.11770334434334997
2.3004227804028847,-0.03667794785971856,-0.10262041862190019,-0.012896181388734718,0.10973847853759146
2.3029097239492664,-0.04636882020107275,-0.09337164333020453,-0.03209061322162299,0.10907858965884251
2.3053966674956476,-0.05127125345972783,-0.08412360728249757,-0.027343079175613738,0.10224072922448965
2.3078836110420293,-0.04659684290726074,-0.08445311319394655,-0.03217240201688831,0.10167918935853965
2.3103705545884106,-0.04192239377728918,-0.08478335048314367,-0.02263656466707964,0.09725285434933285
2.3128574981347922,-0.04682471130457733,-0.08511431519406631,-0.003523969968886931,0.09720812005204862
2.315344441681174,-0.042150180803195714,-0.07586919671495229,-0.01314184400641416,0.08778086816501156
2.317831385227555,-0.042264010830611154,-0.07141320102058035,-0.017971363058308043,0.08490619401238848
2.320318328773937,-0.04716619998460597,-0.07653472743020417,-0.018012526644627158,0.09168787291636171
2.322805272320318,-0.04249153690330887,-0.07686856196703085,-0.013265334284668029,0.08882722342260006
2.3252922158666998,-0.03781682682773152,-0.0772031039208323,-0.0180949954579237,0.08785135461079553
2.3277791594130814,-0.03793047167992747,-0.07753834924649494,-0.022924703041571348,0.08931102001028447
2.3302661029594627,-0.05240927670364809,-0.07787429388444389,-0.022966053232376993,0.09663631581177264
2.3327530465058444,-0.062099627222207576,-0.07821093376075128,-0.027795852187320946,0.10366254511483482
2.3352399900522256,-0.04784790856037169,-0.07854826478724952,-0.04699090606268008,0.10328309400517191
2.3377269335986073,-0.043172942567843375,-0.07888628286164501,-0.04703239113123381,0.10148396133978575
2.3402138771449885,-0.04328632453335396,-0.08401338718794227,-0.037497113547885874,0.10167590000988921
2.34270082069137,-0.05297645638783255,-0.08914117031561952,-0.027961879466854356,0.10739888211694339
2.345187764237752,-0.053089723462245164,-0.0846928214600533,-0.01363828508076459,0.10088307868074971
2.347674707784133,-0.048414527690759435,-0.08024514310419795,0.0006852667777970112,0.09372149739461738
2.350161651330515,-0.04852767432952859,-0.08537493771744886,0.010220373276890626,0.0987333337632739
2.352648594876896,-0.053429161995790175,-0.08571699115419218,0.014967034905520649,0.10210822718059169
2.3551355384232777,-0.04875377934758818,-0.09084810585704828,0.005348445512691313,0.1032420224903067
2.3576224819696594,-0.05365513828693402,-0.09119147097417013,-0.004270184450424708,0.10589141947421224
2.3601094255160406,-0.05376802747546672,-0.07717027564062384,0.005264758788252166,0.09420175107794378
2.3625963690624223,-0.049092445537613494,-0.06793812890035378,0.010011259118583027,0.08441494462761936
2.3650833126088036,-0.039628391099689964,-0.06349502650319927,0.00996931703257431,0.07550771519446169
2.3675702561551852,-0.025375862789927317,-0.05426415754562042,-0.004437873617836985,0.060068526939796224
2.3700571997015665,-0.02548847251977404,-0.04982232439270495,-0.023633505698894552,0.06074922905603725
2.372544143247948,-0.030389412280789563,-0.05495792607670946,-0.028463965435683747,0.06894989010686431
2.37503108679433,-0.025713470746251077,-0.06009415165656007,-0.018929252333993674,0.06805002744352096
2.377518030340711,-0.03061425983368654,-0.06523099681953415,-0.009394575860014243,0.07266755745739711
2.3800049738870928,-0.040303374861161534,-0.07036845724075347,0.00014006448150460926,0.08109316504923234
2.382491917433474,-0.03562720118793822,-0.07550652858330231,0.0048862658660162595,0.08363258286876157
2.3849788609798557,-0.02616254409732599,-0.09022201313897282,-0.014309584491485339,0.09502238987108497
2.3874658045262374,-0.035851418835771975,-0.10493809990652059,-0.014351856211467506,0.11181817750814703
2.3899527480726186,-0.045540210769155376,-0.11486638119331527,-0.009605758757658123,0.12393735081345508
2.3924396916190003,-0.040863708585947345,-0.12000685261550359,-0.009648098273029149,0.12713997465141502
2.3949266351653815,-0.031398717578490554,-0.12514791309809992,-0.01926727757978952,0.13045730184133061
2.397413578711763,-0.04587565632271634,-0.12550115491418445,-0.028886489538761495,0.1367097107220518
2.3999005222581444,-0.055564103553203625,-0.1258549769662718,-0.024140523690045157,0.1396768044983904
2.402387465804526,-0.046098847967876444,-0.14057458478643303,-0.024182992815497073,0.14990375183216
2.404874409350908,-0.04621030814992716,-0.14092955401298113,-0.01943708977470493,0.14958052089934346
2.407361352897289,-0.05111007944284918,-0.1364966868359061,-0.014691217387801103,0.14649033280790036
2.4098482964436707,-0.051221353872346775,-0.13685278543449853,-0.024310585115168593,0.14813276653846347
2.412335239990052,-0.051332533427620564,-0.14678624865715761,-0.02914157917461857,0.15821018747138013
2.4148221835364336,-0.056232020100465296,-0.15672026538089412,-0.029184199064863137,0.16904141250206878
2.4173091270828153,-0.05155460260405387,-0.161866427792698,-0.019650040963949067,0.1710109400182208
2.4197960706291965,-0.046877086255789735,-0.16222473138966986,-0.014904314330832946,0.16951832725683544
2.4222830141755782,-0.04698787305545815,-0.15779517165882861,-0.010158615342898969,0.16495567246627205
2.4247699577219595,-0.04709855836495741,-0.1533661473975485,-0.010201346817838797,0.16075918898937536
2.427256901268341,-0.0472091408692672,-0.16330286403399974,-0.010244104932413123,0.1702981798763205
2.429743844814723,-0.03774281261554763,-0.1636633004241479,-0.005498485863101976,0.16804888918598648
2.432230788361104,-0.04264158889598274,-0.15444745201594978,-0.01032969906736092,0.16055847290197844
2.4347177319074857,-0.0427518551228232,-0.15959733084946182,-0.005584130760194483,0.16531851574177162
2.437204675453867,-0.04286201331278844,-0.15995931907260807,-0.010415393718854915,0.1659295524302915
2.4396916190002487,-0.038183658844918145,-0.145956605464737,-0.015246680798481904,0.15163701314964226
2.44217856254663,-0.03829359706216867,-0.14631960535862554,-0.015289588174287161,0.15201841334128888
2.4446655060930116,-0.038403423349572086,-0.1514715075156028,-0.020120921982213602,0.1575540923474541
2.4471524496393933,-0.033724733095209014,-0.15183550068818485,-0.0297406817173691,0.15835367075186077
2.4496393931857745,-0.03383433165118088,-0.15698838690144168,-0.029783656913735967,0.1633315090218479
2.452126336732156,-0.03394381441176908,-0.15735335489063385,-0.020249847066043714,0.1622415394969998
2.4546132802785374,-0.034053180094719915,-0.15293040002321456,-0.015504461629790356,0.15744114664297099
2.457100223824919,-0.03416242742096631,-0.1580847276192685,-0.010759096779073829,0.16209136533835658
2.459587167371301,-0.029483151794350737,-0.16323952638914196,-0.015590558648780117,0.16661171847880676
2.462074110917682,-0.03438056190321809,-0.1588179850351361,-0.025210443412708727,0.16444069406466003
2.4645610544640637,-0.039277849837645595,-0.15439690553287955,-0.02046513728361532,0.1606237086174852
2.467047998010445,-0.03938661101134727,-0.15476468652990016,-0.010931446396007516,0.16007157725207255
2.4695349415568266,-0.029918440841391336,-0.15034451670513072,-0.010974580204615947,0.15368483404795252
2.472021885103208,-0.0300269513498041,-0.13634798805029336,0.0033474783984210887,0.1396552801162718
2.4745088286495895,-0.030135334640161937,-0.1367171124715738,0.017669519958550595,0.14110959985771743
2.4769957721959712,-0.02545518613981751,-0.1370866753053983,0.02720314166190363,0.1420589101886188
2.4794827157423525,-0.0255633112405505,-0.12309146188105036,0.036736747335289976,0.1309754918844448
2.481969659288734,-0.030459708697047283,-0.12346188740361663,0.027116724204004683,0.13002287578241126
2.4844566028351154,-0.035355973947242714,-0.12862114050880757,0.007919879415235087,0.13362697021745418
2.486943546381497,-0.04504050907329221,-0.11941560318496247,0.0030882300771306603,0.12766468151614618
2.4894304899278787,-0.04035969955941743,-0.12457569061692952,0.007833373375957464,0.1311844875724967
2.49191743347426,-0.04046715745600321,-0.12015938145963823,-0.0017867067832657568,0.12680323381704892
2.4944043770206417,-0.04536288153588042,-0.12053188092416134,-0.020983606573681257,0.13048385756557618
2.496891320567023,-0.055046870575609474,-0.11611637761379212,-0.03539211552783428,0.13328830763368643
2.4993782641134046,-0.05994231671488881,-0.10691286676635992,-0.03543542649863696,0.12758962287149284
2.501865207659786,-0.06004921873783792,-0.10249815025436426,-0.04026715226091504,0.12543214511358183
2.5043521512061675,-0.06015597875271789,-0.10766062662416997,-0.05946409894893634,0.13691432126923492
2.506839094752549,-0.06505099887165178,-0.11282348445551049,-0.06429584613454509,0.14524023867041652
2.5093260382989304,-0.05558066460909511,-0.11798671896318469,-0.06433919995217963,0.14542905067617265
2.511812981845312,-0.055686991366243,-0.11836192203625284,-0.059594159895750565,0.14374299805284535
2.5142999253916933,-0.060581574626375756,-0.11873749219910579,-0.05006072545927864,0.14238959046030406
2.516786868938075,-0.060687606556453555,-0.12390182797097271,-0.02137368617598767,0.13961190144414273
2.5192738124844567,-0.07037029592902361,-0.12427811790511978,-0.011840268102655926,0.1433081333627648
2.521760756030838,-0.06568762495819441,-0.12944316383116528,0.007269949188120961,0.14533839443336424
2.5242476995772196,-0.05621639910434817,-0.12503175097240904,0.021591756240805893,0.13877833482589508
2.526734643123601,-0.04674502051167345,-0.1158322778287677,0.01675994359966282,0.12602820810874635
2.5292215866699825,-0.046850294648834445,-0.1066331428956655,-0.0024370849099888403,0.11649685255554555
2.5317085302163638,-0.056532220348047835,-0.10222274466416659,-0.01205731218177597,0.11743406763458565
2.5341954737627455,-0.06142558648481722,-0.10738948162110251,-0.012100737711110199,0.12430619972875834
2.536682417309127,-0.05195358525920485,-0.10297973564765917,-0.021720974274865412,0.11737036124506303
2.5391693608555084,-0.05205823211773769,-0.09857030854292814,-0.016976004767347064,0.11275792652994865
2.54165630440189,-0.056951122589385283,-0.10852640542249414,-0.026596248606546524,0.12541439900609494
2.5441432479482713,-0.05226704556683526,-0.1184828114763734,-0.01706288204665718,0.13061838542628526
2.546630191494653,-0.052371209869021884,-0.11886271521134262,0.006835692095359391,0.1300685026321916
2.5491171350410347,-0.062052017678664195,-0.11924291841199652,-0.0027845588805845978,0.13445103293602007
2.551604078587416,-0.052579047940733925,-0.11962341621902128,-0.04113523115140971,0.13699060271472313
2.5540910221337976,-0.04789431612809886,-0.12958101041057057,-0.06033229101158,0.1507484298926813
2.556577965680179,-0.05278622443688191,-0.12996208283990196,-0.0699525445996052,0.15674784516013662
2.5590649092265605,-0.0481011584661703,-0.12555503195894557,-0.0699959914137267,0.15158240765336187
2.561551852772942,-0.04341592374148645,-0.12593665953719269,-0.05567422763221863,0.14437660569551236
2.5640387963193234,-0.04830732579293889,-0.140683767341506,-0.031775656074351843,0.1521026378391237
2.566525739865705,-0.0484101535536976,-0.14585433389408964,-0.017453889520703925,0.1546663115942903
2.5690126834120863,-0.03414759928189115,-0.15102516095697283,0.0016562824899448714,0.15484637887429806
2.571499626958468,-0.039038485123140176,-0.1561962436493487,0.020766457137161964,0.1623345791657031
2.5739865705048492,-0.04871760002465031,-0.15657917376800956,0.011146214998534631,0.16436143196878
2.576473514051231,-0.05360813625867428,-0.14259713978749877,-0.003262426825338949,0.15237591665842323
2.5789604575976126,-0.03934488278192538,-0.1429805567430309,0.006270952086007142,0.14842770714302475
2.581447401143994,-0.03465825843872283,-0.1529410164259648,0.011015932308845677,0.15720528028042063
2.5839343446903755,-0.03954826215633728,-0.1437480940245477,0.00618411102054317,0.1492173676365824
2.5864212882367568,-0.03964968290595705,-0.13455539792874216,0.0013522953589202302,0.14028214843323025
2.5889082317831384,-0.04453932626521645,-0.13493972988660952,-0.013056320819943679,0.14269880798165005
2.59139517532952,-0.0398519812150992,-0.1305358750435075,-0.017888123738586614,0.13765093552544352
2.5938821188759014,-0.0447412599837167,-0.12134382850472436,-0.013143112901305543,0.12999556330064096
2.596369062422283,-0.049630354882273964,-0.1217287953356121,-0.02755170773479776,0.13431369378698327
2.5988560059686643,-0.0497308615472844,-0.11732556067890787,-0.04196029446316807,0.13416076956506712
2.601342949515046,-0.05461958558122304,-0.12728773291893214,-0.04200366263138555,0.1447403667093503
2.603829893061427,-0.049931315990054126,-0.132461693877032,-0.032470215066224384,0.1452361922101996
2.606316836607809,-0.050031261706696584,-0.132847438655467,-0.018148354595030725,0.14311160637694276
2.6088037801541906,-0.05013101838792594,-0.13802176899691654,0.0009619192745802252,0.14684703950144712
2.611290723700572,-0.05023058501596411,-0.14798468000336484,0.005706993753141987,0.15638141502251054
2.6137776672469535,-0.059906767218817436,-0.1483709568159184,0.0008752726521539245,0.16001102364304876
2.6162646107933347,-0.055217547387495514,-0.1439689978571339,-0.003956436897201598,0.15424559402588872
2.6187515543397164,-0.05052813448071625,-0.14914400819051554,0.0007886722356200693,0.15747269463983002
2.621238497886098,-0.06020373746243973,-0.1495307729581583,0.0007453905789489568,0.1611970771230851
2.6237254414324793,-0.050725532098774784,-0.14991769058400095,0.005490525262029422,0.1583620517181975
2.626212384978861,-0.05082393732516799,-0.15030475617239691,-0.013706343149058497,0.1592559454959093
2.6286993285252422,-0.05571054884021309,-0.15548036814887256,-0.018537987604540618,0.16619707312769624
2.631186272071624,-0.055808559027526294,-0.16065611829931825,-0.009004407617826615,0.17031166420501387
2.633673215618005,-0.046329563596406276,-0.15625519509043828,-0.018624425945217737,0.1640395796677536
2.636160159164387,-0.04163877154279577,-0.16143120691206825,-0.01866762217966489,0.16775667491495783
2.6386471027107685,-0.04652458522743114,-0.16181893891324872,-0.02828760911797268,0.1707339885646834
2.6411340462571498,-0.04183339041492978,-0.1717835961664158,-0.03311917631548944,0.17987917140483675
2.6436209898035314,-0.046718799437876546,-0.16738315718315988,-0.033162323289255724,0.17691666743260812
2.6461079333499127,-0.05160400471247295,-0.16298282703935651,-0.052359066158636836,0.17879554530555353
2.6485948768962944,-0.05648900530106138,-0.16815940749248615,-0.05240217787972057,0.1849718418967201
2.651081820442676,-0.05179699363089896,-0.1781244903411383,-0.023714851331249065,0.1870124508746755
2.6535687639890573,-0.04710477541605579,-0.1785128607454558,-0.014181119236504003,0.185166966441975
2.656055707535439,-0.05198915637618862,-0.17890132046945517,-0.019012577796157615,0.18726994676369577
2.65854265108182,-0.056873328955313385,-0.17928986463896646,-0.014267209930439506,0.18863452596997568
2.661029594628202,-0.0521804856030782,-0.17967848838238965,-0.009521821802605857,0.18734414150326179
2.663516538174583,-0.05227583537634817,-0.18006718683082346,-0.009564816256446562,0.1877456802365405
2.666003481720965,-0.052370974056415276,-0.18524435843850773,-0.00960778949599117,0.19274465200339888
2.6684904252673465,-0.04767749743027028,-0.18563319170170534,-0.019227547687078683,0.1926201552606435
2.6709773688137277,-0.03819540461093912,-0.18123368176039367,-0.024058880394871807,0.18677089190683793
2.6734643123601094,-0.04786671131874526,-0.1911994370390131,-0.019313383826045083,0.19804406977064415
2.6759512559064906,-0.05274940007666068,-0.1963768394028591,-0.009779460828811537,0.20357308298595417
2.6784381994528723,-0.048055066694688287,-0.19197748068163856,-0.0050339175726161756,0.19796459999208885
2.680925142999254,7.833562944964349,3.858622642994473,-0.799951704759053,8.768899579975534
2.6834120865456352,7.043382760758932,3.9013291517024684,-0.6371888033642126,8.076857027062713
2.685899030092017,6.143069518259591,3.8195371430545952,-0.4792142803024664,7.249538841870536
2.688385973638398,5.180507251515933,3.6324002351668945,-0.3451817483877093,6.336492506968636
2.69087291718478,4.165272768009039,3.3447068361903622,-0.2063607872316684,5.345946672618714
2.6933598607311615,3.1404616984560905,2.9947641775138703,-0.06753979968922685,4.340008500329476
2.6958468042775428,2.134804463608127,2.5777838606394083,0.042550794782107104,3.347263105904701
2.6983337478239244,1.1722430808888524,2.098554293704649,0.12869939996610746,2.4072074069073572
2.7008206913703057,0.2575659544354777,1.604959514725762,0.21484803292671018,1.6396325631206186
2.7033076349166874,-0.570919688378611,1.101787931831371,0.291419887484615,1.274680935814577
2.7057945784630686,-1.2988486367881809,0.6034047597855019,0.3584149641001648,1.4763354537195257
2.7082815220094503,-1.9310092933143774,0.12417521334772097,0.3966796499513112,1.9752395093157533
2.710768465555832,-2.448248043883484,-0.32632389604826484,0.4110023488165595,2.5038627558722446
2.713255409102213,-2.8553532910289583,-0.7385157569736074,0.41095986779363614,2.977807239030956
2.715742352648595,-3.1523250339704516,-1.0884583480443282,0.40134061065886684,3.3590130962811426
2.718229296194976,-3.3295864652927842,-1.3953052777644521,0.386932981187476,3.630804315843648
2.720716239741358,-3.4110796008291415,-1.639902928081191,0.37731378647389313,3.803565610080261
2.7232031832877395,-3.3968044398172452,-1.8174628909084507,0.3724830269707837,3.8704257346670237
2.7256901268341207,-3.2963377881416522,-1.9327735648065378,0.33413347656721193,3.8357661094634623
2.7281770703805024,-3.109679645052336,-1.9954117516621737,0.281418748994799,3.705532629165492
2.7306640139268836,-2.870348833047742,-2.005377446727472,0.22391565134341818,3.5086435193872685
2.7331509574732653,-2.5831337547104347,-1.95309383862017,0.18077779734234412,3.2434296892629644
2.7356379010196465,-2.2528228126294345,-1.8481377292455914,0.1424283807978668,2.9173805948181233
2.7381248445660282,-1.912934829321616,-1.7096627271561247,0.09929059551502561,2.5675133737171394
2.74061178811241,-1.5586814007478802,-1.5376688276296122,0.05136444193832901,2.1901030657018943
2.743098731658791,-1.185274122874993,-1.3417328325910416,0.008226727151660285,1.7903042812464847
2.745585675205173,-0.8166550115981073,-1.131431543972345,-0.039699355043543605,1.395936526298679
2.748072618751554,-0.4719776794982743,-0.9163417637123672,-0.07326019092521108,1.0333499956173928
2.7505595622979357,-0.13687691592070445,-0.6820982771554931,-0.08287897341313055,0.7006156393090793
2.7530465058443174,0.1647052632208758,-0.4526430962155805,-0.0972861219908534,0.49140429975357813
2.7555334493906987,0.42798045528712725,-0.23276461953294447,-0.1212700395416011,0.5020488628654731
2.7580203929370803,0.6481602576329029,-0.027251245754910336,-0.14046551566866405,0.6637657049456602
2.7605073364834616,0.8348214775674027,0.15910862646346313,-0.16444935657814597,0.8656131037027325
2.7629942800298433,0.9783873091122426,0.3119497918188543,-0.16449114191496683,1.040005641819414
2.7654812235762245,1.08364615624371,0.4408490616018499,-0.15016767788784335,1.1794859976020173
2.767968167122606,1.136232809650308,0.5505948437746753,-0.14063257734743573,1.270416152891829
2.770455110668988,1.1600892865767483,0.6268219330104188,-0.12630903322385478,1.3246383885449686
2.772942054215369,1.155215587659749,0.6743187372552795,-0.10719704508917616,1.3419090952301742
2.775428997761751,1.1264001168499238,0.6882968578066051,-0.10245022579806218,1.3240188202861929
2.777915941308132,1.0544892614898949,0.6687562992737157,-0.09291496164402524,1.2521245067935898
2.7804028848545137,0.9538482321580315,0.6300622762184132,-0.08337965552352244,1.14619243099043
2.7828898284008954,0.8484190460668579,0.5865800031939177,-0.06426750037342188,1.033451154859397
2.7853767719472766,0.7382017038209523,0.5095790648620091,-0.04036689909293223,0.8979098314486681
2.7878637154936583,0.5992541894167399,0.4134246757584039,-0.030831464543576104,0.7286810861174847
2.7903506590400395,0.469883730008305,0.32205885705059245,-0.030872792986725628,0.5704960617550772
2.792837602586421,0.3309367128994702,0.22111640333453275,-0.02133727072422964,0.3985810468277
2.7953245461328025,0.20156675195005525,0.11059731915799276,-0.011801703981241474,0.23021772892957412
2.797811489679184,0.0817738477321191,7.841570012612209e-05,-0.016631302304666917,0.0834479990070885
2.800298433225566,-0.038018805829425184,-0.09607509254895064,-0.011884048680354198,0.1040052095715498
2.802785376771947,-0.14823440153494427,-0.1922284110304573,-0.007136749337776749,0.2428500216117507
2.8052723203183287,-0.24408453551165527,-0.28838153523424026,-0.007177807187561669,0.3778792019363062
2.80775926386471,-0.315992400573009,-0.37495765401919945,-0.012007221821493275,0.4904983311932317
2.8102462074110917,-0.3831116094608739,-0.4471683595743188,-0.002471379551584718,0.588846461163669
2.8127331509574733,-0.43586535500186013,-0.500225244098532,0.01664131670711555,0.6636873028362679
2.8152200945038546,-0.47425363666967263,-0.5389167064412876,0.021388850756808964,0.7181958029065834
2.8177070380502363,-0.49348805062436907,-0.563242742141917,0.021348029640380517,0.7491519078625594
2.8201939815966175,-0.49835699967317626,-0.5875685567108615,0.0260956603992053,0.7708939560342951
2.822680925142999,-0.4984372899502307,-0.5975289357470017,0.026054936791886973,0.7785624064897457
2.825167868689381,10.064700400333228,4.386815578304409,-0.9843388380494638,11.023214958196844
2.827654812235762,8.9824414720617,4.367278857050113,-0.7449592965413192,10.015605012566851
2.8301417557821438,7.751742297791815,4.228032291617479,-0.4960028982499267,8.843742679737307
2.832628699328525,6.420486911206304,3.983441096365244,-0.2470464494227631,7.559860256205494
2.8351156428749067,5.036559345982401,3.652658888961766,-0.0316087729106691,6.221723725724166
2.837602586421288,3.6239016191882767,3.250050883744066,0.15988693831694611,4.870426831965076
2.8400895299676696,2.2399745711278785,2.7899822950381417,0.32744068464841014,3.5928685876175375
2.8425764735140513,0.8991434122154882,2.2772415305181366,0.45668725650954656,2.490552371323541
2.8450634170604325,-0.3554962272184798,1.7501358210895215,0.5572034609260825,1.8707828994020848
2.847550360606814,-1.5000023301328453,1.2230303810442993,0.6098356850003626,2.0292141005968767
2.8500373041531954,-2.5200096861328,0.6911368113821621,0.6576795589971063,2.6945614323249827
2.852524247699577,-3.391576278189782,0.1736087296927331,0.6767930666950512,3.462799228504545
2.855011191245959,-4.105125299242915,-0.300823439805451,0.6719646117931823,4.170621644781863
2.85749813479234,-4.651079942237583,-0.7417364994677702,0.6527710013091674,4.75487409337804
2.8599850783387217,-5.03422861008735,-1.1299768317400298,0.5904818156965064,5.19316609724352
2.862472021885103,-5.268936512352672,-1.4559676257202712,0.5281926852117493,5.491859540361522
2.8649589654314846,-5.345626841999199,-1.7197088771592575,0.4563268035863466,5.633947027418167
2.867445908977866,-5.283453211921118,-1.925988985140181,0.3748841711907147,5.636031365708519
2.8699328525242476,-5.101569235019312,-2.06523113879748,0.2790763850732958,5.510814090954243
2.8724197960706292,-4.785609700958937,-2.1374353339186287,0.17848025224170705,5.244286912158448
2.8749067396170105,-4.3690934326154345,-2.1713319862251996,0.09224938634266877,4.879771507622933
2.877393683163392,-3.885539252870331,-2.142979074927956,0.01559538441947339,4.437343554108742
2.8798806267097734,-3.344523968010598,-2.0571649991720675,-0.04190494652527477,3.926770228948882
2.882367570256155,-2.755624384329796,-1.933043368076325,-0.0946168160922678,3.3673542659281144
2.8848545138025368,-2.142782518088985,-1.7706141774910005,-0.15690543388393152,2.7840996391189394
2.887341457348918,-1.5347287888766443,-1.5938194398809147,-0.2000403796215693,2.221636562498067
2.8898284008952997,-0.9362515996858147,-1.388293941161184,-0.22881005627044537,1.690053598803773
2.892315344441681,-0.36650456347715227,-1.1540376772208787,-0.24321446347725484,1.235023008182223
2.8948022879880626,0.169723916742421,-0.9197810638842596,-0.2624072141716649,0.9714221324654811
2.897289231534444,0.6580686313191157,-0.6903125003870918,-0.2768115013632215,0.9930812046372913
2.8997761750808255,1.084164370592434,-0.4656319826581239,-0.2672737114226038,1.2098184833080694
2.902263118627207,1.4575879414965047,-0.2457395066396506,-0.24337065064413999,1.4980586723871896
2.9047500621735884,1.7543973277170037,-0.049788681568453175,-0.21467912532391686,1.7681843860759348
2.90723700571997,1.9745925295342364,0.12700889990652842,-0.19556434508010945,1.9883139418649394
2.9097239492663514,2.1325387571828203,0.29423004844302714,-0.1764495029311366,2.1599600226342797
2.912210892812733,2.2186592042892626,0.43272115476328654,-0.14775779189717042,2.265287758238115
2.9146978363591147,2.242530677754487,0.537693819536508,-0.10948921164083814,2.3086893190084044
2.917184779905496,2.208941581152583,0.6139364500586777,-0.09516258506874209,2.2946452430065287
2.9196717234518776,2.1035267047696733,0.6566606469712291,-0.08562429856586462,2.205302546922923
2.922158666998259,1.9550164687680656,0.6706548175421005,-0.05214393187836386,2.0675072592565473
2.9246456105446406,1.7729876800221973,0.6702841756657216,-0.023451904597990847,1.8956044369771987
2.927132554091022,1.5574403387591083,0.6459719186207309,0.010028590244195001,1.6861200138373662
2.9296194976374035,1.308374445199392,0.5929296469917729,0.03393234301371706,1.4368579119157905
2.932106441183785,1.0497320161584398,0.5207341713100413,0.05304775735552347,1.172994223122377
2.9345933847301664,0.7863014551637949,0.43896230209226106,0.06258643027208954,0.9027042385549333
