Time (s),Acceleration x (m/s^2),Acceleration y (m/s^2),Acceleration z (m/s^2),Absolute acceleration (m/s^2)
0.0,0.12687322280124547,-0.05994051439882098,-0.012932554811115438,0.14091462274835867
0.002486943546381497,0.12328483771046717,-0.05084556480157687,-0.003553080523403196,0.13340557353609095
0.004973887092762994,0.12448748643343488,-0.05611698042888724,-0.003750663878278715,0.13660277175262064
0.007460830639144491,0.12090435274410927,-0.06617795077545718,0.0056283100470508884,0.13794586458207644
0.009947774185525988,0.11253542699272667,-0.06666326198717165,-0.004146577021813869,0.1308640780665322
0.012434717731907486,0.11853431274648096,-0.06714971678298198,-0.004344903509593934,0.13630240624736942
0.014921661278288981,0.11974738694583631,-0.07242571453305535,0.005033332242998512,0.14003662106551942
0.01740860482467048,0.11617463974833697,-0.0824912512587912,0.009622921940181328,0.14280740205452838
0.019895548371051976,0.12696967452866947,-0.0781927096719115,0.023789077213907106,0.1510010539381806
0.022382491917433474,0.12819046471466888,-0.0834721023385403,0.047531799741010516,0.16018632619296205
0.02486943546381497,0.11983700027175781,-0.08875261855422512,0.04733226796193968,0.156455353135602
0.02735637901019647,0.12106288438270063,-0.08445744758615126,0.032767290205731214,0.15120508501784335
0.029843322556577963,0.1175028969242401,-0.08974019859503723,0.042144094729055226,0.1537412070656299
0.032330266102959464,0.118733834310916,-0.08544725415078691,0.03236705334898282,0.14982183684155367
0.03481720964934096,0.11996728293264025,-0.07157861007626387,0.013012974411743983,0.1403031856293031
0.03730415319572246,0.12120323243602216,-0.07686468208794306,0.012812279550491468,0.1440921837321543
0.03979109674210395,0.1368068823650691,-0.08215185267093705,-0.016119062720953536,0.16038975697568483
0.04227804028848545,0.13325939899720585,-0.0682865042821521,-0.03068542079720693,0.15284864781107665
0.04476498383486695,0.12492598174960212,-0.06399905255343574,-0.02609838962977129,0.1427708148926338
0.04725192738124844,0.12617182997612897,-0.07886629980723558,-0.031088387406748907,0.15200563067321574
0.04973887092762994,0.13699693300650706,-0.0745810151347559,-0.031290202427870284,0.15908979929491762
0.05222581447401144,0.14303607014639141,-0.06550840412254733,-0.02191542962794557,0.1588425460302869
0.05471275802039294,0.13950082727902202,-0.06122526900878933,-0.017329277217527306,0.15332748685611483
0.05719970156677443,0.1407564035059372,-0.08088521864426212,-0.007954936800121715,0.16253634898861927
0.059686645113155926,0.14680278790487677,-0.08618102200800726,-0.0033692132550182663,0.17026326288705576
0.062173588659537427,0.14806316285018783,-0.08668948125423315,0.006004701825172987,0.1716794186771918
0.06466053220591893,0.14932592061448102,-0.08719899518891294,0.01537840689231551,0.1736041207110706
0.06714747575230041,0.14580264676716348,-0.0924979625901341,0.019963500403653356,0.17381837139958123
0.06963441929868192,0.14707013677609992,-0.09300957224719619,0.024548387462411725,0.1757356793253773
0.07212136284506342,0.143551572765524,-0.08394541624190044,0.024344666536523007,0.1680670989225909
0.07460830639144492,0.14003534675832785,-0.08924750655014746,0.02892914606016639,0.16855833191780872
0.0770952499378264,0.1460982540355401,-0.09455062855760366,0.04309023115249211,0.17927991860118173
0.0795821934842079,0.15216347653486728,-0.0950663742628639,0.052462713656648674,0.1869322749845075
0.0820691370305894,0.16301940609298837,-0.09558314227749642,0.042681385421014184,0.1937347787879294
0.0845560805769709,0.15472401456285023,-0.09610092786514324,0.037688264861673204,0.18599815678460416
0.0870430241233524,0.14164250029815417,-0.10619653290250142,0.03269495047801385,0.18002572393406574
0.0895299676697339,0.14292846491127886,-0.10192793599655392,0.018124637454265624,0.1764832929805562
0.0920169112161154,0.13942828339058178,-0.09766034228930076,0.017919344221960287,0.17116918987555227
0.09450385476249688,0.1311419439442666,-0.09818215025467714,0.012925459334910627,0.16433201632406141
0.09699079830887838,0.1420114513208084,-0.09391654837828911,-0.0016454186870689114,0.17026531581091203
0.09947774185525989,0.14330637368407861,-0.09922874171996066,-0.016216481358195978,0.1750600873684466
0.10196468540164137,0.13981510237908745,-0.09975351539034127,-0.01642251686736529,0.172536157793851
0.10445162894802287,0.15069123865085698,-0.09549086443376842,-0.016628733320370515,0.17917273611874623
0.10693857249440437,0.161569560441422,-0.09122918718769135,-0.016835128857120907,0.18630863914428933
0.10942551604078588,0.16287324895245492,-0.0917568819624055,-0.017041701612601656,0.18771638235818452
0.11191245958716736,0.15460229196570574,-0.09707394372079348,-0.002883239755959721,0.18257473073250705
0.11439940313354886,0.1559102904837566,-0.09760356075806298,0.006486645306331695,0.18405583478583995
0.11688634667993036,0.16679723216765308,-0.10292253462367418,0.020644762094521596,0.19708011313699506
0.11937329022631185,0.16332108801672807,-0.10345405355889126,0.030014305852411383,0.1956460516967717
0.12186023377269335,0.1694238621734202,-0.11356332237965017,0.0441720851098335,0.208691749637145
0.12434717731907485,0.17552873547810144,-0.11888512595317646,0.03438768183887042,0.21477086118394953
0.12683412086545634,0.17684729203171534,-0.10984265244022673,0.015026307899136171,0.20872508934753126
0.12932106441183785,0.17816792251622904,-0.11516631653733533,0.0004531751549414764,0.21214922683396178
0.13180800795821934,0.17949061423383894,-0.11570249971124369,-0.009331714485684373,0.21375460213224293
0.13429495150460083,0.18081535442742835,-0.11623960000364786,-0.0191167624303894,0.21580381741652424
0.13678189505098234,0.18214213028071324,-0.11198920878906993,-0.01453675680096822,0.2143097193472305
0.13926883859736383,0.18347092891838968,-0.10773972405616705,-0.00995690563650875,0.21299899029744285
0.14175578214374532,0.18480173740628392,-0.12264475372810413,-0.005377207010621277,0.22186106490469099
0.14424272569012683,0.19092294607181604,-0.11839706585792875,-0.005586062312712414,0.224723475926904
0.14672966923650832,0.18268092858227902,-0.10936186499582101,-0.010583469607384544,0.2131768022369656
0.14921661278288983,0.18401768842936894,-0.11948116230634298,-0.006004216993840572,0.21948646523800072
0.15170355632927132,0.1901448091246547,-0.12002453240444222,-0.0014251091684229777,0.22486210830662043
0.1541904998756528,0.1962738741216109,-0.1157803731211402,-0.006422950823065321,0.22796881971017863
0.15667744342203432,0.1976164668157786,-0.12590229222235116,0.0029442765968461515,0.2343337873808913
0.1591643869684158,0.19896097718555406,-0.12644826756519478,0.007522961767461922,0.23586273501048094
0.1616513305147973,0.20509579515172716,-0.12699510022306715,0.01210150997079218,0.2415336150790595
0.1641382740611788,0.20644410061671037,-0.13233118792320786,0.01189151985250625,0.2455038049012934
0.1666252176075603,0.20779428338658157,-0.12330291176552155,0.016469800023445558,0.24218448870811535
0.1691121611539418,0.20914632989000437,-0.10948707274608482,0.021047949137733113,0.2370076424250273
0.1715991047003233,0.22007703313933702,-0.11482568179628005,0.011260759213053362,0.24848670470157508
0.1740860482467048,0.21664436284799293,-0.11537671661880067,0.015838652154050337,0.2459622523754506
0.1765729917930863,0.21321351523530352,-0.11592857481272789,0.01562801666637803,0.24319472124622654
0.1790599353394678,0.21457287982357198,-0.11169284731110407,0.01062885474103048,0.2421358822011901
0.18154687888584928,0.2159340394382515,-0.11224633498256997,0.01520637833399796,0.24384007678635675
0.1840338224322308,0.20772017352844063,-0.1080122253892517,0.019783782803733274,0.23495895255607796
0.18652076597861228,0.21866168804987385,-0.10856731934933528,0.014784263512682472,0.24457794483381637
0.18900770952499377,0.22002814905886203,-0.10912320769495931,0.014573032428808474,0.2460338068438505
0.19149465307137528,0.21660794579841292,-0.10489148123323,0.014361688242756188,0.24109641869486853
0.19398159661775677,0.22276627409685723,-0.09587213406661466,0.004573426328763119,0.24256379613179638
0.19646854016413826,0.2241379098055406,-0.09164196691332327,-0.005214944653818776,0.24220497178935382
0.19895548371051977,0.21114603204120297,-0.0874125705058364,-0.015003422682427825,0.22901682693935424
0.20144242725690126,0.22209785306898155,-0.08797234219254424,-0.03436881237132283,0.24134581950493406
0.20392937080328274,0.2330513419354231,-0.1028980826175161,-0.039369095088817474,0.25778066070280564
0.20641631434966426,0.23442967759368005,-0.10345936583777293,-0.02521586548073884,0.25748194885889303
0.20890325789604575,0.22623284558339707,-0.08007937916712127,-0.025427944751715614,0.2413308678201963
0.21139020144242726,0.22761444467153646,-0.0806421497387384,-0.030428524219891173,0.24338731853532866
0.21387714498880875,0.2242092503291463,-0.09557086481775778,-0.03064079519977092,0.24564697528291737
0.21636408853519024,0.23038245789562528,-0.09134669504354553,-0.040429965603831164,0.25110730319951874
0.21885103208157175,0.23655724605549433,-0.09670005419540972,-0.035854016778481324,0.2580615075169222
0.22133797562795324,0.24752200340110397,-0.10205412946612435,-0.03606655994941299,0.27015363083876776
0.22382491917433472,0.24891150519065963,-0.0930437047042072,-0.031490786416943806,0.26759248500382266
0.22631186272071624,0.24072573659061947,-0.09839919361713667,-0.012549887477922184,0.2603627877353205
0.22879880626709773,0.22296468271497194,-0.11333218664643985,0.0016025256523555242,0.2501199759249909
0.2312857498134792,0.21957034522701369,-0.10432385428810198,0.015754858363553836,0.24360381490996963
0.23377269335986073,0.2401195157770687,-0.0953162068582789,0.020330306087769756,0.2591445204755188
0.23625963690624222,0.2463049527605201,-0.10067444800902292,0.03448248418229127,0.26831048423732057
0.2387465804526237,0.2429150444039706,-0.10603336144712028,0.04863458808582699,0.2694737755252572
0.24123352399900522,0.23952658220296563,-0.11139294081700202,0.034056199959096034,0.2663478845445334
0.2437204675453867,0.2505047609222182,-0.12154158306021579,0.019477741809792448,0.27911355051930026
0.24620741109176822,0.2519075487130239,-0.11732566849364456,0.02405282900816985,0.2789287797438288
0.2486943546381497,0.25331173691817754,-0.11789880397367103,0.014262640404197668,0.2797684523855854
0.2511812981845312,0.2547173101893918,-0.13762619301346035,-0.0003160152662040616,0.28952025314154717
0.2536682417309127,0.24654744648753057,-0.14777740922055926,0.009047284017199786,0.2875859165424313
0.2561551852772942,0.2335905336844063,-0.1435640427813727,0.013622120433954166,0.2745190958236143
0.2586421288236757,0.23500016956301584,-0.14413970046126767,-0.010533520513066108,0.2758845555628465
0.26112907237005717,0.24598793525527962,-0.14950437572186015,-0.04426602343519903,0.29124062814433077
0.2636160159164387,0.23782339524228313,-0.15965806200236887,-0.04926815965957765,0.2906510203717873
0.2661029594628202,0.24402535712014206,-0.16502394607909787,-0.0494819436744951,0.2987134755027563
0.26858990300920166,0.2406517885924363,-0.16081361802647498,-0.040118970043497626,0.2922051246177156
0.2710768465555832,0.2420678838767042,-0.16618068449840928,-0.03075604328824255,0.2952267171237279
0.2735637901019647,0.24827362718125356,-0.16197152556433236,-0.01660475796664329,0.2969011401704346
0.27605073364834615,0.24969219602572346,-0.15776294119368472,-0.012030321915108999,0.2956011958967884
0.27853767719472766,0.24632357452258602,-0.16792013465445832,-0.007455926365750543,0.29820809148298927
0.2810246207411092,0.24774455337739887,-0.1685010826304958,-0.0028815691886148187,0.29963024215990747
0.28351156428749064,0.25395511660781145,-0.15950577838566105,-0.003095651571412006,0.29990811534260675
0.28599850783387215,0.2505900382235092,-0.16966463508426477,0.01105544190232699,0.3028261521909762
0.28848545138025367,0.2520145121092836,-0.16545882270523737,0.0012644868079103588,0.301478913444325
0.2909723949266352,0.2534401188221701,-0.16125354440942852,-0.0037380947924408048,0.30041400227998116
0.29345933847301664,0.25486684219327216,-0.15704879337565636,-0.013529107396486495,0.2996739352984599
0.29594628201939815,0.25150626268740106,-0.1576329660820761,-0.023320145538571424,0.2977371010719979
0.29843322556577967,0.2529351706845918,-0.16300605566566828,-0.018745997109979484,0.3014939255782277
0.30092016911216113,0.2591535498788088,-0.1588028452817314,0.00019334003945559175,0.30393904564029384
0.30340711265854264,0.2701613839188399,-0.1498117313461833,0.004767448140395203,0.3089554284547452
0.30589405620492416,0.2811702530882568,-0.15039791689505888,-0.009812073972613078,0.31901805814676304
0.3083809997513056,0.2826033343056884,-0.16056139498306132,-0.01481480422054382,0.3253676144666097
0.31086794329768713,0.26967220776572054,-0.1707253520039944,-0.029394353725246347,0.3205218767713846
0.31335488684406865,0.2806840835016744,-0.18088978097213593,-0.029608703723537744,0.33523326643922213
0.3158418303904501,0.2869085250186987,-0.16711265828016852,-0.010669448731318809,0.33220020984656207
0.3183287739368316,0.28355711237998604,-0.16291280014461273,0.008269800136080363,0.3271293414332094
0.32081571748321314,0.2897834422070573,-0.1587133928793918,0.012843835085744715,0.3306498881844192
0.3233026610295946,0.29122228783629456,-0.1593028327397068,0.012629464928377132,0.33218566621074685
0.3257896045759761,0.28787363252235365,-0.15510430600028347,0.017203498476712653,0.3274515756585742
0.3282765481223576,0.2893142661181404,-0.1413294022367486,0.026565937904846848,0.3230827967763666
0.3307634916687391,0.2955441717938494,-0.1419201309273168,0.016774768787263028,0.3282820036365156
0.3332504352151206,0.301774929357569,-0.142511274968546,0.0021952032628416163,0.3337400041938207
0.3357373787615021,0.3032181185758872,-0.15267963383952754,-0.007595949847969408,0.3395732564207109
0.3382243223078836,0.30466212581481344,-0.1484831837582643,-0.022175495004148615,0.3396439596749377
0.3407112658542651,0.3108953373994494,-0.13949872416617604,-0.027178220061314207,0.34183981702898447
0.3431982094006466,0.3123409296533509,-0.140091457806355,-0.01781571951394767,0.3427825444050921
0.34568515294702806,0.30899888550039056,-0.15026137744244883,0.005912008824864756,0.34364770425499835
0.3481720964934096,0.2912923811838136,-0.1604316691791059,0.005697740581215527,0.3325989116925386
0.3506590400397911,0.2927402227899757,-0.1706023257433582,0.0006950912265715203,0.338825138884323
0.3531459835861726,0.303765586483027,-0.17598493652381508,-0.037826356969119956,0.3530935608252066
0.35563292713255407,0.30042643842709527,-0.1813678975317412,-0.0619825686093467,0.35635964694741434
0.3581198706789356,0.3066647779506553,-0.1819627981199372,-0.04783152489766529,0.35977993372226547
0.3606068142253171,0.30811537778122,-0.1825580342641282,-0.03368045020019039,0.35971779859402847
0.36309375777169856,0.3095666238894005,-0.18315359860216462,-0.005164132358169482,0.35972684577359126
0.36558070131808007,0.3110184988876602,-0.1933262903950954,0.008987010905748605,0.3663172498986122
0.3680676448644616,0.3124709853509441,-0.1891340856444943,0.023138191753085735,0.36598523871376476
0.37055458841084304,0.3187124691373081,-0.18494218689728825,0.02771260574512624,0.3695256946345354
0.37304153195722456,0.30580091614605653,-0.1807505867224637,0.022710255085060638,0.35595046088228466
0.3755284755036061,0.3072551320836848,-0.18613608431276596,0.00813114197732645,0.35933059088380875
0.37801541904998753,0.31349829273764473,-0.18194505892234414,0.0031288819088093334,0.3624844464493236
0.38050236259636905,0.31495357385948086,-0.17296590639033038,-0.0018733295543142958,0.3593277999597402
0.38298930614275056,0.3116209578057837,-0.15919861921911238,-0.01166389352443531,0.35012550338016696
0.385476249689132,0.313077233538518,-0.15500839985572235,0.002487612129325356,0.34935819211816005
0.38796319323551354,0.3241107866644173,-0.16039524077010947,0.002273963054527428,0.3616346308111298
0.39045013678189505,0.3207795828337543,-0.15620552113497688,-0.012304838537779972,0.3570029616788746
0.3929370803282765,0.32702562086567444,-0.1472276367087404,-0.031671983794957725,0.3600345098333335
0.395424023874658,0.3189068663422837,-0.14303838655442602,-0.046250663863435904,0.3525630345571656
0.39791096742103954,0.32036531801523516,-0.1388493597585687,-0.05604087652940315,0.35362927132033484
0.400397910967421,0.33140095800138125,-0.13944895203292562,-0.07061942621883155,0.36641466748315554
0.4028848545138025,0.33764855842374264,-0.14962555907399944,-0.06125589079437965,0.37436164479130524
0.40537179806018403,0.33910810133372316,-0.1502255599616258,-0.037527074680468786,0.3727872108723959
0.4078587416065655,0.3453563753911433,-0.1508257536825659,-0.02816339558203218,0.37790555810669463
0.410345685152947,0.3468165559427121,-0.15621453588847123,-0.014011238000215087,0.38063239416675176
0.4128326286993285,0.3482770282645622,-0.15202668893510118,0.004929400283232965,0.38004381530623155
0.41531957224571003,0.34494937096103806,-0.1430506084449763,-7.189843472232837e-05,0.3734348005640057
0.4178065157920915,0.34162196924629784,-0.14843989998722407,-0.024226728614374693,0.37326519816249965
0.420293459338473,0.34787161162435276,-0.15382934587460584,-0.02443945815301163,0.38115011864244047
0.4227804028848545,0.3493330699675481,-0.15443053504649074,-0.024652101431819062,0.382740264451889
0.425267346431236,0.3460063260794213,-0.15503186306900751,-0.02486465622999745,0.3799651396945018
0.4277542899776175,0.34746816837474614,-0.1604217254945799,-0.02507712032635112,0.3835337273411839
0.430241233523999,0.34893017527833214,-0.146658097940211,-0.01571268485872146,0.37882417211244274
0.43272817707038047,0.3599691351472579,-0.1424713925329555,-0.011136557566203464,0.3872982040538914
0.435215120616762,0.36143141638842735,-0.16222681142570394,-0.006560332906371258,0.39622373107341524
0.4377020641631435,0.35810540398236745,-0.1724055235551618,-0.01634921861782246,0.3977819023825963
0.44018900770952496,0.3643562895226583,-0.16343071444669333,-0.0357148091577244,0.40092474572224707
0.4426759512559065,0.3658188446538042,-0.15445598953479767,-0.035926682381537844,0.39871143238432677
0.445162894802288,0.3624930509544143,-0.16463495424140095,-0.02177323938681397,0.3987229039090974
0.44764983834866945,0.35916729329694885,-0.16044877745258512,-0.0076196879116654515,0.39345014220884056
0.45013678189505096,0.36062995652778107,-0.1514742579249977,-0.017408042334812635,0.3915372987303874
0.4526237254414325,0.352515812186322,-0.16165340436414688,-0.027196283831889545,0.38876581490424966
0.45511066898781394,0.35397845502883285,-0.17183259558081598,-0.03219600685984325,0.3947958591302077
0.45759761253419545,0.36022946318505467,-0.1724350170146698,-0.032407209196053444,0.40068607219033564
0.46008455608057697,0.36648041476015036,-0.1682490640547356,-0.01825308197742359,0.40366919248283106
0.4625714996269584,0.36794288783508644,-0.16885153539894793,-0.008887236262930642,0.40493430662688773
0.46505844317333994,0.3741936704279524,-0.16466561645275535,-0.01867487979147775,0.4092486033761571
0.46754538671972146,0.3756559372521576,-0.16526810589179153,-0.01409718709913399,0.4106454196773238
0.4700323302661029,0.37232966963869407,-0.1802358023807944,-0.0047309626051106335,0.41368672852809624
0.47251927381248443,0.37379165553652227,-0.19041508465190438,0.0046353925913251715,0.41952305428450737
0.47500621735886595,0.38004187623171004,-0.18622913806733488,-0.00036332925013660144,0.42321773540715996
0.4774931609052474,0.367138296386888,-0.19640837454142357,-0.014938722588993869,0.41664126499479315
0.4799801044516289,0.3781765271275763,-0.192222366134557,-0.029513978564935428,0.4252505128078903
0.48246704799801043,0.3892145330738306,-0.19282471810022006,-0.03930069163850014,0.43613514995878716
0.48495399154439195,0.38588708546563666,-0.2077922290414187,-0.04908726291142784,0.4410170207138276
0.4874409350907734,0.3873477787648696,-0.19881766434836035,-0.05408528684545644,0.4387390837663895
0.4899278786371549,0.3888081908119426,-0.19463143588612608,-0.05908316454362428,0.43879838811239974
0.49241482218353644,0.38069149610745645,-0.20481034222922423,-0.05929249046905305,0.43633575480197384
0.4949017657299179,0.3869396923751015,-0.20541235870082897,-0.049924859085615836,0.4409184212494357
0.4973887092762994,0.3836107441167488,-0.20122588053702728,-0.05971068810015723,0.4372807156428259
0.4998756528226809,0.38985824569879146,-0.19703930296512207,-0.06470795869693013,0.44158924191044785
0.5023625963690624,0.3961053715478615,-0.20242942452412427,-0.045763055381367934,0.44718161245748433
0.5048495399154439,0.3975636993934272,-0.2126078337836792,-0.026817992542651936,0.45163944777398884
0.5073364834618254,0.4038100169088249,-0.2179977159848776,-0.017449574610001406,0.45922763591120996
0.5098234270082069,0.4052674984694832,-0.21381065968106583,-0.008080992732402592,0.4582816229705335
0.5123103705545884,0.40672452839552153,-0.20004665673802702,-0.013077454661457821,0.4534473802890958
0.5147973141009698,0.408181087670913,-0.19107090897479173,-0.008496941587372575,0.4507683336315917
0.5172842576473514,0.40006035062358625,-0.20124861820288098,-0.003916257943679113,0.4478444233725783
0.5197712011937329,0.4063043148086548,-0.20663775966399367,-0.01848901480573062,0.45620631694395836
0.5222581447401143,0.40775934788383295,-0.19766151855362812,-0.02348479004698234,0.45375025847609807
0.5247450882864959,0.414002237414544,-0.1886850966618936,-0.02369198478434953,0.4555888809327753
0.5272320318328774,0.41066775435090164,-0.18928529245182357,-0.023899000136060167,0.45282235877845994
0.5297189753792588,0.40733268623125685,-0.19467369441893778,-0.03368264054202541,0.45271656126650905
0.5322059189256404,0.4087854172607476,-0.195273487732055,-0.03867769384199704,0.4546792455973989
0.5346928624720219,0.4102375249914094,-0.19587306751473088,-0.02930735119748995,0.45554363822022653
0.5371798060184033,0.4164773936038516,-0.19647242556419942,-0.034302030334005806,0.4617699239612434
0.5396667495647849,0.42271660062643346,-0.2066483603124989,-0.034508115775462755,0.47178774816583013
0.5421536931111663,0.4193783202560062,-0.2072472502641629,-0.0347140086489226,0.4690785228927917
0.5446406366575478,0.4160393399599053,-0.20784589384016083,-0.03013130344245596,0.4660434995015277
0.5471275802039294,0.41748804387481964,-0.21323268613590463,-0.025548401286418,0.4694860658458868
0.5496145237503108,0.4285128161275358,-0.20904240896050297,-0.02096529999256802,0.47724365489060183
0.5521014672966923,0.42996002423380864,-0.20964026404007718,-0.021170400694737523,0.4788140021046861
0.5545884108430739,0.4266180523019226,-0.2102378398148299,-0.021375297887933797,0.47608803303558256
0.5570753543894553,0.4232752844315649,-0.20125832140017996,-0.016791586069009767,0.46898703149037424
0.5595622979358368,0.43429691135488935,-0.19227850718852002,-0.02178447301795927,0.4754570378106865
0.5620492414822184,0.4357408972338289,-0.19766359888847385,-0.026777149915155007,0.4792265055328893
0.5645361850285998,0.4323956261449131,-0.2126251849235281,-0.017404404622640257,0.4821600979688018
0.5670231285749813,0.4290494821578319,-0.21322124043223445,-0.003243041606042496,0.4791213550137616
0.5695100721213628,0.4257024460155664,-0.20424016047152582,-0.0034466719736858664,0.4721742212793547
0.5719970156677443,0.4271429017754578,-0.2000471467356677,0.001138319726496917,0.47166854381656603
0.5744839592141259,0.4190056202080906,-0.20543059427520616,0.0009351290225403375,0.4666565260408557
0.5769709027605073,0.4300210019617994,-0.21560209149716236,-0.013633048559720251,0.4812361000581859
0.5794578463068888,0.44103541447718353,-0.21619642016523732,-0.023412597574813176,0.4917329342646525
0.5819447898532704,0.43289522519067636,-0.2120019753218827,-0.03319191918112985,0.48316127435070083
0.5844317333996518,0.4295424314178109,-0.20301874868693925,-0.0429710112190822,0.47704278687757756
0.5869186769460333,0.440553820509917,-0.21318874857970904,-0.05274987153146782,0.49225974874394607
0.5894056204924149,0.4371989532530136,-0.21378154679416062,-0.04816328800255043,0.48904516845221085
0.5918925640387963,0.4338430203135748,-0.21916234500538279,-0.05794167840188891,0.4894988639814103
0.5943795075851778,0.44485121235617,-0.21496592496509814,-0.04856621733748412,0.4964490180243347
0.5968664511315593,0.4414930901611088,-0.21076908502530056,-0.03440211262301851,0.4904317090231159
0.5993533946779408,0.43334544107021145,-0.21614862353690079,-0.039391378715396996,0.4858602468512245
0.6018403382243223,0.43956185906538725,-0.22152772556867717,-0.03959199687104942,0.4938184761194013
0.6043272817707038,0.43620030824566125,-0.2269063828293576,-0.03500396495065594,0.49293254411184867
0.6068142253170853,0.4424143825932557,-0.22270778038657024,-0.03999249077856781,0.49691914904615847
0.6093011688634667,0.44862725616936594,-0.21372031326861762,-0.03540395893973525,0.49819296220470277
0.6117881124098483,0.44526210303649505,-0.2190975864646787,-0.03560357726410501,0.4975235748274958
0.6142750559562298,0.44668411386048124,-0.21489757508126495,-0.04059134362355543,0.4973482909675038
0.6167619995026112,0.44810486602814914,-0.21548548078774443,-0.04079044925225439,0.4988946022344114
0.6192489430489928,0.45431274356964957,-0.21607289197279567,-0.026624085387334517,0.5037821012481305
0.6217358865953743,0.4653077271979902,-0.21665980034617904,-0.02203426651112217,0.5137492179817782
0.6242228301417557,0.471512990989188,-0.20766939097800519,-0.03180939382774284,0.5162004592756908
0.6267097736881373,0.4729285156639884,-0.21304367218175546,-0.022430641981916466,0.5191840915172108
0.6291967172345188,0.4647658786273968,-0.22320582903011443,-0.027416832105869204,0.5163137096107736
0.6316836607809002,0.47575548053164884,-0.2142138366364308,-0.04676796209282408,0.523849298310798
0.6341706043272818,0.4771668821907431,-0.21479810663930365,-0.042176803276733565,0.5249812785329668
0.6366575478736632,0.47857687098716384,-0.22495863075748002,-0.032796966838569475,0.5298281306517756
0.6391444914200447,0.4799854276692286,-0.2207533841103806,-0.037782063962623624,0.5296655092870154
0.6416314349664263,0.48139253299218665,-0.22133597170268704,-0.052343689234984225,0.532417359777961
0.6441183785128077,0.4780097643983827,-0.21712957861986304,-0.047751420643587394,0.5271800327642516
0.6466053220591892,0.4746255059786687,-0.21771100323149062,-0.038370466062630726,0.5235835602073778
0.6490922656055708,0.46645133519162985,-0.2230802372696088,-0.0433544366901053,0.5188653462537612
0.6515792091519522,0.48221765274687445,-0.21887206250861446,-0.04833812048535968,0.531766319222586
0.6540661526983337,0.48840561619926137,-0.2242400839685974,-0.038956305411328884,0.5388332347995292
0.6565530962447153,0.48501520635563056,-0.22481908343117984,-0.03915100599706989,0.5360188167794235
0.6590400397910967,0.48641161399403177,-0.2206090526428537,-0.03455701021281499,0.5352184594080298
0.6615269833374782,0.4830180133017056,-0.22597519331519367,-0.03475112263407709,0.534395761296901
0.6640139268838597,0.465257578477127,-0.2217638839219478,-0.04452174451980895,0.5173258356951006
0.6665008704302412,0.47143751693361147,-0.21755192286331138,-0.035138453890574795,0.520400694134696
0.6689878139766227,0.4824041962529232,-0.21333930190364558,-0.02096645865360003,0.5278892485054387
0.6714747575230042,0.4790039840295087,-0.2091260128123178,-0.02594777336062215,0.523308506421684
0.6739617010693857,0.4851788777537934,-0.21927725732485337,-0.03092878268451038,0.5333269621880052
0.6764486446157671,0.4817752450470406,-0.22463941394002962,-0.021544274622431914,0.532009782621018
0.6789355881621487,0.4831582767868391,-0.21084726448258806,-0.016947860417765526,0.5274331420570367
0.6814225317085302,0.49411635722477476,-0.2066312206659533,-0.021927941357029468,0.5360301021800365
0.6839094752549116,0.4859190473853562,-0.21199127428776254,-0.026907708769901006,0.5308310896860575
0.6863964188012932,0.49687355479306416,-0.21256220719101515,-0.0270987573105419,0.5411103067087042
0.6888833623476747,0.5078262471447155,-0.22270922114710512,-0.032077891598250474,0.5554420632275024
0.6913703058940561,0.4948350888333889,-0.2328555013326028,-0.02747989965502029,0.5475751953171871
0.6938572494404377,0.4866304807926659,-0.2382126362513457,-0.03245839274932294,0.5427780689804871
0.6963441929868192,0.49278921069243176,-0.2531458276955938,-0.037436562232086246,0.5552706659335734
0.6988311365332006,0.5085228562596789,-0.2728666641837503,-0.018472389497690145,0.5774018885793707
0.7013180800795822,0.49073576867743485,-0.2734331209605787,-0.009084695788683206,0.5618449946339722
0.7038050236259636,0.49210036555400516,-0.2644219965208534,-0.014061882430217665,0.5588197370887512
0.7062919671723452,0.49825141803284,-0.26498689600801884,-0.02382714079102044,0.5648364925055529
0.7087789107187267,0.49961210059771444,-0.2655510046519094,-0.043168872205304964,0.5674443925732081
0.7112658542651081,0.5105476043544702,-0.28047952429240475,-0.048145058090010906,0.5845045478675704
0.7137527978114897,0.5071158938674473,-0.2810420268952738,-0.04833250310890769,0.5817965121510754
0.7162397413578712,0.5036821602849785,-0.27202690767739934,-0.05809641525076081,0.575386435845389
0.7187266849042526,0.5098231914570698,-0.272587771825743,-0.06307158258719525,0.5815512053348775
0.7212136284506342,0.5207505652952729,-0.26835940129444413,-0.06325800315554808,0.589236365545853
0.7237005719970157,0.5268874564138031,-0.27370699796909914,-0.07780928827922295,0.5988156626258058
0.7261875155433971,0.5282338460909752,-0.26468853718260466,-0.08278341940367717,0.5966105198536951
0.7286744590897787,0.5295781189493844,-0.2556692208403808,-0.08775720122145714,0.5945763709745949
0.7311614026361601,0.5309202563157793,-0.2562258475377792,-0.07836542182850437,0.5947008851945872
0.7336483461825416,0.5370486428621823,-0.2567816025993621,-0.06418488592731642,0.598730102646519
0.7361352897289232,0.5479632599657622,-0.2573364780010001,-0.05000399490509899,0.6074423402173525
0.7386222332753046,0.539722072428084,-0.2578904657294636,-0.040611150154143516,0.5995470567829251
0.7411091768216861,0.5506322882412273,-0.25844355778264605,-0.036006349751545486,0.6093319675148782
0.7435961203680677,0.5519634689398503,-0.2637841494901014,-0.026612785138945938,0.6123348666368599
0.7460830639144491,0.5437155960079374,-0.2595470229117005,-0.012430454403814295,0.6026158167865151
0.7485700074608306,0.5402538609183571,-0.2505205734003546,-0.0030361622795087584,0.5955199494688835
0.7510569510072121,0.541578245211489,-0.24149319632098276,-0.012795116824991126,0.5931186007623144
0.7535438945535936,0.542900327136346,-0.24204169037104695,-0.012976896221751133,0.5945530631642354
0.7560308380999751,0.5442200882916977,-0.24737764429952325,-0.013158305219160837,0.5979501186517528
0.7585177816463566,0.5407491069859451,-0.24792424354775022,-0.02291614857201907,0.5953160312894288
0.7610047251927381,0.5420641715188697,-0.24846988353089605,-0.04225042439995974,0.5977925622055467
0.7634916687391196,0.538588456939945,-0.2490145563569297,-0.05200751754687971,0.5956429778885826
0.7659786122855011,0.5303219449707114,-0.24476985082684122,-0.05697582946378432,0.5868559366099986
0.7684655558318826,0.5364182306459001,-0.23573575907548827,-0.07152056824789987,0.590280490918239
0.770952499378264,0.5377236824701824,-0.23627748321244235,-0.05254610215833111,0.5896905125695455
0.7734394429246456,0.5342382822624195,-0.2368182087597095,-0.03835965590518242,0.5856320256236179
0.7759263864710271,0.5307504151952241,-0.237357927894144,-0.028961227641774556,0.5821284582208837
0.7784133300174085,0.532048466475148,-0.2378966328070402,-0.014774008886561774,0.5829996997581257
0.7809002735637901,0.533344014702556,-0.23843431570435092,-0.014951611085692207,0.5844059476070552
0.7833872171101716,0.5346370418330627,-0.23418256548659722,-0.01991722576928545,0.5840162124121532
0.785874160656553,0.5311391265374076,-0.22992977771002687,-0.02488244779365978,0.5793061458545963
0.7883611042029346,0.5228502508425791,-0.22567594462590046,-0.025058872021059386,0.5700262834781464
0.790848047749316,0.5337124134135643,-0.23099786514164666,-0.03960010992126328,0.5829040423924902
0.7933349912956975,0.5397835797491602,-0.23631872489920713,-0.05892935304818536,0.5921870661838899
0.7958219348420791,0.5362753286668483,-0.23685011287681812,-0.06389298632116969,0.5897215595580129
0.7983088783884605,0.5423412556236048,-0.23259202138923074,-0.06885621790784135,0.594116373036368
0.800795821934842,0.5436161328726495,-0.2331212494082493,-0.06903064270071013,0.5955075536689274
0.8032827654812236,0.5353115393467566,-0.23364938596138263,-0.05483945227815745,0.5866496784658571
0.805769709027605,0.5413694739400031,-0.24375323005393978,-0.05980146810759379,0.5967183255637689
0.8082566525739865,0.5570015156645168,-0.24427916078643808,-0.06476307513925406,0.6116512509172103
0.8107435961203681,0.5630540336119102,-0.24001557387826145,-0.06014746497028867,0.6150244206640134
0.8132305396667495,0.564315413516279,-0.24053926838662765,-0.05074303916513756,0.6155370676017309
0.815717483213131,0.5703624444734485,-0.24106183342555987,-0.060491812575863335,0.6221602566774362
0.8182044267595125,0.57640670566022,-0.2415832614473521,-0.05108655689690167,0.62707017058475
0.820691370305894,0.5776597762958053,-0.2516803515631021,-0.032104077032265366,0.6309235201473632
0.8231783138522755,-0.7714196940451781,4.761258793386757,0.04912806527158864,4.823596916074228
0.825665257398657,-1.4788559414868991,4.77989443480099,0.19260987173820965,5.007145321059055
0.8281522009450385,-2.0187009120705675,4.61178351374703,0.3025732776783201,5.04333730167123
0.8306391444914201,-2.3861662197617615,4.285656457601361,0.3838066881225828,4.920157322155462
0.8331260880378015,-2.600405495082698,3.8206668870806637,0.46025212137622695,4.644506024985031
0.835613031584183,-2.6709955618696477,3.2263916162413855,0.5031791592143602,4.218650189236804
0.8380999751305646,-2.6075132439129627,2.550714685682822,0.5269530132881393,3.6855054203125204
0.840586918676946,-2.433900574917608,1.8223665227032138,0.5363620886013152,3.087487010781168
0.8430738622233275,-2.1549459752603966,1.0796543612210963,0.5409831934711313,2.4702446258646003
0.845560805769709,-1.8185334951536196,0.3465202251738204,0.5120859096454637,1.9207738852628067
0.8480477493160905,-1.4438167648399114,-0.3530938615217365,0.45445864210748255,1.5542891567733772
0.850534692862472,-1.0355842045525423,-1.0048226816102828,0.3968318124349608,1.4965222195335481
0.8530216364088535,-0.6129894444369481,-1.565570597935546,0.32484021231588933,1.7123926301081809
0.855508579955235,-0.20955132455024916,-2.040126006565535,0.26242585999374946,2.0675814886671966
0.8579955235016165,0.17951854166283876,-2.4189120936288697,0.20480035378307093,2.4341951048374133
0.860482467047998,0.5207013142453252,-2.6827752386351054,0.1471752919912923,2.736799847680348
0.8629694105943795,0.8187853798534568,-2.8365038377172023,0.07039706295779347,2.953154121633219
0.8654563541407609,1.0785591251948157,-2.8944630936708466,-0.0015923151024317406,3.0888847376732915
0.8679432976871425,1.2856573237474298,-2.8518645960327174,-0.04963922730189907,3.1286595342250627
0.870430241233524,1.4305031523618548,-2.7039199343620153,-0.11205089860411199,3.0610582621432543
0.8729171847799054,1.5322502078632692,-2.498513134764041,-0.1553085041751796,2.9350433243062355
0.875404128326287,1.581321667208147,-2.226067383523266,-0.18898884907134317,2.7370917040248
0.8778910718726685,1.587294320687894,-1.8913710769082788,-0.22266873835619272,2.4791872010992564
0.8803780154190499,1.5501681520074515,-1.5327314344530987,-0.23240615385854113,2.192327432207646
0.8828649589654315,1.484308354887337,-1.1501484491528513,-0.22298949733650453,1.8909619412879384
0.885351902511813,1.3945033164625618,-0.7627757273076532,-0.21836078383690882,1.6044150777503534
0.8878388460581944,1.2711762139627987,-0.39455527856189665,-0.20415480185160817,1.3465667521162552
0.890325789604576,1.14784585455661,-0.04548709598258549,-0.19473675980185412,1.1651358664730256
0.8928127331509574,1.0245122222269256,0.2604868107373304,-0.19489505947586672,1.0749245351505197
0.8952996766973389,0.8963868976933937,0.5233664484818719,-0.19984129602886114,1.0570517742056957
0.8977866202437205,0.7730466716941067,0.7527286307508834,-0.18084504802214596,1.0940322113921364
0.9002735637901019,0.659279931704823,0.9294197510973294,-0.15227152390754561,1.149633732573842
0.9027605073364834,0.5550866619394431,1.0438630096895851,-0.12848593214459036,1.1892349725854587
0.905247450882865,0.4700436533114176,1.0912700099909123,-0.11427667455996371,1.1936793661081664
0.9077343944292464,0.3993624868326564,1.0955827753608225,-0.08570173306625506,1.169246253193503
0.9102213379756279,0.3430431468952517,1.0520129092111192,-0.05712631614640529,1.1080041415875208
0.9127082815220094,0.3058740212719354,0.9557720149275601,-0.0477040356115257,1.004656526590744
0.9151952250683909,0.2878550944759465,0.8308021157915384,-0.043069680038460234,0.8803111429250843
0.9176821686147724,0.2889863510817855,0.6723148151361471,-0.038434844652607936,0.7328011729293197
0.9201691121611539,0.2949025657647545,0.49467532954904847,-0.03858793132796379,0.5772003407858199
0.9226560557075354,0.3151805298639204,0.28830685898948527,-0.033952131985584444,0.4285001267351634
0.9251429992539169,0.34024342149976394,0.07715142663187091,-0.01973904187488351,0.3494389192395967
0.9276299428002984,0.3700912254965184,-0.11963734769698098,-0.005525466214281849,0.3889873274675774
0.9301168863466799,0.40951233006231635,-0.31163626411957157,0.018265403050937934,0.5149282809635572
0.9326038298930613,0.4537183168287221,-0.49405691282516395,0.022903147404853996,0.671175907119191
0.9350907734394429,0.4979207674917915,-0.6429572707495601,0.01317617156553652,0.8133220482726767
0.9375777169858244,0.5421196671328669,-0.7631257347785496,0.017814896844429384,0.9362542342350871
0.9400646605322058,0.5863150008987118,-0.8641391051464873,0.017665711341605217,1.0444202940767828
0.9425516040785874,0.6257183506816456,-0.9459973754755449,0.007940213109787209,1.1342387472532434
0.9450385476249689,0.6651181050809419,-0.9895469261353005,-0.006573193165989366,1.1923206026898479
0.9475254911713503,0.6997258461220195,-1.0043645574460525,-0.011509296168402017,1.2241310746334613
0.9500124347177319,0.7343299625381641,-1.000027069757155,-0.016444901190071803,1.2407921134918347
0.9524993782641133,0.7593536331693929,-0.9717460534862552,-0.04053362017265982,1.2339170584111276
0.9549863218104948,0.7747968435644697,-0.9099446957601394,-0.059833435183449524,1.1966158690679853
0.9574732653568764,0.7806595793407374,-0.8337766036570786,-0.06955594157946443,1.1443123841990857
0.9599602089032578,0.7817302295048629,-0.7432417710039312,-0.06970113804655398,1.0809110650427123
0.9624471524496394,0.7684319731720355,-0.6383401916575595,-0.06505742659942548,1.001098579778344
0.9649340959960209,0.7790720227304653,-0.5286486661456928,-0.06999001590198795,0.9440981046188576
0.9674210395424023,0.78491994415433,-0.4285323983467393,-0.0701336947048894,0.8970273520339297
0.9699079830887839,0.7716105134495199,-0.33799138220875014,-0.05591165508772988,0.8442434909952592
0.9723949266351654,0.7678741365759507,-0.2522372083902962,-0.060842719021589886,0.8105283063389777
0.9748818701815468,0.7593455896823743,-0.17605827422149556,-0.07056167528312329,0.7826756611206745
0.9773688137279284,0.7412364556302501,-0.10466617042301873,-0.07549171597803195,0.7523865293634808
0.9798557572743098,0.7183351239941762,-0.04284929438750229,-0.08042124318170352,0.7240918372334589
0.9823427008206913,0.7050067910623181,0.009392359781196902,-0.09013865897832041,0.7108078289584719
0.9848296443670729,0.7060398465555859,0.03769358798655942,-0.09027875217963732,0.7127856091382936
0.9873165879134543,0.6927038570265032,0.04205439606110817,-0.08084152156719426,0.6986719955578281
0.9898035314598358,0.6697872123439952,0.036839999766212106,-0.08576898253297749,0.6762606108350958
0.9922904750062174,0.6612319157328868,0.022050404870028295,-0.08590752059507345,0.6671536321069598
0.9947774185525988,0.6574611472508769,-0.007102786212047629,-0.0956223445226918,0.6644164676529546
0.9972643620989803,0.63453287707021,-0.03625435781601061,-0.10054824317213829,0.6434720660204707
0.9997513056453619,0.6211775119624644,-0.07019270759193086,-0.10068521536964425,0.6331871999345814
1.0022382491917432,0.6173950388536656,-0.11849463654316361,-0.0960332599504774,0.6359559732460508
1.0047251927381249,0.6136086381059355,-0.17158333242502133,-0.09138077907928199,0.6436667208341851
1.0072121362845063,0.609818296799162,-0.2150935797058371,-0.0819393682891647,0.6518110640494909
1.0096990798308878,0.6060240020907809,-0.26339058280935745,-0.06770902644266386,0.6642470944494926
1.0121860233772693,0.5926489345755578,-0.31168593291178626,-0.06305496237239616,0.6725747606834638
1.0146729669236507,0.6032119048094308,-0.35040281790289995,-0.05361196499826448,0.6996577589715488
1.0171599104700322,0.6041940769427255,-0.38911803898778485,-0.05374524317125129,0.7206607260298762
1.0196468540164139,0.5955954384471193,-0.4086779774838831,-0.053877989149999195,0.7243303481797384
1.0221337975627953,0.6013579934754086,-0.42344783798523666,-0.054010201843023964,0.7374663448010798
1.0246207411091768,0.5975397130572301,-0.44779282512044016,-0.0637186868087447,0.7494212393297196
1.0271076846555582,0.598505794865065,-0.4625593203106666,-0.05906142637269696,0.7587216639707256
1.0295946282019397,0.6090446300115168,-0.4581705116526158,-0.04482682279163086,0.7634559732790605
1.0320815717483214,0.6004257864481332,-0.44899160387963866,-0.044956891612889294,0.7510830230339137
1.0345685152947028,0.5918028654111113,-0.4445993984400234,-0.04508642183070144,0.7415740300438848
1.0370554588410843,0.5975410648982354,-0.43541708353622166,-0.03563860576901945,0.7402117744916422
1.0395424023874658,0.5936983564270811,-0.4118678474062727,-0.02619024904248768,0.7230482634625449
1.0420293459338472,0.5946399381603901,-0.39310529824583806,-0.0263181572751936,0.7133169540721037
1.0445162894802287,0.6051542017033243,-0.3647642210443065,-0.036022329460092095,0.7075041717283219
1.0470032330266104,0.6108759254632207,-0.3364214174286886,-0.045725957959032115,0.6988845610303217
1.0494901765729918,0.6118050978921409,-0.3128652857419487,-0.04585223514339454,0.6886890388969817
1.0519771201193733,0.6127301108466267,-0.29888422436340756,-0.02682435339413125,0.6822679196961032
1.0544640636657547,0.6232277595880628,-0.2753246151073956,-0.022161134984591158,0.6816946529854822
1.0569510072121362,0.6289328228611687,-0.24697485642651484,-0.02228577231492146,0.6760545325834953
1.0594379507585177,0.6298452894568615,-0.22820015345085665,-0.02719826443552087,0.6704626345101543
1.0619248943048993,0.6403303582126177,-0.21421209806628116,-0.03211020708612544,0.6759740054216369
1.0644118378512808,0.6555996147706372,-0.19064547555520317,-0.03702159933647309,0.6837595710880454
1.0668987813976623,0.6612878382188344,-0.17665389447954505,-0.05150924690662784,0.6864119797379832
1.0693857249440437,0.6669718243333683,-0.17223735015746078,-0.06120793892481835,0.6915659990422242
1.0718726684904252,0.6822283689774238,-0.17260743462443084,-0.056540867849333765,0.7059927362674342
1.0743596120368066,0.6879038481797004,-0.19212935323496083,-0.06623845271073314,0.7172955634412056
1.0768465555831883,0.6887866546581796,-0.216437891459611,-0.07593548266655326,0.7259742516250084
1.0793334991295698,0.6896651812189085,-0.22159102816638665,-0.08084355352477424,0.7288870461848388
1.0818204426759512,0.690539417436024,-0.23631917878495656,-0.0809626644235184,0.7343339800969548
1.0843073862223327,0.6818325463317753,-0.25583393554116407,-0.08586962115139762,0.7332940853766907
1.0867943297687142,0.6731213642987331,-0.2849236973399849,-0.08119921290532517,0.7354367386510681
1.0892812733150956,0.6835594744594929,-0.30922324984379124,-0.057374632212427557,0.752438982103403
1.0917682168614773,-0.9819479086454992,3.6887377970275086,-0.07185671809411787,3.817875275391783
1.0942551604078588,-2.6522480362060596,3.755421532533835,-0.009723790050495396,4.597576000967317
1.0967421039542402,-4.006517895649761,3.664089777341355,0.052409699595893144,5.429593568692867
1.0992290475006217,-5.030392286813489,3.438684552272352,0.10975534831719713,6.094378085231781
1.1017159910470031,-5.733448026044692,3.107936281430085,0.14794794693494318,6.523310723228467
1.1042029345933846,-6.139627139560441,2.681421775597099,0.16698749622157827,6.701710899118805
1.1066898781397663,-6.268083250165871,2.1926598621179467,0.1716624002598266,6.642747389568266
1.1091768216861477,-6.133181577253888,1.6608041583362954,0.19070307972392975,6.356929634385598
1.1116637652325292,-5.792382970008045,1.1145850881970398,0.20495592207492308,5.902203598662453
1.1141507087789106,-5.264841050956734,0.554002655682746,0.20963252472470728,5.298057760138634
1.116637652325292,-4.598439862457513,0.017364091298611495,0.219098098356314,4.603689244183219
1.1191245958716736,-3.831486640134182,-0.4666001811310747,0.20462222375983252,3.865213559043626
1.1216115394180552,-3.0022886195171408,-0.8978901577442555,0.175781708277718,3.1386052474341493
1.1240984829644367,-2.1491530360431064,-1.2669290280787284,0.13736495592195652,2.4985670024310442
1.1265854265108182,-1.2912335117735858,-1.5641399817128872,0.10852558065529294,2.031156238691772
1.1290723700571996,-0.4668372819570952,-1.7990998215470955,0.08926358314902849,1.8608237968686028
1.131559313603581,0.28572841825236717,-1.9478665272803641,0.060425350783001264,1.9696385353951404
1.1340462571499625,0.9712519836784537,-2.024805305215156,0.031587690848706274,2.245921797846026
1.1365332006963442,1.5753681959584056,-2.0394929583746766,0.007539007307078904,2.5770862066931923
1.1390201442427257,2.0693466268641676,-1.991929483182688,-0.021297505852146514,2.8723565433006537
1.1415070877891071,2.453187268184922,-1.8821148761042332,-0.05013344468855685,3.0924096659262004
1.1439940313354886,2.736466918446368,-1.7244143436066894,-0.08854561523294535,3.235691015867373
1.14648097488187,2.90960876298904,-1.537981495519246,-0.12695721024515905,3.2935282551475797
1.1489679184282517,2.9917664071716894,-1.3276047317517465,-0.14621461585472417,3.276366779336552
1.1514548619746332,2.992516649809029,-1.0980724522558285,-0.16068304144367396,3.191666970345586
1.1539418055210147,2.9022826765313567,-0.8733266703060931,-0.16557408312312383,3.0353515421716817
1.1564287490673961,2.749794899628489,-0.6485789792971635,-0.17046454697547375,2.8303859885507765
1.1589156926137776,2.563783731487666,-0.4238293759861711,-0.17056602913255503,2.604171870688203
1.161402636160159,2.3346723580310282,-0.22780827709403528,-0.15151331909594745,2.3506484033836674
1.1638895797065407,2.0624607719191594,-0.0461504695011592,-0.13724843294012246,2.067537529014908
1.1663765232529222,1.7854561924732155,0.10677883994784132,-0.13734817678900058,1.7939119425347558
1.1688634667993036,1.5132354191905395,0.22619125100666126,-0.1374473401753491,1.536208217412602
1.171350410345685,1.245798445026376,0.3168751700270733,-0.12796911596266725,1.2918203178654877
1.1738373538920666,0.9879336663548992,0.36925379335735276,-0.11370190698580807,1.060796595336937
1.176324297438448,0.7444294796491358,0.3976923339046676,-0.10422251941037786,0.8504097695637506
1.1788112409848297,0.5392278947624196,0.4021907945725025,-0.08037733949054982,0.6774840768847273
1.1812981845312112,0.36275209840515676,0.3875375815418125,-0.0804735933347196,0.5368896173598661
1.1837851280775926,0.2150020840278355,0.3441558909896969,-0.08056926389768648,0.41371557829533034
1.186272071623974,0.1007662485009091,0.2864109356518152,-0.08545275406659769,0.31541596991189524
1.1887590151703555,0.015256182154047337,0.20472591161918796,-0.07597045013752002,0.218899427309261
1.191245958716737,-0.0223745079814881,0.10388922490061292,-0.061699158338893056,0.12288358636364582
1.1937329022631187,-0.031279441336722336,0.003054491422588068,-0.07136929819091442,0.07798275509657106
1.1962198458095001,-0.02103543060166535,-0.0882014795722923,-0.06667364273991083,0.11254938905008875
1.1987067893558816,0.013145921595167476,-0.18424389548638942,-0.057188998245853995,0.19336289664501347
1.201193732902263,0.07126460940569901,-0.29464956044521307,-0.062068977619849974,0.3094342676677513
1.2036806764486445,0.13895541712181259,-0.38111124541464214,-0.05258316058042034,0.409046914308888
1.206167619995026,0.21621833909736687,-0.4484173512869303,-0.05746196670036774,0.5011290938613366
1.2086545635414077,0.3030533697874933,-0.5205098922792635,-0.07191699232085114,0.6065838331876336
1.2111415070877891,0.39467210042832834,-0.5830236560899857,-0.07679462383264024,0.7082231743360556
1.2136284506341706,0.4910745256779012,-0.6263818337815565,-0.07209486091830719,0.7991908785966911
1.216115394180552,0.577895430334944,-0.6457960197805517,-0.06739450991160467,0.869228190714405
1.2186023377269335,0.6599232125812596,-0.6508430185183633,-0.06748197383653931,0.9293272287254584
1.221089281273315,0.7419462707006013,-0.6463112311500061,-0.05799204244643619,0.9856802489165924
1.2235762248196966,-0.6604404295383826,5.362880301477082,0.004170914416688376,5.403395606974084
1.226063168366078,-1.4451278353507693,5.410511683979243,0.12379530033774166,5.60154946593951
1.2285501119124596,-2.1148983000993002,5.304916145928729,0.23384346908635578,5.715733802682956
1.231037055458841,-5.083107101848949,11.893510437361472,0.33910382422627094,12.938645977694048
1.2335239990052225,-7.275599313483992,11.514979887370803,0.5401328357168946,13.631612181145062
1.236010942551604,-8.9413719120829,10.825205113091759,0.7076436141320492,14.058234487136527
1.2384978860979856,-10.080424901965102,9.852916536302635,0.82727094972247,14.120173784332783
1.240984829644367,-10.707123497308077,8.655574998659306,0.913380052650183,13.798396112034254
1.2434717731907485,-10.874140138748784,7.305006551734108,0.9563941164650647,13.134867117106083
1.24595871673713,-10.614993653539953,5.839518423813361,0.9611015446673346,12.15326219028912
1.2484456602835114,-9.991933288752872,4.306994649778827,0.9514443540278812,10.922187515279289
1.250932603829893,-9.052843081394737,2.7792612810699158,0.9082689314242032,9.513317695557182
1.2534195473762746,-7.8791258916115625,1.3089907558002123,0.8172100670435025,8.028817715474139
1.255906490922656,-6.537819369485035,-0.07029810124243197,0.7309401975467829,6.578928294444448
1.2583934344690375,-5.100749568313666,-1.3298748686349784,0.6303057097797797,5.308813296082274
1.260880378015419,-3.606223718050236,-2.4553743349598505,0.5105182005385895,4.392532465729622
1.2633673215618004,-2.1212794684658007,-3.4084892722424542,0.3907312832102843,4.03364557664721
1.2658542651081819,-0.708166065907563,-4.174854469154253,0.27094495789012996,4.243149795343823
1.2683412086545636,0.6043860666236769,-4.759258327692811,0.1559476279830836,4.800014792676764
1.270828152200945,1.7732812962691862,-5.171277653220184,0.04573929356329387,5.467058734398986
1.2733150957473265,2.788942813516726,-5.382182024580807,-0.05010323866507349,6.062062000451008
1.275802039293708,3.613063389035898,-5.420701860507414,-0.12200316200839367,6.515605918503678
1.2782889828400894,4.240854616842367,-5.310779176457041,-0.174748879744552,6.798511639561627
1.280775926386471,4.696258510977598,-5.061990777970385,-0.23228240844321668,6.908874709781538
1.2832628699328525,4.96969826234471,-4.698278680593793,-0.28981534476271875,6.845123542591041
1.285749813479234,5.065962271911813,-4.234008093277593,-0.3425592853719355,6.611213590436221
1.2882367570256155,5.004204150711879,-3.712274644938546,-0.3905142302705915,6.24303961107884
1.290723700571997,4.7987891065615065,-3.1235015280145486,-0.4145265661876927,5.740772679599668
1.2932106441183784,4.473659154021938,-2.501207564871176,-0.4337499064252235,5.143715047536846
1.29569758766476,2.946635140766027,3.206372748253499,-0.4386074443738135,4.376740950044913
1.2981845312111415,1.1993397456259183,3.8382475664437106,-0.3285427103486924,4.034662379837051
1.300671474757523,-0.37078955754133824,4.245069453919127,-0.23284259405052765,4.2675889256327295
1.3031584183039044,-2.7405870477038023,7.486628133057735,-0.0988346590186353,7.973091399109678
1.305645361850286,-4.511838956850756,7.519958614278934,0.09742311127534009,8.77017443359222
1.3081323053966674,-5.909600242453502,7.318659360106015,0.2505858437008506,9.410044799039861
1.310619248943049,-6.919505695863895,6.906672387705186,0.38459555476534746,9.784150258807733
1.3131061924894305,-7.570285738212511,6.322304924159283,0.4898754377236152,9.875259169091077
1.315593136035812,-7.8715171772452095,5.608652599826653,0.5807907024216288,9.682720924266489
1.3180800795821934,-7.847142030564784,4.799234238380772,0.6477645420933413,9.221165122949273
1.3205670231285749,-9.608846163326598,7.0974916614974894,0.7243157798451243,11.967829620463156
1.3230539666749563,-10.398509263824526,6.192309293347311,0.8487516420932639,12.13235626926097
1.325540910221338,-10.795528134506638,5.196149292431277,0.934880868915533,12.017378974269834
1.3280278537677195,-10.780749162678378,4.1377420789253,0.9827034601449594,11.58926952447308
1.330514797314101,-10.445152011908865,3.0601832829209807,0.9874310122839258,10.928903983518792
1.3330017408604824,-9.82704390914037,2.016145341107215,0.9634287351056994,10.077888119852718
1.3354886844068639,-8.964732081211885,1.015205060245473,0.9154850317325955,9.06836123263647
1.3379756279532453,-7.925254174780583,0.07651605369331715,0.8435999019562832,7.970393292424816
1.340462571499627,-6.766071029760594,-0.7664028552741269,0.7381965389175473,6.849235332970226
1.3429495150460085,-5.5207014693609056,-1.5135516666685658,0.6280053623093664,5.75876498014706
1.34543645859239,-4.2561831399295,-2.1409883639442064,0.4938727586112961,4.789868098065223
1.3479234021387714,-3.006034864469611,-2.6343477372396937,0.3453755342145488,4.011897040894833
1.3504103456851528,-1.7894102559206164,-3.01278339997988,0.206455705461023,3.510196125219447
1.3528972892315343,-0.6541933470410697,-3.266718545711644,0.0723248687605409,3.3323640075553604
1.355384232777916,0.39482745939595676,-3.405729981306964,-0.057016976166984534,3.4290139054599105
1.3578711763242974,1.328921744117963,-3.4393945136815964,-0.1576278130102189,3.6905709788821266
1.360358119870679,2.1337242979162356,-3.38686575643567,-0.23908444871024948,4.01008733137444
1.3628450634170604,2.8044467183245736,-3.2529321132520335,-0.3109636902182711,4.306180110722493
1.3653320069634418,3.3410890062992635,-3.0375935845368307,-0.3732655378549836,4.5309135607053115
1.3678189505098233,3.7436511628985474,-2.7743689939819336,-0.43077839527150097,4.679489007367435
1.370305894056205,4.0169215926028,-2.4632583420804988,-0.4739254561681001,4.735811026524593
1.3727928376025864,4.165688699994065,-2.123415242650342,-0.4979183175754258,4.7021034961977595
1.3752797811489679,4.204317696396537,-1.764416502912027,-0.5123337864951356,4.588239182602171
1.3777667246953493,4.132808583274844,-1.4149925434104689,-0.4980182500170347,4.396627441715694
1.3802536682417308,3.984680185437048,-1.0607781548512845,-0.47891372512376407,4.15117872779964
1.3827406117881123,3.7790861178312745,-0.7352921611860412,-0.45023180888606795,3.87619080154983
1.385227555334494,3.5208147855455802,-0.4337461598468897,-0.4071840983846595,3.570724208795132
1.3877144988808754,3.2098661904485173,-0.15135174830908227,-0.3737126106320705,3.2350903275868714
1.3902014424272569,2.8845475610716065,0.08316065266717887,-0.31629852280700455,2.9030286050547414
1.3926883859736383,2.5448588994842494,0.27457944552105484,-0.25409544862151634,2.572210175548842
1.3951753295200198,2.1908002078560247,0.4229046293286838,-0.2206222117584531,2.2421257851804
1.3976622730664012,1.8415251017377512,0.5233477998032705,-0.1871483927464741,1.9235727542249987
1.400149216612783,1.5066103901394208,0.6094277791779863,-0.13930878208500275,1.6311603300950759
1.4026361601591644,1.1956328821706261,0.6572025497998064,-0.0962569935254507,1.3677421501122073
1.4051231037055458,0.9133809837200475,0.661883707254606,-0.06756983418838836,1.1300090910442928
1.4076100472519273,-1.3512746970760026,7.7438269877109995,-0.03409369128227091,7.860913566650145
1.4100969907983087,-3.4435526633103506,7.839491838232938,0.1430351309825344,8.563652624634411
1.4125839343446904,-5.167128375984982,7.6334892927563285,0.28185730592502445,9.222191603812947
1.4150708778910719,-6.531578638776161,7.164126576581573,0.3967380429872769,9.702764049205404
1.4175578214374533,-7.503384625380275,6.464922511646389,0.4828889383205812,9.916107383683263
1.4200447649838348,-8.092123139276985,5.5789727264881055,0.5307331847461629,9.843224639187655
1.4225317085302163,-11.319276672325291,8.15025214647646,0.6456156547632208,13.963146279025619
1.4250186520765977,-12.693322906717107,7.058405032878307,0.8179595411739111,14.546841094662046
1.4275055956229794,-13.49755392884191,5.794177404730434,0.9472083736848109,14.7191595399555
1.4299925391693609,-13.7559117517513,4.424606907005579,1.0285737483993174,14.486553018554387
1.4324794827157423,-13.5114920016808,3.0071543779941146,1.0812092780128673,13.88425032428595
1.4349664262621238,-12.845697531331728,1.5944922526253675,1.1003265586098827,12.990961055508043
1.4374533698085052,-11.835142789988739,0.23450456246722995,1.0715603796247404,11.885867191602888
1.4399403133548867,-10.522923403598133,-1.0297130642735979,1.014064353724585,10.621701957135867
1.4424272569012684,-9.009595837853945,-2.155064999431264,0.9374152869265711,9.311061686693545
1.4449142004476498,-7.3669861384333135,-3.1223976314817756,0.84640158191824,8.046008163730962
1.4474011439940313,-5.657343544276527,-3.9173457522624924,0.7410232380574371,6.921000589515755
1.4498880875404128,-3.923763680948146,-4.492025330408634,0.6069150447318314,5.995211327758378
1.4523750310867942,-2.2620146104412444,-4.879955191041095,0.4728074212026421,5.399464753284613
1.4548619746331757,-0.6960383448497038,-5.0955005460396645,0.35306557676092787,5.154924877598621
1.4573489181795574,0.7358578938659798,-5.1099309774413255,0.21895909080573794,5.167284056216168
1.4598358617259388,2.0049436904794034,-4.951976907166755,0.0848531726098205,5.34313340204116
1.4623228052723203,3.0681234198974368,-4.655157160496645,-0.03967537188357184,5.575432148612378
1.4648097488187017,3.9253970870030743,-4.224260142829342,-0.1450497367402832,5.7683754620410435
1.4672966923650832,4.591129906732578,-3.697593082845205,-0.24563513263669634,5.900085172705937
1.4697836359114647,5.05095667419375,-3.1086748059433056,-0.33664315697704694,5.940484070244487
1.4722705794578463,5.300088991227269,-2.471870524280575,-0.3797665839323834,5.860487169340726
1.4747575230042278,5.372045686328173,-1.8015454500537746,-0.42767785076855347,5.682195808720833
1.4772444665506093,4.2468968576147725,5.515085399814815,-0.44685813499480176,6.975097280990409
1.4797314100969907,3.3803171198983044,6.209356422426079,-0.3702697908870167,7.079530403200842
1.4822183536433722,2.4850022794874067,6.69293966132673,-0.2793156756596442,7.144836939069161
1.4847052971897536,1.6232015851643387,6.946681500845286,-0.1979378066922024,7.13655005136125
1.4871922407361353,0.8140686559189583,6.961005131912492,-0.12613618477140598,7.009579913245189
1.4896791842825168,0.05281509422997743,6.7742177786240525,-0.05912240737245256,6.774681646059705
1.4921661278288982,-0.6270402707719893,6.415049858396877,-0.0016848786198337962,6.445622314850876
1.4946530713752797,-1.2015554165072102,5.873924562047508,0.06054161063448937,5.9958644469485
1.4971400149216612,-1.6707303369084583,5.193937516878123,0.1084034462877419,5.457112615208468
1.4996269584680426,-2.0201998158587893,4.403819140192343,0.1514774341504168,4.847450435907221
1.5021139020144243,-2.249963847113765,3.503569429334429,0.1849751700634954,4.167919369784613
1.5046008455608058,-2.374387634301805,2.5745912380566374,0.20889665317974782,3.5085430726603644
1.5070877891071872,-2.3982595743229838,1.621672966949058,0.20408826936218993,2.9022619143103667
1.5095747326535687,-2.321579660669701,0.6783334364867342,0.2040688409888176,2.427243799817741
1.5120616761999501,-2.1587130967082437,-0.22190853289256074,0.20404996386670327,2.179660987085888
1.5145486197463316,-1.9144482790777608,-1.0694761373885011,0.199243233794542,2.201951245582003
1.5170355632927133,-1.6031504109715953,-1.8260621533162056,0.1800718432423789,2.4366001101331585
1.5195225068390947,-1.2631267120988432,-2.496454986909593,0.14174738799226283,2.8014048108915
1.5220094503854762,-0.8895887722002376,-3.0710778344779284,0.1034234804195382,3.198997290612866
1.5244963939318577,-0.49211339089229256,-3.5259886824055853,0.05552331296944679,3.560597508316671
1.5269833374782391,-0.1042193843083099,-3.8516107270737554,0.0028352880399804548,3.8530215301544186
1.5294702810246208,0.27409325474502544,-4.062309181500914,-0.03548698201809586,4.07170017612988
1.5319572245710023,0.6428245335448766,-4.148507242139482,-0.06423190146367475,4.198507050866601
1.5344441681173837,0.9876092494914522,-4.14372373536014,-0.09297627788404483,4.260805441805251
1.5369311116637652,1.2845053934271402,-4.0192282444046805,-0.1265085155541783,4.221392446915053
1.5394180552101466,1.538301376199375,-3.7941743857530335,-0.1408865988352055,4.0965814317858555
1.541904998756528,1.7442088020972795,-3.492504179240351,-0.14089893201804138,3.906366892186238
1.5443919423029098,1.8974392754920713,-3.1190060314551817,-0.15048753268277615,3.6539185713322384
1.5468788858492912,2.0075696107975256,-2.6928335589816883,-0.17444080513611482,3.3633492106934493
1.5493658293956727,2.088965025829049,-2.2331403784381574,-0.18402833045040623,3.0634224741873655
1.5518527729420541,2.1081067052797366,-1.7447148965162256,-0.1696733029870412,2.7417025697032753
1.5543397164884356,2.0841482704465895,-1.2562875365432287,-0.1744713536385838,2.439748479028083
1.556826660034817,2.0266665360660134,-0.7822235119191316,-0.1696920635006247,2.1790012086788786
1.5593136035811987,1.9356615103134085,-0.3273112294370186,-0.1553354335982835,1.9692758111436612
1.5618005471275802,1.8111332014434829,0.10366090407628681,-0.14097827160493992,1.8195669620735448
1.5642874906739617,1.6818120377114938,0.4915392718001943,-0.14577419184215934,1.7582243033584728
1.5667744342203431,1.528544414248052,0.8219586602010036,-0.15535798539687207,1.742469560432814
1.5692613777667246,1.360907146183594,1.0949190656730967,-0.15536444336349042,1.7535832261885
1.571748321313106,1.2124190653276714,1.3056320812577904,-0.15537037344545368,1.7885119721500757
1.5742352648594877,1.0447729537622656,1.463674509924774,-0.13143376011141505,1.803099672567682
1.5767222084058692,0.9010644500914289,1.5594695413300683,-0.11228502436083865,1.804569289401351
1.5792091519522506,0.7621399498313567,1.5786519617772234,-0.09792416727864506,1.7557301791816518
1.581696095498632,0.6327878651757115,1.5355869774596105,-0.0787743833164054,1.6627246468143957
1.5841830390450136,0.5321618183545047,1.4542166011793953,-0.06441248021419632,1.5498680884731673
1.586669982591395,0.4458966084305521,1.324964022464914,-0.06441526571928513,1.399465173805322
1.5891569261377767,0.3835690511427876,1.1574060440942668,-0.06920593430483812,1.2212712349202055
1.5916438696841582,0.33560234902303776,0.9515426621737308,-0.054842470490203965,1.0104801191393726
1.5941308132305396,0.3019965113174159,0.7265274860596289,-0.054843698645541394,0.7887026766336839
1.596617756776921,0.2923283539859287,0.5015141250774584,-0.054844409944914574,0.5830782053022878
1.5991047003233025,0.3018094831004532,0.2717141719204035,-0.03090258892873976,0.4072745085495187
1.601591643869684,0.3256515048052273,0.051492832532452404,-0.026113866628744375,0.3307300234548234
1.6040785874160657,0.36385442863674056,-0.178303510415045,-0.021324630919488996,0.40575476207772276
1.6065655309624471,0.41162986088264264,-0.398521247718306,-0.011746479643317542,0.5730587291344841
1.6090524745088286,0.45461260126099534,-0.5947951735238322,-0.0069562206103164215,0.748667018558794
1.61153941805521,0.5215330794432624,-0.7623368886485129,-0.02131906495763225,0.9239095124948845
1.6140263616015915,0.5980260952882346,-0.905934800579429,-0.03568140058693636,1.0861059966202322
1.616513305147973,0.6505728354431414,-1.035165720153348,-0.05004322868782829,1.2236492173554603
1.6190002486943547,0.7174805364291424,-1.1404528449549747,-0.05961614713621266,1.3486901411072567
1.6214871922407361,0.7748071916721037,-1.2122193725979795,-0.06918856045519561,1.4403433786658353
1.6239741357871176,0.8177644079474848,-1.2552537106857888,-0.05960685657286646,1.4993176722918464
1.626461079333499,0.8655058087001871,-1.2695558635301116,-0.06438985994722479,1.537861648387616
1.6289480228798805,0.9084545975206442,-1.2599142387913638,-0.06917236183959652,1.5548178222891855
1.631434966426262,0.9322455747459424,-1.2215404375175487,-0.059589153517705995,1.5377885808331762
1.6339219099726436,0.9560323640218559,-1.16401127074562,-0.06437065613843984,1.5076682993456303
1.636408853519025,0.9654497658180131,-1.077749936259095,-0.08351687094312865,1.449349248165076
1.6388957970654066,0.970074597271185,-0.9914868584316081,-0.09787418589813157,1.3905647309559714
1.641382740611788,0.9603300623020098,-0.8908568317814047,-0.11223100557757704,1.3147073902224549
1.6438696841581695,0.9553697848176553,-0.7710714574945876,-0.1361641378820888,1.2352421992267482
1.646356627704551,0.9504053721879145,-0.670437966667059,-0.15051997079653745,1.172780329064612
1.6488435712509326,0.92628322188537,-0.5650143472575473,-0.14093329563219292,1.0941224856344762
1.651330514797314,0.9021569580083595,-0.4548006038529313,-0.14092293690948487,1.0200931527537485
1.6538174583436955,0.8876033980773883,-0.3445851443868393,-0.13612368595171098,0.9618255412951485
1.656304401890077,0.8634689397534089,-0.2487331834597586,-0.12653554404903566,0.9074458939136192
1.6587913454364585,0.8249651907201645,-0.17203312905757873,-0.12173531913816049,0.8514590132936339
1.6612782889828401,0.7960341786446551,-0.10011977591076615,-0.10256939923974784,0.8088354991957853
1.6637652325292216,0.7670991080126159,-0.04735833869731021,-0.07382618898184745,0.7720972477204562
1.666252176075603,0.7285831833702087,0.0006163878012750423,-0.05465930295920174,0.7306308742612609
1.6687391196219845,0.7044284325657609,0.043804398817290036,-0.054645549131645765,0.707901390027381
1.671226063168366,0.6898464635852238,0.05826367295644497,-0.049842912222496594,0.6940944566888823
1.6737130067147474,0.6561068678720018,0.06314781868244035,-0.054616603523195195,0.6613976432174283
1.6761999502611291,0.6415168834124277,0.06324523447340757,-0.05460141440887334,0.6469352253836858
1.6786868938075106,0.6364997150477847,0.04419070550180981,-0.04979734622112986,0.6399722504916333
1.681173837353892,0.6266901643566392,0.015561033517441203,-0.04499280362735547,0.6284958713020572
1.6836607809002735,0.6168766462559321,-0.013066979753918684,-0.03539938465974579,0.6180296587463617
1.686147724446655,0.6022707690786264,-0.05605854921187392,-0.02101709067621016,0.6052390918693142
1.6886346679930364,0.5732957378935417,-0.09426006653745889,-0.011422729680621302,0.5811053622054293
1.691121611539418,0.5874124043095634,-0.1276715367163721,-0.0018278997212242132,0.6011295161956804
1.6936085550857995,0.5967367469439158,-0.1706581747184619,0.007767397828184031,0.6207086999716254
1.696095498632181,0.6108455843123086,-0.22321998557564848,-0.011367258333287111,0.6504526918971542
1.6985824421785625,0.6201621217034599,-0.2757801677020355,-0.040078256308570204,0.6798985400206675
1.701069385724944,0.62468637110049,-0.30439670957339215,-0.05442358088539834,0.6970310934199396
1.7035563292713254,0.6339951511804434,-0.34258843953164053,-0.0496148301378323,0.7223422471312638
1.706043272817707,0.6528768773528705,-0.3807785560580901,-0.04001721542620551,0.7568631998361305
1.7085302163640885,0.6526011418374732,-0.4046018543357204,-0.049572754756443516,0.7694467940498679
1.71101715991047,0.6618983767495582,-0.43321195281149194,-0.05912783625660012,0.793270545414888
1.7135041034568514,0.6807685943339407,-0.4522436467117674,-0.05431725137990462,0.819097404964779
1.715991047003233,0.7044234035660176,-0.45690853792491115,-0.05429461482662212,0.8413831759189054
1.7184779905496144,0.7184976068309771,-0.47114864828234326,-0.06863673466116893,0.8619343717157752
1.720964934095996,0.7229912165248813,-0.48059877307395826,-0.08776680567145867,0.8725792181974616
1.7234518776423775,0.7466346650151131,-0.475682110930737,-0.09731961932979338,0.8906221993461919
1.725938821188759,0.7606975448742899,-0.47076387710578915,-0.09729517707405755,0.8998587301611954
1.7284257647351404,0.7699682719656966,-0.47063248023196813,-0.10205869030767722,0.9081641082703352
1.7309127082815219,0.779235262200628,-0.46092271568104115,-0.11161016047770111,0.9122029223859819
1.7333996518279033,0.7837101248972844,-0.45121139544629285,-0.11158437907475793,0.9111774563171585
1.735886595374285,0.7977580827021518,-0.44149852490014485,-0.12113496083612674,0.9197894241305381
1.7383735389206665,0.8118023417067239,-0.44136091607518946,-0.11153148730038609,0.9307318480092358
1.740860482467048,0.816266108048578,-0.4268565577811829,-0.09235076657298968,0.9257567413506596
1.7433474260134294,0.8255146045124506,-0.4171390687298402,-0.09232322004496574,0.9295175855698574
1.7458343695598109,0.8299710373266365,-0.3978432444096298,-0.08750683258818981,0.9245477898264918
1.7483213131061923,0.8344238227250063,-0.3737574936090091,-0.0779016056803492,0.9176199867741971
1.750808256652574,0.8340845703449613,-0.3544586284552853,-0.09702636404550624,0.9114560357438156
1.7532952001989555,0.8289532931878931,-0.33515825113317055,-0.1209390925681042,0.9022864731895824
1.755782143745337,0.8238184076186965,-0.3158563671658108,-0.1209093728163868,0.890539774432024
1.7582690872917184,0.8234683300449848,-0.3013413854146063,-0.12087922288605846,0.8851658080135086
1.7607560308380998,0.8279030735962909,-0.28682490811805383,-0.11606024095496181,0.8838336985641808
1.7632429743844813,0.8275458448032766,-0.2627301342118651,-0.10645242852521086,0.8747521753119958
1.765729917930863,0.8223966568785028,-0.25778748921157435,-0.0872673837825193,0.8662599189107106
1.7682168614772444,0.8220323297159489,-0.267208575407651,-0.07765872151802888,0.8678527818111961
1.770703805023626,0.8216644732889713,-0.26226297850592273,-0.08241484656576681,0.8664332539177496
1.7731907485700074,0.816504697610763,-0.2573159141117469,-0.07280534052135756,0.8591810161334097
1.7756776921163888,0.8065530160541874,-0.27152100116731237,-0.05361860822634412,0.852717055610556
1.7781646356627703,0.7965978453513005,-0.27614782542799743,-0.048796667807190275,0.8445157568074331
1.780651579209152,0.8010044089131823,-0.2855616025481096,-0.04876271415181854,0.8517812478797905
1.7831385227555334,0.791042300306029,-0.30455074155724526,-0.03436313551111603,0.8483394958026398
1.7856254663019149,0.7762883396959805,-0.3139616348991532,-0.02475154670202251,0.837739896149535
1.7881124098482963,0.7663193472861485,-0.3233710949549682,-0.019927949263722766,0.8319923859262782
1.7905993533946778,0.7659237399958265,-0.3232023208398904,-0.01510394141855187,0.8314607896538844
1.7930862969410595,0.7559479181787667,-0.3326089316061105,-0.03422154131414423,0.826593654870932
1.795573240487441,0.765122315427387,-0.3276489164379237,-0.05333873389837507,0.8340329672991308
1.7980601840338224,0.7695049288457427,-0.32747589441715164,-0.06287871408339107,0.8386489310951191
1.8005471275802039,0.7643073688537332,-0.3273014680385744,-0.0772066933861737,0.8350166935863912
1.8030340711265853,0.754318052546004,-0.33191404645191325,-0.0723806567644445,0.8272856931571652
1.8055210146729668,0.744325397050859,-0.33652523218038244,-0.06755421906192183,0.8196542570511334
1.8080079582193485,0.72954101288915,-0.3363466277611207,-0.08188099512546998,0.807504576368668
1.81049490176573,0.7386953338566208,-0.3457434490262332,-0.10099577656285774,0.8218329974451224
1.8129818453121114,0.7334811472968851,-0.3599272985401121,-0.10095654834429979,0.8232463047763608
1.8154687888584928,0.7234752737884392,-0.35974456891954043,-0.11049373196645185,0.815500761161041
1.8179557324048743,0.7230429372613932,-0.3595604760366169,-0.12481892568675867,0.8171013335326642
1.8204426759512558,0.7178189417548094,-0.3641634291357563,-0.11520171116402622,0.8131115978246942
1.8229296194976374,0.7030148979787335,-0.3639766275131717,-0.09600729994273571,0.7974498942242113
1.825416563044019,0.7025728365949825,-0.3494232704776379,-0.09117771021084842,0.7899484714281697
1.8279035065904004,0.702127561732299,-0.3492337839127546,-0.10071294355754468,0.7906266159004445
1.8303904501367818,0.6921022808686975,-0.3490429638314767,-0.09588258165288188,0.7810441903300585
1.8328773936831633,0.6772854114716335,-0.3440624128993419,-0.08626343273211212,0.7645494440447556
1.8353643372295447,0.681618984317831,-0.33429213711396244,-0.0814323050331538,0.7635357837205171
1.8378512807759264,0.681160997008473,-0.33409735244546335,-0.08138920015590045,0.763037054577733
1.8403382243223079,0.6759114637734055,-0.3339012582737815,-0.07655731306219771,0.7577647255714833
1.8428251678686893,0.6658703988691214,-0.33370386063066526,-0.07172504867735086,0.7482553957691863
1.8453121114150708,0.6701914298595498,-0.333505165558857,-0.07168081192915388,0.7520108954732313
1.8477990549614522,0.6697209577718456,-0.3285167757915888,-0.06205939446659059,0.7485324319606326
1.8502859985078337,0.6548821902990601,-0.32831550403363785,-0.08116802446446592,0.737054951516656
1.8527729420542154,0.654405561721548,-0.323324549718949,-0.09069947697495095,0.7355350425279448
1.8552598856005968,0.6587142797815203,-0.31833232225263375,-0.08586535029470355,0.7366225818966412
1.8577468291469783,0.667808358885713,-0.3181272310498393,-0.07624245268359076,0.7436301842477057
1.8602337726933598,0.6625342001830533,-0.3179208788949359,-0.06661918908338293,0.737877610450171
1.8627207162397412,0.6572570280876445,-0.32250167522257556,-0.056995561117723526,0.734331413926365
1.8652076597861227,0.6567652603955042,-0.32229281951593647,-0.05215997373270653,0.7334397941438022
1.8676946033325044,0.6562705082841093,-0.3220827212284165,-0.037747218595269416,0.7320198848863766
1.8701815468788858,0.6557727862728858,-0.32187138650219005,-0.013757297335343921,0.7306356136234528
1.8726684904252673,0.6696373188633763,-0.31687041816802264,0.0006561751338907129,0.7408248317182106
1.8751554339716487,0.6834989106559984,-0.3022914190653938,0.01028160049885507,0.7474333242619867
1.8776423775180302,0.6829923662714462,-0.31165321860481576,0.01990738044402285,0.7510010684732435
1.8801293210644117,0.6872713135924507,-0.31622540304108293,0.010379900050429214,0.7566030044485978
1.8826162646107933,0.7011241705602075,-0.31121957523871036,-0.003935632360571262,0.7671037842153954
1.8851032081571748,0.7053973385332949,-0.3205777579920519,-0.023039218430334074,0.7751685685803748
1.8875901517035563,0.695302428849751,-0.3203579409001369,-0.04693085980199285,0.7669922968738949
1.8900770952499377,0.7091466827484895,-0.30577172685083864,-0.07082215480009602,0.7755005765343178
1.8925640387963192,0.7134112916813707,-0.305549541981637,-0.0851362984305446,0.7807460425862719
1.8950509823427006,0.7128846736799451,-0.3101145858747465,-0.08987329234151709,0.7825936512752523
1.8975379258890823,0.7219320534331405,-0.30031325147881294,-0.0898215415030883,0.787046280790373
1.9000248694354638,0.7309766390446342,-0.30966436827278176,-0.08976945088689448,0.7989226634157433
1.9025118129818452,0.7448068485949317,-0.3094375225782353,-0.08971702214577171,0.8115035219615342
1.9049987565282267,0.7490574868987234,-0.30442112396544463,-0.08966425693402336,0.8135103062450693
1.9074857000746082,0.7533053753872865,-0.3185571952922559,-0.10397636686833067,0.8244748389896364
1.9099726436209896,0.7527621255455377,-0.32311532289922784,-0.11828814364487705,0.8276753073972057
1.9124595871673713,0.7522161555131706,-0.31809551305476447,-0.12302278228151664,0.8259228202446484
1.9149465307137528,0.7708210934045396,-0.32265138531430804,-0.11818028443804351,0.843940551290474
1.9174334742601342,0.7750581308238569,-0.3272061393170427,-0.10854905509581592,0.8482699223272798
1.9199204178065157,0.7745040892710182,-0.3221829747075837,-0.10370590255774204,0.8452297721414413
1.9224073613528971,0.7739473869380491,-0.30758189777642553,-0.09886242516697585,0.83867452608141
1.9248943048992788,0.7781764420289947,-0.31692173806132695,-0.0796534146272112,0.8440039273880734
1.9273812484456603,0.7824028661188742,-0.32147208194089405,-0.07480929252604795,0.8491731122843502
1.9298681919920417,0.7914150774345119,-0.3164445324000251,-0.08911846385059974,0.8569813693865437
1.9323551355384232,0.7908478809322337,-0.311415902389105,-0.09863891366712885,0.8556575660421968
1.9348420790848047,0.780701291539645,-0.32075140818321213,-0.08900543368351244,0.8487036819104613
1.9373290226311861,0.7897057441161448,-0.3300858461397622,-0.08416004217108153,0.8600434528615836
1.9398159661775678,0.7891308336868943,-0.3298424159405138,-0.07931433748020744,0.8589611493884761
1.9423029097239493,0.7789765752080189,-0.32480952723202705,-0.07925672460275734,0.8476953238624504
1.9447898532703307,0.768819790284951,-0.31019878302392545,-0.07919880189081141,0.8328142680959905
1.9472767968167122,0.7634488972110811,-0.30516380293091183,-0.079140571017561,0.8259796578930125
1.9497637403630936,0.7772291209282802,-0.3049161899694721,-0.09823564693819975,0.8406599976529233
1.952250683909475,0.7766416531827536,-0.30466754715926925,-0.11733041804614963,0.8424731442303489
1.9547376274558568,0.7712633156105588,-0.29962947752297486,-0.11248286941519581,0.8350313297829964
1.9572245710022382,0.7610941232137711,-0.3137440040079742,-0.12200022928381671,0.8322160899590915
1.9597115145486197,0.7557108976413247,-0.3326459230018277,-0.10278686944579896,0.8320561347854256
1.9621984580950012,0.74553684726674,-0.3276048209336624,-0.07399640485953718,0.8176952838701859
1.9646854016413826,0.7353603904299144,-0.3417163340396163,-0.049994047163679056,0.8124188338009619
1.967172345187764,0.7299699454757711,-0.3462500487533289,-0.04035660467702762,0.808933787834728
1.9696592887341458,0.7293655274335605,-0.34599437475262507,-0.035507272437609316,0.8080513265658652
1.9721462322805272,0.714393538055534,-0.35052612503747804,-0.035446052124489924,0.7965444834787981
1.9746331758269087,0.6946307990196499,-0.355056902648605,-0.02101933213587337,0.7803967986790672
1.9771201193732901,0.6892309386479495,-0.3547983106282344,-0.0113807274327975,0.7752745636038127
1.9796070629196716,0.6886171653436687,-0.3497503553402539,-0.016107046335999797,0.7725143030444508
1.982094006466053,0.6832126875127092,-0.3542782531106696,-0.011256273924297844,0.7696878332857714
1.9845809500124347,0.6730175202038836,-0.35401680034464267,-0.020770428479879754,0.7607311536455447
1.9870678935588162,0.6676084851085292,-0.3346007934481965,-0.030284301722632634,0.7473793677215711
1.9895548371051976,0.6717740005991794,-0.3295490620311736,-0.05416310529447621,0.7502109930824749
1.992041780651579,0.6615720651276266,-0.32449640250084366,-0.07325322759527175,0.7405008763980949
1.9945287241979606,0.646579500388598,-0.30986601458517393,-0.0684010570249729,0.7202504438872647
1.997015667744342,0.6555267413584341,-0.31438832457485155,-0.07791382182733742,0.7311811614755482
1.9995026112907237,0.6596833831697225,-0.31412132223720457,-0.09700312036333081,0.7370644316981545
2.001989554837105,0.6590494408765329,-0.30906501394102737,-0.10651534103296356,0.7356717109128275
2.0044764983834864,0.6536249295321735,-0.313584616015806,-0.11123888883776978,0.7334404885862118
2.006963441929868,0.643409864188817,-0.30852652154844096,-0.11117376545887936,0.7221665140122175
2.0094503854762498,0.657134679819002,-0.3178327535080876,-0.1111083758976168,0.7383689577832759
2.011937329022631,0.651703761588701,-0.32234970498038074,-0.09667751187389939,0.7334668816462874
2.0144242725690127,0.6414823345053892,-0.3268657856516568,-0.08703478834963718,0.7252005803191452
2.016911216115394,0.6408356235739264,-0.3313810018869243,-0.08696861032558623,0.7266685654649777
2.0193981596617756,0.6353984338743205,-0.3358953600500225,-0.07732536620067698,0.7228665678610003
2.0218851032081573,0.639535990405109,-0.33562046318315986,-0.06768186429541956,0.7254158897385871
2.0243720467545385,0.6484599048798717,-0.3257679143270731,-0.0724033162503197,0.7292922750488088
2.02685899030092,0.6430165790471926,-0.3207029298021231,-0.08191291710395276,0.7232084181629104
2.0293459338473014,0.6327828345731011,-0.3156371126456574,-0.09142226521482755,0.7130209907055095
2.031832877393683,0.6369122997594697,-0.320147275854036,-0.07698934565977567,0.7169929673063588
2.0343198209400644,0.6506165863014769,-0.3198682158199979,-0.06734458003860233,0.7281160005953938
2.036806764486446,0.6499536926075588,-0.3195883422153143,-0.04812276006781069,0.7258734814350762
2.0392937080328277,0.6301352303615648,-0.31451925806877457,-0.043265904025872715,0.7055952881717187
2.041780651579209,0.6342568444442637,-0.30466096972697,-0.052774013589148794,0.7056097701347964
2.0442675951255906,0.6431649365658422,-0.3043786934947814,-0.04791667051152082,0.7131644494744838
2.046754538671972,0.6424943117498992,-0.2945188224321078,-0.043059086429060756,0.7080920578017222
2.0492414822183536,0.6466101949346811,-0.2894465728380844,-0.03820126301624249,0.7094669824714994
2.0517284257647352,0.6459357944492962,-0.29395035436814254,-0.038131605267164304,0.7106995713409786
2.0542153693111165,0.650047931896187,-0.2888765600729237,-0.03806171153457427,0.7123627408890898
2.056702312857498,0.6493698155882904,-0.2790135996012597,-0.028414776850151924,0.7073451390255441
2.0591892564038794,0.6534782671111988,-0.27393828591878666,-0.04270962612759632,0.709859241147664
2.061676199950261,0.6671617047212611,-0.28801583530780084,-0.04742743779541492,0.7282219603187392
2.0641631434966428,0.6664781267436871,-0.2925158341639955,-0.0329914068828252,0.7285925058580691
2.066650087043024,0.6657927580565893,-0.28264988548070713,-0.0424971649415955,0.7245529404197667
2.0691370305894057,0.6651056135672139,-0.29193681880969136,-0.05679110035853441,0.728572448322935
2.071623974135787,0.6692051114928604,-0.30122302717506777,-0.0662964081601114,0.7368622714480743
2.0741109176821686,0.6733028633996193,-0.28656650027629826,-0.061436283371838485,0.7343238535260017
2.07659786122855,0.6773988841629829,-0.28627447097242964,-0.05657593761977964,0.7375792552081138
2.0790848047749315,0.6862815919675203,-0.2955585422350815,-0.05171537256802594,0.749007179619428
2.081571748321313,0.6903741950253046,-0.290476703749873,-0.06600820316085354,0.7518978171684989
2.0840586918676944,0.6896767081771566,-0.28060576843972207,-0.07072401113831894,0.7479274328671325
2.086545635414076,0.6889775495720114,-0.28031095254284244,-0.06586279816120921,0.7467276626129189
2.0890325789604574,0.6978535406666013,-0.27522705237042144,-0.08494338913135202,0.754960180363536
2.091519522506839,0.7019394863032666,-0.27014247750961395,-0.0848701558243743,0.7569008811835137
2.0940064660532207,0.7012354012721418,-0.27942244418278195,-0.08479671317874882,0.7596041553837767
2.096493409599602,0.7005297036702192,-0.2791249420442461,-0.09908827281137178,0.7605728662029888
2.0989803531459836,0.7141876182213486,-0.26446157402390735,-0.09901441645505926,0.7679894093161841
2.101467296692365,0.7230555463931301,-0.26895116960835175,-0.0893635490834992,0.7766143822440885
2.1039542402387466,0.707979889638769,-0.27344012175480925,-0.08928928562997562,0.7641842715252126
2.106441183785128,0.7120562925608596,-0.27792843669569,-0.09879162774515748,0.7707322267896707
2.1089281273315095,-0.6629289996671865,4.860329045358409,-0.036467720632984424,4.905466663060966
2.111415070877891,-1.3962697711835985,4.870207196117256,0.08810562741799899,5.067173769332973
2.1139020144242724,-2.0051135659086037,4.6981266392502015,0.19831396163646353,5.111966623326395
2.116388957970654,-2.4798835625434164,4.391971401753468,0.28458047373683826,5.051754281794159
2.1188759015170353,-2.8301565530867547,3.970895090708169,0.35648196871633253,4.889261020891604
2.121362845063417,-3.046355716272808,3.4444745065613165,0.41401844493310236,4.616936110578492
2.1238497886097987,-3.123692634172466,2.8414400630484407,0.45240149742648583,4.246869955573607
2.12633673215618,-3.0717440988349,2.1713685606310618,0.4668427212374606,3.790566627985378
2.1288236757025616,-2.909663708967139,1.4773556230194322,0.4669189213695635,3.2964732389753233
2.131310619248943,-2.642239853332941,0.8072852772518986,0.45263009618733996,2.7996455070924813
2.1337975627953245,-2.298202937315544,0.14200390388974293,0.4239762440570125,2.3412940236822912
2.1362845063417057,-1.8919181563554508,-0.48975808329508075,0.39053416998714674,1.9929210291498831
2.1387714498880874,-1.4425391092319626,-1.0592702705229526,0.352303872347413,1.8240314158885793
2.141258393434469,-0.9500657814618987,-1.561744260608032,0.30449694618893197,1.8532103266724267
2.1437453369808503,-0.4384401751826865,-1.9876032530362635,0.24232498656461843,2.049760444005129
2.146232280527232,0.06360730412861382,-2.336847253926197,0.18494160513075997,2.345016924166915
2.1487192240736133,0.5369230576159703,-2.5855342527866827,0.13234680026423362,2.644010101658663
2.151206167619995,0.9862955030050448,-2.757606272321444,0.06538695706253073,2.9294106278479366
2.1536931111663766,1.3973594447201718,-2.8147560920617734,-0.0015727161327809824,3.1425256958350505
2.156180054712758,1.7557496871650207,-2.7952909446555005,-0.054167010978185104,3.301400080924973
2.1586669982591395,2.0471010347229694,-2.7183644494605876,-0.0971843324095083,3.404346151747924
2.161153941805521,2.280990308357759,-2.555246192623185,-0.1449898920012025,3.4282972392311355
2.1636408853519025,2.4334755057698008,-2.334666600124369,-0.18800688472415672,3.3775461150991783
2.166127828898284,2.5189218512005374,-2.075779291295668,-0.21187010222693203,3.2708891602812127
2.1686147724446654,2.5469061655493723,-1.7737958688580089,-0.23573315939823658,3.112660103983572
2.171101715991047,2.5270052696937206,-1.4478699521247376,-0.2691728644840623,2.924814021831145
2.1735886595374283,2.435277161246569,-1.1219435637202577,-0.2978240091267601,2.6977826733587706
2.17607560308381,2.2860870643609035,-0.7864399030174178,-0.30732138496652794,2.4370326671085154
2.178562546630191,2.1129538164482113,-0.4461473793405304,-0.312030203563312,2.181967956334659
2.181049490176573,1.9110890283344766,-0.1441616285668319,-0.2975852565529866,1.9394846826642282
2.1835364337229546,1.6709159075021196,0.13867095660018736,-0.2687749488504956,1.6980664231053004
2.186023377269336,1.4067996780116252,0.3784083535840099,-0.24954129864981311,1.4780220146694734
2.1885103208157175,1.1522591771809396,0.5654737497789775,-0.23030750090044805,1.304033480420577
2.1909972643620987,0.8977176124213906,0.7190207525111907,-0.20149675054967986,1.1676851864588336
2.1934842079084804,0.6479634010807438,0.8294725491951382,-0.1870510657846154,1.0690506911365645
2.195971151454862,0.4269385737636914,0.8920407305757156,-0.1773936415478854,1.0047296725164692
2.1984580950012433,0.22027793448785882,0.9115136940487516,-0.1533708661391504,0.9502116634944615
2.200945038547625,0.03276990052681228,0.8974682403408254,-0.11977114445724801,0.9060177900271019
2.2034319820940063,-0.1212203042300648,0.8355391535874186,-0.09574809135957452,0.8496986150007606
2.205918925640388,-0.2416926658799221,0.7496684444971344,-0.06693649845892757,0.7905052917222243
2.208405869186769,-0.3190703639048835,0.6350677038673926,-0.04291317396723393,0.7120101306285882
2.210892812733151,-0.36293019109419267,0.50131373246735,-0.023678119453331092,0.6193500103405659
2.2133797562795325,-0.3828489402631885,0.35319492775673966,0.005133873477371154,0.5209091328731112
2.2158666998259138,-0.3692497909722787,0.1907112838859737,0.0195807866594766,0.4160524115309415
2.2183536433722955,-0.3173443261287259,0.023439601657174514,0.038816231812932145,0.32056752191090326
2.2208405869186767,-0.24149774194780727,-0.12946651147573407,0.048474997418047394,0.27826707015790747
2.2233275304650584,-0.14649842803115765,-0.27758386796942736,0.05334548523896032,0.31837137743184274
2.22581447401144,-0.037134774007616445,-0.42570087694890546,0.05821609704240416,0.43126481659244414
2.2283014175578213,0.09138163710718694,-0.5546639309261496,0.05351002463678789,0.5646822138224895
2.230788361104203,0.21510880234811547,-0.654896229042222,0.053592476434724645,0.6913993210813629
2.233275304650584,0.33883513864406545,-0.7359745837077929,0.05367504757023589,0.8120029863094527
2.235762248196966,0.4721374662161908,-0.8026874040014933,0.048969333180027164,0.9325335656906929
2.238249191743347,0.6054389919761344,-0.845457889029201,0.02989852508318691,1.0403121343755155
2.240736135289729,0.7243745194867581,-0.8690744478458237,0.0012510250624853114,1.1313754484890957
2.2432230788361105,0.8337324655635011,-0.8687486828536539,-0.017819555135641707,1.204222419090338
2.2457100223824917,0.9191476337116615,-0.8444805997632205,-0.01773641040260543,1.2483166409962518
2.2481969659288734,0.9901968440090841,-0.8250006241947414,-0.03201836550985071,1.2892404723468722
2.2506839094752547,1.0564569165042452,-0.7815783419124571,-0.04630021202288681,1.314956132579961
2.2531708530216363,1.103562654614646,-0.7237905652307579,-0.05100514482470153,1.320728904724877
2.255657796568018,1.1219372650484183,-0.6612141064515988,-0.0604983753970032,1.3036899074168626
2.2581447401143993,1.1307343744056986,-0.5794837612629471,-0.06999150193737869,1.2725016563343048
2.260631683660781,1.1155887860143965,-0.4929647452619115,-0.09384973592178625,1.223258089073931
2.263118627207162,1.0908657230940362,-0.4208106773533933,-0.11770786890138929,1.1751275651593758
2.265605570753544,1.0613536021930923,-0.34865635318728927,-0.13677749906504566,1.12549580441537
2.268092514299925,1.0174756298684813,-0.27171337504131055,-0.1319050146377414,1.061359387031172
2.2705794578463068,0.9592318192869398,-0.1947701518208822,-0.12224403040399068,0.9864100050903141
2.2730664013926885,0.9057757968654672,-0.11782668909813543,-0.11737135450470504,0.9209174543407079
2.2755533449390697,0.8427423657477078,-0.060036605713386315,-0.10771018179654135,0.8517162510568129
2.2780402884854514,0.7653431356865967,-0.021399907212565683,-0.10283732041439109,0.7725176928985582
2.2805272320318326,0.6927317330050529,0.02202541747320197,-0.09796436852914958,0.6999709925620973
2.2830141755782143,0.6392733806740631,0.04629734622291526,-0.10745653758991125,0.6498929196233346
2.285501119124596,0.5906028817107992,0.05141587353053012,-0.11216021580049862,0.60335335413373
2.287988062670977,0.5275666357801322,0.05174620386437434,-0.11686380796321494,0.5428272049321066
2.290475006217359,0.46931826907714913,0.04249992842504202,-0.11199050891628204,0.4843632476695903
2.29296194976374,0.4445882144052222,0.028465445067338724,-0.09754032013544389,0.4560516155031472
2.295448893310122,0.4102808547304737,6.594169879470257e-05,-0.07830164641358017,0.41768592499359253
2.2979358368565035,0.3855498161503703,-0.0283333771577694,-0.04948608589977965,0.3897439078323472
2.3004227804028847,0.3799719180888774,-0.0663093235672707,-0.035035656661820624,0.3873023136592584
2.3029097239492664,0.36481675337441366,-0.11386190294016929,-0.03495036016271236,0.3837672786459362
2.3053966674956476,0.36881475464594926,-0.15183750739170288,-0.03486498790130632,0.4003679798345959
2.3078836110420293,0.38238912794659674,-0.18023614230438767,-0.029991138013835794,0.4237994579089161
2.3103705545884106,0.4007514826062599,-0.21821142632787405,-0.04427082855515074,0.4584516153882765
2.3128574981347922,0.41432502460086706,-0.26576336481644836,-0.058550447694006635,0.49570510085557756
2.315344441681174,0.432686573153757,-0.3037383498289108,-0.04409957695526856,0.5304898004975825
2.317831385227555,0.4702013507746272,-0.3369247900113872,-0.03922544434484543,0.5797812172522941
2.320318328773937,0.5077157566968494,-0.36532269067532663,-0.05350485794347293,0.6277728313204276
2.322805272320318,0.5356529967601523,-0.3841436537974703,-0.048630592625418245,0.6609503871169922
2.3252922158666998,0.5635898900510924,-0.3981760879807168,-0.04854466642565569,0.6917617695751971
2.3277791594130814,0.5915264489810655,-0.40741999849313304,-0.06282388741484901,0.7210003022511206
2.3302661029594627,0.6242510892470214,-0.41666379390848274,-0.07231464373839458,0.7540076573081431
2.3327530465058444,0.6473986132298695,-0.42590747946558327,-0.06265172685861131,0.7774621433581512
2.3352399900522256,0.6657574365567551,-0.4207858504275923,-0.06735396143751515,0.7904620499252448
2.3377269335986073,0.6889043781400159,-0.42524092860539486,-0.07205613893057894,0.81277990670245
2.3402138771449885,0.7072626435754968,-0.41533070259191884,-0.0623930507898347,0.8225648499053191
2.34270082069137,0.7208322450642486,-0.39105517756675656,-0.0527299083857109,0.8217686539802416
2.345187764237752,0.7200363881311875,-0.37156797197580227,-0.03827830980391589,0.8111599022588957
2.347674707784133,0.7192402948671308,-0.3568690909686887,-0.03819186972821598,0.8038163775158557
2.350161651330515,0.7232323806864838,-0.34695853967998413,-0.03810537959669347,0.803054994807027
2.352648594876896,0.7224358510067996,-0.32747111326820066,-0.03801884080484896,0.7941009514546485
2.3551355384232777,0.7072739112095913,-0.3031952201579262,-0.03793225474464812,0.7704560876223505
2.3576224819696594,0.6921117832417643,-0.29328447871945507,-0.02826881616387844,0.752219138235092
2.3601094255160406,0.6673726724123905,-0.29295049070623547,-0.04254734968957585,0.7300798249873003
2.3625963690624223,0.6569986072362934,-0.2734628412548177,-0.05203743678113959,0.7135383593643287
2.3650833126088036,0.6466243896292851,-0.2539751486894888,-0.05195067549593979,0.6966529624567586
2.3675702561551852,0.6362500314314538,-0.24885262799876262,-0.061440680489305066,0.6859421915711303
2.3700571997015665,0.6210871411258305,-0.24373007423380777,-0.07571904981138289,0.671481169104699
2.372544143247948,0.5963473271585427,-0.2242422824302306,-0.06605536490713604,0.640529505231158
2.37503108679433,-0.7452035051862658,3.7696202883294507,-0.0707568537022496,3.843224156183549
2.377518030340711,-1.9574675414818725,3.7795313147205585,0.08255900197499777,4.2571530538278175
2.3800049738870928,-2.992560736870023,3.6649438679653557,0.22150968123749415,4.73669714654366
2.382491917433474,-3.8025990465297905,3.4354347497705984,0.35088358605337966,5.136641969182038
2.3849788609798557,-4.401947668841639,3.114945971819831,0.451527101792907,5.411460838833672
2.3874658045262374,-4.804971802224033,2.722631142491807,0.5090750171504457,5.546136649174905
2.3899527480726186,-5.002094628530744,2.2776438701818353,0.5761997673083066,5.526356706185293
2.3924396916190003,-5.0124697495758035,1.80871456994107,0.6098057210464223,5.363596219268428
2.3949266351653815,-4.845673960570168,1.3302084468759992,0.6098928770312178,5.061815876317653
2.397413578711763,-4.540014476684875,0.8612791094296979,0.6004032505344554,4.659830170306702
2.3999005222581444,-4.105068093206809,0.40671495609986597,0.5621832269488447,4.163298101991079
2.402387465804526,-3.5599884121018475,-0.03348401791966715,0.4952328049521384,3.5944254345939965
2.404874409350908,-2.947871051975621,-0.41622218753618956,0.42349399982745695,3.0070802809973536
2.407361352897289,-2.2878696148705355,-0.7510763641642284,0.35654361690078673,2.434252745753141
2.4098482964436707,-1.5943492995471185,-1.042834955881765,0.2848048482206984,1.9262835294279306
2.412335239990052,-0.9104057247262953,-1.2723443541489374,0.20827769248021433,1.5783150307634943
2.4148221835364336,-0.24561568592542038,-1.444392967011128,0.1317505516965145,1.4710391960094606
2.4173091270828153,0.3856556179792412,-1.5589807991770581,0.0504350212500011,1.6067654089039187
2.4197960706291965,0.9642545847519073,-1.6256846619796297,-0.02609209351405184,1.8903222798652197
2.4222830141755782,1.475816015438852,-1.649292963415067,-0.10261919720751678,2.215565591498428
2.4247699577219595,1.9155515176876008,-1.6010752882208819,-0.17435788779768835,2.5026346853874064
2.427256901268341,2.269095892466113,-1.5193388676024633,-0.22215455328703015,2.73980645472637
2.429743844814723,2.5316607473438815,-1.413660512826746,-0.27473961487724985,2.912597473244502
2.432230788361104,2.7223997064526193,-1.2744634218629283,-0.3321130738441944,3.024238130369054
2.4347177319074857,2.822159167322458,-1.1256896159056209,-0.37033291485830233,3.060866861672912
2.437204675453867,2.8357275440455942,-0.9721275028516299,-0.3846107358672626,3.0223017724912515
2.4396916190002487,2.8014120739170085,-0.8089886839404181,-0.38931174809606794,2.9417572870373347
2.44217856254663,2.6904823477077926,-0.641061567035345,-0.38443595280482334,2.792390767400938
2.4446655060930116,2.5173035860322974,-0.492288173264289,-0.3508297379684109,2.5888697330746364
2.4471524496393933,2.3010294127854065,-0.3483032971757294,-0.30285831479990755,2.3468648670450705
2.4496393931857745,2.0656018551427735,-0.22347215322335812,-0.25967529782872845,2.093819974959163
2.452126336732156,1.8014441169979478,-0.11300634256265596,-0.2069154783380931,1.8168063615316261
2.4546132802785374,1.5133446121655358,-0.007329063011921377,-0.17809768081031763,1.523805897824622
2.457100223824919,1.2396105776625987,0.06004085774460233,-0.14927988987998297,1.2500095097135417
2.459587167371301,0.9706652172627406,0.12262223852407184,-0.10609689681820988,0.9841157091007295
2.462074110917682,0.7017201380202087,0.17083826827772253,-0.07249071945464536,0.7258455554856584
2.4645610544640637,0.4567173668707185,0.20468894261447623,-0.048461359013263205,0.5028288175387
2.467047998010445,0.23565691410826195,0.2241742571602745,-0.005278396792125051,0.3252939289520859
2.4695349415568266,0.043327193307098,0.21971740091746517,0.013962536110076584,0.2243834538472522
2.472021885103208,-0.10590657535824999,0.20089517618676345,0.009261438481541262,0.22729023023872097
2.4745088286495895,-0.21683278503498604,0.17249598196564708,0.014137132356740523,0.2774368017613981
2.4769957721959712,-0.30860503887148405,0.12973141062814575,0.023801213211735117,0.33560960455682615
2.4794827157423525,-0.3524929068535707,0.08217826452634025,0.01910006656575014,0.3624490710230298
2.481969659288734,-0.3772267988512641,0.020259732748276083,0.004822094543678546,0.37780122702075997
2.4844566028351154,-0.378018301532967,-0.03208217235861266,0.019274522516710135,0.3798665677515778
2.486943546381497,-0.3357137916467492,-0.07484745503121992,0.0433037360164068,0.3466714654820412
2.4894304899278787,-0.2694668725438194,-0.1271897327704461,0.05296771725814864,0.3026469933640572
2.49191743347426,-0.19843114761613556,-0.18910900977861678,0.06263167502395284,0.28117586069933453
2.4944043770206417,-0.10345299373382111,-0.24145167695957603,0.07229560813905778,0.2724483238621183
2.496891320567023,0.015467598910912983,-0.27942933516074087,0.07238270879222064,0.28906618013275426
2.4993782641134046,0.12960022016316508,-0.3030419885325082,0.05810457249667422,0.33467417770885605
2.501865207659786,0.23894487974904155,-0.33144325448916145,0.04861481137137247,0.4114762282189885
2.5043521512061675,0.3435015873537388,-0.34547952386510294,0.024759810976954455,0.48781399135757786
2.506839094752549,0.45284715926213337,-0.3643044140398346,0.005693183440738991,0.5812234235458694
2.5093260382989304,0.5526163951165566,-0.37834112245356666,-0.013373475707323834,0.6698550103892165
2.511812981845312,0.6380209011589475,-0.3828012498493871,-0.04680537757372072,0.7455187526626992
2.5142999253916933,0.7186374935511315,-0.37768480027324136,-0.07066050669822488,0.8149101562146226
2.516786868938075,0.7801009718122869,-0.3677801810739214,-0.08015046089765043,0.8661661989452987
2.5192738124844567,0.8271997487017342,-0.3626642029030487,-0.09921725790646718,0.9086411902318727
2.521760756030838,0.8647222369376217,-0.3575484664338089,-0.1087072855721054,0.942020555423303
2.5242476995772196,0.8830916392360237,-0.3380677656812492,-0.13256256162058122,0.9548368919478812
2.526734643123601,0.8966731748733615,-0.31858731456474887,-0.1468410705705736,0.9628514732529438
2.5292215866699825,0.9006784498035653,-0.31826073030647484,-0.13238920025679768,0.9643850178950306
2.5317085302163638,0.8855306666190158,-0.29878079026727367,-0.1275141783534952,0.9432361251757813
2.5341954737627455,0.8560182378317363,-0.26972430499353406,-0.11306239268689211,0.9046002038717883
2.536682417309127,0.8265063825531105,-0.2598216982953372,-0.10339905432113561,0.8725316497071077
2.5391693608555084,0.7969951098922254,-0.24991936076201737,-0.09373576103487302,0.8405041849822062
2.54165630440189,0.753119218955913,-0.2400172962465632,-0.08886091724308898,0.7954200921975495
2.5441432479482713,0.7140323320518362,-0.22053870194372172,-0.08398612071588296,0.7520193872123966
2.546630191494653,0.6701576515243794,-0.2106371949524739,-0.06474616257844978,0.7054582704616575
2.5491171350410347,0.6262835896375074,-0.2198895857135592,-0.04550625387358487,0.6653220150394316
2.551604078587416,0.5919869619340865,-0.2195654580875579,-0.045420008960103786,0.6330249052755228
2.5540910221337976,0.5481141639936569,-0.20966481583927132,-0.050122218950349406,0.5889827744543025
2.556577965680179,0.5042420112762237,-0.20455287267677358,-0.035670868311742154,0.5453203595156936
2.5590649092265605,0.4699473192003415,-0.20901803564984345,-0.03558478135114562,0.5155630889758457
2.561551852772942,0.4500184998227923,-0.2134835018296415,-0.03549874916799922,0.4993515965015988
2.5640387963193234,0.430090351877657,-0.21316087158995423,-0.03062436949805125,0.48099180862296287
2.566525739865705,0.4101628840184596,-0.22241535856812344,-0.016173240072737016,0.46686588743211643
2.5690126834120863,0.3998129114978828,-0.22209335314160272,-0.01129897522072909,0.457496982013142
2.571499626958468,0.38946363624587055,-0.22177166559201478,-0.016001575985130856,0.44846476567431703
2.5739865705048492,0.38869187343212563,-0.23581550950358032,-0.015915833443779448,0.4549105854437978
2.576473514051231,0.39270922822391596,-0.24028287188029607,-0.02540695859204689,0.46108774652571766
2.5789604575976126,0.3967273057470191,-0.2447505629506308,-0.03010974249910703,0.4671209584072438
2.581447401143994,0.40074611440602337,-0.244430182964384,-0.044389396151652605,0.47150183567642256
2.5839343446903755,0.42391927584527,-0.24411013879425347,-0.0538807106101693,0.49213864232671733
2.5864212882367568,0.437516378464477,-0.25336724061551363,-0.04900688025110256,0.5079539490482744
2.5889082317831384,0.4463258338640558,-0.2626246853044494,-0.05370992268873742,0.5206373316435693
2.59139517532952,0.46950126356386435,-0.25272886307898323,-0.04404782232986548,0.5350173131528213
2.5938821188759014,0.4878890624797724,-0.2619870039830472,-0.034385790139433325,0.5548471051622398
2.596369062422283,0.4967008354471044,-0.27603390151939156,-0.02472382711707688,0.5687861657505251
2.5988560059686643,0.5055133972206464,-0.26613913921208354,-0.029427144219017265,0.5720487680320574
2.601342949515046,0.5239035625137156,-0.2706099470518182,-0.02934212915490697,0.5903944840539195
2.603829893061427,0.5279293227559805,-0.2750811184881061,-0.024468782911291953,0.5958000611878247
2.606316836607809,0.536744299218471,-0.26997585027302806,-0.024383913110970212,0.6013118805518276
2.6088037801541906,0.5551369031698363,-0.2744477590627916,-0.0386643273723557,0.620478431475858
2.611290723700572,0.5543767225951066,-0.2789200415739863,-0.04815641338760912,0.6224539985390762
2.6137776672469535,0.548828975320705,-0.2642390878648295,-0.062436978766397644,0.6123184759785447
2.6162646107933347,0.5528588791316449,-0.2591353211789249,-0.07192921783274997,0.6147990462705961
2.6187515543397164,0.5616780384903026,-0.25882034149993904,-0.07663313154694507,0.6231715854779888
2.621238497886098,0.5561328478567336,-0.24892894215317884,-0.07176031754456247,0.6135135743248374
2.6237254414324793,0.5505885248918232,-0.2390379330477863,-0.0716759867380361,0.604503353384564
2.626212384978861,0.5450450772541648,-0.23872412407515142,-0.08116854339478863,0.6005428178667017
2.6286993285252422,0.5347141092407199,-0.2431991151480153,-0.07629597185598058,0.5923563653336754
2.631186272071624,0.5291724350680735,-0.23809769952076154,-0.06663507970056592,0.5840840816180956
2.633673215618005,0.5236316589505834,-0.23299668703161336,-0.061762674503096804,0.576447914719815
2.636160159164387,0.5180917883816496,-0.23268448418076693,-0.05689035387279695,0.5707868978267964
2.6386471027107685,0.5125528308134226,-0.22758428748976423,-0.06159492537542555,0.5641798889707794
2.6411340462571498,0.5022263903365117,-0.23206131006399966,-0.05672277665047609,0.5561486061926272
2.6436209898035314,0.4966892809612592,-0.24132715170991537,-0.047062311934602974,0.5542146670549807
2.6461079333499127,0.49594151001619935,-0.22665139561469072,-0.04697874210069486,0.547298674126476
2.6485948768962944,0.4951946814683966,-0.2359180780728103,-0.04210685809535697,0.5501346195385434
2.651081820442676,0.4800835926031587,-0.24039678223607153,-0.027658257501414596,0.5376205427662036
2.6535687639890573,0.47455026722718563,-0.2257223011995273,-0.03236336113946514,0.5264939700779553
2.656055707535439,0.47859471250453434,-0.2158366546030539,-0.05143376658351073,0.5275261061336234
2.65854265108182,0.47306332227695747,-0.21552824878761045,-0.046562248160965325,0.5219285160469487
2.661029594628202,0.4723213135873702,-0.21522028011555738,-0.036902420038588346,0.5203546683240406
2.663516538174583,0.47158029015644065,-0.21012434825191084,-0.05597310633966046,0.51930068402192
2.666003481720965,0.47084025898418214,-0.2098172628049766,-0.051101871417429834,0.5180011916141003
2.6684904252673465,0.465312823709357,-0.20951062340448345,-0.031865522784796596,0.5112984810950048
2.6709773688137277,0.46936320121106967,-0.20441602966253036,-0.036571287872124714,0.5132496341262421
2.6734643123601094,0.4734145917259899,-0.18974508117359123,-0.05085395758194089,0.5125531157747499
2.6759512559064906,0.46310179212962765,-0.1990166040770296,-0.0555599194920422,0.5071072699399884
2.6784381994528723,0.47673203578011225,-0.20350018133053194,-0.05547757777737594,0.5213094276690711
2.680925142999254,0.4951517161510577,-0.20319581579606671,-0.05539533660847873,0.5380821543986879
2.6834120865456352,0.49441882335500975,-0.1933151069977037,-0.05052479351085637,0.5332667796146696
2.685899030092017,0.47932176738568055,-0.19301167104348593,-0.036077546005605754,0.5179811301336352
2.688385973638398,0.4785909747976683,-0.20707391406295406,-0.01684199825003141,0.5217399543337544
2.69087291718478,0.4778612422221181,-0.20198301560558285,-0.01676016767827626,0.5190659000857164
2.6933598607311615,0.4723441728901959,-0.2112578016876694,-0.02146684515756725,0.5178800072200594
2.6958468042775428,0.47161657995343764,-0.21095625846421573,-0.03096203151165966,0.5175745249406382
2.6983337478239244,0.48046687320253534,-0.2058667919945658,-0.05003413088021169,0.5251028152125002
2.7008206913703057,0.48931825242674876,-0.21035461496116392,-0.059529530796904595,0.5359339336432491
2.7033076349166874,-1.0005995152420397,6.0292350062590065,-0.02592940883007877,6.111754779508412
2.7057945784630686,-1.8919657691587415,5.905036126599983,0.06991984749542546,6.201118843659839
2.7082815220094503,-2.625313608482676,5.637184656475368,0.14661538093258208,6.220258713591553
2.710768465555832,-3.181489413664637,5.244834206515923,0.20894559400443136,6.137900211338852
2.713255409102213,-3.570069985117049,4.751926790689431,0.25691048591807153,5.94913530863774
2.715742352648595,-3.79105531665239,4.1967696329415505,0.2952984592053731,5.6632302571860675
2.718229296194976,-3.830080192162142,3.584151133993546,0.30495589980101734,5.254393564487101
2.720716239741358,-3.7015098154999118,2.938013307865286,0.3002480168862913,4.7353189948597825
2.7232031832877395,-3.4484398104812497,2.291874975234579,0.30990522960781774,4.152164409071097
2.7256901268341207,-3.070870171079263,1.6648897468361605,0.30040871395257085,3.506044334027052
2.7281770703805024,-2.5783776979473334,1.0474808134996292,0.27175846915411483,2.796265415420901
2.7306640139268836,-2.018846418341726,0.458801785994404,0.24789651105199972,2.0851121360431972
2.7331509574732653,-1.421006746276957,-0.0676285149323066,0.21445762892765252,1.4386889391393276
2.7356379010196465,-0.7896470792065087,-0.536598495077794,0.17144182202787128,0.9699859550320096
2.7381248445660282,-0.1582862345451188,-0.9385313502615285,0.13321429956477182,0.9610627851908182
2.74061178811241,0.43955697025210794,-1.259061872964986,0.08062144751272626,1.336019067173204
2.743098731658791,0.9990941376127833,-1.5173436788948382,0.03760528173326527,1.8171227511944785
2.745585675205173,1.5011716599634004,-1.7229535770995736,0.004165801490783494,2.285192056571952
2.748072618751554,1.9170591230502234,-1.856737956688551,-0.029273800586553378,2.668978920201291
2.7505595622979357,2.261121742462602,-1.9234852233553785,-0.06271352522553997,2.9692423149601344
2.7530465058443174,2.5094175071880382,-1.9471373960576681,-0.08657656650798273,3.177422818319333
2.7555334493906987,2.666734826095853,-1.9181176704935146,-0.11043973179249811,3.2867684684094107
2.7580203929370803,2.7330737046959364,-1.8460028556250183,-0.14387982843334868,3.3012300470137044
2.7605073364834616,2.7084341484585193,-1.7307929537564093,-0.18210845381945262,3.2193824367821806
2.7629942800298433,0.45239987863513464,1.1999975552857398,-0.19639518873377781,1.2973938696627996
2.7654812235762245,-1.2098711403996283,1.396609220991048,-0.08618356415022177,1.8497927179169977
2.767968167122606,-2.651874362276862,1.5261826905194624,0.01923952958672892,3.059745315813272
2.770455110668988,-3.859244571723263,1.5982947682767819,0.12945089842602187,4.179123396811789
2.772942054215369,-4.81761655350438,1.6033686454042222,0.22529692839912308,5.0824186147552695
2.775428997761751,-5.507836689104662,1.5557695296617355,0.3067776188231228,5.731561421696717
2.777915941308132,-5.953846989930534,1.4746510321467508,0.3882581789804398,6.14602587528409
2.7804028848545137,-6.1939546773884775,1.3456479407316544,0.4457965915953732,6.354099269527979
2.7828898284008954,-6.1994293264396365,1.1735486565871844,0.4746044526778661,6.327352511864583
2.7853767719472766,-6.0229433685296225,0.9727183875419669,0.49383537484378337,6.120939573253791
2.7878637154936583,-5.683650411900643,0.7479455348008952,0.4939125507915154,5.75389034789127
2.7903506590400395,-5.195915661513649,0.5231721128673463,0.47962438318474376,5.2441670616209635
2.792837602586421,-4.6028347422903195,0.29360971633986965,0.45575927469152333,4.63465326069074
2.7953245461328025,-3.9331380692302336,0.054469939834069336,0.4079520147030369,3.954613368241442
2.797811489679184,-3.196402444090503,-0.1703052020955207,0.3457794092163997,3.219558330934009
2.800298433225566,-2.4405118952294833,-0.3855041147992071,0.27402986091277626,2.4859211769393657
2.802785376771947,-1.6894084344426594,-0.5911268002899588,0.19270336915739072,1.8001850851708698
2.8052723203183287,-0.9478804602829101,-0.7584428406418724,0.1209535466010827,1.2199765038485102
2.80775926386471,-0.2398699846229615,-0.9018174477948595,0.06835719925843975,0.9356735677364794
2.8102462074110917,0.4154693839461068,-1.0164622203905846,0.010972309906227551,1.0981487358562105
2.8127331509574733,1.018137650076524,-1.1167423703350887,-0.06077792871352905,1.512419172327462
2.8152200945038546,1.529827591818498,-1.1643506729938737,-0.11816309729185193,1.9261483504528085
2.8177070380502363,1.955327617067663,-1.1880175502000228,-0.15160638979676122,2.2929623387831684
2.8201939815966175,2.309002940321485,-1.2021082138087076,-0.18983822675437168,2.610095264249347
2.822680925142999,2.56212314615622,-1.1826806490957233,-0.2280702054442454,2.831117191574081
2.825167868689381,2.724265045672653,-1.1249464546011942,-0.26630232646194507,2.95939883994582
2.827654812235762,2.805005449933119,-1.0480592454500115,-0.29016938043770857,3.0084351456315876
2.8301417557821438,2.813921169961926,-0.9615958301095189,-0.30924817459900567,2.9897246235626325
2.832628699328525,2.7558006134249053,-0.8703446137099033,-0.30438509624710797,2.905957166646523
2.8351156428749067,2.6306437846295214,-0.7551519847630461,-0.2899453559211018,2.752200855882745
2.837602586421288,2.457604301126481,-0.6351715583264617,-0.28987097079637714,2.5548555710906005
2.8400895299676696,2.236682167147279,-0.5151917394799548,-0.28500832816116883,2.3128768649420697
2.8425764735140513,1.9822425968463855,-0.3856357233256058,-0.2657806219400083,2.036821043404644
2.8450634170604325,1.7086508043406035,-0.2704455281910083,-0.24655306265464283,1.7474028635654368
2.847550360606814,1.4254836003883198,-0.15525594582439872,-0.20338363425998196,1.4482654474835315
2.8500373041531954,1.1566830056712925,-0.0544321878792533,-0.16021435390972094,1.1689940452734595
2.852524247699577,0.892672217591332,0.051179357249854895,-0.1314104321126095,0.9037431694546617
2.855011191245959,0.6142976268719187,0.13763667130223878,-0.0882414494902708,0.6356822957073569
2.85749813479234,0.35986646404285516,0.2001513493150795,-0.04986101986314395,0.4147897731106052
2.8599850783387217,0.1485323463148639,0.2530885996235215,-0.040211160367626064,0.2961969523464156
2.862472021885103,-0.0340699323808461,0.2916600172980437,-0.020984644971761668,0.29439205374350963
2.8649589654314846,-0.197517174830254,0.3110771974257469,0.017395332438860933,0.36889653658152
2.867445908977866,-0.32265576393486706,0.3209169450712661,0.04619835142046114,0.4574152547830419
2.8699328525242476,-0.4046972925944693,0.31639085535487244,0.06063600813512693,0.5172618268034521
2.8724197960706292,-0.4532185637071433,0.2927105234133851,0.06549670538987407,0.5434853589772513
2.8749067396170105,-0.4730079768878084,0.26424115768143697,0.06556884599602242,0.5457647929076899
2.877393683163392,-0.45927712514803376,0.23098275664920864,0.0656408327692013,0.5182636688792148
2.8798806267097734,-0.43117961813806827,0.16899330222184084,0.08486627849027073,0.4708257475099689
2.882367570256155,-0.3839270489436942,0.11658001948501351,0.09451476274126946,0.4122182919640738
2.8848545138025368,-0.2935773974064674,0.05937769701741846,0.08022107506946696,0.3100787320284129
2.887341457348918,-0.20322628988937064,-0.007402069945136702,0.07071563490924859,0.21530540300301185
2.8898284008952997,-0.10329691626880522,-0.07418247618954288,0.06121003845708728,0.14113809369612001
2.892315344441681,0.001422323581015239,-0.14096352312690952,0.027762268632502085,0.14367839578845204
2.8948022879880626,0.12529664303020593,-0.19338000219096463,0.008679551523366413,0.2305870955120063
2.897289231534444,-1.1059457074784471,3.28804452566963,-0.024768533262543357,3.4691448789169934
2.8997761750808255,-2.480838684570354,3.259568774913174,0.15247296986342462,4.0990971181211
2.902263118627207,-3.6306752292817768,3.1449011182174997,0.3105607010643876,4.813382761939005
2.9047500621735884,-4.526724918429011,2.953618360893811,0.4303410466016704,5.422203733291972
2.90723700571997,-5.188141362067223,2.7048741149102993,0.5261792159829426,5.874522902980032
2.9097239492663514,-5.610136153686655,2.389091572329581,0.5645563855170366,6.123733347910112
2.912210892812733,-5.797497693454939,2.044577958433417,0.5742029746811408,6.174219593589117
2.9146978363591147,-5.759802784895919,1.6856984819185015,0.564695789675401,6.02791745362478
2.917184779905496,-5.511416634890587,1.3124531415368375,0.5360348300636435,5.690832971641318
2.9196717234518776,-5.0810696603168255,0.9296303393765788,0.5073737086951606,5.190270661647293
2.922158666998259,-4.497492278088937,0.561172090823558,0.4547704085407034,4.555125358480618
2.9246456105446406,-3.8133569217590555,0.21186679799849362,0.3925901391377682,3.839362651556902
2.927132554091022,-3.052605604993082,-0.10870873364170963,0.3256213033874289,3.0718476201831515
2.9296194976374035,-2.2439687448140466,-0.39097769862367526,0.25865230419505814,2.2924136413371836
2.932106441183785,-1.4113883549602058,-0.639728501419135,0.16295272122803972,1.5581473721701908
2.9345933847301664,-0.583594852526222,-0.840595933202452,0.0624645706814384,1.0252249984281598
2.937080328276548,0.19631613539638637,-1.0079452050538313,-0.023658534565774048,1.0271578689109977
2.9395672718229293,0.913979401602112,-1.1226227047952728,-0.09541659491163834,1.450773728208276
2.942054215369311,1.555029738849639,-1.1989936434749748,-0.181540030671842,1.9719685668226319
2.9445411589156927,2.105101939862057,-1.2466348288048577,-0.25329842231410993,2.4596163652787664
2.947028102462074,2.5498307973261216,-1.2607578585199397,-0.2867497536222139,2.858911137831141
2.9495150460084556,2.879639507214154,-1.2365743303393508,-0.31541284821953397,3.1497499949654335
2.952001989554837,3.0945280721031105,-1.198026261888156,-0.33928770648303797,3.335638928448105
2.9544889331012185,3.208861704495164,-1.1499020574943213,-0.33922071550419375,3.425512935931269
2.9569758766476,3.222640406896306,-1.0730481048683786,-0.3247886822921746,3.412086035795038
2.9594628201939814,3.1358641817770243,-0.9674644049862633,-0.295991607211322,3.295033015465407
2.961949763740363,2.9724750481741213,-0.8570929754097423,-0.27198310390305025,3.1055097953996547
2.9644367072867444,2.73726141180767,-0.7467222204034314,-0.24318636608268562,2.847689189441862
2.966923650833126,2.4350116783626112,-0.6459289475365746,-0.2000245874613924,2.5271556965523727
2.9694105943795073,2.094456270090287,-0.5355595444408059,-0.1472861717070817,2.1668558579975477
2.971897537925889,1.7347488025660391,-0.42519081865384134,-0.11370153908501912,1.7897118986759106
2.9743844814722706,1.3702544880101184,-0.31482277105718515,-0.07054027001259655,1.407723932019857
2.976871425018652,0.996184925326531,-0.21882061247760642,-0.032167574785836095,1.0204418742684482
2.9793583685650336,0.6316937299855487,-0.13239594044490133,0.001416546264373153,0.6454205296956894
2.981845312111415,0.3007229207431219,-0.055548755793636495,0.020635286170650247,0.30650571669357113
2.9843322556577965,-0.011092710242205817,0.006932537336914013,0.030277047930724166,0.0329819333248464
2.986819199204178,-0.275022740963897,0.050259534823045904,0.03991863786678884,0.2824128653887134
2.9893061427505594,-0.48149036273123924,0.0792206391971968,0.04477165234425051,0.49001365280113085
2.991793086296941,-0.640072380169653,0.10339265632766015,0.04483609105297681,0.6499176627077042
2.9942800298433223,-0.7555571946187003,0.11798718213726112,0.06405397028854232,0.7673920514303607
2.996766973389704,-0.8327332074525221,0.11342740924397621,0.07848327314754044,0.8440793778584554
2.9992539169360852,-0.8716004167594252,0.10886695020308945,0.07375878937133606,0.8814644963645732
3.001740860482467,-0.8577936107012066,0.09472899766342646,0.07861093858823409,0.866581295219239
3.0042278040288486,-0.7961011907552584,0.06622514760949283,0.06430930058692219,0.8014353138212832
3.00671474757523,-0.6960999617535892,0.04250901264271567,0.050007488363329244,0.6991873295488238
3.0092016911216115,-0.5721551318827528,0.00921538213765638,0.04528230827688695,0.5740182102081747
3.0116886346679927,-0.4242666994025366,-0.019290534593951136,0.021403340128630433,0.4252440004462198
3.0141755782143744,-0.26679987256777493,-0.05737394814697927,0.002312600247144303,0.2729089409456134
3.016662521760756,-0.10454305302672373,-0.09545805249949302,-0.011989911636453243,0.14207479616101618
3.0191494653071373,0.06729216417900419,-0.12396604161434643,-0.02629259910725601,0.14348210899355643
3.021636408853519,0.22955216737231532,-0.15247472272045703,-0.04538386574625619,0.2792891581928699
3.0241233523999003,0.3774485548031985,-0.18577249971127152,-0.06926371181004498,0.4263523131703433
3.026610295946282,0.5253465379691029,-0.20470575986354556,-0.08356692759018536,0.5699797053091425
3.029097239492663,0.6493041017712526,-0.22363971368112612,-0.08829351333509727,0.6923917118289359
3.031584183039045,0.754109650999086,-0.23778595837153915,-0.10738548589069907,0.7979694043687491
3.0340711265854265,0.834974783767822,-0.24714449444758602,-0.12168923221600814,0.8792448805089487
3.036558070131808,0.9014763081200879,-0.26129212904768195,-0.12162794590662251,0.9464282688241928
3.0390450136781895,0.9440374187838002,-0.27065205601401265,-0.11677843383533038,0.9889875560883591
3.0415319572245707,0.9530813104534727,-0.2752242758144363,-0.11671750287086802,0.9988670391046552
3.0440189007709524,0.9573384043527995,-0.279797192222206,-0.11186834659667078,1.0036422750135963
