"Time (s)","Acceleration x (m/s^2)","Acceleration y (m/s^2)","Acceleration z (m/s^2)","Absolute acceleration (m/s^2)"
4.966894000E-3,-5.269500017E-1,2.554050207E0,9.487050056E0,9.838951547E0
7.452668000E-3,-5.200500488E-1,2.559000015E0,9.568050385E0,9.917989781E0
9.939206000E-3,-5.320500135E-1,2.563050032E0,9.538950920E0,9.891606914E0
1.242599000E-2,-5.370000005E-1,2.568000078E0,9.496050835E0,9.851800590E0
1.491268200E-2,-5.350500345E-1,2.572950125E0,9.460050583E0,9.818294552E0
1.739922000E-2,-5.350500345E-1,2.568000078E0,9.432000160E0,9.789970887E0
1.988591300E-2,-5.350500345E-1,2.559000015E0,9.445950508E0,9.801058138E0
2.237268000E-2,-5.350500345E-1,2.556000233E0,9.487050056E0,9.839895045E0
2.485945400E-2,-5.269500017E-1,2.547000170E0,9.508050919E0,9.857378883E0
2.734599500E-2,-5.230500102E-1,2.547000170E0,9.513000488E0,9.861945521E0
2.983268500E-2,-5.230500102E-1,2.542050123E0,9.514950752E0,9.862549770E0
3.231945400E-2,-5.200500488E-1,2.535000086E0,9.499050140E0,9.845233926E0
3.480599500E-2,-5.110500455E-1,2.542050123E0,9.469950676E0,9.818510925E0
3.729270400E-2,-5.059500337E-1,2.544000149E0,9.457950592E0,9.807178575E0
3.977947300E-2,-5.029500127E-1,2.548950195E0,9.451050758E0,9.801656301E0
4.226624200E-2,-5.080500245E-1,2.551950216E0,9.454950333E0,9.806459633E0
4.475278300E-2,-5.080500245E-1,2.554050207E0,9.484050751E0,9.835065121E0
4.723947300E-2,-5.110500455E-1,2.554050207E0,9.501000404E0,9.851566033E0
4.972600400E-2,-5.200500488E-1,2.548950195E0,9.505950928E0,9.855490967E0
5.221277100E-2,-5.149500370E-1,2.536950111E0,9.526950836E0,9.872389865E0
5.469954000E-2,-5.149500370E-1,2.524950027E0,9.522000313E0,9.864534259E0
5.718623400E-2,-5.110500455E-1,2.527950048E0,9.511050224E0,9.854530936E0
5.967277300E-2,-5.110500455E-1,2.532000065E0,9.511050224E0,9.855570650E0
6.215946300E-2,-5.269500017E-1,2.532000065E0,9.511050224E0,9.856407916E0
6.464623300E-2,-5.299500227E-1,2.536950111E0,9.499050140E0,9.846264087E0
6.713277300E-2,-5.250000358E-1,2.544000149E0,9.484050751E0,9.833350418E0
6.961954000E-2,-5.269500017E-1,2.544000149E0,9.481950760E0,9.831429361E0
7.210623500E-2,-5.320500135E-1,2.535000086E0,9.481950760E0,9.829379068E0
7.459278200E-2,-5.299500227E-1,2.527950048E0,9.487050056E0,9.832369869E0
7.707954900E-2,-5.320500135E-1,2.530050039E0,9.487050056E0,9.833023400E0
7.956631800E-2,-5.320500135E-1,2.544000149E0,9.481950760E0,9.831704033E0
8.205301300E-2,-5.230500102E-1,2.548950195E0,9.481950760E0,9.832503172E0
8.453955100E-2,-5.269500017E-1,2.539950132E0,9.484050751E0,9.832407723E0
8.702624700E-2,-5.320500135E-1,2.527950048E0,9.489000320E0,9.834365040E0
8.951301600E-2,-5.200500488E-1,2.524950027E0,9.493950844E0,9.837729785E0
9.199955600E-2,-5.130000114E-1,2.536950111E0,9.499050140E0,9.845366344E0
9.448632300E-2,-5.149500370E-1,2.539950132E0,9.499050140E0,9.846241607E0
9.697301800E-2,-5.200500488E-1,2.536950111E0,9.487050056E0,9.834159176E0
9.945955100E-2,-5.179499984E-1,2.547000170E0,9.478950500E0,9.828834349E0
1.019463190E-1,-5.179499984E-1,2.544000149E0,9.490950584E0,9.839631698E0
1.044330130E-1,-5.200500488E-1,2.544000149E0,9.487050056E0,9.835980255E0
1.069197800E-1,-5.130000114E-1,2.554050207E0,9.472050667E0,9.823751081E0
1.094063060E-1,-5.130000114E-1,2.548950195E0,9.478950500E0,9.829080257E0
1.118930730E-1,-5.250000358E-1,2.544000149E0,9.487050056E0,9.836243214E0
1.143797670E-1,-5.200500488E-1,2.548950195E0,9.484050751E0,9.834369212E0
1.168663060E-1,-5.179499984E-1,2.544000149E0,9.493950844E0,9.842525671E0
1.193530730E-1,-5.130000114E-1,2.539950132E0,9.499050140E0,9.846139815E0
1.218397530E-1,-5.059500337E-1,2.548950195E0,9.490950584E0,9.840288387E0
1.243262920E-1,-5.110500455E-1,2.544000149E0,9.487050056E0,9.835508511E0
1.268130590E-1,-5.130000114E-1,2.539950132E0,9.493950844E0,9.841220367E0
1.292997530E-1,-5.029500127E-1,2.539950132E0,9.496050835E0,9.842727612E0
1.317865340E-1,-4.990500212E-1,2.539950132E0,9.489000320E0,9.835726952E0
1.342730750E-1,-5.110500455E-1,2.535000086E0,9.477000237E0,9.823488742E0
1.367598420E-1,-5.059500337E-1,2.536950111E0,9.477000237E0,9.823728151E0
1.392465360E-1,-5.110500455E-1,2.548950195E0,9.478950500E0,9.828978677E0
1.417333040E-1,-5.110500455E-1,2.551950216E0,9.481950760E0,9.832650318E0
1.442198390E-1,-5.110500455E-1,2.542050123E0,9.499050140E0,9.846580348E0
1.467065290E-1,-5.230500102E-1,2.535000086E0,9.520050049E0,9.865655563E0
1.491930700E-1,-5.179499984E-1,2.539950132E0,9.529950142E0,9.876212259E0
1.516798370E-1,-5.110500455E-1,2.548950195E0,9.525000572E0,9.873396333E0
1.541665310E-1,-5.110500455E-1,2.544000149E0,9.508050919E0,9.855766899E0
1.566532940E-1,-5.130000114E-1,2.542050123E0,9.511050224E0,9.858258680E0
1.591398340E-1,-5.299500227E-1,2.551950216E0,9.513000488E0,9.863593423E0
1.616266010E-1,-5.299500227E-1,2.551950216E0,9.499050140E0,9.850139618E0
1.641132960E-1,-5.250000358E-1,2.548950195E0,9.484050751E0,9.834632214E0
1.666000630E-1,-5.269500017E-1,2.539950132E0,9.478950500E0,9.827488264E0
1.690866130E-1,-5.320500135E-1,2.539950132E0,9.489000320E0,9.837456530E0
1.715733040E-1,-5.419500470E-1,2.554050207E0,9.487050056E0,9.839766313E0
1.740600730E-1,-5.370000005E-1,2.554050207E0,9.466950417E0,9.820116682E0
1.765466130E-1,-5.299500227E-1,2.551950216E0,9.454950333E0,9.807618606E0
1.790333040E-1,-5.299500227E-1,2.544000149E0,9.453000069E0,9.803672479E0
1.815200730E-1,-5.299500227E-1,2.532000065E0,9.463050842E0,9.810260068E0
1.840066130E-1,-5.269500017E-1,2.527950048E0,9.469950676E0,9.815710548E0
1.864933810E-1,-5.299500227E-1,2.532000065E0,9.469950676E0,9.816915868E0
1.889800750E-1,-5.389500260E-1,2.524950027E0,9.478950500E0,9.824273121E0
1.914668420E-1,-5.370000005E-1,2.520000219E0,9.487050056E0,9.830711514E0
1.939533340E-1,-5.269500017E-1,2.524950027E0,9.489000320E0,9.833319685E0
1.964401780E-1,-5.250000358E-1,2.524950027E0,9.501000404E0,9.844795903E0
1.989268720E-1,-5.269500017E-1,2.527950048E0,9.505950928E0,9.850447238E0
2.014134110E-1,-5.299500227E-1,2.542050123E0,9.487050056E0,9.836004505E0
2.039001010E-1,-5.200500488E-1,2.554050207E0,9.478950500E0,9.830774492E0
2.063868650E-1,-5.059500337E-1,2.544000149E0,9.478950500E0,9.827432258E0
2.088734060E-1,-5.130000114E-1,2.547000170E0,9.477000237E0,9.826693867E0
2.113601730E-1,-5.179499984E-1,2.556000233E0,9.478950500E0,9.831170428E0
2.138468670E-1,-5.110500455E-1,2.548950195E0,9.478950500E0,9.828978677E0
2.163336340E-1,-5.200500488E-1,2.547000170E0,9.493950844E0,9.843412241E0
2.188201840E-1,-5.250000358E-1,2.559000015E0,9.496050835E0,9.848811480E0
2.213069510E-1,-5.179499984E-1,2.556000233E0,9.487050056E0,9.838980037E0
2.237936450E-1,-5.149500370E-1,2.551950216E0,9.481950760E0,9.832853790E0
2.262801840E-1,-5.149500370E-1,2.544000149E0,9.496050835E0,9.844393925E0
2.287669510E-1,-5.110500455E-1,2.548950195E0,9.508050919E0,9.857045780E0
2.312536460E-1,-5.130000114E-1,2.554050207E0,9.520050049E0,9.870040243E0
2.337401840E-1,-5.200500488E-1,2.547000170E0,9.534000397E0,9.882045612E0
2.362269510E-1,-5.230500102E-1,2.547000170E0,9.534000397E0,9.882203942E0
2.387136460E-1,-5.250000358E-1,2.548950195E0,9.534000397E0,9.882810112E0
2.412004130E-1,-5.320500135E-1,2.554050207E0,9.534000397E0,9.884503692E0
2.436869440E-1,-5.299500227E-1,2.559000015E0,9.525000572E0,9.876991648E0
2.461737110E-1,-5.200500488E-1,2.556000233E0,9.511050224E0,9.862234311E0
2.486601750E-1,-5.299500227E-1,2.560950041E0,9.501000404E0,9.854355424E0
2.511469420E-1,-5.350500345E-1,2.560950041E0,9.496050835E0,9.849859141E0
2.536337010E-1,-5.320500135E-1,2.563050032E0,9.496050835E0,9.850242847E0
2.561203960E-1,-5.269500017E-1,2.578050137E0,9.489000320E0,9.847088194E0
2.586069340E-1,-5.179499984E-1,2.571000099E0,9.490950584E0,9.846646978E0
2.610937020E-1,-5.250000358E-1,2.559000015E0,9.493950844E0,9.846786722E0
2.635803960E-1,-5.269500017E-1,2.559000015E0,9.489000320E0,9.842117885E0
2.660669210E-1,-5.250000358E-1,2.559000015E0,9.490950584E0,9.843894001E0
2.685536890E-1,-5.179499984E-1,2.547000170E0,9.490950584E0,9.840407769E0
2.710403830E-1,-5.230500102E-1,2.542050123E0,9.493950844E0,9.842291540E0
2.735271500E-1,-5.320500135E-1,2.542050123E0,9.489000320E0,9.837998939E0
2.760139190E-1,-5.230500102E-1,2.536950111E0,9.496050835E0,9.843001505E0
2.785003780E-1,-5.149500370E-1,2.532000065E0,9.501000404E0,9.846075693E0
2.809871450E-1,-5.200500488E-1,2.530050039E0,9.505950928E0,9.850619691E0
2.834736860E-1,-5.110500455E-1,2.532000065E0,9.517950058E0,9.862229453E0
2.859604530E-1,-5.110500455E-1,2.532000065E0,9.522000313E0,9.866138375E0
2.884471470E-1,-5.230500102E-1,2.527950048E0,9.514950752E0,9.858924920E0
2.909339090E-1,-5.250000358E-1,2.530050039E0,9.511050224E0,9.855803093E0
2.934204500E-1,-5.269500017E-1,2.523000002E0,9.511050224E0,9.854099740E0
2.959072170E-1,-5.200500488E-1,2.524950027E0,9.508050919E0,9.851337826E0
2.983939110E-1,-5.230500102E-1,2.536950111E0,9.499050140E0,9.845895122E0
3.008806790E-1,-5.370000005E-1,2.536950111E0,9.496050835E0,9.843752654E0
3.033672190E-1,-5.370000005E-1,2.530050039E0,9.511050224E0,9.856449593E0
3.058539090E-1,-5.299500227E-1,2.532000065E0,9.520050049E0,9.865253382E0
3.083404500E-1,-5.320500135E-1,2.547000170E0,9.517950058E0,9.867201244E0
3.108272170E-1,-5.389500260E-1,2.554050207E0,9.520050049E0,9.871423024E0
3.133139860E-1,-5.370000005E-1,2.547000170E0,9.502950668E0,9.853002094E0
3.158006810E-1,-5.419500470E-1,2.536950111E0,9.490950584E0,9.839104061E0
3.182872190E-1,-5.470499992E-1,2.547000170E0,9.490950584E0,9.841982349E0
3.207739860E-1,-5.419500470E-1,2.560950041E0,9.475050926E0,9.829993134E0
3.232606810E-1,-5.370000005E-1,2.571000099E0,9.466950417E0,9.824538702E0
3.257472040E-1,-5.389500260E-1,2.566050053E0,9.465000153E0,9.821471778E0
3.282339710E-1,-5.419500470E-1,2.563050032E0,9.472050667E0,9.827648709E0
3.307206660E-1,-5.440500379E-1,2.566050053E0,9.472050667E0,9.828547561E0
3.332074330E-1,-5.419500470E-1,2.560950041E0,9.478950500E0,9.833751957E0
3.356939730E-1,-5.389500260E-1,2.566050053E0,9.501000404E0,9.856170082E0
3.381806640E-1,-5.370000005E-1,2.563050032E0,9.508050919E0,9.862080244E0
3.406674330E-1,-5.320500135E-1,2.544000149E0,9.505950928E0,9.854852460E0
3.431542020E-1,-5.299500227E-1,2.536950111E0,9.511050224E0,9.857841511E0
3.456407430E-1,-5.350500345E-1,2.539950132E0,9.511050224E0,9.858889470E0
3.481274330E-1,-5.299500227E-1,2.532000065E0,9.499050140E0,9.844989839E0
3.506141970E-1,-5.299500227E-1,2.520000219E0,9.496050835E0,9.839015682E0
3.531007380E-1,-5.350500345E-1,2.518050194E0,9.505950928E0,9.848348001E0
3.555874280E-1,-5.350500345E-1,2.520000219E0,9.505950928E0,9.848846769E0
3.580741970E-1,-5.269500017E-1,2.511000156E0,9.490950584E0,9.831629625E0
3.605609660E-1,-5.149500370E-1,2.512950182E0,9.490950584E0,9.831492011E0
3.630474150E-1,-5.149500370E-1,2.512950182E0,9.487050056E0,9.827726641E0
3.655341820E-1,-5.230500102E-1,2.511000156E0,9.472050667E0,9.813177209E0
3.680209510E-1,-5.110500455E-1,2.515950203E0,9.460050583E0,9.802231103E0
3.705074920E-1,-5.010000467E-1,2.520000219E0,9.451050758E0,9.794067724E0
3.729941970E-1,-5.010000467E-1,2.511000156E0,9.445950508E0,9.786833187E0
3.754809660E-1,-4.939500093E-1,2.511000156E0,9.448050499E0,9.788501756E0
3.779675070E-1,-4.890000224E-1,2.520000219E0,9.448050499E0,9.790565886E0
3.804541970E-1,-4.890000224E-1,2.511000156E0,9.451050758E0,9.791149230E0
3.829409660E-1,-4.870500267E-1,2.499000072E0,9.445950508E0,9.783056787E0
3.854275020E-1,-4.890000224E-1,2.500950098E0,9.440999985E0,9.778872794E0
3.879142690E-1,-4.840500355E-1,2.511000156E0,9.448050499E0,9.788007175E0
3.904009640E-1,-4.870500267E-1,2.520000219E0,9.460050583E0,9.802049575E0
3.928875020E-1,-4.890000224E-1,2.518050194E0,9.469950676E0,9.811200926E0
3.953742690E-1,-4.819500148E-1,2.511000156E0,9.478950500E0,9.817733964E0
3.978610380E-1,-4.789500237E-1,2.515950203E0,9.487050056E0,9.826673767E0
4.003477330E-1,-4.870500267E-1,2.530050039E0,9.493950844E0,9.837350942E0
4.028342710E-1,-4.870500267E-1,2.535000086E0,9.501000404E0,9.845427967E0
4.053210380E-1,-4.990500212E-1,2.503950119E0,9.517950058E0,9.854450285E0
4.078077180E-1,-5.629500151E-1,2.419950008E0,9.526950836E0,9.845601200E0
4.102942560E-1,-5.610000491E-1,2.407950163E0,9.407999992E0,9.727456445E0
4.127810230E-1,-5.010000467E-1,2.464950085E0,9.276000023E0,9.610991436E0
4.152677180E-1,-5.320500135E-1,2.455950022E0,9.325950623E0,9.658577677E0
4.177542560E-1,-5.560500026E-1,2.452950001E0,9.417000771E0,9.747105151E0
4.202410340E-1,-5.230500102E-1,2.512950182E0,9.484050751E0,9.825259211E0
4.227277280E-1,-5.299500227E-1,2.542050123E0,9.570000648E0,9.916036419E0
4.252144950E-1,-5.490000248E-1,2.536950111E0,9.654000282E0,9.996861425E0
4.277012640E-1,-5.320500135E-1,2.548950195E0,9.676050186E0,1.002028800E1
4.301878050E-1,-5.110500455E-1,2.554050207E0,9.621000290E0,9.967346246E0
4.326745040E-1,-5.110500455E-1,2.566050053E0,9.568050385E0,9.919343385E0
4.351612730E-1,-5.320500135E-1,2.596950054E0,9.514950752E0,9.877323252E0
4.376478140E-1,-5.419500470E-1,2.602050066E0,9.477000237E0,9.842657562E0
4.401345810E-1,-5.370000005E-1,2.592000008E0,9.477000237E0,9.839734068E0
4.426212750E-1,-5.350500345E-1,2.595000029E0,9.508050919E0,9.870326031E0
4.451078100E-1,-5.370000005E-1,2.592000008E0,9.561000824E0,9.920663778E0
4.475945000E-1,-5.370000005E-1,2.575050116E0,9.586950302E0,9.941270955E0
4.500812690E-1,-5.370000005E-1,2.566050053E0,9.577950478E0,9.930262697E0
4.525678100E-1,-5.440500379E-1,2.575050116E0,9.553950310E0,9.909835521E0
4.550545770E-1,-5.490000248E-1,2.578050137E0,9.514950752E0,9.873298909E0
4.575413450E-1,-5.470499992E-1,2.584950209E0,9.460050583E0,9.822107122E0
4.600280400E-1,-5.440500379E-1,2.590050220E0,9.403050423E0,9.768403546E0
4.625145780E-1,-5.419500470E-1,2.583000183E0,9.400050163E0,9.763531271E0
4.650013450E-1,-5.370000005E-1,2.580000162E0,9.432000160E0,9.793232197E0
4.674880410E-1,-5.299500227E-1,2.575050116E0,9.451050758E0,9.809897582E0
4.699748080E-1,-5.200500488E-1,2.575050116E0,9.472050667E0,9.829602178E0
4.724613480E-1,-5.200500488E-1,2.571000099E0,9.493950844E0,9.849649546E0
4.749480390E-1,-5.149500370E-1,2.572950125E0,9.513000488E0,9.868253350E0
4.774345790E-1,-5.110500455E-1,2.568000078E0,9.529950142E0,9.883104080E0
4.799213260E-1,-5.029500127E-1,2.568000078E0,9.525000572E0,9.877915722E0
4.824080210E-1,-5.130000114E-1,2.566050053E0,9.522000313E0,9.875032751E0
4.848947880E-1,-5.130000114E-1,2.559000015E0,9.526950836E0,9.877977643E0
4.873813280E-1,-5.059500337E-1,2.551950216E0,9.520050049E0,9.869133107E0
4.898680960E-1,-5.080500245E-1,2.544000149E0,9.517950058E0,9.865162183E0
4.923548050E-1,-5.130000114E-1,2.544000149E0,9.517950058E0,9.865418343E0
4.948415720E-1,-5.149500370E-1,2.530050039E0,9.525000572E0,9.868736628E0
4.973281130E-1,-5.080500245E-1,2.523000002E0,9.514950752E0,9.856872306E0
4.998148800E-1,-5.179499984E-1,2.511000156E0,9.505950928E0,9.845633399E0
5.023015740E-1,-5.230500102E-1,2.500950098E0,9.508050919E0,9.845372770E0
5.047881080E-1,-5.179499984E-1,2.494050026E0,9.496050835E0,9.831761754E0
5.072748750E-1,-5.230500102E-1,2.484000206E0,9.478950500E0,9.812967998E0
5.097615690E-1,-5.269500017E-1,2.475000143E0,9.478950500E0,9.810902334E0
5.122481080E-1,-5.350500345E-1,2.473050117E0,9.475050926E0,9.807081394E0
5.147348750E-1,-5.320500135E-1,2.476950169E0,9.460050583E0,9.793411887E0
5.172215880E-1,-5.350500345E-1,2.487000227E0,9.448050499E0,9.784534067E0
5.197083550E-1,-5.440500379E-1,2.487000227E0,9.442950249E0,9.780105826E0
5.221951250E-1,-5.419500470E-1,2.487000227E0,9.454950333E0,9.791576266E0
5.246816650E-1,-5.350500345E-1,2.488950014E0,9.463050842E0,9.799514373E0
5.271683550E-1,-5.370000005E-1,2.500950098E0,9.465000153E0,9.804557526E0
5.296548960E-1,-5.370000005E-1,2.518050194E0,9.496050835E0,9.838898680E0
5.321416630E-1,-5.320500135E-1,2.523000002E0,9.529950142E0,9.872616468E0
5.346283570E-1,-5.299500227E-1,2.523000002E0,9.532050133E0,9.874530661E0
5.371151250E-1,-5.269500017E-1,2.523000002E0,9.522000313E0,9.864669040E0
5.396016650E-1,-5.130000114E-1,2.532000065E0,9.522000313E0,9.866239572E0
5.420884320E-1,-5.179499984E-1,2.544000149E0,9.522000313E0,9.869584536E0
5.445751270E-1,-5.250000358E-1,2.542050123E0,9.514950752E0,9.862653380E0
5.470616650E-1,-5.269500017E-1,2.547000170E0,9.513000488E0,9.862153135E0
5.495484320E-1,-5.350500345E-1,2.559000015E0,9.522000313E0,9.874373376E0
5.520351270E-1,-5.320500135E-1,2.551950216E0,9.532050133E0,9.882080088E0
5.545218990E-1,-5.250000358E-1,2.544000149E0,9.520050049E0,9.868075533E0
5.570084390E-1,-5.269500017E-1,2.547000170E0,9.522000313E0,9.870834622E0
5.594952070E-1,-5.320500135E-1,2.547000170E0,9.526950836E0,9.875883723E0
5.619819010E-1,-5.350500345E-1,2.548950195E0,9.505950928E0,9.856293861E0
5.644684390E-1,-5.299500227E-1,2.551950216E0,9.493950844E0,9.845222169E0
5.669551920E-1,-5.269500017E-1,2.548950195E0,9.496050835E0,9.846309200E0
5.694418860E-1,-5.230500102E-1,2.554050207E0,9.484050751E0,9.835851382E0
5.719286530E-1,-5.179499984E-1,2.542050123E0,9.484050751E0,9.832472206E0
5.744151940E-1,-5.200500488E-1,2.535000086E0,9.490950584E0,9.837419402E0
5.769018840E-1,-5.230500102E-1,2.551950216E0,9.484050751E0,9.835306292E0
5.793886480E-1,-5.250000358E-1,2.548950195E0,9.478950500E0,9.829713868E0
5.818751890E-1,-5.299500227E-1,2.544000149E0,9.478950500E0,9.828697084E0
5.843619560E-1,-5.320500135E-1,2.542050123E0,9.490950584E0,9.839880032E0
5.868486500E-1,-5.269500017E-1,2.536950111E0,9.496050835E0,9.843209519E0
5.893354180E-1,-5.250000358E-1,2.532000065E0,9.496050835E0,9.841830664E0
5.918219490E-1,-5.269500017E-1,2.527950048E0,9.499050140E0,9.843787956E0
5.943086390E-1,-5.250000358E-1,2.524950027E0,9.502950668E0,9.846678074E0
5.967954090E-1,-5.149500370E-1,2.515950203E0,9.511050224E0,9.851662567E0
5.992819490E-1,-5.130000114E-1,2.506050110E0,9.508050919E0,9.846140789E0
6.017687160E-1,-5.179499984E-1,2.512950182E0,9.511050224E0,9.851054116E0
6.042554250E-1,-5.200500488E-1,2.523000002E0,9.517950058E0,9.860393216E0
6.067421920E-1,-5.320500135E-1,2.518050194E0,9.514950752E0,9.856872821E0
6.092287320E-1,-5.299500227E-1,2.515950203E0,9.511050224E0,9.852458009E0
6.117155000E-1,-5.250000358E-1,2.515950203E0,9.502950668E0,9.844374123E0
6.142021940E-1,-5.250000358E-1,2.518050194E0,9.496050835E0,9.838251027E0
6.166887230E-1,-5.149500370E-1,2.532000065E0,9.477000237E0,9.822918678E0
6.191754910E-1,-5.130000114E-1,2.530050039E0,9.469950676E0,9.815512621E0
6.216621850E-1,-5.250000358E-1,2.530050039E0,9.484050751E0,9.829750601E0
6.241487230E-1,-5.250000358E-1,2.539950132E0,9.478950500E0,9.827383899E0
6.266354910E-1,-5.200500488E-1,2.539950132E0,9.472050667E0,9.820465496E0
6.291221650E-1,-5.200500488E-1,2.547000170E0,9.481950760E0,9.831838695E0
6.316089320E-1,-5.250000358E-1,2.542050123E0,9.478950500E0,9.827926865E0
6.340954730E-1,-5.200500488E-1,2.536950111E0,9.469950676E0,9.817664372E0
6.365822400E-1,-5.230500102E-1,2.539950132E0,9.477000237E0,9.825398794E0
6.390689340E-1,-5.250000358E-1,2.544000149E0,9.490950584E0,9.840005325E0
6.415557010E-1,-5.230500102E-1,2.547000170E0,9.511050224E0,9.860064277E0
6.440422420E-1,-5.299500227E-1,2.547000170E0,9.532050133E0,9.880690088E0
6.465289320E-1,-5.299500227E-1,2.548950195E0,9.525000572E0,9.874392641E0
6.490157010E-1,-5.250000358E-1,2.556000233E0,9.517950058E0,9.869150700E0
6.515022420E-1,-5.320500135E-1,2.568000078E0,9.520050049E0,9.874667313E0
6.539890000E-1,-5.320500135E-1,2.572950125E0,9.505950928E0,9.862365467E0
6.564756940E-1,-5.250000358E-1,2.578050137E0,9.489000320E0,9.846984037E0
6.589622330E-1,-5.250000358E-1,2.578050137E0,9.489000320E0,9.846984037E0
6.614490000E-1,-5.269500017E-1,2.568000078E0,9.496050835E0,9.851257897E0
6.639357690E-1,-5.200500488E-1,2.580000162E0,9.484050751E0,9.842462676E0
6.664224640E-1,-5.230500102E-1,2.587050200E0,9.469950676E0,9.830888864E0
6.689090020E-1,-5.230500102E-1,2.571000099E0,9.475050926E0,9.831592591E0
6.713957690E-1,-5.230500102E-1,2.566050053E0,9.487050056E0,9.841865319E0
6.738824640E-1,-5.250000358E-1,2.559000015E0,9.496050835E0,9.848811480E0
6.763690160E-1,-5.250000358E-1,2.548950195E0,9.501000404E0,9.850978673E0
6.788557830E-1,-5.250000358E-1,2.559000015E0,9.511050224E0,9.863274430E0
6.813425530E-1,-5.269500017E-1,2.568000078E0,9.522000313E0,9.876274129E0
6.838292470E-1,-5.269500017E-1,2.554050207E0,9.522000313E0,9.872656113E0
6.863157850E-1,-5.269500017E-1,2.547000170E0,9.514950752E0,9.864034367E0
6.888024620E-1,-5.250000358E-1,2.554050207E0,9.513000488E0,9.863872251E0
6.912892310E-1,-5.200500488E-1,2.556000233E0,9.520050049E0,9.870913948E0
6.937757710E-1,-5.230500102E-1,2.551950216E0,9.517950058E0,9.867999013E0
6.962625390E-1,-5.149500370E-1,2.548950195E0,9.505950928E0,9.855223167E0
6.987493080E-1,-5.179499984E-1,2.536950111E0,9.496050835E0,9.842731812E0
7.012360020E-1,-5.299500227E-1,2.532000065E0,9.487050056E0,9.833411927E0
7.037227690E-1,-5.250000358E-1,2.527950048E0,9.478950500E0,9.824289240E0
7.062093100E-1,-5.299500227E-1,2.523000002E0,9.487050056E0,9.831098352E0
7.086960000E-1,-5.350500345E-1,2.523000002E0,9.499050140E0,9.842954898E0
7.111827690E-1,-5.419500470E-1,2.508000135E0,9.526950836E0,9.866436376E0
7.136692960E-1,-5.370000005E-1,2.499000072E0,9.549000740E0,9.885180094E0
7.161559860E-1,-5.179499984E-1,2.496000051E0,9.538950920E0,9.873696021E0
7.186427550E-1,-5.200500488E-1,2.499000072E0,9.517950058E0,9.854279615E0
7.211292960E-1,-5.230500102E-1,2.515950203E0,9.496050835E0,9.837609882E0
7.236160630E-1,-5.179499984E-1,2.515950203E0,9.465000153E0,9.807369959E0
7.261027570E-1,-5.200500488E-1,2.506050110E0,9.439050674E0,9.779898611E0
7.285895250E-1,-5.149500370E-1,2.512950182E0,9.436050415E0,9.778503955E0
7.310760650E-1,-5.110500455E-1,2.520000219E0,9.454950333E0,9.798349812E0
7.335628320E-1,-5.149500370E-1,2.520000219E0,9.465000153E0,9.808251757E0
7.360495270E-1,-5.080500245E-1,2.518050194E0,9.472050667E0,9.814195608E0
7.385360650E-1,-5.110500455E-1,2.523000002E0,9.475050926E0,9.818517771E0
7.410228320E-1,-5.179499984E-1,2.532000065E0,9.481950760E0,9.827852601E0
7.435095270E-1,-5.200500488E-1,2.523000002E0,9.489000320E0,9.832451787E0
7.459962940E-1,-5.110500455E-1,2.518050194E0,9.478950500E0,9.821010718E0
7.484828340E-1,-5.059500337E-1,2.527950048E0,9.487050056E0,9.831105516E0
7.509695480E-1,-5.179499984E-1,2.527950048E0,9.501000404E0,9.845192346E0
7.534563170E-1,-5.149500370E-1,2.530050039E0,9.513000488E0,9.857155017E0
7.559430860E-1,-5.130000114E-1,2.536950111E0,9.522000313E0,9.867511076E0
7.584296270E-1,-5.149500370E-1,2.530050039E0,9.520050049E0,9.863958621E0
7.609163040E-1,-5.179499984E-1,2.518050194E0,9.517950058E0,9.859017308E0
7.634030730E-1,-5.179499984E-1,2.515950203E0,9.532050133E0,9.872094882E0
7.658896140E-1,-5.149500370E-1,2.515950203E0,9.550950050E0,9.890188362E0
7.683763040E-1,-5.149500370E-1,2.523000002E0,9.537000656E0,9.878516289E0
7.708630730E-1,-5.250000358E-1,2.524950027E0,9.522000313E0,9.865063996E0
7.733496170E-1,-5.299500227E-1,2.530050039E0,9.513000488E0,9.857950016E0
7.758363840E-1,-5.230500102E-1,2.536950111E0,9.493950844E0,9.840975552E0
7.783230780E-1,-5.299500227E-1,2.539950132E0,9.487050056E0,9.835461986E0
7.808098460E-1,-5.320500135E-1,2.535000086E0,9.493950844E0,9.840955506E0
7.832963860E-1,-5.269500017E-1,2.536950111E0,9.496050835E0,9.843209519E0
7.857831530E-1,-5.320500135E-1,2.547000170E0,9.501000404E0,9.850852540E0
7.882698480E-1,-5.250000358E-1,2.548950195E0,9.502950668E0,9.852859663E0
7.907566150E-1,-5.299500227E-1,2.547000170E0,9.487050056E0,9.837284974E0
7.932431550E-1,-5.320500135E-1,2.547000170E0,9.481950760E0,9.832480729E0
7.957299220E-1,-5.269500017E-1,2.542050123E0,9.478950500E0,9.828031223E0
7.982166170E-1,-5.299500227E-1,2.539950132E0,9.469950676E0,9.818969371E0
8.007031550E-1,-5.299500227E-1,2.539950132E0,9.489000320E0,9.837343177E0
8.031898460E-1,-5.269500017E-1,2.542050123E0,9.501000404E0,9.849299661E0
8.056766920E-1,-5.230500102E-1,2.547000170E0,9.499050140E0,9.848489465E0
8.081633630E-1,-5.299500227E-1,2.547000170E0,9.513000488E0,9.862313886E0
8.106499020E-1,-5.320500135E-1,2.535000086E0,9.522000313E0,9.868018677E0
8.131366690E-1,-5.299500227E-1,2.530050039E0,9.517950058E0,9.862726476E0
8.156233630E-1,-5.299500227E-1,2.542050123E0,9.513000488E0,9.861036667E0
8.181099020E-1,-5.350500345E-1,2.542050123E0,9.505950928E0,9.854511678E0
8.205966690E-1,-5.419500470E-1,2.539950132E0,9.501000404E0,9.849571829E0
8.230833630E-1,-5.350500345E-1,2.544000149E0,9.490950584E0,9.840546646E0
8.255701300E-1,-5.299500227E-1,2.542050123E0,9.484050751E0,9.833111639E0
8.280566710E-1,-5.370000005E-1,2.539950132E0,9.487050056E0,9.835844369E0
8.305433610E-1,-5.370000005E-1,2.539950132E0,9.493950844E0,9.842500612E0
8.330301250E-1,-5.389500260E-1,2.535000086E0,9.493950844E0,9.841330966E0
8.355166660E-1,-5.389500260E-1,2.530050039E0,9.499050140E0,9.844977090E0
8.380034330E-1,-5.389500260E-1,2.536950111E0,9.501000404E0,9.848634001E0
8.404901270E-1,-5.370000005E-1,2.544000149E0,9.496050835E0,9.845571960E0
8.429768950E-1,-5.320500135E-1,2.542050123E0,9.502950668E0,9.851455093E0
8.454636740E-1,-5.299500227E-1,2.539950132E0,9.501000404E0,9.848918843E0
8.479502140E-1,-5.299500227E-1,2.539950132E0,9.501000404E0,9.848918843E0
8.504369050E-1,-5.250000358E-1,2.535000086E0,9.505950928E0,9.852154765E0
8.529236740E-1,-5.230500102E-1,2.536950111E0,9.514950752E0,9.861236484E0
8.554102140E-1,-5.200500488E-1,2.536950111E0,9.514950752E0,9.861077818E0
8.578969050E-1,-5.200500488E-1,2.542050123E0,9.508050919E0,9.855734531E0
8.603836740E-1,-5.269500017E-1,2.547000170E0,9.513000488E0,9.862153135E0
8.628702140E-1,-5.269500017E-1,2.539950132E0,9.511050224E0,9.858453192E0
8.653569050E-1,-5.200500488E-1,2.530050039E0,9.508050919E0,9.852646219E0
8.678436740E-1,-5.149500370E-1,2.532000065E0,9.508050919E0,9.852879282E0
8.703304430E-1,-5.200500488E-1,2.536950111E0,9.501000404E0,9.847617814E0
8.728169840E-1,-5.230500102E-1,2.542050123E0,9.499050140E0,9.847210453E0
8.753037510E-1,-5.230500102E-1,2.535000086E0,9.501000404E0,9.847274518E0
8.777904450E-1,-5.250000358E-1,2.527950048E0,9.499050140E0,9.843683764E0
8.802772120E-1,-5.299500227E-1,2.530050039E0,9.493950844E0,9.839568225E0
8.827637580E-1,-5.269500017E-1,2.523000002E0,9.501000404E0,9.844400134E0
8.852504480E-1,-5.200500488E-1,2.527950048E0,9.493950844E0,9.838500197E0
8.877372170E-1,-5.149500370E-1,2.527950048E0,9.477000237E0,9.821875507E0
8.902237580E-1,-5.230500102E-1,2.524950027E0,9.478950500E0,9.823413691E0
8.927105250E-1,-5.370000005E-1,2.523000002E0,9.487050056E0,9.831480905E0
8.951972230E-1,-5.350500345E-1,2.527950048E0,9.501000404E0,9.846106777E0
8.976837620E-1,-5.250000358E-1,2.532000065E0,9.511050224E0,9.856303858E0
9.001705290E-1,-5.230500102E-1,2.536950111E0,9.511050224E0,9.857472980E0
9.026572230E-1,-5.230500102E-1,2.536950111E0,9.517950058E0,9.864130498E0
9.051439910E-1,-5.179499984E-1,2.524950027E0,9.520050049E0,9.862808818E0
9.076305220E-1,-5.149500370E-1,2.530050039E0,9.505950928E0,9.850351759E0
9.101172890E-1,-5.149500370E-1,2.527950048E0,9.493950844E0,9.838231935E0
9.126039840E-1,-5.179499984E-1,2.523000002E0,9.487050056E0,9.830458788E0
9.150907510E-1,-5.250000358E-1,2.530050039E0,9.478950500E0,9.824829812E0
9.175772910E-1,-5.200500488E-1,2.530050039E0,9.481950760E0,9.827461293E0
9.200640590E-1,-5.110500455E-1,2.524950027E0,9.489000320E0,9.832480454E0
9.225507530E-1,-5.110500455E-1,2.527950048E0,9.508050919E0,9.851636203E0
9.250372910E-1,-5.110500455E-1,2.527950048E0,9.511050224E0,9.854530936E0
9.275240590E-1,-5.059500337E-1,2.530050039E0,9.505950928E0,9.849885364E0
9.300107530E-1,-5.080500245E-1,2.539950132E0,9.508050919E0,9.854567153E0
9.324972750E-1,-5.200500488E-1,2.548950195E0,9.493950844E0,9.843916994E0
9.349842730E-1,-5.179499984E-1,2.559000015E0,9.487050056E0,9.839759756E0
9.374708140E-1,-5.110500455E-1,2.560950041E0,9.493950844E0,9.846559800E0
9.399575040E-1,-5.110500455E-1,2.551950216E0,9.508050919E0,9.857821987E0
9.424440450E-1,-5.130000114E-1,2.551950216E0,9.514950752E0,9.864578386E0
9.449308030E-1,-5.029500127E-1,2.568000078E0,9.522000313E0,9.875022687E0
9.474174970E-1,-4.960500300E-1,2.563050032E0,9.534000397E0,9.884961035E0
9.499042640E-1,-5.110500455E-1,2.560950041E0,9.520050049E0,9.871726809E0
9.523908050E-1,-5.179499984E-1,2.554050207E0,9.501000404E0,9.851926377E0
9.548774950E-1,-5.149500370E-1,2.539950132E0,9.496050835E0,9.843348092E0
9.573642830E-1,-5.230500102E-1,2.542050123E0,9.499050140E0,9.847210453E0
9.598510530E-1,-5.200500488E-1,2.539950132E0,9.489000320E0,9.836814820E0
9.623375930E-1,-5.269500017E-1,2.532000065E0,9.475050926E0,9.821674536E0
9.648243600E-1,-5.389500260E-1,2.532000065E0,9.481950760E0,9.828981721E0
9.673110550E-1,-5.320500135E-1,2.536950111E0,9.511050224E0,9.857954628E0
9.697978030E-1,-5.269500017E-1,2.539950132E0,9.520050049E0,9.867136156E0
9.722843430E-1,-5.269500017E-1,2.542050123E0,9.513000488E0,9.860875895E0
9.747710340E-1,-5.230500102E-1,2.542050123E0,9.505950928E0,9.853867423E0
9.772578030E-1,-5.250000358E-1,2.539950132E0,9.493950844E0,9.841853196E0
9.797443430E-1,-5.370000005E-1,2.548950195E0,9.472050667E0,9.823709072E0
9.822310380E-1,-5.350500345E-1,2.548950195E0,9.442950249E0,9.795546694E0
9.847178840E-1,-5.350500345E-1,2.539950132E0,9.439050674E0,9.789448547E0
9.872045780E-1,-5.440500379E-1,2.547000170E0,9.460050583E0,9.812021063E0
9.896911170E-1,-5.389500260E-1,2.556000233E0,9.477000237E0,9.830419004E0
9.921778070E-1,-5.370000005E-1,2.548950195E0,9.493950844E0,9.844827003E0
9.946645570E-1,-5.350500345E-1,2.544000149E0,9.514950752E0,9.863696220E0
9.971510980E-1,-5.230500102E-1,2.547000170E0,9.525000572E0,9.873521514E0
9.996378650E-1,-5.230500102E-1,2.542050123E0,9.525000572E0,9.872245745E0
1.002124559E0,-5.299500227E-1,2.539950132E0,9.522000313E0,9.869178469E0
1.004611332E0,-5.350500345E-1,2.542050123E0,9.529950142E0,9.877664050E0
1.007097872E0,-5.320500135E-1,2.530050039E0,9.520050049E0,9.864866109E0
1.009584562E0,-5.250000358E-1,2.530050039E0,9.505950928E0,9.850882259E0
1.012071332E0,-5.269500017E-1,2.539950132E0,9.508050919E0,9.855559611E0
1.014558101E0,-5.269500017E-1,2.527950048E0,9.508050919E0,9.852473802E0
1.017044670E0,-5.269500017E-1,2.520000219E0,9.505950928E0,9.848410047E0
1.019531437E0,-5.350500345E-1,2.520000219E0,9.501000404E0,9.844068688E0
1.022017901E0,-5.389500260E-1,2.524950027E0,9.508050919E0,9.852353630E0
1.024504668E0,-5.370000005E-1,2.523000002E0,9.511050224E0,9.854642276E0
1.026991437E0,-5.350500345E-1,2.520000219E0,9.505950928E0,9.848846769E0
1.029478136E0,-5.299500227E-1,2.527950048E0,9.505950928E0,9.850608180E0
1.031964903E0,-5.299500227E-1,2.535000086E0,9.502950668E0,9.849525058E0
1.034451444E0,-5.350500345E-1,2.532000065E0,9.502950668E0,9.849029103E0
1.036938134E0,-5.320500135E-1,2.527950048E0,9.484050751E0,9.829589376E0
1.039424903E0,-5.250000358E-1,2.536950111E0,9.469950676E0,9.817927822E0
1.041911459E0,-5.200500488E-1,2.539950132E0,9.472050667E0,9.820465496E0
1.044398226E0,-5.299500227E-1,2.530050039E0,9.475050926E0,9.821333427E0
1.046884995E0,-5.269500017E-1,2.535000086E0,9.475050926E0,9.822448360E0
1.049371689E0,-5.149500370E-1,2.536950111E0,9.477000237E0,9.824195789E0
1.051858228E0,-5.179499984E-1,2.530050039E0,9.499050140E0,9.843849804E0
1.054344995E0,-5.230500102E-1,2.535000086E0,9.513000488E0,9.858853130E0
1.056831689E0,-5.250000358E-1,2.524950027E0,9.514950752E0,9.858259760E0
1.059318457E0,-5.250000358E-1,2.520000219E0,9.520050049E0,9.861915589E0
1.061804997E0,-5.250000358E-1,2.530050039E0,9.514950752E0,9.859567235E0
1.064291687E0,-5.179499984E-1,2.527950048E0,9.508050919E0,9.851996545E0
1.066778462E0,-5.230500102E-1,2.524950027E0,9.513000488E0,9.856273750E0
1.069265002E0,-5.230500102E-1,2.524950027E0,9.514950752E0,9.858156104E0
1.071751769E0,-5.179499984E-1,2.520000219E0,9.505950928E0,9.847932593E0
1.074238539E0,-5.200500488E-1,2.524950027E0,9.499050140E0,9.842650977E0
1.076725233E0,-5.149500370E-1,2.532000065E0,9.505950928E0,9.850852801E0
1.079211780E0,-5.130000114E-1,2.530050039E0,9.502950668E0,9.847354651E0
1.081698548E0,-5.230500102E-1,2.524950027E0,9.496050835E0,9.839915417E0
1.084185242E0,-5.269500017E-1,2.524950027E0,9.496050835E0,9.840123495E0
1.086672009E0,-5.200500488E-1,2.518050194E0,9.493950844E0,9.835961135E0
1.089158550E0,-5.200500488E-1,2.518050194E0,9.487050056E0,9.829300464E0
1.091645231E0,-5.230500102E-1,2.524950027E0,9.481950760E0,9.826308776E0
1.094132000E0,-5.179499984E-1,2.520000219E0,9.484050751E0,9.826794592E0
1.096618541E0,-5.200500488E-1,2.523000002E0,9.481950760E0,9.825648644E0
1.099105308E0,-5.250000358E-1,2.535000086E0,9.484050751E0,9.831025842E0
1.101592002E0,-5.230500102E-1,2.536950111E0,9.489000320E0,9.836199686E0
1.104078773E0,-5.200500488E-1,2.535000086E0,9.496050835E0,9.842340115E0
1.106565314E0,-5.269500017E-1,2.527950048E0,9.502950668E0,9.847551937E0
1.109052081E0,-5.250000358E-1,2.515950203E0,9.502950668E0,9.844374123E0
1.111538775E0,-5.200500488E-1,2.523000002E0,9.502950668E0,9.845915522E0
1.114025543E0,-5.230500102E-1,2.535000086E0,9.501000404E0,9.847274518E0
1.116512083E0,-5.299500227E-1,2.536950111E0,9.490950584E0,9.838450381E0
1.118998850E0,-5.299500227E-1,2.532000065E0,9.478950500E0,9.825597893E0
1.121485545E0,-5.230500102E-1,2.530050039E0,9.469950676E0,9.816043007E0
1.123972312E0,-5.299500227E-1,2.542050123E0,9.481950760E0,9.831086210E0
1.126459081E0,-5.269500017E-1,2.536950111E0,9.501000404E0,9.847984609E0
1.128945622E0,-5.200500488E-1,2.536950111E0,9.493950844E0,9.840816559E0
1.131432312E0,-5.200500488E-1,2.547000170E0,9.501000404E0,9.850211703E0
1.133918852E0,-5.230500102E-1,2.539950132E0,9.513000488E0,9.860127092E0
1.136405543E0,-5.200500488E-1,2.542050123E0,9.511050224E0,9.858628061E0
1.138892312E0,-5.110500455E-1,2.539950132E0,9.508050919E0,9.854722274E0
1.141379077E0,-5.110500455E-1,2.542050123E0,9.499050140E0,9.846580348E0
1.143865618E0,-5.269500017E-1,2.551950216E0,9.499050140E0,9.849978669E0
1.146352385E0,-5.370000005E-1,2.551950216E0,9.505950928E0,9.857176165E0
1.148839079E0,-5.269500017E-1,2.556000233E0,9.499050140E0,9.851028731E0
1.151325618E0,-5.179499984E-1,2.568000078E0,9.484050751E0,9.839213142E0
1.153812394E0,-5.230500102E-1,2.572950125E0,9.484050751E0,9.840776001E0
1.156299088E0,-5.269500017E-1,2.575050116E0,9.487050056E0,9.844423710E0
1.158785855E0,-5.230500102E-1,2.580000162E0,9.475050926E0,9.833949980E0
1.161272625E0,-5.179499984E-1,2.575050116E0,9.466950417E0,9.824576606E0
1.163759165E0,-5.200500488E-1,2.572950125E0,9.466950417E0,9.824137346E0
1.166245874E0,-5.230500102E-1,2.571000099E0,9.472050667E0,9.828701168E0
1.168732644E0,-5.200500488E-1,2.559000015E0,9.487050056E0,9.839870523E0
1.171219184E0,-5.110500455E-1,2.559000015E0,9.496050835E0,9.848077715E0
1.173705951E0,-5.179499984E-1,2.556000233E0,9.501000404E0,9.852432089E0
1.176192646E0,-5.230500102E-1,2.544000149E0,9.513000488E0,9.861171145E0
1.178679413E0,-5.179499984E-1,2.535000086E0,9.526950836E0,9.872045881E0
1.181165953E0,-5.250000358E-1,2.532000065E0,9.525000572E0,9.869766221E0
1.183652644E0,-5.250000358E-1,2.535000086E0,9.520050049E0,9.865759140E0
1.186139413E0,-5.250000358E-1,2.535000086E0,9.514950752E0,9.860838620E0
1.188626182E0,-5.179499984E-1,2.527950048E0,9.513000488E0,9.856773404E0
1.191112728E0,-5.130000114E-1,2.523000002E0,9.502950668E0,9.845545664E0
1.193599418E0,-5.179499984E-1,2.518050194E0,9.493950844E0,9.835850324E0
1.196085958E0,-5.320500135E-1,2.511000156E0,9.489000320E0,9.830021673E0
1.198572726E0,-5.269500017E-1,2.512950182E0,9.484050751E0,9.825467600E0
1.201059495E0,-5.230500102E-1,2.520000219E0,9.475050926E0,9.818379320E0
1.203546204E0,-5.230500102E-1,2.530050039E0,9.466950417E0,9.813148562E0
1.206032971E0,-5.230500102E-1,2.527950048E0,9.477000237E0,9.822303510E0
1.208519512E0,-5.230500102E-1,2.511000156E0,9.487050056E0,9.827655970E0
1.211006202E0,-5.230500102E-1,2.503950119E0,9.493950844E0,9.832520030E0
1.213492971E0,-5.269500017E-1,2.503950119E0,9.501000404E0,9.839535110E0
1.215979497E0,-5.269500017E-1,2.503950119E0,9.505950928E0,9.844315392E0
1.218466264E0,-5.250000358E-1,2.503950119E0,9.513000488E0,9.851018705E0
1.220952958E0,-5.299500227E-1,2.499000072E0,9.508050919E0,9.845246602E0
1.223439726E0,-5.250000358E-1,2.499000072E0,9.493950844E0,9.831364556E0
1.225926495E0,-5.230500102E-1,2.506050110E0,9.493950844E0,9.833055023E0
1.228412982E0,-5.149500370E-1,2.506050110E0,9.501000404E0,9.839434403E0
1.230899750E0,-5.200500488E-1,2.500950098E0,9.493950844E0,9.831597331E0
1.233386444E0,-5.269500017E-1,2.496000051E0,9.499050140E0,9.835631456E0
1.235872982E0,-5.299500227E-1,2.500950098E0,9.505950928E0,9.843713804E0
1.238359750E0,-5.299500227E-1,2.503950119E0,9.493950844E0,9.832889496E0
1.240846430E0,-5.230500102E-1,2.496000051E0,9.493950844E0,9.830498471E0
1.243333197E0,-5.200500488E-1,2.503950119E0,9.505950928E0,9.843948460E0
1.245819738E0,-5.200500488E-1,2.518050194E0,9.505950928E0,9.847544459E0
1.248306505E0,-5.250000358E-1,2.520000219E0,9.493950844E0,9.836723477E0
1.250793199E0,-5.250000358E-1,2.520000219E0,9.490950584E0,9.833827797E0
1.253279966E0,-5.250000358E-1,2.530050039E0,9.489000320E0,9.834526187E0
1.255766507E0,-5.269500017E-1,2.544000149E0,9.484050751E0,9.833454719E0
1.258253197E0,-5.230500102E-1,2.542050123E0,9.493950844E0,9.842291540E0
1.260739967E0,-5.179499984E-1,2.536950111E0,9.496050835E0,9.842731812E0
1.263226507E0,-5.080500245E-1,2.551950216E0,9.490950584E0,9.841174103E0
1.265713269E0,-5.110500455E-1,2.551950216E0,9.511050224E0,9.860714904E0
1.268199964E0,-5.110500455E-1,2.554050207E0,9.517950058E0,9.867913554E0
1.270686731E0,-5.110500455E-1,2.560950041E0,9.505950928E0,9.858130670E0
1.273173271E0,-5.080500245E-1,2.551950216E0,9.502950668E0,9.852747644E0
1.275659962E0,-5.080500245E-1,2.554050207E0,9.505950928E0,9.856185384E0
1.278146716E0,-5.130000114E-1,2.566050053E0,9.502950668E0,9.856665424E0
1.280633256E0,-5.110500455E-1,2.571000099E0,9.502950668E0,9.857853979E0
1.283120023E0,-5.149500370E-1,2.563050032E0,9.511050224E0,9.863796195E0
1.285606793E0,-5.230500102E-1,2.566050053E0,9.508050919E0,9.862110649E0
1.288093487E0,-5.250000358E-1,2.563050032E0,9.508050919E0,9.861434113E0
1.290580278E0,-5.250000358E-1,2.559000015E0,9.513000488E0,9.865155062E0
1.293066819E0,-5.250000358E-1,2.559000015E0,9.513000488E0,9.865155062E0
1.295553509E0,-5.149500370E-1,2.556000233E0,9.505950928E0,9.857048938E0
1.298040278E0,-5.110500455E-1,2.560950041E0,9.484050751E0,9.837014583E0
1.300526819E0,-5.130000114E-1,2.563050032E0,9.463050842E0,9.817419504E0
1.303013601E0,-5.149500370E-1,2.563050032E0,9.453000069E0,9.807834078E0
1.305500295E0,-5.269500017E-1,2.559000015E0,9.465000153E0,9.818980867E0
1.307987063E0,-5.320500135E-1,2.559000015E0,9.472050667E0,9.826052215E0
1.310473603E0,-5.269500017E-1,2.560950041E0,9.465000153E0,9.819489259E0
1.312960370E0,-5.230500102E-1,2.547000170E0,9.469950676E0,9.820425499E0
1.315447065E0,-5.299500227E-1,2.539950132E0,9.475050926E0,9.823888423E0
1.317933832E0,-5.320500135E-1,2.535000086E0,9.478950500E0,9.826484887E0
1.320420601E0,-5.269500017E-1,2.542050123E0,9.478950500E0,9.828031223E0
1.322907142E0,-5.250000358E-1,2.544000149E0,9.481950760E0,9.831325038E0
1.325393832E0,-5.250000358E-1,2.532000065E0,9.501000404E0,9.846606423E0
1.327880401E0,-5.200500488E-1,2.539950132E0,9.517950058E0,9.864743891E0
1.330367169E0,-5.200500488E-1,2.548950195E0,9.522000313E0,9.870972045E0
1.332853938E0,-5.250000358E-1,2.547000170E0,9.513000488E0,9.862049138E0
1.335340632E0,-5.320500135E-1,2.544000149E0,9.499050140E0,9.848196157E0
1.337827399E0,-5.419500470E-1,2.544000149E0,9.505950928E0,9.855391908E0
1.340313926E0,-5.370000005E-1,2.548950195E0,9.502950668E0,9.853506356E0
1.342800693E0,-5.370000005E-1,2.548950195E0,9.489000320E0,9.840053007E0
1.345287387E0,-5.389500260E-1,2.547000170E0,9.490950584E0,9.841535449E0
1.347774155E0,-5.320500135E-1,2.544000149E0,9.489000320E0,9.838502989E0
1.350260695E0,-5.440500379E-1,2.544000149E0,9.484050751E0,9.834385890E0
1.352747366E0,-5.580000281E-1,2.542050123E0,9.478950500E0,9.829744933E0
1.355234136E0,-5.470499992E-1,2.530050039E0,9.477000237E0,9.824151382E0
1.357720676E0,-5.419500470E-1,2.515950203E0,9.493950844E0,9.836606015E0
1.360207443E0,-5.470499992E-1,2.512950182E0,9.508050919E0,9.849731701E0
1.362694213E0,-5.350500345E-1,2.518050194E0,9.511050224E0,9.853270101E0
1.365180902E0,-5.299500227E-1,2.511000156E0,9.520050049E0,9.859884469E0
1.367667440E0,-5.470499992E-1,2.500950098E0,9.529950142E0,9.867824725E0
1.370154208E0,-5.419500470E-1,2.503950119E0,9.529950142E0,9.868304097E0
1.372640902E0,-5.350500345E-1,2.511000156E0,9.522000313E0,9.862042906E0
1.375127669E0,-5.370000005E-1,2.511000156E0,9.525000572E0,9.865045701E0
1.377614205E0,-5.269500017E-1,2.515950203E0,9.520050049E0,9.860985481E0
1.380100972E0,-5.269500017E-1,2.527950048E0,9.501000404E0,9.845669933E0
1.382587666E0,-5.299500227E-1,2.535000086E0,9.487050056E0,9.834184828E0
1.385074205E0,-5.299500227E-1,2.532000065E0,9.496050835E0,9.842095956E0
1.387560972E0,-5.230500102E-1,2.532000065E0,9.487050056E0,9.833042480E0
1.390047666E0,-5.149500370E-1,2.535000086E0,9.477000237E0,9.823692405E0
1.392534433E0,-5.179499984E-1,2.527950048E0,9.490950584E0,9.835494225E0
1.395020974E0,-5.200500488E-1,2.515950203E0,9.499050140E0,9.840346084E0
1.397507741E0,-5.179499984E-1,2.508000135E0,9.490950584E0,9.830385541E0
1.399994510E0,-5.149500370E-1,2.512950182E0,9.484050751E0,9.824831337E0
1.402481219E0,-5.179499984E-1,2.511000156E0,9.487050056E0,9.827385856E0
1.404967757E0,-5.200500488E-1,2.512950182E0,9.487050056E0,9.827995189E0
1.407454524E0,-5.179499984E-1,2.511000156E0,9.472050667E0,9.812906696E0
1.409941219E0,-5.130000114E-1,2.500950098E0,9.469950676E0,9.808052111E0
1.412427757E0,-5.029500127E-1,2.511000156E0,9.477000237E0,9.816904501E0
1.414914524E0,-5.059500337E-1,2.518050194E0,9.481950760E0,9.823642523E0
1.417401219E0,-5.080500245E-1,2.523000002E0,9.475050926E0,9.818362078E0
1.419888063E0,-4.990500212E-1,2.532000065E0,9.478950500E0,9.823979735E0
1.422374757E0,-4.960500300E-1,2.535000086E0,9.493950844E0,9.839074839E0
1.424861296E0,-4.990500212E-1,2.535000086E0,9.496050835E0,9.841252858E0
1.427348116E0,-4.939500093E-1,2.532000065E0,9.487050056E0,9.831537505E0
1.429834810E0,-4.939500093E-1,2.536950111E0,9.484050751E0,9.829919691E0
1.432321577E0,-5.080500245E-1,2.539950132E0,9.481950760E0,9.829387149E0
1.434808347E0,-5.130000114E-1,2.542050123E0,9.487050056E0,9.835105826E0
1.437294810E0,-5.059500337E-1,2.547000170E0,9.496050835E0,9.844702980E0
1.439781577E0,-5.059500337E-1,2.535000086E0,9.493950844E0,9.839578929E0
1.442268118E0,-5.130000114E-1,2.532000065E0,9.499050140E0,9.844091980E0
1.444754885E0,-5.130000114E-1,2.536950111E0,9.493950844E0,9.840446509E0
1.447241654E0,-5.130000114E-1,2.544000149E0,9.478950500E0,9.827797737E0
1.449728349E0,-5.299500227E-1,2.544000149E0,9.481950760E0,9.831590614E0
1.452215107E0,-5.299500227E-1,2.542050123E0,9.493950844E0,9.842660640E0
1.454701570E0,-5.179499984E-1,2.544000149E0,9.501000404E0,9.849325746E0
1.457188338E0,-5.179499984E-1,2.535000086E0,9.508050919E0,9.853807889E0
1.459675107E0,-5.250000358E-1,2.523000002E0,9.514950752E0,9.857760489E0
1.462161647E0,-5.250000358E-1,2.536950111E0,9.511050224E0,9.857576643E0
1.464648419E0,-5.299500227E-1,2.548950195E0,9.490950584E0,9.841551561E0
1.467135113E0,-5.350500345E-1,2.559000015E0,9.475050926E0,9.829107267E0
1.469621651E0,-5.320500135E-1,2.563050032E0,9.466950417E0,9.822191857E0
1.472108419E0,-5.299500227E-1,2.563050032E0,9.475050926E0,9.829886192E0
1.474595113E0,-5.230500102E-1,2.566050053E0,9.490950584E0,9.845625281E0
1.477081895E0,-5.200500488E-1,2.566050053E0,9.501000404E0,9.855154672E0
1.479568664E0,-5.320500135E-1,2.568000078E0,9.501000404E0,9.856303075E0
1.482055205E0,-5.370000005E-1,2.566050053E0,9.511050224E0,9.865751783E0
1.484541972E0,-5.470499992E-1,2.563050032E0,9.513000488E0,9.867404292E0
1.487028666E0,-5.419500470E-1,2.563050032E0,9.513000488E0,9.867122864E0
1.489515190E0,-5.419500470E-1,2.556000233E0,9.499050140E0,9.851842498E0
1.492001957E0,-5.490000248E-1,2.547000170E0,9.475050926E0,9.826759433E0
1.494488651E0,-5.470499992E-1,2.544000149E0,9.460050583E0,9.811409557E0
1.496975419E0,-5.470499992E-1,2.539950132E0,9.454950333E0,9.805442171E0
1.499461959E0,-5.490000248E-1,2.536950111E0,9.463050842E0,9.812586211E0
1.501948726E0,-5.440500379E-1,2.542050123E0,9.477000237E0,9.827082108E0
1.504435421E0,-5.299500227E-1,2.536950111E0,9.487050056E0,9.834687675E0
1.506922188E0,-5.299500227E-1,2.539950132E0,9.487050056E0,9.835461986E0
1.509408728E0,-5.299500227E-1,2.544000149E0,9.499050140E0,9.848082928E0
1.511895496E0,-5.299500227E-1,2.554050207E0,9.493950844E0,9.845766710E0
1.514382265E0,-5.230500102E-1,2.560950041E0,9.481950760E0,9.835620806E0
1.516868959E0,-5.149500370E-1,2.551950216E0,9.493950844E0,9.844426142E0
1.519355498E0,-5.200500488E-1,2.551950216E0,9.502950668E0,9.853373705E0
1.521842265E0,-5.200500488E-1,2.551950216E0,9.499050140E0,9.849611948E0
1.524328939E0,-5.179499984E-1,2.554050207E0,9.505950928E0,9.856700650E0
1.526815478E0,-5.149500370E-1,2.560950041E0,9.522000313E0,9.873810238E0
1.529302245E0,-5.179499984E-1,2.560950041E0,9.525000572E0,9.876860494E0
1.531789014E0,-5.179499984E-1,2.547000170E0,9.537000656E0,9.884829972E0
1.534275708E0,-5.130000114E-1,2.539950132E0,9.544050217E0,9.889560669E0
1.536762276E0,-5.230500102E-1,2.544000149E0,9.526950836E0,9.874629629E0
1.539249043E0,-5.200500488E-1,2.539950132E0,9.513000488E0,9.859968409E0
1.541735812E0,-5.200500488E-1,2.527950048E0,9.502950668E0,9.847185126E0
1.544222507E0,-5.350500345E-1,2.530050039E0,9.496050835E0,9.841870411E0
1.546709045E0,-5.320500135E-1,2.524950027E0,9.490950584E0,9.835476239E0
1.549195817E0,-5.299500227E-1,2.511000156E0,9.493950844E0,9.834687155E0
1.551682512E0,-5.389500260E-1,2.500950098E0,9.489000320E0,9.827835245E0
1.554169279E0,-5.419500470E-1,2.496000051E0,9.478950500E0,9.817037674E0
1.556655819E0,-5.370000005E-1,2.503950119E0,9.477000237E0,9.816907287E0
1.559142587E0,-5.350500345E-1,2.503950119E0,9.477000237E0,9.816800814E0
1.561629327E0,-5.389500260E-1,2.496000051E0,9.477000237E0,9.814989397E0
1.564116021E0,-5.490000248E-1,2.503950119E0,9.478950500E0,9.819453641E0
1.566602560E0,-5.470499992E-1,2.511000156E0,9.493950844E0,9.835623423E0
1.569089327E0,-5.370000005E-1,2.503950119E0,9.493950844E0,9.833271980E0
1.571576096E0,-5.269500017E-1,2.499000072E0,9.489000320E0,9.826688392E0
1.574062785E0,-5.370000005E-1,2.511000156E0,9.493950844E0,9.835069568E0
1.576549553E0,-5.389500260E-1,2.524950027E0,9.505950928E0,9.850327041E0
1.579036093E0,-5.320500135E-1,2.518050194E0,9.502950668E0,9.845289503E0
1.581522784E0,-5.320500135E-1,2.506050110E0,9.493950844E0,9.833537868E0
1.584009553E0,-5.350500345E-1,2.511000156E0,9.496050835E0,9.836990484E0
1.586496093E0,-5.350500345E-1,2.518050194E0,9.502950668E0,9.845452083E0
1.588982860E0,-5.350500345E-1,2.520000219E0,9.511050224E0,9.853768620E0
1.591469555E0,-5.320500135E-1,2.518050194E0,9.513000488E0,9.854990222E0
1.593956322E0,-5.269500017E-1,2.511000156E0,9.508050919E0,9.848138421E0
1.596443077E0,-5.320500135E-1,2.512950182E0,9.501000404E0,9.842103663E0
1.598929618E0,-5.350500345E-1,2.515950203E0,9.481950760E0,9.824646262E0
1.601416308E0,-5.370000005E-1,2.518050194E0,9.463050842E0,9.807052413E0
1.603903077E0,-5.269500017E-1,2.518050194E0,9.457950592E0,9.801585713E0
1.606389618E0,-5.250000358E-1,2.518050194E0,9.460050583E0,9.803507477E0
1.608876370E0,-5.230500102E-1,2.520000219E0,9.466950417E0,9.810562298E0
1.611363064E0,-5.200500488E-1,2.520000219E0,9.478950500E0,9.821983290E0
1.613849603E0,-5.179499984E-1,2.520000219E0,9.489000320E0,9.831571613E0
1.616336370E0,-5.200500488E-1,2.512950182E0,9.505950928E0,9.846241603E0
1.618823064E0,-5.200500488E-1,2.506050110E0,9.513000488E0,9.851290144E0
1.621309832E0,-5.200500488E-1,2.500950098E0,9.502950668E0,9.840288352E0
1.623796601E0,-5.200500488E-1,2.512950182E0,9.501000404E0,9.841462257E0
1.626283141E0,-5.250000358E-1,2.524950027E0,9.511050224E0,9.854495119E0
1.628769908E0,-5.200500488E-1,2.524950027E0,9.511050224E0,9.854232647E0
1.631256603E0,-5.059500337E-1,2.530050039E0,9.487050056E0,9.831645712E0
1.633743370E0,-5.080500245E-1,2.542050123E0,9.465000153E0,9.813580465E0
1.636229910E0,-5.110500455E-1,2.548950195E0,9.457950592E0,9.808728187E0
1.638716601E0,-5.059500337E-1,2.551950216E0,9.465000153E0,9.816041118E0
1.641203370E0,-5.130000114E-1,2.556000233E0,9.475050926E0,9.827150973E0
1.643689910E0,-5.179499984E-1,2.563050032E0,9.490950584E0,9.844574174E0
1.646176923E0,-5.179499984E-1,2.566050053E0,9.508050919E0,9.861841478E0
1.648663386E0,-5.149500370E-1,2.559000015E0,9.508050919E0,9.859852275E0
1.651150153E0,-5.130000114E-1,2.554050207E0,9.499050140E0,9.849786548E0
1.653636923E0,-5.130000114E-1,2.556000233E0,9.496050835E0,9.847400045E0
1.656123463E0,-5.200500488E-1,2.554050207E0,9.499050140E0,9.850156247E0
1.658610153E0,-5.200500488E-1,2.556000233E0,9.496050835E0,9.847769834E0
1.661096923E0,-5.230500102E-1,2.556000233E0,9.489000320E0,9.841130300E0
1.663583463E0,-5.320500135E-1,2.556000233E0,9.493950844E0,9.846385988E0
1.666070230E0,-5.320500135E-1,2.560950041E0,9.499050140E0,9.852588284E0
1.668556911E0,-5.299500227E-1,2.566050053E0,9.493950844E0,9.848886360E0
1.671043678E0,-5.269500017E-1,2.560950041E0,9.490950584E0,9.844505290E0
1.673530218E0,-5.250000358E-1,2.551950216E0,9.499050140E0,9.849874543E0
1.676016909E0,-5.299500227E-1,2.554050207E0,9.489000320E0,9.840993170E0
1.678503678E0,-5.269500017E-1,2.556000233E0,9.472050667E0,9.824996556E0
1.680990213E0,-5.230500102E-1,2.548950195E0,9.469950676E0,9.820931433E0
1.683477211E0,-5.350500345E-1,2.547000170E0,9.463050842E0,9.814418966E0
1.685963675E0,-5.370000005E-1,2.551950216E0,9.463050842E0,9.815811232E0
1.688450442E0,-5.320500135E-1,2.547000170E0,9.481950760E0,9.832480729E0
1.690937211E0,-5.350500345E-1,2.542050123E0,9.489000320E0,9.838161640E0
1.693423737E0,-5.389500260E-1,2.547000170E0,9.490950584E0,9.841535449E0
1.695910504E0,-5.350500345E-1,2.554050207E0,9.505950928E0,9.857614014E0
1.698397198E0,-5.269500017E-1,2.548950195E0,9.501000404E0,9.851082787E0
1.700883737E0,-5.269500017E-1,2.539950132E0,9.481950760E0,9.830382149E0
1.703370504E0,-5.179499984E-1,2.542050123E0,9.477000237E0,9.825671708E0
1.705857198E0,-5.179499984E-1,2.551950216E0,9.481950760E0,9.833011356E0
1.708343966E0,-5.200500488E-1,2.548950195E0,9.499050140E0,9.848835095E0
1.710830735E0,-5.200500488E-1,2.539950132E0,9.513000488E0,9.859968409E0
1.713317275E0,-5.230500102E-1,2.542050123E0,9.502950668E0,9.850973127E0
1.715803966E0,-5.179499984E-1,2.548950195E0,9.490950584E0,9.840912676E0
1.718290735E0,-5.080500245E-1,2.542050123E0,9.499050140E0,9.846425099E0
1.720777504E0,-5.059500337E-1,2.535000086E0,9.499050140E0,9.844499197E0
1.723264045E0,-5.149500370E-1,2.532000065E0,9.489000320E0,9.834496680E0
1.725750812E0,-5.179499984E-1,2.532000065E0,9.477000237E0,9.823076403E0
1.728237506E0,-5.179499984E-1,2.532000065E0,9.478950500E0,9.824957970E0
1.730724041E0,-5.179499984E-1,2.527950048E0,9.489000320E0,9.833612293E0
1.733210808E0,-5.149500370E-1,2.524950027E0,9.489000320E0,9.832683930E0
1.735697502E0,-5.200500488E-1,2.524950027E0,9.484050751E0,9.828175992E0
1.738184269E0,-5.269500017E-1,2.544000149E0,9.487050056E0,9.836347484E0
1.740670810E0,-5.230500102E-1,2.547000170E0,9.489000320E0,9.838796586E0
1.743157591E0,-5.130000114E-1,2.539950132E0,9.484050751E0,9.831669966E0
1.745644285E0,-5.130000114E-1,2.539950132E0,9.477000237E0,9.824868914E0
1.748131053E0,-5.200500488E-1,2.542050123E0,9.465000153E0,9.814209024E0
1.750617822E0,-5.230500102E-1,2.536950111E0,9.478950500E0,9.826504962E0
1.753104362E0,-5.179499984E-1,2.532000065E0,9.484050751E0,9.829878696E0
1.755591082E0,-5.179499984E-1,2.532000065E0,9.499050140E0,9.844351177E0
1.758077851E0,-5.250000358E-1,2.532000065E0,9.522000313E0,9.866870797E0
1.760564391E0,-5.269500017E-1,2.542050123E0,9.513000488E0,9.860875895E0
1.763051159E0,-5.230500102E-1,2.551950216E0,9.499050140E0,9.849770799E0
1.765537853E0,-5.299500227E-1,2.547000170E0,9.493950844E0,9.843940243E0
1.768024610E0,-5.370000005E-1,2.539950132E0,9.493950844E0,9.842500612E0
1.770511151E0,-5.389500260E-1,2.535000086E0,9.493950844E0,9.841330966E0
1.772997918E0,-5.350500345E-1,2.536950111E0,9.493950844E0,9.841620651E0
1.775484612E0,-5.320500135E-1,2.527950048E0,9.501000404E0,9.845944208E0
1.777971379E0,-5.320500135E-1,2.523000002E0,9.496050835E0,9.839897747E0
1.780457915E0,-5.350500345E-1,2.535000086E0,9.484050751E0,9.831567658E0
1.782944682E0,-5.389500260E-1,2.520000219E0,9.496050835E0,9.839504545E0
1.785431376E0,-5.470499992E-1,2.511000156E0,9.508050919E0,9.849234374E0
1.787918144E0,-5.440500379E-1,2.524950027E0,9.496050835E0,9.841054036E0
1.790404684E0,-5.350500345E-1,2.527950048E0,9.481950760E0,9.827726095E0
1.792891374E0,-5.350500345E-1,2.518050194E0,9.477000237E0,9.820406753E0
1.795378144E0,-5.389500260E-1,2.524950027E0,9.463050842E0,9.808933225E0
1.797864913E0,-5.419500470E-1,2.530050039E0,9.448050499E0,9.795944124E0
1.800351453E0,-5.370000005E-1,2.520000219E0,9.445950508E0,9.791054647E0
1.802838221E0,-5.320500135E-1,2.511000156E0,9.463050842E0,9.804974770E0
1.805324930E0,-5.320500135E-1,2.508000135E0,9.477000237E0,9.817671586E0
1.807811697E0,-5.320500135E-1,2.511000156E0,9.490950584E0,9.831904292E0
1.810298238E0,-5.250000358E-1,2.500950098E0,9.513000488E0,9.850256581E0
1.812785005E0,-5.130000114E-1,2.496000051E0,9.522000313E0,9.857062201E0
1.815271699E0,-5.059500337E-1,2.500950098E0,9.526950836E0,9.862734360E0
1.817758485E0,-5.200500488E-1,2.503950119E0,9.520050049E0,9.857564161E0
1.820245026E0,-5.299500227E-1,2.511000156E0,9.505950928E0,9.846271977E0
1.822731793E0,-5.269500017E-1,2.515950203E0,9.499050140E0,9.840713150E0
1.825218562E0,-5.299500227E-1,2.508000135E0,9.493950844E0,9.833921615E0
1.827705257E0,-5.200500488E-1,2.506050110E0,9.484050751E0,9.823337409E0
1.830191795E0,-5.130000114E-1,2.512950182E0,9.478950500E0,9.819806017E0
1.832678562E0,-5.179499984E-1,2.512950182E0,9.481950760E0,9.822961928E0
1.835165257E0,-5.200500488E-1,2.520000219E0,9.487050056E0,9.829800198E0
1.837652019E0,-5.200500488E-1,2.520000219E0,9.484050751E0,9.826905505E0
1.840138559E0,-5.269500017E-1,2.508000135E0,9.478950500E0,9.819279178E0
1.842625327E0,-5.269500017E-1,2.518050194E0,9.472050667E0,9.815192149E0
1.845112021E0,-5.149500370E-1,2.515950203E0,9.465000153E0,9.807211982E0
1.847598559E0,-5.149500370E-1,2.512950182E0,9.477000237E0,9.818025547E0
1.850085327E0,-5.179499984E-1,2.523000002E0,9.489000320E0,9.832340937E0
1.852572096E0,-5.250000358E-1,2.535000086E0,9.493950844E0,9.840576868E0
1.855058790E0,-5.230500102E-1,2.535000086E0,9.493950844E0,9.840473026E0
1.857545557E0,-5.179499984E-1,2.535000086E0,9.496050835E0,9.842229376E0
1.860032098E0,-5.179499984E-1,2.539950132E0,9.499050140E0,9.846398958E0
1.862518865E0,-5.230500102E-1,2.547000170E0,9.489000320E0,9.838796586E0
1.865005559E0,-5.320500135E-1,2.556000233E0,9.493950844E0,9.846385988E0
1.867492098E0,-5.350500345E-1,2.556000233E0,9.496050835E0,9.848573358E0
1.869978865E0,-5.250000358E-1,2.548950195E0,9.501000404E0,9.850978673E0
1.872465634E0,-5.269500017E-1,2.556000233E0,9.499050140E0,9.851028731E0
1.874952334E0,-5.269500017E-1,2.559000015E0,9.493950844E0,9.846890880E0
1.877438872E0,-5.250000358E-1,2.551950216E0,9.490950584E0,9.842063703E0
1.879925639E0,-5.320500135E-1,2.554050207E0,9.493950844E0,9.845879966E0
1.882412409E0,-5.269500017E-1,2.554050207E0,9.496050835E0,9.847630691E0
1.884899103E0,-5.250000358E-1,2.554050207E0,9.490950584E0,9.842608419E0
1.887385884E0,-5.320500135E-1,2.554050207E0,9.477000237E0,9.829536264E0
1.889872425E0,-5.299500227E-1,2.551950216E0,9.472050667E0,9.824105087E0
1.892359192E0,-5.269500017E-1,2.556000233E0,9.481950760E0,9.834541357E0
1.894845886E0,-5.299500227E-1,2.563050032E0,9.487050056E0,9.841452701E0
1.897332425E0,-5.299500227E-1,2.566050053E0,9.496050835E0,9.850910687E0
1.899819187E0,-5.299500227E-1,2.563050032E0,9.490950584E0,9.845212821E0
1.902305956E0,-5.269500017E-1,2.556000233E0,9.477000237E0,9.829768409E0
1.904792650E0,-5.179499984E-1,2.556000233E0,9.487050056E0,9.838980037E0
1.907279189E0,-5.149500370E-1,2.560950041E0,9.478950500E0,9.832300913E0
1.909765956E0,-5.230500102E-1,2.563050032E0,9.460050583E0,9.815058014E0
1.912252736E0,-5.230500102E-1,2.554050207E0,9.460050583E0,9.812711695E0
1.914739431E0,-5.299500227E-1,2.556000233E0,9.472050667E0,9.825157915E0
1.917226198E0,-5.269500017E-1,2.560950041E0,9.481950760E0,9.835828975E0
1.919712738E0,-5.230500102E-1,2.542050123E0,9.478950500E0,9.827822889E0
1.922199429E0,-5.200500488E-1,2.539950132E0,9.477000237E0,9.825239550E0
1.924686188E0,-5.149500370E-1,2.544000149E0,9.477000237E0,9.826018715E0
1.927172728E0,-5.179499984E-1,2.544000149E0,9.481950760E0,9.830951082E0
1.929659496E0,-5.250000358E-1,2.547000170E0,9.490950584E0,9.840781366E0
1.932146265E0,-5.250000358E-1,2.544000149E0,9.496050835E0,9.844924746E0
1.934632959E0,-5.250000358E-1,2.544000149E0,9.501000404E0,9.849699004E0
1.937119484E0,-5.200500488E-1,2.536950111E0,9.502950668E0,9.849499445E0
1.939606251E0,-5.200500488E-1,2.532000065E0,9.499050140E0,9.844461892E0
1.942093020E0,-5.179499984E-1,2.535000086E0,9.484050751E0,9.830651875E0
1.944579714E0,-5.149500370E-1,2.536950111E0,9.481950760E0,9.828971443E0
1.947066482E0,-5.149500370E-1,2.535000086E0,9.478950500E0,9.825573854E0
1.949553007E0,-5.230500102E-1,2.535000086E0,9.472050667E0,9.819345731E0
1.952039774E0,-5.250000358E-1,2.527950048E0,9.463050842E0,9.808949369E0
1.954526469E0,-5.200500488E-1,2.524950027E0,9.454950333E0,9.800097473E0
1.957013007E0,-5.230500102E-1,2.520000219E0,9.469950676E0,9.813457506E0
1.959499774E0,-5.350500345E-1,2.511000156E0,9.493950844E0,9.834963292E0
1.961986559E0,-5.440500379E-1,2.506050110E0,9.502950668E0,9.842883165E0
1.964473253E0,-5.470499992E-1,2.503950119E0,9.499050140E0,9.838749081E0
1.966960020E0,-5.440500379E-1,2.496000051E0,9.493950844E0,9.831638181E0
1.969446561E0,-5.389500260E-1,2.488950014E0,9.499050140E0,9.834495049E0
1.971933251E0,-5.419500470E-1,2.487000227E0,9.493950844E0,9.829241202E0
1.974420024E0,-5.470499992E-1,2.482050180E0,9.490950584E0,9.825374283E0
1.976906793E0,-5.370000005E-1,2.482050180E0,9.487050056E0,9.821051923E0
1.979393334E0,-5.269500017E-1,2.487000227E0,9.475050926E0,9.810170054E0
1.981880101E0,-5.269500017E-1,2.488950014E0,9.469950676E0,9.805738844E0
1.984366795E0,-5.299500227E-1,2.488950014E0,9.451050758E0,9.787649342E0
1.986853330E0,-5.320500135E-1,2.499000072E0,9.445950508E0,9.785400328E0
1.989340097E0,-5.299500227E-1,2.506050110E0,9.448050499E0,9.789116018E0
1.991826791E0,-5.269500017E-1,2.500950098E0,9.451050758E0,9.790545855E0
1.994313559E0,-5.250000358E-1,2.511000156E0,9.457950592E0,9.799672251E0
1.996800328E0,-5.149500370E-1,2.520000219E0,9.478950500E0,9.821714577E0
1.999286853E0,-5.110500455E-1,2.508000135E0,9.489000320E0,9.828141427E0
2.001773544E0,-5.130000114E-1,2.506050110E0,9.484050751E0,9.822966701E0
2.004260313E0,-5.149500370E-1,2.515950203E0,9.490950584E0,9.832259250E0
2.006746853E0,-5.200500488E-1,2.518050194E0,9.505950928E0,9.847544459E0
2.009233621E0,-5.179499984E-1,2.520000219E0,9.513000488E0,9.854737520E0
2.011720385E0,-5.130000114E-1,2.532000065E0,9.508050919E0,9.852777558E0
2.014207079E0,-5.149500370E-1,2.535000086E0,9.508050919E0,9.853650656E0
2.016693846E0,-5.179499984E-1,2.532000065E0,9.496050835E0,9.841457107E0
2.019180387E0,-5.179499984E-1,2.544000149E0,9.478950500E0,9.828057364E0
2.021667077E0,-5.080500245E-1,2.551950216E0,9.475050926E0,9.825841175E0
2.024153861E0,-5.080500245E-1,2.551950216E0,9.487050056E0,9.837412440E0
2.026640631E0,-5.200500488E-1,2.559000015E0,9.496050835E0,9.848548857E0
2.029127171E0,-5.200500488E-1,2.559000015E0,9.499050140E0,9.851440844E0
2.031613862E0,-5.179499984E-1,2.563050032E0,9.505950928E0,9.859036500E0
2.034100631E0,-5.149500370E-1,2.563050032E0,9.501000404E0,9.854106133E0
2.036587414E0,-5.059500337E-1,2.560950041E0,9.489000320E0,9.841523136E0
2.039073954E0,-5.029500127E-1,2.571000099E0,9.481950760E0,9.837194236E0
2.041560722E0,-5.130000114E-1,2.583000183E0,9.481950760E0,9.840856120E0
2.044047416E0,-5.269500017E-1,2.584950209E0,9.493950844E0,9.853666653E0
2.046534183E0,-5.299500227E-1,2.575050116E0,9.525000572E0,9.881162180E0
2.049020947E0,-5.179499984E-1,2.578050137E0,9.532050133E0,9.888103683E0
2.051507488E0,-5.230500102E-1,2.583000183E0,9.522000313E0,9.879977794E0
2.053994178E0,-5.299500227E-1,2.572950125E0,9.522000313E0,9.877722882E0
2.056480947E0,-5.269500017E-1,2.571000099E0,9.517950058E0,9.873150010E0
2.058967488E0,-5.269500017E-1,2.566050053E0,9.501000404E0,9.855521187E0
2.061454178E0,-5.299500227E-1,2.559000015E0,9.493950844E0,9.847051880E0
2.063940948E0,-5.370000005E-1,2.560950041E0,9.489000320E0,9.843168250E0
2.066427488E0,-5.419500470E-1,2.551950216E0,9.475050926E0,9.827652304E0
2.068914255E0,-5.350500345E-1,2.536950111E0,9.463050842E0,9.811815614E0
2.071400950E0,-5.440500379E-1,2.542050123E0,9.475050926E0,9.825202254E0
2.073887722E0,-5.470499992E-1,2.536950111E0,9.481950760E0,9.830705457E0
2.076374491E0,-5.419500470E-1,2.527950048E0,9.469950676E0,9.816527243E0
2.078861031E0,-5.470499992E-1,2.527950048E0,9.463050842E0,9.810154249E0
2.081347799E0,-5.440500379E-1,2.530050039E0,9.453000069E0,9.800834349E0
2.083834478E0,-5.320500135E-1,2.524950027E0,9.451050758E0,9.796979652E0
2.086321245E0,-5.299500227E-1,2.523000002E0,9.451050758E0,9.796363431E0
2.088807786E0,-5.389500260E-1,2.524950027E0,9.454950333E0,9.801118587E0
2.091294553E0,-5.370000005E-1,2.530050039E0,9.460050583E0,9.807246261E0
2.093781247E0,-5.230500102E-1,2.535000086E0,9.463050842E0,9.810664503E0
2.096268035E0,-5.080500245E-1,2.527950048E0,9.465000153E0,9.809937521E0
2.098754575E0,-5.130000114E-1,2.527950048E0,9.457950592E0,9.803393793E0
2.101241342E0,-5.149500370E-1,2.527950048E0,9.457950592E0,9.803496029E0
2.103728037E0,-5.130000114E-1,2.523000002E0,9.457950592E0,9.802118517E0
2.106214804E0,-5.010000467E-1,2.523000002E0,9.460050583E0,9.803524218E0
2.108701338E0,-5.029500127E-1,2.523000002E0,9.472050667E0,9.815204102E0
2.111188105E0,-5.200500488E-1,2.523000002E0,9.478950500E0,9.822753364E0
2.113674800E0,-5.130000114E-1,2.524950027E0,9.475050926E0,9.819120720E0
2.116161567E0,-5.080500245E-1,2.524950027E0,9.478950500E0,9.822626434E0
2.118648107E0,-5.149500370E-1,2.520000219E0,9.499050140E0,9.841114176E0
2.121134875E0,-5.200500488E-1,2.523000002E0,9.513000488E0,9.855615625E0
2.123621569E0,-5.200500488E-1,2.527950048E0,9.514950752E0,9.858766217E0
2.126108107E0,-5.149500370E-1,2.523000002E0,9.511050224E0,9.853465325E0
2.128594875E0,-5.130000114E-1,2.518050194E0,9.508050919E0,9.849201900E0
2.131081644E0,-5.200500488E-1,2.523000002E0,9.508050919E0,9.850838205E0
2.133568338E0,-5.269500017E-1,2.520000219E0,9.526950836E0,9.868681252E0
2.136054877E0,-5.320500135E-1,2.520000219E0,9.534000397E0,9.875760319E0
2.138541644E0,-5.269500017E-1,2.524950027E0,9.517950058E0,9.861258655E0
2.141028413E0,-5.350500345E-1,2.527950048E0,9.508050919E0,9.852910345E0
2.143515137E0,-5.389500260E-1,2.544000149E0,9.501000404E0,9.850452404E0
2.146001981E0,-5.389500260E-1,2.551950216E0,9.484050751E0,9.836164683E0
2.148488444E0,-5.470499992E-1,2.548950195E0,9.478950500E0,9.830916203E0
2.150975211E0,-5.419500470E-1,2.544000149E0,9.489000320E0,9.839043332E0
2.153461906E0,-5.440500379E-1,2.547000170E0,9.496050835E0,9.846734574E0
2.155948429E0,-5.389500260E-1,2.554050207E0,9.490950584E0,9.843362362E0
2.158435196E0,-5.389500260E-1,2.551950216E0,9.496050835E0,9.847735704E0
2.160921966E0,-5.509500504E-1,2.544000149E0,9.499050140E0,9.849235315E0
2.163408660E0,-5.560500026E-1,2.548950195E0,9.490950584E0,9.842991502E0
2.165895427E0,-5.610000491E-1,2.559000015E0,9.496050835E0,9.850796089E0
2.168381983E0,-5.629500151E-1,2.547000170E0,9.489000320E0,9.840998408E0
2.170868750E0,-5.539500117E-1,2.536950111E0,9.481950760E0,9.831091836E0
2.173355444E0,-5.490000248E-1,2.530050039E0,9.475050926E0,9.822379767E0
2.175842212E0,-5.470499992E-1,2.532000065E0,9.469950676E0,9.817853830E0
2.178328752E0,-5.470499992E-1,2.536950111E0,9.472050667E0,9.821156928E0
2.180815524E0,-5.470499992E-1,2.524950027E0,9.466950417E0,9.813143560E0
2.183302219E0,-5.470499992E-1,2.520000219E0,9.465000153E0,9.809989434E0
2.185788986E0,-5.440500379E-1,2.512950182E0,9.457950592E0,9.801211071E0
2.188275526E0,-5.299500227E-1,2.512950182E0,9.453000069E0,9.795661077E0
2.190762293E0,-5.299500227E-1,2.515950203E0,9.457950592E0,9.801208183E0
2.193249016E0,-5.320500135E-1,2.511000156E0,9.466950417E0,9.808738410E0
2.195735860E0,-5.230500102E-1,2.511000156E0,9.477000237E0,9.817954806E0
2.198222324E0,-5.179499984E-1,2.512950182E0,9.489000320E0,9.829766930E0
2.200709091E0,-5.230500102E-1,2.508000135E0,9.493950844E0,9.833552187E0
2.203195785E0,-5.200500488E-1,2.512950182E0,9.490950584E0,9.831760456E0
2.205682528E0,-5.110500455E-1,2.523000002E0,9.484050751E0,9.827203051E0
2.208169069E0,-5.059500337E-1,2.515950203E0,9.478950500E0,9.820208422E0
2.210655836E0,-5.029500127E-1,2.520000219E0,9.466950417E0,9.809511201E0
2.213142530E0,-5.010000467E-1,2.523000002E0,9.457950592E0,9.801497817E0
2.215629298E0,-4.990500212E-1,2.520000219E0,9.453000069E0,9.795849240E0
2.218115834E0,-5.010000467E-1,2.524950027E0,9.440999985E0,9.785645324E0
2.220602832E0,-5.010000467E-1,2.530050039E0,9.451050758E0,9.796658343E0
2.223089296E0,-4.990500212E-1,2.530050039E0,9.460050583E0,9.805241514E0
2.225576063E0,-4.960500300E-1,2.524950027E0,9.466950417E0,9.810432634E0
2.228062603E0,-4.990500212E-1,2.518050194E0,9.481950760E0,9.823289567E0
2.230549342E0,-4.990500212E-1,2.511000156E0,9.496050835E0,9.835098076E0
2.233036036E0,-4.990500212E-1,2.515950203E0,9.508050919E0,9.847948447E0
2.235522803E0,-4.990500212E-1,2.527950048E0,9.501000404E0,9.844216122E0
2.238009344E0,-4.990500212E-1,2.524950027E0,9.490950584E0,9.833746314E0
2.240496111E0,-5.029500127E-1,2.530050039E0,9.499050140E0,9.843071954E0
2.242982805E0,-5.010000467E-1,2.542050123E0,9.499050140E0,9.846063855E0
2.245469649E0,-5.059500337E-1,2.554050207E0,9.493950844E0,9.844504077E0
2.247956113E0,-5.059500337E-1,2.568000078E0,9.505950928E0,9.859701460E0
2.250442880E0,-5.080500245E-1,2.568000078E0,9.508050919E0,9.861834084E0
2.252929574E0,-5.080500245E-1,2.571000099E0,9.496050835E0,9.851047548E0
2.255416337E0,-5.080500245E-1,2.571000099E0,9.490950584E0,9.846131186E0
2.257902877E0,-5.130000114E-1,2.560950041E0,9.489000320E0,9.841888091E0
2.260389644E0,-5.110500455E-1,2.568000078E0,9.496050835E0,9.850420194E0
2.262876339E0,-5.230500102E-1,2.563050032E0,9.484050751E0,9.838192183E0
2.265363106E0,-5.350500345E-1,2.554050207E0,9.472050667E0,9.824927218E0
2.267849870E0,-5.299500227E-1,2.551950216E0,9.477000237E0,9.828877373E0
2.270336411E0,-5.370000005E-1,2.547000170E0,9.477000237E0,9.827976005E0
2.272823101E0,-5.490000248E-1,2.551950216E0,9.466950417E0,9.820234270E0
2.275309870E0,-5.440500379E-1,2.542050123E0,9.463050842E0,9.813630343E0
2.277796639E0,-5.440500379E-1,2.535000086E0,9.475050926E0,9.823380576E0
2.280283199E0,-5.490000248E-1,2.544000149E0,9.472050667E0,9.823089210E0
2.282769889E0,-5.350500345E-1,2.535000086E0,9.460050583E0,9.808417865E0
2.285256658E0,-5.299500227E-1,2.524950027E0,9.465000153E0,9.810323519E0
2.287743428E0,-5.350500345E-1,2.518050194E0,9.475050926E0,9.818525621E0
2.290229968E0,-5.370000005E-1,2.523000002E0,9.487050056E0,9.831480905E0
2.292716624E0,-5.299500227E-1,2.530050039E0,9.499050140E0,9.844488499E0
2.295203394E0,-5.230500102E-1,2.515950203E0,9.501000404E0,9.842387689E0
2.297689934E0,-5.200500488E-1,2.520000219E0,9.502950668E0,9.845147260E0
2.300176701E0,-5.179499984E-1,2.535000086E0,9.489000320E0,9.835427023E0
2.302663382E0,-5.250000358E-1,2.532000065E0,9.481950760E0,9.828226675E0
2.305150149E0,-5.200500488E-1,2.530050039E0,9.484050751E0,9.829487469E0
2.307636918E0,-5.149500370E-1,2.535000086E0,9.481950760E0,9.828468303E0
2.310123459E0,-5.110500455E-1,2.548950195E0,9.487050056E0,9.836790026E0
2.312610149E0,-5.110500455E-1,2.551950216E0,9.490950584E0,9.841329435E0
2.315096918E0,-5.130000114E-1,2.547000170E0,9.481950760E0,9.831468308E0
2.317583687E0,-5.010000467E-1,2.551950216E0,9.469950676E0,9.820560919E0
2.320070228E0,-4.960500300E-1,2.547000170E0,9.472050667E0,9.821049808E0
2.322556995E0,-5.010000467E-1,2.536950111E0,9.477000237E0,9.823474456E0
2.325043689E0,-5.080500245E-1,2.536950111E0,9.493950844E0,9.840189699E0
2.327530443E0,-5.149500370E-1,2.532000065E0,9.505950928E0,9.850852801E0
2.330016983E0,-5.200500488E-1,2.532000065E0,9.502950668E0,9.848225616E0
2.332503750E0,-5.230500102E-1,2.530050039E0,9.505950928E0,9.850778525E0
2.334990520E0,-5.200500488E-1,2.520000219E0,9.513000488E0,9.854848119E0
2.337477214E0,-5.230500102E-1,2.518050194E0,9.513000488E0,9.854508429E0
2.339963961E0,-5.230500102E-1,2.523000002E0,9.511050224E0,9.853891957E0
2.342450502E0,-5.299500227E-1,2.523000002E0,9.517950058E0,9.860920309E0
2.344937192E0,-5.269500017E-1,2.523000002E0,9.517950058E0,9.860759536E0
2.347423961E0,-5.230500102E-1,2.524950027E0,9.511050224E0,9.854391423E0
2.349910502E0,-5.320500135E-1,2.524950027E0,9.511050224E0,9.854873222E0
2.352397269E0,-5.419500470E-1,2.530050039E0,9.499050140E0,9.845141778E0
2.354883963E0,-5.470499992E-1,2.530050039E0,9.484050751E0,9.830952932E0
2.357370730E0,-5.440500379E-1,2.532000065E0,9.472050667E0,9.819712756E0
2.359857271E0,-5.440500379E-1,2.530050039E0,9.453000069E0,9.800834349E0
2.362344005E0,-5.389500260E-1,2.530050039E0,9.440999985E0,9.788978550E0
2.364830774E0,-5.490000248E-1,2.536950111E0,9.440999985E0,9.791322567E0
2.367317238E0,-5.580000281E-1,2.536950111E0,9.448050499E0,9.798629401E0
2.369804005E0,-5.560500026E-1,2.536950111E0,9.454950333E0,9.805171761E0
2.372290774E0,-5.509500504E-1,2.527950048E0,9.454950333E0,9.802559013E0
2.374777454E0,-5.419500470E-1,2.520000219E0,9.454950333E0,9.800010038E0
2.377264221E0,-5.470499992E-1,2.520000219E0,9.457950592E0,9.803187962E0
2.379750761E0,-5.509500504E-1,2.508000135E0,9.460050583E0,9.802355210E0
2.382237529E0,-5.490000248E-1,2.503950119E0,9.466950417E0,9.807870177E0
2.384724298E0,-5.490000248E-1,2.503950119E0,9.460050583E0,9.801210347E0
2.387210978E0,-5.470499992E-1,2.508000135E0,9.465000153E0,9.806913697E0
2.389697517E0,-5.389500260E-1,2.518050194E0,9.477000237E0,9.820620011E0
2.392184284E0,-5.350500345E-1,2.518050194E0,9.463050842E0,9.806945832E0
2.394671053E0,-5.250000358E-1,2.523000002E0,9.454950333E0,9.799859174E0
2.397157747E0,-5.200500488E-1,2.539950132E0,9.465000153E0,9.813665300E0
2.399644524E0,-5.230500102E-1,2.547000170E0,9.453000069E0,9.804080858E0
2.402131064E0,-5.179499984E-1,2.548950195E0,9.448050499E0,9.799544761E0
2.404617831E0,-5.179499984E-1,2.556000233E0,9.465000153E0,9.817720574E0
2.407104526E0,-5.230500102E-1,2.568000078E0,9.465000153E0,9.821121810E0
2.409591293E0,-5.149500370E-1,2.572950125E0,9.463050842E0,9.820110851E0
2.412077833E0,-5.179499984E-1,2.572950125E0,9.478950500E0,9.835590838E0
2.414564601E0,-5.130000114E-1,2.571000099E0,9.487050056E0,9.842628170E0
2.417051295E0,-5.110500455E-1,2.566050053E0,9.501000404E0,9.854683846E0
2.419538062E0,-5.230500102E-1,2.556000233E0,9.520050049E0,9.871072456E0
2.422024603E0,-5.200500488E-1,2.554050207E0,9.505950928E0,9.856811226E0
2.424511385E0,-5.230500102E-1,2.554050207E0,9.502950668E0,9.854076577E0
2.426998079E0,-5.320500135E-1,2.551950216E0,9.505950928E0,9.856907738E0
2.429484846E0,-5.320500135E-1,2.551950216E0,9.508050919E0,9.858932974E0
2.431971387E0,-5.250000358E-1,2.551950216E0,9.508050919E0,9.858555027E0
2.434458154E0,-5.200500488E-1,2.547000170E0,9.505950928E0,9.854986807E0
2.436944848E0,-5.269500017E-1,2.544000149E0,9.511050224E0,9.859497423E0
2.439431616E0,-5.269500017E-1,2.547000170E0,9.496050835E0,9.845804570E0
2.441918156E0,-5.250000358E-1,2.547000170E0,9.477000237E0,9.827327632E0
2.444404923E0,-5.320500135E-1,2.542050123E0,9.484050751E0,9.833225040E0
2.446891618E0,-5.370000005E-1,2.539950132E0,9.499050140E0,9.847419421E0
2.449378375E0,-5.389500260E-1,2.547000170E0,9.484050751E0,9.834881577E0
2.451864915E0,-5.370000005E-1,2.547000170E0,9.477000237E0,9.827976005E0
2.454351683E0,-5.320500135E-1,2.530050039E0,9.477000237E0,9.823327537E0
2.456838377E0,-5.320500135E-1,2.518050194E0,9.472050667E0,9.815467275E0
2.459325144E0,-5.440500379E-1,2.520000219E0,9.478950500E0,9.823283267E0
2.461811685E0,-5.509500504E-1,2.508000135E0,9.489000320E0,9.830296929E0
2.464298452E0,-5.419500470E-1,2.499000072E0,9.481950760E0,9.820697604E0
2.466785146E0,-5.389500260E-1,2.503950119E0,9.478950500E0,9.818896879E0
2.469271913E0,-5.470499992E-1,2.496000051E0,9.477000237E0,9.815437506E0
2.471758454E0,-5.470499992E-1,2.491950035E0,9.472050667E0,9.809629071E0
2.474245197E0,-5.470499992E-1,2.488950014E0,9.475050926E0,9.811764669E0
2.476731891E0,-5.509500504E-1,2.487000227E0,9.465000153E0,9.801782694E0
2.479218659E0,-5.440500379E-1,2.491950035E0,9.457950592E0,9.795847836E0
2.481705428E0,-5.370000005E-1,2.494050026E0,9.465000153E0,9.802799724E0
2.484191987E0,-5.350500345E-1,2.496000051E0,9.465000153E0,9.803189414E0
2.486678755E0,-5.250000358E-1,2.494050026E0,9.460050583E0,9.797370443E0
2.489165449E0,-5.200500488E-1,2.494050026E0,9.463050842E0,9.800003512E0
2.491651987E0,-5.230500102E-1,2.494050026E0,9.469950676E0,9.806825819E0
2.494138755E0,-5.299500227E-1,2.500950098E0,9.478950500E0,9.817642335E0
2.496625444E0,-5.250000358E-1,2.506050110E0,9.481950760E0,9.821573316E0
2.499112211E0,-5.179499984E-1,2.499000072E0,9.487050056E0,9.824326559E0
2.501598980E0,-5.200500488E-1,2.508000135E0,9.501000404E0,9.840199460E0
2.504085521E0,-5.029500127E-1,2.520000219E0,9.513000488E0,9.853960529E0
2.506572293E0,-4.939500093E-1,2.523000002E0,9.513000488E0,9.854272876E0
2.509058987E0,-5.059500337E-1,2.520000219E0,9.511050224E0,9.852231367E0
2.511545755E0,-5.029500127E-1,2.520000219E0,9.502950668E0,9.844258795E0
2.514032295E0,-4.939500093E-1,2.524950027E0,9.499050140E0,9.841306459E0
2.516519076E0,-4.960500300E-1,2.530050039E0,9.501000404E0,9.844603980E0
2.519005771E0,-5.059500337E-1,2.539950132E0,9.496050835E0,9.842881365E0
2.521492538E0,-5.080500245E-1,2.548950195E0,9.484050751E0,9.833741941E0
2.523979078E0,-5.130000114E-1,2.542050123E0,9.489000320E0,9.836987086E0
2.526465846E0,-5.080500245E-1,2.535000086E0,9.487050056E0,9.833028986E0
2.528952545E0,-5.059500337E-1,2.548950195E0,9.477000237E0,9.826833977E0
2.531439312E0,-5.110500455E-1,2.556000233E0,9.463050842E0,9.815479641E0
2.533926081E0,-5.149500370E-1,2.547000170E0,9.448050499E0,9.798879611E0
2.536412622E0,-5.130000114E-1,2.539950132E0,9.440999985E0,9.790147925E0
2.538899389E0,-5.059500337E-1,2.536950111E0,9.445950508E0,9.793777734E0
2.541386102E0,-5.080500245E-1,2.532000065E0,9.460050583E0,9.806207023E0
2.543872641E0,-5.080500245E-1,2.527950048E0,9.469950676E0,9.814714060E0
2.546359408E0,-5.230500102E-1,2.524950027E0,9.487050056E0,9.831229462E0
2.548846177E0,-5.299500227E-1,2.524950027E0,9.505950928E0,9.849838715E0
2.551332872E0,-5.250000358E-1,2.532000065E0,9.502950668E0,9.848488248E0
2.553819425E0,-5.250000358E-1,2.544000149E0,9.484050751E0,9.833350418E0
2.556306192E0,-5.269500017E-1,2.544000149E0,9.478950500E0,9.828535784E0
2.558792887E0,-5.230500102E-1,2.542050123E0,9.487050056E0,9.835635156E0
2.561279654E0,-5.230500102E-1,2.547000170E0,9.475050926E0,9.825343823E0
2.563766423E0,-5.200500488E-1,2.563050032E0,9.460050583E0,9.814898601E0
2.566252992E0,-5.130000114E-1,2.571000099E0,9.454950333E0,9.811691817E0
2.568739759E0,-5.200500488E-1,2.566050053E0,9.451050758E0,9.807008992E0
2.571226528E0,-5.320500135E-1,2.559000015E0,9.445950508E0,9.800894821E0
2.573712992E0,-5.389500260E-1,2.547000170E0,9.466950417E0,9.818392291E0
2.576199759E0,-5.419500470E-1,2.544000149E0,9.496050835E0,9.845843187E0
2.578686528E0,-5.440500379E-1,2.530050039E0,9.525000572E0,9.870297845E0
2.581173222E0,-5.440500379E-1,2.520000219E0,9.544050217E0,9.886115824E0
2.583659761E0,-5.370000005E-1,2.523000002E0,9.544050217E0,9.886495463E0
2.586146528E0,-5.370000005E-1,2.518050194E0,9.529950142E0,9.871620712E0
2.588633297E0,-5.389500260E-1,2.527950048E0,9.522000313E0,9.866584441E0
2.591120012E0,-5.389500260E-1,2.539950132E0,9.517950058E0,9.865758314E0
2.593606779E0,-5.440500379E-1,2.548950195E0,9.496050835E0,9.847239156E0
2.596093548E0,-5.370000005E-1,2.560950041E0,9.477000237E0,9.831600459E0
2.598580089E0,-5.299500227E-1,2.568000078E0,9.465000153E0,9.821491705E0
2.601066779E0,-5.269500017E-1,2.580000162E0,9.460050583E0,9.819706420E0
2.603553519E0,-5.269500017E-1,2.578050137E0,9.463050842E0,9.822084812E0
2.606040060E0,-5.130000114E-1,2.568000078E0,9.460050583E0,9.815821435E0
2.608526827E0,-5.080500245E-1,2.575050116E0,9.451050758E0,9.808738877E0
2.611013521E0,-5.230500102E-1,2.575050116E0,9.454950333E0,9.813284374E0
2.613500288E0,-5.250000358E-1,2.560950041E0,9.465000153E0,9.819384810E0
2.615986829E0,-5.130000114E-1,2.551950216E0,9.469950676E0,9.821180414E0
2.618473596E0,-5.179499984E-1,2.536950111E0,9.490950584E0,9.837811294E0
2.620960290E0,-5.320500135E-1,2.524950027E0,9.520050049E0,9.863559337E0
2.623447058E0,-5.370000005E-1,2.523000002E0,9.517950058E0,9.861301705E0
2.625933827E0,-5.320500135E-1,2.520000219E0,9.505950928E0,9.848684245E0
2.628420367E0,-5.299500227E-1,2.523000002E0,9.496050835E0,9.839784423E0
2.630907058E0,-5.440500379E-1,2.523000002E0,9.487050056E0,9.831868501E0
2.633393827E0,-5.440500379E-1,2.520000219E0,9.472050667E0,9.816625458E0
2.635880367E0,-5.419500470E-1,2.523000002E0,9.453000069E0,9.798900406E0
2.638367135E0,-5.419500470E-1,2.520000219E0,9.453000069E0,9.798128457E0
2.640853843E0,-5.299500227E-1,2.523000002E0,9.453000069E0,9.798244043E0
2.643340610E0,-5.299500227E-1,2.527950048E0,9.436050415E0,9.783170545E0
2.645827151E0,-5.320500135E-1,2.530050039E0,9.427050591E0,9.775147736E0
2.648313918E0,-5.299500227E-1,2.535000086E0,9.429000854E0,9.778196642E0
2.650800612E0,-5.350500345E-1,2.542050123E0,9.445950508E0,9.796646282E0
2.653287365E0,-5.299500227E-1,2.547000170E0,9.465000153E0,9.816021841E0
2.655774135E0,-5.230500102E-1,2.551950216E0,9.477000237E0,9.828507756E0
2.658260675E0,-5.230500102E-1,2.554050207E0,9.490950584E0,9.842504598E0
2.660747442E0,-5.250000358E-1,2.551950216E0,9.514950752E0,9.865209717E0
2.663234137E0,-5.200500488E-1,2.536950111E0,9.514950752E0,9.861077818E0
2.665720904E0,-5.149500370E-1,2.535000086E0,9.501000404E0,9.846847600E0
2.668207444E0,-5.200500488E-1,2.536950111E0,9.502950668E0,9.849499445E0
2.670694212E0,-5.299500227E-1,2.536950111E0,9.511050224E0,9.857841511E0
2.673180906E0,-5.200500488E-1,2.542050123E0,9.525000572E0,9.872087256E0
2.675667673E0,-5.179499984E-1,2.536950111E0,9.517950058E0,9.863861383E0
2.678154228E0,-5.269500017E-1,2.530050039E0,9.502950668E0,9.848091232E0
2.680640995E0,-5.230500102E-1,2.536950111E0,9.501000404E0,9.847776697E0
2.683127689E0,-5.200500488E-1,2.547000170E0,9.490950584E0,9.840518529E0
2.685614456E0,-5.149500370E-1,2.554050207E0,9.472050667E0,9.823853105E0
2.688100997E0,-5.230500102E-1,2.560950041E0,9.457950592E0,9.812485711E0
2.690587769E0,-5.149500370E-1,2.578050137E0,9.440999985E0,9.800203914E0
2.693074538E0,-5.059500337E-1,2.575050116E0,9.420000076E0,9.778715149E0
2.695561233E0,-5.080500245E-1,2.566050053E0,9.417000771E0,9.773567988E0
2.698047771E0,-5.080500245E-1,2.578050137E0,9.421950340E0,9.781493012E0
2.700534538E0,-5.130000114E-1,2.571000099E0,9.436050415E0,9.793480380E0
2.703021303E0,-5.130000114E-1,2.563050032E0,9.453000069E0,9.807731887E0
2.705507997E0,-5.110500455E-1,2.566050053E0,9.469950676E0,9.824751947E0
2.707994535E0,-5.059500337E-1,2.563050032E0,9.493950844E0,9.846842820E0
2.710481303E0,-5.080500245E-1,2.566050053E0,9.511050224E0,9.864218371E0
2.712968072E0,-5.149500370E-1,2.568000078E0,9.514950752E0,9.868844196E0
2.715454752E0,-5.130000114E-1,2.559000015E0,9.514950752E0,9.866404508E0
2.717941519E0,-5.179499984E-1,2.559000015E0,9.513000488E0,9.864782388E0
2.720428289E0,-5.179499984E-1,2.563050032E0,9.499050140E0,9.852383023E0
2.722914829E0,-5.110500455E-1,2.556000233E0,9.484050751E0,9.835727120E0
2.725401519E0,-5.149500370E-1,2.548950195E0,9.487050056E0,9.836993413E0
2.727888289E0,-5.200500488E-1,2.544000149E0,9.487050056E0,9.835980255E0
2.730374829E0,-5.149500370E-1,2.535000086E0,9.477000237E0,9.823692405E0
2.732861596E0,-5.130000114E-1,2.512950182E0,9.481950760E0,9.822702166E0
2.735348291E0,-5.149500370E-1,2.499000072E0,9.475050926E0,9.812581972E0
2.737834829E0,-5.200500488E-1,2.494050026E0,9.465000153E0,9.801885812E0
2.740321591E0,-5.200500488E-1,2.494050026E0,9.457950592E0,9.795078713E0
2.742808361E0,-5.250000358E-1,2.491950035E0,9.442950249E0,9.780324607E0
2.745295130E0,-5.299500227E-1,2.487000227E0,9.436050415E0,9.772669266E0
2.747781824E0,-5.250000358E-1,2.484000206E0,9.445950508E0,9.781199470E0
2.750268363E0,-5.250000358E-1,2.479950190E0,9.451050758E0,9.785097773E0
2.752754976E0,-5.269500017E-1,2.484000206E0,9.442950249E0,9.778406963E0
2.755241670E0,-5.250000358E-1,2.491950035E0,9.448050499E0,9.785249013E0
2.757728437E0,-5.200500488E-1,2.488950014E0,9.454950333E0,9.790884026E0
2.760215207E0,-5.130000114E-1,2.503950119E0,9.457950592E0,9.797232498E0
2.762701747E0,-5.130000114E-1,2.511000156E0,9.466950417E0,9.807723537E0
2.765188422E0,-5.130000114E-1,2.506050110E0,9.487050056E0,9.825862554E0
2.767675192E0,-5.149500370E-1,2.518050194E0,9.501000404E0,9.842497600E0
2.770161961E0,-5.149500370E-1,2.530050039E0,9.514950752E0,9.859037202E0
2.772648501E0,-5.200500488E-1,2.527950048E0,9.529950142E0,9.873243297E0
2.775135269E0,-5.200500488E-1,2.530050039E0,9.526950836E0,9.870886358E0
2.777621963E0,-5.149500370E-1,2.542050123E0,9.520050049E0,9.867043392E0
2.780108730E0,-5.230500102E-1,2.547000170E0,9.511050224E0,9.860064277E0
2.782595271E0,-5.269500017E-1,2.547000170E0,9.508050919E0,9.857378883E0
2.785082038E0,-5.250000358E-1,2.548950195E0,9.501000404E0,9.850978673E0
2.787568732E0,-5.299500227E-1,2.548950195E0,9.502950668E0,9.853124658E0
2.790055495E0,-5.299500227E-1,2.551950216E0,9.508050919E0,9.858819869E0
2.792542036E0,-5.250000358E-1,2.554050207E0,9.496050835E0,9.847526540E0
2.795028803E0,-5.230500102E-1,2.551950216E0,9.484050751E0,9.835306292E0
2.797515572E0,-5.149500370E-1,2.556000233E0,9.475050926E0,9.827252962E0
2.800002267E0,-5.250000358E-1,2.568000078E0,9.465000153E0,9.821225857E0
2.802488824E0,-5.299500227E-1,2.566050053E0,9.463050842E0,9.819103378E0
2.804975591E0,-5.269500017E-1,2.551950216E0,9.481950760E0,9.833489534E0
2.807462286E0,-5.269500017E-1,2.551950216E0,9.487050056E0,9.838406628E0
2.809949053E0,-5.200500488E-1,2.559000015E0,9.481950760E0,9.834954161E0
2.812435822E0,-5.230500102E-1,2.547000170E0,9.493950844E0,9.843571192E0
2.814922358E0,-5.299500227E-1,2.539950132E0,9.490950584E0,9.839224395E0
2.817409048E0,-5.299500227E-1,2.554050207E0,9.489000320E0,9.840993170E0
2.819895817E0,-5.200500488E-1,2.547000170E0,9.489000320E0,9.838637558E0
2.822382358E0,-5.200500488E-1,2.536950111E0,9.487050056E0,9.834159176E0
2.824869125E0,-5.250000358E-1,2.532000065E0,9.477000237E0,9.823450659E0
2.827355894E0,-5.200500488E-1,2.523000002E0,9.475050926E0,9.818990331E0
2.829842588E0,-5.230500102E-1,2.530050039E0,9.469950676E0,9.816043007E0
2.832329356E0,-5.269500017E-1,2.532000065E0,9.454950333E0,9.802284755E0
2.834815896E0,-5.200500488E-1,2.518050194E0,9.457950592E0,9.801217181E0
2.837302663E0,-5.200500488E-1,2.518050194E0,9.457950592E0,9.801217181E0
2.839789358E0,-5.269500017E-1,2.520000219E0,9.448050499E0,9.792534689E0
2.842275896E0,-5.250000358E-1,2.515950203E0,9.448050499E0,9.791388497E0
2.844762663E0,-5.370000005E-1,2.518050194E0,9.454950333E0,9.799236275E0
2.847249358E0,-5.370000005E-1,2.511000156E0,9.453000069E0,9.795544961E0
2.849736125E0,-5.320500135E-1,2.499000072E0,9.454950333E0,9.794088236E0
2.852222908E0,-5.350500345E-1,2.503950119E0,9.469950676E0,9.809995441E0
2.854709677E0,-5.250000358E-1,2.508000135E0,9.475050926E0,9.815410321E0
2.857196218E0,-5.269500017E-1,2.511000156E0,9.477000237E0,9.818163350E0
2.859682908E0,-5.370000005E-1,2.518050194E0,9.487050056E0,9.830211826E0
2.862169677E0,-5.419500470E-1,2.530050039E0,9.487050056E0,9.833564045E0
2.864656452E0,-5.350500345E-1,2.535000086E0,9.481950760E0,9.829541911E0
2.867142992E0,-5.269500017E-1,2.523000002E0,9.472050667E0,9.816463169E0
2.869629682E0,-5.320500135E-1,2.530050039E0,9.477000237E0,9.823327537E0
2.872116452E0,-5.299500227E-1,2.551950216E0,9.469950676E0,9.822080367E0
2.874603221E0,-5.320500135E-1,2.548950195E0,9.448050499E0,9.800300125E0
2.877089751E0,-5.440500379E-1,2.542050123E0,9.451050758E0,9.802059463E0
2.879576442E0,-5.440500379E-1,2.554050207E0,9.454950333E0,9.808937185E0
2.882063211E0,-5.370000005E-1,2.554050207E0,9.472050667E0,9.825033603E0
2.884549980E0,-5.350500345E-1,2.544000149E0,9.481950760E0,9.831866837E0
2.887036521E0,-5.350500345E-1,2.536950111E0,9.477000237E0,9.825269863E0
2.889523304E0,-5.350500345E-1,2.539950132E0,9.469950676E0,9.819245950E0
2.892009998E0,-5.389500260E-1,2.544000149E0,9.477000237E0,9.827305702E0
2.894496765E0,-5.320500135E-1,2.542050123E0,9.484050751E0,9.833225040E0
2.896983306E0,-5.250000358E-1,2.542050123E0,9.490950584E0,9.839501352E0
2.899470073E0,-5.230500102E-1,2.554050207E0,9.508050919E0,9.858995184E0
2.901956776E0,-5.250000358E-1,2.566050053E0,9.514950752E0,9.868866486E0
2.904443544E0,-5.269500017E-1,2.554050207E0,9.520050049E0,9.870775132E0
2.906930084E0,-5.250000358E-1,2.551950216E0,9.522000313E0,9.872009162E0
2.909416851E0,-5.179499984E-1,2.578050137E0,9.513000488E0,9.869741283E0
2.911903607E0,-5.200500488E-1,2.587050200E0,9.496050835E0,9.855874504E0
2.914390301E0,-5.200500488E-1,2.583000183E0,9.484050751E0,9.843249496E0
2.916876839E0,-5.130000114E-1,2.583000183E0,9.469950676E0,9.829294215E0
2.919363607E0,-5.149500370E-1,2.584950209E0,9.457950592E0,9.818348666E0
2.921850301E0,-5.110500455E-1,2.568000078E0,9.453000069E0,9.808924857E0
2.924337053E0,-4.990500212E-1,2.559000015E0,9.451050758E0,9.804075297E0
2.926823822E0,-4.939500093E-1,2.556000233E0,9.442950249E0,9.795225020E0
2.929310363E0,-4.990500212E-1,2.532000065E0,9.445950508E0,9.792142577E0
2.931797053E0,-5.080500245E-1,2.518050194E0,9.463050842E0,9.805509821E0
2.934283899E0,-5.179499984E-1,2.515950203E0,9.460050583E0,9.802593262E0
2.936770363E0,-5.149500370E-1,2.512950182E0,9.466950417E0,9.808325155E0
2.939257130E0,-5.149500370E-1,2.506050110E0,9.481950760E0,9.821041233E0
2.941743899E0,-5.200500488E-1,2.500950098E0,9.489000320E0,9.826816907E0
2.944230594E0,-5.080500245E-1,2.499000072E0,9.481950760E0,9.818885191E0
2.946717361E0,-4.960500300E-1,2.500950098E0,9.466950417E0,9.804283106E0
2.949204055E0,-5.010000467E-1,2.511000156E0,9.478950500E0,9.818687561E0
2.951690823E0,-5.010000467E-1,2.524950027E0,9.493950844E0,9.836741143E0
2.954177517E0,-4.960500300E-1,2.520000219E0,9.496050835E0,9.837247999E0
2.956664284E0,-5.029500127E-1,2.518050194E0,9.505950928E0,9.846656211E0
2.959150825E0,-5.029500127E-1,2.527950048E0,9.501000404E0,9.844414602E0
2.961637592E0,-4.960500300E-1,2.530050039E0,9.478950500E0,9.823325375E0
2.964124286E0,-5.080500245E-1,2.524950027E0,9.472050667E0,9.815968180E0
2.966610825E0,-5.149500370E-1,2.518050194E0,9.484050751E0,9.826137031E0
2.969097823E0,-5.080500245E-1,2.520000219E0,9.472050667E0,9.814696112E0
2.971584363E0,-5.110500455E-1,2.520000219E0,9.469950676E0,9.812825233E0
2.974071130E0,-5.130000114E-1,2.518050194E0,9.481950760E0,9.824008143E0
2.976557825E0,-5.149500370E-1,2.512950182E0,9.466950417E0,9.808325155E0
2.979044363E0,-5.200500488E-1,2.506050110E0,9.469950676E0,9.809725022E0
2.981531130E0,-5.299500227E-1,2.506050110E0,9.481950760E0,9.821839155E0
2.984017811E0,-5.370000005E-1,2.500950098E0,9.478950500E0,9.818025412E0
2.986504578E0,-5.320500135E-1,2.503950119E0,9.478950500E0,9.818520561E0
2.988991347E0,-5.299500227E-1,2.506050110E0,9.489000320E0,9.828644935E0
2.991477888E0,-5.350500345E-1,2.506050110E0,9.501000404E0,9.840506815E0
2.993964578E0,-5.370000005E-1,2.506050110E0,9.511050224E0,9.850316367E0
2.996451332E0,-5.350500345E-1,2.511000156E0,9.502950668E0,9.843651341E0
2.998938102E0,-5.320500135E-1,2.527950048E0,9.490950584E0,9.836246828E0
3.001424642E0,-5.299500227E-1,2.544000149E0,9.489000320E0,9.838389648E0
3.003911409E0,-5.299500227E-1,2.554050207E0,9.469950676E0,9.822626191E0
3.006398104E0,-5.320500135E-1,2.556000233E0,9.451050758E0,9.805028039E0
3.008884861E0,-5.320500135E-1,2.563050032E0,9.442950249E0,9.799061796E0
3.011371401E0,-5.320500135E-1,2.571000099E0,9.448050499E0,9.806058176E0
3.013858168E0,-5.350500345E-1,2.572950125E0,9.457950592E0,9.816271201E0
3.016344863E0,-5.320500135E-1,2.571000099E0,9.451050758E0,9.808948933E0
3.018831630E0,-5.299500227E-1,2.559000015E0,9.463050842E0,9.817263333E0
3.021318185E0,-5.470499992E-1,2.542050123E0,9.475050926E0,9.825368827E0
3.023804953E0,-5.470499992E-1,2.532000065E0,9.469950676E0,9.817853830E0
3.026291647E0,-5.389500260E-1,2.520000219E0,9.472050667E0,9.816344130E0
3.028778414E0,-5.440500379E-1,2.512950182E0,9.460050583E0,9.803237531E0
3.031265184E0,-5.470499992E-1,2.520000219E0,9.460050583E0,9.805214013E0
3.033751738E0,-5.470499992E-1,2.535000086E0,9.466950417E0,9.815734273E0
3.036238505E0,-5.440500379E-1,2.530050039E0,9.472050667E0,9.819210125E0
3.038725200E0,-5.370000005E-1,2.539950132E0,9.477000237E0,9.826151289E0
3.041211738E0,-5.350500345E-1,2.556000233E0,9.472050667E0,9.825434319E0
3.043698505E0,-5.389500260E-1,2.560950041E0,9.472050667E0,9.826936251E0
3.046185270E0,-5.350500345E-1,2.563050032E0,9.477000237E0,9.832041369E0
3.048671965E0,-5.269500017E-1,2.566050053E0,9.466950417E0,9.822700208E0
3.051158732E0,-5.320500135E-1,2.572950125E0,9.472050667E0,9.829694471E0
3.053645272E0,-5.320500135E-1,2.568000078E0,9.472050667E0,9.828399944E0
3.056131977E0,-5.299500227E-1,2.566050053E0,9.457950592E0,9.814188163E0
3.058618746E0,-5.269500017E-1,2.571000099E0,9.457950592E0,9.815322064E0
3.061105515E0,-5.200500488E-1,2.568000078E0,9.463050842E0,9.819083852E0
3.063592056E0,-5.200500488E-1,2.563050032E0,9.466950417E0,9.821549150E0
3.066078837E0,-5.230500102E-1,2.559000015E0,9.477000237E0,9.830340578E0
3.068565531E0,-5.200500488E-1,2.556000233E0,9.487050056E0,9.839090812E0
3.071052299E0,-5.230500102E-1,2.560950041E0,9.487050056E0,9.840536835E0
3.073538839E0,-5.269500017E-1,2.556000233E0,9.493950844E0,9.846111726E0
3.076025606E0,-5.230500102E-1,2.548950195E0,9.502950668E0,9.852755950E0
3.078512355E0,-5.179499984E-1,2.548950195E0,9.502950668E0,9.852486524E0
3.080999050E0,-5.200500488E-1,2.548950195E0,9.490950584E0,9.841023430E0
3.083485817E0,-5.250000358E-1,2.554050207E0,9.465000153E0,9.817587554E0
3.085972357E0,-5.250000358E-1,2.559000015E0,9.448050499E0,9.802538668E0
3.088459125E0,-5.230500102E-1,2.559000015E0,9.433950424E0,9.788844824E0
3.090945809E0,-5.200500488E-1,2.556000233E0,9.415050507E0,9.769686038E0
3.093432576E0,-5.179499984E-1,2.559000015E0,9.403050423E0,9.758796572E0
3.095919117E0,-5.230500102E-1,2.566050053E0,9.405000687E0,9.762798375E0
3.098405884E0,-5.250000358E-1,2.560950041E0,9.420000076E0,9.776016141E0
3.100892607E0,-5.269500017E-1,2.551950216E0,9.448050499E0,9.800805296E0
3.103379375E0,-5.230500102E-1,2.547000170E0,9.465000153E0,9.815651739E0
3.105865915E0,-5.179499984E-1,2.544000149E0,9.481950760E0,9.830951082E0
3.108352682E0,-5.149500370E-1,2.536950111E0,9.489000320E0,9.835772287E0
3.110839377E0,-5.110500455E-1,2.535000086E0,9.478950500E0,9.825370231E0
3.113326188E0,-5.179499984E-1,2.536950111E0,9.499050140E0,9.845625508E0
3.115812957E0,-5.179499984E-1,2.530050039E0,9.501000404E0,9.845731770E0
3.118299497E0,-5.110500455E-1,2.535000086E0,9.496050835E0,9.841868676E0
3.120786265E0,-5.029500127E-1,2.535000086E0,9.505950928E0,9.851004375E0
3.123272959E0,-5.080500245E-1,2.530050039E0,9.526950836E0,9.870261408E0
3.125759468E0,-5.130000114E-1,2.524950027E0,9.537000656E0,9.878913056E0
3.128246236E0,-5.029500127E-1,2.527950048E0,9.529950142E0,9.872357361E0
3.130732930E0,-5.010000467E-1,2.542050123E0,9.526950836E0,9.872983952E0
3.133219697E0,-5.059500337E-1,2.544000149E0,9.511050224E0,9.858397363E0
3.135706238E0,-5.029500127E-1,2.547000170E0,9.484050751E0,9.832974485E0
3.138193010E0,-5.029500127E-1,2.547000170E0,9.475050926E0,9.824294307E0
3.140679704E0,-5.080500245E-1,2.547000170E0,9.460050583E0,9.810090811E0
3.143166472E0,-5.080500245E-1,2.548950195E0,9.460050583E0,9.810597278E0
3.145653241E0,-5.080500245E-1,2.547000170E0,9.469950676E0,9.819638002E0
3.148139781E0,-5.080500245E-1,2.536950111E0,9.481950760E0,9.828612359E0
3.150626562E0,-5.130000114E-1,2.530050039E0,9.484050751E0,9.829116993E0
3.153113257E0,-5.149500370E-1,2.530050039E0,9.487050056E0,9.832112973E0
3.155600024E0,-5.149500370E-1,2.524950027E0,9.460050583E0,9.804749013E0
3.158086564E0,-5.149500370E-1,2.515950203E0,9.412050247E0,9.756119557E0
3.160573327E0,-5.179499984E-1,2.515950203E0,9.396000862E0,9.740796160E0
3.163060096E0,-5.269500017E-1,2.518050194E0,9.393000603E0,9.738927734E0
3.165546790E0,-5.320500135E-1,2.506050110E0,9.412050247E0,9.754488927E0
3.168033558E0,-5.419500470E-1,2.499000072E0,9.445950508E0,9.785943604E0
3.170520098E0,-5.370000005E-1,2.500950098E0,9.466950417E0,9.806440261E0
3.173006855E0,-5.179499984E-1,2.500950098E0,9.469950676E0,9.808312260E0
3.175493550E0,-5.130000114E-1,2.494050026E0,9.463050842E0,9.799631921E0
3.177980317E0,-5.230500102E-1,2.487000227E0,9.469950676E0,9.805035301E0
3.180466857E0,-5.320500135E-1,2.487000227E0,9.489000320E0,9.823918486E0
3.182953548E0,-5.200500488E-1,2.499000072E0,9.487050056E0,9.824437500E0
3.185440317E0,-5.200500488E-1,2.491950035E0,9.477000237E0,9.812940462E0
3.187926857E0,-5.389500260E-1,2.484000206E0,9.487050056E0,9.821651741E0
3.190413624E0,-5.440500379E-1,2.503950119E0,9.502950668E0,9.842348706E0
3.192900394E0,-5.370000005E-1,2.512950182E0,9.502950668E0,9.844255128E0
3.195387088E0,-5.350500345E-1,2.512950182E0,9.487050056E0,9.828800330E0
3.197873870E0,-5.350500345E-1,2.520000219E0,9.472050667E0,9.816130779E0
3.200360411E0,-5.350500345E-1,2.524950027E0,9.454950333E0,9.800904906E0
3.202847178E0,-5.470499992E-1,2.530050039E0,9.448050499E0,9.796227597E0
3.205333947E0,-5.389500260E-1,2.536950111E0,9.454950333E0,9.804216888E0
3.207820627E0,-5.389500260E-1,2.542050123E0,9.463050842E0,9.813348929E0
3.210307394E0,-5.419500470E-1,2.542050123E0,9.487050056E0,9.836658348E0
3.212793934E0,-5.419500470E-1,2.544000149E0,9.505950928E0,9.855391908E0
3.215280625E0,-5.440500379E-1,2.544000149E0,9.496050835E0,9.845959001E0
3.217767394E0,-5.370000005E-1,2.535000086E0,9.487050056E0,9.834567261E0
3.220253934E0,-5.389500260E-1,2.530050039E0,9.487050056E0,9.833399163E0
3.222740701E0,-5.440500379E-1,2.527950048E0,9.490950584E0,9.836903216E0
3.225227396E0,-5.419500470E-1,2.530050039E0,9.493950844E0,9.840221831E0
3.227714163E0,-5.440500379E-1,2.530050039E0,9.478950500E0,9.825866182E0
3.230200932E0,-5.419500470E-1,2.547000170E0,9.465000153E0,9.816677014E0
3.232687468E0,-5.350500345E-1,2.551950216E0,9.469950676E0,9.822356858E0
3.235174235E0,-5.350500345E-1,2.542050123E0,9.487050056E0,9.836280605E0
3.237660929E0,-5.299500227E-1,2.544000149E0,9.478950500E0,9.828697084E0
3.240147697E0,-5.200500488E-1,2.551950216E0,9.466950417E0,9.818658368E0
3.242634466E0,-5.250000358E-1,2.556000233E0,9.472050667E0,9.824892165E0
3.245121002E0,-5.250000358E-1,2.559000015E0,9.454950333E0,9.809189157E0
3.247607693E0,-5.059500337E-1,2.559000015E0,9.429000854E0,9.783175539E0
3.250094462E0,-5.059500337E-1,2.551950216E0,9.417000771E0,9.769766571E0
3.252581231E0,-5.179499984E-1,2.544000149E0,9.433950424E0,9.784662977E0
3.255067771E0,-5.149500370E-1,2.544000149E0,9.465000153E0,9.814445384E0
3.257554462E0,-5.149500370E-1,2.542050123E0,9.487050056E0,9.835207733E0
3.260041231E0,-5.200500488E-1,2.530050039E0,9.493950844E0,9.839039988E0
3.262527772E0,-5.130000114E-1,2.523000002E0,9.490950584E0,9.833963647E0
3.265014539E0,-5.110500455E-1,2.523000002E0,9.484050751E0,9.827203051E0
3.267501233E0,-5.149500370E-1,2.523000002E0,9.475050926E0,9.818721536E0
3.269988019E0,-5.110500455E-1,2.520000219E0,9.472050667E0,9.814851863E0
3.272474789E0,-5.130000114E-1,2.523000002E0,9.475050926E0,9.818619459E0
3.274961329E0,-5.230500102E-1,2.527950048E0,9.465000153E0,9.810725796E0
3.277448096E0,-5.230500102E-1,2.523000002E0,9.477000237E0,9.821030690E0
3.279934791E0,-5.179499984E-1,2.523000002E0,9.493950844E0,9.837118675E0
3.282421572E0,-5.179499984E-1,2.523000002E0,9.487050056E0,9.830458788E0
3.284908341E0,-5.149500370E-1,2.524950027E0,9.484050751E0,9.827907449E0
3.287394881E0,-5.130000114E-1,2.535000086E0,9.475050926E0,9.821709856E0
3.289881649E0,-5.149500370E-1,2.536950111E0,9.466950417E0,9.814501495E0
3.292368343E0,-5.130000114E-1,2.542050123E0,9.466950417E0,9.815718926E0
3.294855125E0,-5.110500455E-1,2.548950195E0,9.457950592E0,9.808728187E0
3.297341666E0,-5.179499984E-1,2.556000233E0,9.465000153E0,9.817720574E0
3.299828433E0,-5.250000358E-1,2.556000233E0,9.484050751E0,9.836461806E0
3.302315127E0,-5.200500488E-1,2.559000015E0,9.481950760E0,9.834954161E0
3.304801637E0,-5.200500488E-1,2.559000015E0,9.477000237E0,9.830181413E0
3.307288404E0,-5.250000358E-1,2.547000170E0,9.477000237E0,9.827327632E0
3.309775173E0,-5.250000358E-1,2.544000149E0,9.469950676E0,9.819751911E0
3.312261868E0,-5.230500102E-1,2.548950195E0,9.472050667E0,9.822956390E0
3.314748635E0,-5.269500017E-1,2.542050123E0,9.472050667E0,9.821376633E0
3.317235218E0,-5.419500470E-1,2.532000065E0,9.481950760E0,9.829146677E0
3.319721985E0,-5.470499992E-1,2.532000065E0,9.499050140E0,9.845925127E0
3.322208680E0,-5.470499992E-1,2.535000086E0,9.508050919E0,9.855380328E0
3.324695447E0,-5.440500379E-1,2.532000065E0,9.513000488E0,9.859218684E0
3.327181988E0,-5.419500470E-1,2.532000065E0,9.499050140E0,9.845643085E0
3.329668755E0,-5.440500379E-1,2.542050123E0,9.469950676E0,9.820283859E0
3.332155449E0,-5.419500470E-1,2.556000233E0,9.440999985E0,9.795883204E0
3.334642216E0,-5.440500379E-1,2.568000078E0,9.429000854E0,9.787577431E0
3.337128757E0,-5.440500379E-1,2.575050116E0,9.429000854E0,9.789429537E0
3.339615524E0,-5.320500135E-1,2.578050137E0,9.429000854E0,9.789559583E0
3.342102189E0,-5.350500345E-1,2.580000162E0,9.429000854E0,9.790236794E0
3.344588957E0,-5.389500260E-1,2.575050116E0,9.433950424E0,9.793914990E0
3.347075497E0,-5.320500135E-1,2.563050032E0,9.442950249E0,9.799061796E0
3.349562264E0,-5.230500102E-1,2.556000233E0,9.454950333E0,9.808302824E0
3.352049033E0,-5.200500488E-1,2.556000233E0,9.457950592E0,9.811035554E0
3.354535733E0,-5.269500017E-1,2.548950195E0,9.477000237E0,9.827937570E0
3.357022500E0,-5.250000358E-1,2.542050123E0,9.489000320E0,9.837620187E0
3.359509041E0,-5.230500102E-1,2.547000170E0,9.475050926E0,9.825343823E0
3.361995731E0,-5.250000358E-1,2.544000149E0,9.489000320E0,9.838124256E0
3.364482500E0,-5.269500017E-1,2.535000086E0,9.505950928E0,9.852258867E0
3.366969278E0,-5.250000358E-1,2.523000002E0,9.490950584E0,9.834596944E0
3.369455819E0,-5.200500488E-1,2.512950182E0,9.489000320E0,9.829877810E0
3.371942586E0,-5.149500370E-1,2.518050194E0,9.493950844E0,9.835692804E0
3.374429355E0,-5.029500127E-1,2.524950027E0,9.478950500E0,9.822363969E0
3.376916065E0,-4.960500300E-1,2.523000002E0,9.469950676E0,9.812826323E0
3.379402603E0,-5.010000467E-1,2.518050194E0,9.472050667E0,9.813833179E0
3.381889370E0,-5.149500370E-1,2.523000002E0,9.475050926E0,9.818721536E0
3.384376065E0,-5.200500488E-1,2.527950048E0,9.475050926E0,9.820263416E0
3.386862832E0,-5.200500488E-1,2.520000219E0,9.472050667E0,9.815324599E0
3.389349357E0,-5.130000114E-1,2.511000156E0,9.460050583E0,9.801063607E0
3.391836125E0,-5.080500245E-1,2.515950203E0,9.460050583E0,9.802075152E0
3.394322894E0,-5.059500337E-1,2.523000002E0,9.460050583E0,9.803778429E0
3.396809588E0,-5.029500127E-1,2.524950027E0,9.448050499E0,9.792547656E0
3.399296355E0,-5.080500245E-1,2.532000065E0,9.457950592E0,9.804181177E0
3.401782892E0,-5.110500455E-1,2.536950111E0,9.465000153E0,9.812416415E0
3.404269659E0,-5.059500337E-1,2.523000002E0,9.469950676E0,9.813331761E0
3.406756353E0,-5.010000467E-1,2.506050110E0,9.477000237E0,9.815539806E0
3.409243121E0,-5.029500127E-1,2.499000072E0,9.478950500E0,9.815725275E0
3.411729661E0,-5.200500488E-1,2.499000072E0,9.478950500E0,9.816616322E0
3.414216408E0,-5.149500370E-1,2.500950098E0,9.472050667E0,9.810181893E0
3.416703177E0,-5.110500455E-1,2.503950119E0,9.472050667E0,9.810743202E0
3.419189872E0,-5.130000114E-1,2.491950035E0,9.466950417E0,9.802863570E0
3.421676639E0,-5.130000114E-1,2.487000227E0,9.454950333E0,9.790016595E0
3.424163180E0,-5.230500102E-1,2.494050026E0,9.460050583E0,9.797266143E0
3.426649880E0,-5.269500017E-1,2.494050026E0,9.472050667E0,9.809062426E0
3.429136649E0,-5.230500102E-1,2.499000072E0,9.472050667E0,9.810113481E0
3.431623190E0,-5.250000358E-1,2.500950098E0,9.465000153E0,9.803907605E0
3.434109957E0,-5.299500227E-1,2.499000072E0,9.463050842E0,9.801794715E0
3.436596651E0,-5.299500227E-1,2.499000072E0,9.463050842E0,9.801794715E0
3.439083408E0,-5.389500260E-1,2.506050110E0,9.454950333E0,9.796266640E0
3.441569949E0,-5.370000005E-1,2.511000156E0,9.460050583E0,9.802349097E0
3.444056716E0,-5.230500102E-1,2.515950203E0,9.465000153E0,9.807640625E0
3.446543485E0,-5.320500135E-1,2.520000219E0,9.465000153E0,9.809164399E0
3.449030180E0,-5.389500260E-1,2.523000002E0,9.465000153E0,9.810312127E0
3.451516933E0,-5.440500379E-1,2.535000086E0,9.454950333E0,9.803994169E0
3.454003473E0,-5.389500260E-1,2.542050123E0,9.457950592E0,9.808430831E0
3.456490241E0,-5.299500227E-1,2.542050123E0,9.477000237E0,9.826311584E0
3.458976935E0,-5.269500017E-1,2.547000170E0,9.489000320E0,9.839004688E0
3.461463702E0,-5.269500017E-1,2.556000233E0,9.484050751E0,9.836566074E0
3.463950228E0,-5.149500370E-1,2.566050053E0,9.487050056E0,9.841438167E0
3.466436995E0,-5.130000114E-1,2.575050116E0,9.493950844E0,9.850337798E0
3.468923764E0,-5.130000114E-1,2.583000183E0,9.496050835E0,9.854442674E0
3.471410458E0,-5.200500488E-1,2.587050200E0,9.493950844E0,9.853851197E0
3.473896997E0,-5.230500102E-1,2.580000162E0,9.502950668E0,9.860834323E0
3.476383764E0,-5.179499984E-1,2.572950125E0,9.517950058E0,9.873181749E0
3.478870458E0,-5.250000358E-1,2.572950125E0,9.513000488E0,9.868782887E0
3.481357226E0,-5.320500135E-1,2.580000162E0,9.499050140E0,9.857557082E0
3.483843995E0,-5.269500017E-1,2.583000183E0,9.490950584E0,9.850264425E0
3.486330535E0,-5.250000358E-1,2.583000183E0,9.466950417E0,9.827037457E0
3.488817289E0,-5.250000358E-1,2.587050200E0,9.453000069E0,9.814665765E0
3.491303983E0,-5.350500345E-1,2.584950209E0,9.451050758E0,9.812777719E0
3.493790750E0,-5.389500260E-1,2.584950209E0,9.451050758E0,9.812991142E0
3.496277291E0,-5.370000005E-1,2.590050220E0,9.453000069E0,9.816106124E0
3.498764058E0,-5.350500345E-1,2.584950209E0,9.451050758E0,9.812777719E0
3.501250817E0,-5.299500227E-1,2.572950125E0,9.445950508E0,9.804432690E0
3.503737511E0,-5.269500017E-1,2.571000099E0,9.445950508E0,9.803759423E0
3.506224050E0,-5.350500345E-1,2.578050137E0,9.465000153E0,9.824400691E0
3.508710817E0,-5.320500135E-1,2.590050220E0,9.475050926E0,9.837074129E0
3.511197511E0,-5.269500017E-1,2.590050220E0,9.477000237E0,9.838677245E0
3.513684265E0,-5.350500345E-1,2.580000162E0,9.478950500E0,9.838352604E0
3.516170805E0,-5.350500345E-1,2.572950125E0,9.489000320E0,9.846191038E0
3.518657572E0,-5.320500135E-1,2.568000078E0,9.490950584E0,9.846615897E0
3.521144342E0,-5.350500345E-1,2.566050053E0,9.493950844E0,9.849162098E0
3.523631036E0,-5.299500227E-1,2.563050032E0,9.505950928E0,9.859674210E0
3.526117588E0,-5.269500017E-1,2.560950041E0,9.505950928E0,9.858967718E0
3.528604356E0,-5.320500135E-1,2.551950216E0,9.493950844E0,9.845335431E0
3.531091125E0,-5.320500135E-1,2.539950132E0,9.489000320E0,9.837456530E0
3.533577819E0,-5.269500017E-1,2.530050039E0,9.481950760E0,9.827828841E0
3.536064358E0,-5.370000005E-1,2.523000002E0,9.481950760E0,9.826560345E0
3.538551154E0,-5.419500470E-1,2.512950182E0,9.487050056E0,9.829178361E0
3.541037923E0,-5.350500345E-1,2.508000135E0,9.477000237E0,9.817834624E0
3.543524617E0,-5.350500345E-1,2.511000156E0,9.460050583E0,9.802242466E0
3.546011385E0,-5.419500470E-1,2.496000051E0,9.439050674E0,9.778517462E0
3.548497925E0,-5.389500260E-1,2.491950035E0,9.440999985E0,9.779200520E0
3.550984697E0,-5.419500470E-1,2.496000051E0,9.448050499E0,9.787205134E0
3.553471467E0,-5.440500379E-1,2.499000072E0,9.457950592E0,9.797643656E0
3.555958161E0,-5.350500345E-1,2.496000051E0,9.469950676E0,9.807969239E0
3.558444928E0,-5.320500135E-1,2.496000051E0,9.472050667E0,9.809833704E0
3.560931469E0,-5.320500135E-1,2.494050026E0,9.466950417E0,9.804412932E0
3.563418159E0,-5.370000005E-1,2.491950035E0,9.472050667E0,9.809073749E0
3.565904928E0,-5.269500017E-1,2.491950035E0,9.478950500E0,9.815191994E0
3.568391697E0,-5.230500102E-1,2.487000227E0,9.477000237E0,9.811844114E0
3.570878238E0,-5.250000358E-1,2.487000227E0,9.469950676E0,9.805139518E0
3.573365005E0,-5.200500488E-1,2.484000206E0,9.460050583E0,9.794552879E0
3.575851699E0,-5.320500135E-1,2.487000227E0,9.454950333E0,9.791033303E0
3.578338467E0,-5.370000005E-1,2.487000227E0,9.448050499E0,9.784640891E0
3.580825007E0,-5.200500488E-1,2.499000072E0,9.451050758E0,9.789678945E0
3.583311774E0,-5.080500245E-1,2.500950098E0,9.457950592E0,9.796208227E0
3.585798469E0,-5.110500455E-1,2.494050026E0,9.466950417E0,9.803295766E0
3.588285250E0,-5.130000114E-1,2.503950119E0,9.481950760E0,9.820403526E0
3.590771790E0,-5.130000114E-1,2.515950203E0,9.489000320E0,9.830274743E0
3.593258558E0,-5.110500455E-1,2.512950182E0,9.499050140E0,9.839107903E0
3.595745252E0,-5.080500245E-1,2.512950182E0,9.502950668E0,9.842718367E0
3.598232019E0,-5.149500370E-1,2.523000002E0,9.493950844E0,9.836961176E0
3.600718793E0,-5.130000114E-1,2.523000002E0,9.484050751E0,9.827304649E0
3.603205334E0,-5.130000114E-1,2.515950203E0,9.478950500E0,9.820574170E0
3.605692101E0,-5.179499984E-1,2.518050194E0,9.481950760E0,9.824267871E0
3.608178795E0,-5.230500102E-1,2.523000002E0,9.484050751E0,9.827834399E0
3.610665563E0,-5.269500017E-1,2.530050039E0,9.478950500E0,9.824934203E0
3.613152103E0,-5.230500102E-1,2.532000065E0,9.487050056E0,9.833042480E0
3.615638870E0,-5.179499984E-1,2.532000065E0,9.496050835E0,9.841457107E0
3.618125640E0,-5.200500488E-1,2.535000086E0,9.489000320E0,9.835537838E0
3.620612103E0,-5.130000114E-1,2.542050123E0,9.489000320E0,9.836987086E0
3.623098870E0,-5.110500455E-1,2.544000149E0,9.496050835E0,9.844190691E0
3.625585635E0,-5.149500370E-1,2.547000170E0,9.487050056E0,9.836488305E0
3.628072329E0,-5.179499984E-1,2.544000149E0,9.475050926E0,9.824296362E0
3.630559096E0,-5.200500488E-1,2.536950111E0,9.465000153E0,9.812889269E0
3.633045637E0,-5.299500227E-1,2.527950048E0,9.460050583E0,9.806321201E0
3.635532404E0,-5.299500227E-1,2.530050039E0,9.457950592E0,9.804837053E0
3.638019173E0,-5.200500488E-1,2.539950132E0,9.454950333E0,9.803972895E0
3.640505867E0,-5.250000358E-1,2.536950111E0,9.457950592E0,9.806353568E0
3.642992635E0,-5.299500227E-1,2.535000086E0,9.463050842E0,9.811034793E0
3.645479175E0,-5.230500102E-1,2.542050123E0,9.463050842E0,9.812488542E0
3.647965942E0,-5.130000114E-1,2.539950132E0,9.469950676E0,9.818069133E0
3.650452637E0,-5.149500370E-1,2.532000065E0,9.478950500E0,9.824800276E0
3.652939404E0,-5.230500102E-1,2.535000086E0,9.481950760E0,9.828896019E0
3.655426173E0,-5.179499984E-1,2.535000086E0,9.484050751E0,9.830651875E0
3.657912714E0,-5.179499984E-1,2.535000086E0,9.481950760E0,9.828625939E0
3.660399429E0,-5.149500370E-1,2.548950195E0,9.477000237E0,9.827301467E0
3.662886198E0,-5.110500455E-1,2.554050207E0,9.469950676E0,9.821624632E0
3.665372739E0,-5.110500455E-1,2.551950216E0,9.469950676E0,9.821078752E0
3.667859506E0,-5.149500370E-1,2.554050207E0,9.460050583E0,9.812283273E0
3.670346200E0,-5.269500017E-1,2.568000078E0,9.451050758E0,9.807887700E0
3.672832967E0,-5.230500102E-1,2.575050116E0,9.472050667E0,9.829761352E0
3.675319508E0,-5.110500455E-1,2.572950125E0,9.489000320E0,9.844916027E0
3.677806275E0,-5.080500245E-1,2.575050116E0,9.493950844E0,9.850081246E0
3.680292969E0,-5.110500455E-1,2.580000162E0,9.487050056E0,9.844881501E0
3.682779737E0,-5.110500455E-1,2.590050220E0,9.472050667E0,9.833070534E0
3.685266506E0,-5.110500455E-1,2.590050220E0,9.460050583E0,9.821511560E0
3.687753046E0,-5.029500127E-1,2.578050137E0,9.451050758E0,9.809264073E0
3.690239814E0,-5.110500455E-1,2.572950125E0,9.451050758E0,9.808343638E0
3.692726508E0,-5.200500488E-1,2.568000078E0,9.454950333E0,9.811277299E0
3.695213275E0,-5.179499984E-1,2.554050207E0,9.487050056E0,9.838473633E0
3.697699825E0,-5.250000358E-1,2.542050123E0,9.508050919E0,9.855996963E0
3.700186592E0,-5.350500345E-1,2.544000149E0,9.502950668E0,9.852120924E0
3.702673286E0,-5.350500345E-1,2.547000170E0,9.501000404E0,9.851015028E0
3.705160053E0,-5.269500017E-1,2.536950111E0,9.499050140E0,9.846103074E0
3.707646594E0,-5.230500102E-1,2.539950132E0,9.487050056E0,9.835092616E0
3.710133366E0,-5.250000358E-1,2.554050207E0,9.490950584E0,9.842608419E0
3.712620135E0,-5.250000358E-1,2.554050207E0,9.481950760E0,9.833930430E0
3.715106830E0,-5.350500345E-1,2.548950195E0,9.469950676E0,9.821577849E0
3.717593368E0,-5.350500345E-1,2.548950195E0,9.472050667E0,9.823602673E0
3.720080121E0,-5.299500227E-1,2.544000149E0,9.463050842E0,9.813364103E0
3.722566891E0,-5.389500260E-1,2.542050123E0,9.463050842E0,9.813348929E0
3.725053585E0,-5.370000005E-1,2.542050123E0,9.475050926E0,9.824814394E0
3.727540123E0,-5.269500017E-1,2.539950132E0,9.481950760E0,9.830382149E0
3.730026895E0,-5.299500227E-1,2.527950048E0,9.475050926E0,9.820792663E0
3.732513664E0,-5.350500345E-1,2.512950182E0,9.465000153E0,9.807518802E0
3.735000433E0,-5.350500345E-1,2.512950182E0,9.466950417E0,9.809400968E0
3.737486897E0,-5.389500260E-1,2.515950203E0,9.469950676E0,9.813278675E0
3.739973664E0,-5.470499992E-1,2.503950119E0,9.472050667E0,9.812684329E0
3.742460443E0,-5.490000248E-1,2.491950035E0,9.487050056E0,9.824221841E0
3.744947137E0,-5.419500470E-1,2.484000206E0,9.502950668E0,9.837176337E0
3.747433905E0,-5.350500345E-1,2.479950190E0,9.505950928E0,9.838675446E0
3.749920674E0,-5.269500017E-1,2.473050117E0,9.505950928E0,9.836501219E0
3.752407214E0,-5.200500488E-1,2.473050117E0,9.511050224E0,9.841062204E0
3.754893982E0,-5.269500017E-1,2.488950014E0,9.502950668E0,9.837612509E0
3.757380676E0,-5.299500227E-1,2.491950035E0,9.484050751E0,9.820279051E0
3.759867443E0,-5.250000358E-1,2.487000227E0,9.472050667E0,9.807167736E0
3.762354212E0,-5.269500017E-1,2.506050110E0,9.466950417E0,9.807197033E0
3.764840753E0,-5.250000358E-1,2.523000002E0,9.460050583E0,9.804780012E0
3.767327443E0,-5.250000358E-1,2.518050194E0,9.457950592E0,9.801481073E0
3.769814212E0,-5.200500488E-1,2.518050194E0,9.457950592E0,9.801217181E0
3.772300753E0,-5.179499984E-1,2.520000219E0,9.457950592E0,9.801607149E0
3.774787520E0,-5.250000358E-1,2.512950182E0,9.454950333E0,9.797276634E0
3.777274214E0,-5.269500017E-1,2.500950098E0,9.454950333E0,9.794310261E0
3.779760982E0,-5.230500102E-1,2.503950119E0,9.460050583E0,9.799791046E0
3.782247751E0,-5.250000358E-1,2.503950119E0,9.457950592E0,9.797868168E0
3.784734291E0,-5.230500102E-1,2.499000072E0,9.457950592E0,9.796499991E0
3.787220982E0,-5.149500370E-1,2.500950098E0,9.466950417E0,9.805257525E0
3.789707751E0,-5.179499984E-1,2.496000051E0,9.465000153E0,9.802270979E0
3.792194520E0,-5.230500102E-1,2.499000072E0,9.469950676E0,9.808085872E0
3.794681061E0,-5.230500102E-1,2.508000135E0,9.478950500E0,9.819070658E0
3.797167828E0,-5.080500245E-1,2.518050194E0,9.477000237E0,9.818972710E0
3.799654522E0,-5.010000467E-1,2.532000065E0,9.460050583E0,9.805844298E0
3.802141289E0,-5.130000114E-1,2.554050207E0,9.442950249E0,9.795695528E0
3.804627830E0,-5.130000114E-1,2.578050137E0,9.440999985E0,9.800101644E0
3.807114597E0,-5.130000114E-1,2.578050137E0,9.442950249E0,9.801980459E0
3.809601291E0,-5.149500370E-1,2.575050116E0,9.448050499E0,9.806207976E0
3.812088059E0,-5.080500245E-1,2.580000162E0,9.453000069E0,9.811917548E0
3.814574599E0,-5.130000114E-1,2.575050116E0,9.466950417E0,9.824316887E0
3.817061371E0,-5.200500488E-1,2.568000078E0,9.475050926E0,9.830649343E0
3.819548066E0,-5.200500488E-1,2.568000078E0,9.475050926E0,9.830649343E0
3.822034833E0,-5.299500227E-1,2.572950125E0,9.493950844E0,9.850686372E0
3.824521373E0,-5.389500260E-1,2.572950125E0,9.514950752E0,9.871414655E0
3.827008141E0,-5.389500260E-1,2.568000078E0,9.525000572E0,9.879814140E0
3.829494909E0,-5.350500345E-1,2.556000233E0,9.508050919E0,9.860144421E0
3.831981603E0,-5.389500260E-1,2.548950195E0,9.501000404E0,9.851731975E0
3.834468447E0,-5.370000005E-1,2.556000233E0,9.493950844E0,9.846654702E0
3.836954911E0,-5.350500345E-1,2.556000233E0,9.484050751E0,9.837003323E0
3.839441678E0,-5.419500470E-1,2.554050207E0,9.487050056E0,9.839766313E0
3.841928368E0,-5.490000248E-1,2.563050032E0,9.496050835E0,9.851172922E0
3.844414907E0,-5.440500379E-1,2.572950125E0,9.499050140E0,9.856369329E0
3.846901905E0,-5.350500345E-1,2.568000078E0,9.481950760E0,9.838104144E0
3.849388445E0,-5.200500488E-1,2.559000015E0,9.472050667E0,9.825409761E0
3.851875120E0,-5.179499984E-1,2.556000233E0,9.463050842E0,9.815841311E0
3.854361889E0,-5.299500227E-1,2.559000015E0,9.465000153E0,9.819142325E0
3.856848658E0,-5.350500345E-1,2.556000233E0,9.469950676E0,9.823409873E0
3.859335199E0,-5.320500135E-1,2.539950132E0,9.465000153E0,9.814308523E0
3.861821889E0,-5.320500135E-1,2.524950027E0,9.466950417E0,9.812318791E0
3.864308625E0,-5.419500470E-1,2.520000219E0,9.475050926E0,9.819404311E0
3.866795394E0,-5.320500135E-1,2.520000219E0,9.472050667E0,9.815967714E0
3.869281935E0,-5.179499984E-1,2.511000156E0,9.460050583E0,9.801323942E0
3.871768702E0,-5.200500488E-1,2.500950098E0,9.465000153E0,9.803643778E0
3.874255396E0,-5.250000358E-1,2.511000156E0,9.477000237E0,9.818058887E0
3.876742154E0,-5.230500102E-1,2.511000156E0,9.493950844E0,9.834317756E0
3.879228694E0,-5.179499984E-1,2.511000156E0,9.499050140E0,9.838970859E0
3.881715461E0,-5.080500245E-1,2.500950098E0,9.477000237E0,9.814601352E0
3.884202156E0,-4.990500212E-1,2.496000051E0,9.465000153E0,9.801290480E0
3.886688923E0,-4.960500300E-1,2.500950098E0,9.451050758E0,9.788931375E0
3.889175692E0,-5.029500127E-1,2.496000051E0,9.445950508E0,9.783095419E0
3.891662233E0,-5.200500488E-1,2.500950098E0,9.453000069E0,9.792058708E0
3.894149000E0,-5.149500370E-1,2.515950203E0,9.457950592E0,9.800408582E0
3.896635694E0,-5.110500455E-1,2.515950203E0,9.469950676E0,9.811785942E0
3.899122461E0,-5.130000114E-1,2.515950203E0,9.472050667E0,9.813914523E0
3.901608997E0,-5.110500455E-1,2.524950027E0,9.469950676E0,9.814097544E0
3.904095764E0,-5.149500370E-1,2.532000065E0,9.487050056E0,9.832614944E0
3.906582533E0,-5.179499984E-1,2.530050039E0,9.493950844E0,9.838929211E0
3.909069228E0,-5.200500488E-1,2.539950132E0,9.481950760E0,9.830014697E0
3.911555766E0,-5.130000114E-1,2.556000233E0,9.481950760E0,9.833803761E0
3.914042456E0,-5.110500455E-1,2.563050032E0,9.493950844E0,9.847106186E0
3.916529226E0,-5.149500370E-1,2.568000078E0,9.493950844E0,9.848598914E0
3.919015995E0,-5.110500455E-1,2.568000078E0,9.499050140E0,9.853311632E0
3.921502535E0,-5.149500370E-1,2.575050116E0,9.514950752E0,9.870681053E0
3.923989284E0,-5.149500370E-1,2.580000162E0,9.514950752E0,9.871973571E0
3.926475978E0,-5.149500370E-1,2.584950209E0,9.505950928E0,9.864595489E0
3.928962745E0,-5.269500017E-1,2.587050200E0,9.499050140E0,9.859130723E0
3.931449286E0,-5.350500345E-1,2.587050200E0,9.487050056E0,9.848006197E0
3.933936053E0,-5.370000005E-1,2.595000029E0,9.472050667E0,9.835758130E0
3.936422822E0,-5.350500345E-1,2.595000029E0,9.466950417E0,9.830740251E0
3.938909516E0,-5.370000005E-1,2.584950209E0,9.481950760E0,9.842648363E0
3.941396284E0,-5.470499992E-1,2.587050200E0,9.481950760E0,9.843753484E0
3.943882824E0,-5.419500470E-1,2.592000008E0,9.478950500E0,9.841883787E0
3.946369591E0,-5.350500345E-1,2.578050137E0,9.475050926E0,9.834084152E0
3.948856286E0,-5.370000005E-1,2.560950041E0,9.451050758E0,9.806589343E0
3.951343053E0,-5.350500345E-1,2.544000149E0,9.445950508E0,9.797152459E0
3.953829593E0,-5.440500379E-1,2.544000149E0,9.463050842E0,9.814135644E0
3.956316361E0,-5.440500379E-1,2.547000170E0,9.478950500E0,9.830244295E0
3.958803055E0,-5.440500379E-1,2.527950048E0,9.481950760E0,9.828220190E0
3.961289807E0,-5.419500470E-1,2.518050194E0,9.465000153E0,9.809205601E0
3.963776348E0,-5.370000005E-1,2.515950203E0,9.457950592E0,9.801591903E0
3.966263115E0,-5.440500379E-1,2.511000156E0,9.460050583E0,9.802737845E0
3.968749809E0,-5.490000248E-1,2.508000135E0,9.453000069E0,9.795441593E0
3.971236653E0,-5.389500260E-1,2.508000135E0,9.440999985E0,9.783302741E0
3.973723348E0,-5.299500227E-1,2.511000156E0,9.433950424E0,9.776778069E0
3.976209886E0,-5.419500470E-1,2.506050110E0,9.439050674E0,9.781087600E0
3.978696653E0,-5.470499992E-1,2.499000072E0,9.442950249E0,9.783331460E0
3.981183348E0,-5.370000005E-1,2.488950014E0,9.457950592E0,9.794696043E0
3.983669886E0,-5.299500227E-1,2.482050180E0,9.475050926E0,9.809077947E0
3.986156648E0,-5.350500345E-1,2.475000143E0,9.484050751E0,9.816268277E0
3.988643418E0,-5.389500260E-1,2.473050117E0,9.490950584E0,9.822656820E0
3.991130112E0,-5.299500227E-1,2.476950169E0,9.481950760E0,9.814454614E0
3.993616879E0,-5.230500102E-1,2.470050097E0,9.484050751E0,9.814374531E0
3.996103648E0,-5.320500135E-1,2.473050117E0,9.484050751E0,9.815613722E0
3.998590117E0,-5.389500260E-1,2.479950190E0,9.478950500E0,9.812804016E0
4.001076961E0,-5.269500017E-1,2.488950014E0,9.484050751E0,9.819356757E0
4.003563655E0,-5.110500455E-1,2.503950119E0,9.478950500E0,9.817405000E0
4.006050194E0,-5.029500127E-1,2.500950098E0,9.489000320E0,9.825926785E0
4.008536961E0,-5.110500455E-1,2.499000072E0,9.496050835E0,9.832657574E0
4.011023730E0,-5.059500337E-1,2.494050026E0,9.496050835E0,9.831136884E0
4.013510425E0,-4.960500300E-1,2.499000072E0,9.508050919E0,9.843480038E0
4.015996963E0,-5.029500127E-1,2.512950182E0,9.514950752E0,9.854043086E0
4.018483730E0,-5.130000114E-1,2.520000219E0,9.508050919E0,9.849700624E0
4.020970500E0,-5.130000114E-1,2.527950048E0,9.487050056E0,9.831470858E0
4.023457269E0,-5.110500455E-1,2.532000065E0,9.466950417E0,9.813019243E0
4.025943963E0,-5.110500455E-1,2.524950027E0,9.453000069E0,9.797742346E0
4.028430502E0,-5.149500370E-1,2.524950027E0,9.448050499E0,9.793171315E0
4.030917269E0,-5.179499984E-1,2.535000086E0,9.460050583E0,9.807499919E0
4.033404038E0,-5.200500488E-1,2.536950111E0,9.481950760E0,9.829239957E0
4.035890747E0,-5.269500017E-1,2.539950132E0,9.478950500E0,9.827488264E0
4.038377286E0,-5.299500227E-1,2.539950132E0,9.481950760E0,9.830543419E0
4.040864053E0,-5.230500102E-1,2.542050123E0,9.484050751E0,9.832742180E0
4.043350747E0,-5.200500488E-1,2.544000149E0,9.477000237E0,9.826287310E0
4.045837515E0,-5.269500017E-1,2.542050123E0,9.478950500E0,9.828031223E0
4.048324065E0,-5.350500345E-1,2.532000065E0,9.490950584E0,9.837451187E0
4.050811063E0,-5.320500135E-1,2.532000065E0,9.493950844E0,9.840183137E0
4.053297604E0,-5.299500227E-1,2.542050123E0,9.499050140E0,9.847579369E0
4.055784371E0,-5.419500470E-1,2.544000149E0,9.508050919E0,9.857417455E0
4.058271065E0,-5.370000005E-1,2.542050123E0,9.508050919E0,9.856643450E0
4.060757847E0,-5.299500227E-1,2.539950132E0,9.508050919E0,9.855720469E0
4.063244388E0,-5.299500227E-1,2.542050123E0,9.513000488E0,9.861036667E0
4.065731078E0,-5.350500345E-1,2.548950195E0,9.511050224E0,9.861211995E0
4.068217847E0,-5.389500260E-1,2.551950216E0,9.499050140E0,9.850627930E0
4.070704388E0,-5.350500345E-1,2.548950195E0,9.472050667E0,9.823602673E0
4.073191179E0,-5.250000358E-1,2.544000149E0,9.463050842E0,9.813098035E0
4.075677873E0,-5.130000114E-1,2.542050123E0,9.463050842E0,9.811957964E0
4.078164641E0,-5.130000114E-1,2.547000170E0,9.453000069E0,9.803549825E0
4.080651410E0,-5.250000358E-1,2.542050123E0,9.463050842E0,9.812592680E0
4.083137950E0,-5.250000358E-1,2.548950195E0,9.454950333E0,9.806572180E0
4.085624718E0,-5.130000114E-1,2.559000015E0,9.448050499E0,9.801903301E0
4.088111412E0,-5.059500337E-1,2.554050207E0,9.454950333E0,9.806897761E0
4.090598179E0,-5.130000114E-1,2.556000233E0,9.463050842E0,9.815581361E0
4.093084948E0,-5.179499984E-1,2.568000078E0,9.465000153E0,9.820851516E0
4.095571489E0,-5.110500455E-1,2.575050116E0,9.466950417E0,9.824215258E0
4.098058164E0,-5.010000467E-1,2.578050137E0,9.460050583E0,9.817835840E0
4.100545010E0,-5.010000467E-1,2.592000008E0,9.463050842E0,9.824398014E0
4.103031474E0,-4.960500300E-1,2.599050045E0,9.475050926E0,9.837566611E0
4.105518241E0,-5.010000467E-1,2.599050045E0,9.477000237E0,9.839694897E0
4.108005010E0,-5.110500455E-1,2.604000092E0,9.478950500E0,9.843398357E0
4.110491780E0,-5.110500455E-1,2.595000029E0,9.481950760E0,9.843911190E0
4.112978243E0,-5.029500127E-1,2.583000183E0,9.469950676E0,9.828774820E0
4.115465241E0,-5.110500455E-1,2.590050220E0,9.457950592E0,9.819488871E0
4.117951782E0,-5.179499984E-1,2.595000029E0,9.463050842E0,9.826068827E0
4.120438549E0,-5.110500455E-1,2.580000162E0,9.481950760E0,9.839967642E0
4.122925243E0,-5.130000114E-1,2.571000099E0,9.487050056E0,9.842628170E0
4.125412010E0,-5.230500102E-1,2.571000099E0,9.496050835E0,9.851832534E0
4.127898551E0,-5.299500227E-1,2.566050053E0,9.520050049E0,9.874047439E0
