Time (s),Acceleration x (m/s^2),Acceleration y (m/s^2),Acceleration z (m/s^2),Absolute acceleration (m/s^2)
0.0,0.5172406018801954,0.41501956428682,-4.732306588695344,4.7785462986543905
0.002486943546381497,0.35805269376713333,0.22990309486183852,-4.776386715701552,4.795302620530972
0.004973887092762994,0.3377287616271878,0.2698417908248618,-5.926590571177936,5.942335492622494
0.007460830639144491,0.427538439613558,0.5444125309822679,-8.048843462327959,8.078555267020041
0.009947774185525988,0.6035397651915004,0.9961545476488218,-10.93245624315368,10.994325065206992
0.012434717731907486,0.8800980023793135,1.567607073130449,-14.347586154286233,14.459778452112836
0.014921661278288981,1.2332711886221512,2.2156745496835835,-18.04523682297266,18.222533949260995
0.01740860482467048,1.6055985381111486,2.8589541929901436,-21.738104649781455,21.98401145169031
0.019895548371051976,1.973138088266602,3.4495620419606285,-25.18198166503463,25.493625728304014
0.022382491917433474,2.3215246831352223,3.9348257321700295,-28.190120738755525,28.55792775504847
0.02486943546381497,2.636393166748319,4.26686130249687,-30.566197934171207,30.974975874976153
0.02735637901019647,2.8746479631987425,4.416938405082556,-32.161773347543054,32.590682880930046
0.029843322556577963,3.01234710984282,4.380268708650104,-32.91459833471608,33.34114234104543
0.032330266102959464,3.0686442739007314,4.1616406885416115,-32.81509668786359,33.219969920728474
0.03481720964934096,3.0387511059709524,3.7993616433182513,-31.906364635474034,32.2751492859845
0.03730415319572246,2.9178792566306346,3.322162064875862,-30.269805632376908,30.591043021829975
0.03979109674210395,2.734759199676605,2.787502865005874,-28.05864918297184,28.329081772548122
0.04227804028848545,2.479814182319507,2.248056552151545,-25.464432017973262,25.683468119365934
0.04476498383486695,2.1865630816279213,1.7469188280860577,-22.654748851233226,22.82696714446124
0.04725192738124844,1.888524774644385,1.3367622011922091,-19.81634800961116,19.95096758167388
0.04973887092762994,1.590487718462331,1.0511055665389446,-17.135977819679503,17.24169974019779
0.05222581447401144,1.3307591933889822,0.9091026092001102,-14.786021397749726,14.87359460115666
0.05471275802039294,1.118916059780106,0.9155418042528707,-12.91013143989835,12.990830756330416
0.05719970156677443,0.95974677464041,1.0656348200964567,-11.59449980203204,11.682855691163684
0.059686645113155926,0.8724050049036152,1.3306513084896563,-10.891799516476134,11.007407510602842
0.062173588659537427,0.8616792075094122,1.6770725178305022,-10.83555000192258,10.998372931069433
0.06466053220591893,0.9179926294022933,2.090533309756265,-11.392233030213838,11.61877848147268
0.06714747575230041,1.0269801141710104,2.5135729159778255,-12.456504323009536,12.749009252016222
0.06963441929868192,1.1838533120083505,2.907884181442193,-13.937384811539227,14.286636919231873
0.07212136284506342,1.393400679709965,3.2399483543699863,-15.715165006706542,16.10606227422503
0.07460830639144492,1.6125266408294654,3.4618814729726415,-17.665347015677927,18.07344324373795
0.0770952499378264,1.8268660388022566,3.568895205294609,-19.644279331908745,20.04924345156597
0.0795821934842079,2.031630523663135,3.570566429289917,-21.4939452384508,21.883010513276588
0.0820691370305894,2.2076665354435643,3.457318409578444,-23.109000454423754,23.470252323302464
0.0845560805769709,2.3453973207720864,3.243516427327184,-24.388889101799247,24.715161319046416
0.0870430241233524,2.4208809162716087,2.9531025702877582,-25.256997318669306,25.544028514638732
0.0895299676697339,2.453270988401999,2.6243841361151947,-25.679806872514796,25.929874886818993
0.0920169112161154,2.4377791869745646,2.271726405803871,-25.642953143591114,25.858548956808896
0.09450385476249688,2.355251951791537,1.9286482735688497,-25.15122512491549,25.33477888602421
0.09699079830887838,2.23441975580898,1.6621874568051878,-24.262084245496368,24.421388795936096
0.09947774185525989,2.0800710553309676,1.4484020097583568,-23.056933950398896,23.195835125516712
0.10196468540164137,1.9065711132506313,1.3255992297726857,-21.621966087451,21.746301851458256
0.10445162894802287,1.7282851924083964,1.3081443975242169,-20.06731452051197,20.184036353916497
0.10693857249440437,1.5595785555908503,1.3816723736988763,-18.493536306217727,18.610539726958343
0.10942551604078588,1.4004512555686743,1.5413948255534478,-17.005976903929096,17.133021105001788
0.11191245958716736,1.2652685550173866,1.763369806992188,-15.705193369078652,15.854446579829883
0.11439940313354886,1.1779725231959008,2.0140785652059456,-14.6582239332363,14.842764587809377
0.11688634667993036,1.1241980027422855,2.283944363912824,-13.908164810737428,14.139210423833921
0.11937329022631185,1.1135218528366964,2.544236853473878,-13.502900618592246,13.78555030453621
0.12186023377269335,1.1555209325986988,2.7518604742119255,-13.432855133309328,13.760434648937453
0.12434717731907485,1.216676471203343,2.9020268929334745,-13.669298517445664,14.026823720355623
0.12683412086545634,1.3113537309659822,2.9803709697241163,-14.188289336195856,14.557122449594964
0.12932106441183785,1.4299759575364814,2.9773159679079644,-14.951520944098505,15.311995955906871
0.13180800795821934,1.5581779931793474,2.88807355404617,-15.868014258461319,16.20378856992219
0.13429495150460083,1.6815946800929487,2.7365858145370034,-16.885097422434832,17.187878797383856
0.13678189505098234,1.795437667049039,2.546794835692488,-17.916579755195464,18.18553244960533
0.13926883859736383,1.8901301994307098,2.3282774937760107,-18.89063578513629,19.12719500150233
0.14175578214374532,1.9608839258719337,2.095399068282069,-19.749805249854994,19.95721850442341
0.14424272569012683,1.9981220916158369,1.8721016452551391,-20.417474272899366,20.600255147635373
0.14672966923650832,2.0114215551151746,1.6775389073272644,-20.855336203599002,21.019157966558172
0.14921661278288983,1.9912055614687478,1.5308645370369092,-21.053814810412547,21.203102694887086
0.15170355632927132,1.9374741623421887,1.4464438135071918,-21.01769907095474,21.15631537089076
0.1541904998756528,1.8645926192871967,1.4290652091241167,-20.73741275206246,20.87005559784717
0.15667744342203432,1.777349387138894,1.4595751795741947,-20.24168684630618,20.371922268964134
0.1591643869684158,1.6805329206553838,1.566704213647678,-19.578405958696784,19.71275558804506
0.1616513305147973,1.5693548678760447,1.7073567502293236,-18.790666290071997,18.933226914573435
0.1641382740611788,1.467757296682974,1.8623792447031915,-17.921564040404903,18.07775499301286
0.1666252176075603,1.375740258276482,2.041348572271538,-17.042925828713933,17.219787630943717
0.1691121611539418,1.2980922070959082,2.2203227847893223,-16.20742465984793,16.410225188930973
0.1715991047003233,1.2396015974982504,2.3562063207237243,-15.458156731114995,15.685755635928237
0.1740860482467048,1.2098452870774241,2.4633644582777268,-14.857371852192616,15.108718953878745
0.1765729917930863,1.2088233267022783,2.5370088622637037,-14.424224201951914,14.695438463365408
0.1790599353394678,1.2221705571952302,2.5531975841020085,-14.163502748367902,14.443591273549815
0.18154687888584928,1.2546754325734213,2.5119306917023896,-14.075208055148392,14.3525429118583
0.1840338224322308,1.3159148100867215,2.4323618661422777,-14.168917491683443,14.436282032483355
0.18652076597861228,1.3771583203339002,2.3144911751028894,-14.406324393190031,14.655907237722138
0.18900770952499377,1.447982820386583,2.1774722994303413,-14.768275707184937,14.998000107559339
0.19149465307137528,1.5235999572647945,2.0308821132123818,-15.240406783512375,15.450431641687986
0.19398159661775677,1.589644571256236,1.879509087097345,-15.760468937809076,15.95154868378148
0.19646854016413826,1.6509051158371477,1.7568721115349393,-16.29015550129764,16.467581898209716
0.19895548371051977,1.678651221147852,1.6677596569311437,-16.791159804173603,16.95707344339947
0.20144242725690126,1.6968249537573603,1.6025949836077782,-17.220386772273823,17.37783778816806
0.20392937080328274,1.7006379602170598,1.561378158402705,-17.539529733705905,17.690821758890166
0.20641631434966426,1.6853018869815803,1.5728396679497243,-17.75337764539943,17.902415616097958
0.20890325789604575,1.6603935903687297,1.6321911755131655,-17.847565849930735,17.99879333944291
0.21139020144242726,1.6067595066756861,1.6963371176662294,-17.793364478832153,17.94611532353536
0.21387714498880875,1.5435532986623774,1.7892195773365256,-17.62908130902619,17.78674706858993
0.21636408853519024,1.480351822347369,1.9060502173984868,-17.34992848644736,17.516977120325574
0.21885103208157175,1.4219435303271895,2.003733474031422,-16.97027176919522,17.147215376227642
0.22133797562795324,1.3587516651347282,2.087057816483807,-16.53320733416408,16.719717735993914
0.22382491917433472,1.3003530824804381,2.1512349072282313,-16.05788934050859,16.25344701400946
0.22631186272071624,1.2611130412904317,2.181899601960077,-15.568260349554869,15.770916976747694
0.22879880626709773,1.2266663804633247,2.1982055794790254,-15.102628131430267,15.310982811527175
0.2312857498134792,1.2018015520723966,2.1762108885627613,-14.689723648451018,14.89859730544872
0.23377269335986073,1.2056722180443153,2.1159155944500467,-14.329547441830272,14.535015451930736
0.23625963690624222,1.2143364103144338,2.041261778839436,-14.05561887483152,14.254886338434487
0.2387465804526237,1.2325825806305235,1.952249506684864,-13.887092099554847,14.077708085336324
0.24123352399900522,1.2651991806299554,1.8488788427959275,-13.80481404032476,13.985420001914592
0.2437204675453867,1.2882442419168774,1.7503034651178713,-13.80399683020316,13.974028192868886
0.24620741109176822,1.330448232506594,1.6565234381678087,-13.903794617619427,14.065193463636474
0.2486943546381497,1.3726575870980606,1.5723272296350352,-14.065900709914686,14.219914365060294
0.2511812981845312,1.4052955469167117,1.5312337269813239,-14.261585219815782,14.412229018541755
0.2536682417309127,1.4427273696744685,1.5093009776740594,-14.500425485346799,14.649975800680034
0.2561551852772942,1.461011086404755,1.5161058522709254,-14.748903213373474,14.898432009689683
0.2586421288236757,1.4601467446256446,1.546860011215545,-14.978288512796107,15.128579946006116
0.26112907237005717,1.4544996016983225,1.6063519214378106,-15.179005104500286,15.33291008091071
0.2636160159164387,1.448858108224616,1.66585122646984,-15.341476708065489,15.499521209076596
0.2661029594628202,1.433645504725777,1.7205695862885175,-15.44655023511441,15.60806244542847
0.26858990300920166,1.394496628282209,1.7944490806345832,-15.465495789302862,15.631577922853
0.2710768465555832,1.3601419457357,1.873124562527045,-15.427044312794186,15.599752497017613
0.2735637901019647,1.3210046972432146,1.913500464902618,-15.335984729803995,15.511252853077423
0.27605073364834615,1.267508122838516,1.9347304637004494,-15.15879873662935,15.334240703284522
0.27853767719472766,1.2283826889937877,1.9511798313765594,-14.929005674685815,15.106000039712416
0.2810246207411092,1.2036284421343737,1.9389066136604716,-14.646606060771083,14.82333125119409
0.28351156428749064,1.1740918152785398,1.8979108727180947,-14.35469604018024,14.527142034049639
0.28599850783387215,1.154138064560044,1.8425578805099294,-14.067641336891468,14.23466146413441
0.28848545138025367,1.1437672360241482,1.787212908828962,-13.790230866837561,13.952519515570176
0.2909723949266352,1.1334025689470746,1.7270876160182587,-13.527253544537041,13.6840791241095
0.29345933847301664,1.1469861257179628,1.6573936602510584,-13.293075089725194,13.445013062794041
0.29594628201939815,1.1653643387130268,1.597284716131194,-13.111638027344634,13.25988100498795
0.29843322556577967,1.1837488501384625,1.5611260547700723,-12.963789251012438,13.110995677054879
0.30092016911216113,1.202139705388984,1.5345525271839806,-12.883048089417033,13.029693757114604
0.30340711265854264,1.220536949726678,1.503198984214835,-12.850261433262007,12.995327488561939
0.30589405620492416,1.2437290316004896,1.4957959064118675,-12.870218188381823,13.016404400380264
0.3083809997513056,1.2669275926844592,1.5314969675070764,-12.933342049170118,13.085179595535573
0.31086794329768713,1.2805558711972207,1.5672065978906868,-13.034845111851803,13.191025242553993
0.31335488684406865,1.289402315182432,1.5933480510162858,-13.150785857872384,13.309563667592244
0.3158418303904501,1.2982553725470336,1.6338634033997366,-13.271587977131112,13.434657571670641
0.3183287739368316,1.2927498777791944,1.6743875048134038,-13.382886754690764,13.54903810798578
0.32081571748321314,1.2872510851506374,1.6957668015272502,-13.475105877409293,13.64225490191317
0.3233026610295946,1.2817590388330344,1.7123665628702671,-13.533880627290317,13.701862293608503
0.3257896045759761,1.2666969762175317,1.7289752513465926,-13.56878830139621,13.73702633823763
0.3282765481223576,1.2372765378749029,1.7072856993922605,-13.555887371995505,13.718883341320176
0.3307634916687391,1.203074574195395,1.6856051923819564,-13.48560151975735,13.643683580519676
0.3332504352151206,1.1640911287863929,1.6639337889404695,-13.405815263625664,13.558748714116499
0.3357373787615021,1.1442682617138378,1.6279063375432132,-13.278221861201125,13.426488919068099
0.3382243223078836,1.1244524030170877,1.5823112997573765,-13.117187005021698,13.26004137175676
0.3407112658542651,1.0998551925519102,1.5319371369596446,-12.941864789351039,13.078546443012073
0.3431982094006466,1.0992070932709779,1.486360713655488,-12.771409306849705,12.904511617573249
0.34568515294702806,1.1033545347778086,1.4455820875172112,-12.601032631965225,12.731579721032965
0.3481720964934096,1.093143946529148,1.4191781226641949,-12.411581627564406,12.540190936719277
0.3506590400397911,1.0925173877170422,1.402360473060327,-12.231787188089069,12.36029234903309
0.3531459835861726,1.1014749007837334,1.3807639858333236,-12.080803399704125,12.209241046188481
0.35563292713255407,1.1056513180615526,1.3735423311565524,-11.944265523687866,12.0737136902019
0.3581198706789356,1.1146234883347,1.3854839690449232,-11.855692852869108,11.988302814443733
0.3606068142253171,1.1283914535963404,1.3974353427132946,-11.80550904853327,11.941362430837378
0.36309375777169856,1.127801642407261,1.4141849117786223,-11.769772560336206,11.907955392566848
0.36558070131808007,1.1272193064186065,1.4261559256965064,-11.738907046218202,11.87882497256835
0.3680676448644616,1.1410096971289874,1.4525020536430435,-11.756008598958589,11.900227036639592
0.37055458841084304,1.1404424360009742,1.474069738029505,-11.777982049878874,11.924527315985115
0.37304153195722456,1.1398827742260267,1.490859034345154,-11.790462648522468,11.938886165194358
0.3755284755036061,1.1297539462394361,1.4932931912344272,-11.836546482568863,11.983743203525517
0.37801541904998753,1.1196327996024533,1.4861606670975787,-11.863561571576007,12.008594601240752
0.38050236259636905,1.0951541651188057,1.4838267267694432,-11.871508369902385,12.013900922561113
0.38298930614275056,1.0754716966777735,1.4623494083154036,-11.879540943457323,12.017428934245224
0.385476249689132,1.0653738380503996,1.445670782796101,-11.868506129849758,12.00360042576034
0.38796319323551354,1.0504954195685183,1.419425694500922,-11.82882757158396,11.959911021701153
0.39045013678189505,1.026048078045977,1.388402600790851,-11.765294119372497,11.891281770931412
0.3929370803282765,1.0063970634186092,1.3573899588163345,-11.682694622167995,11.80426601633435
0.395424023874658,0.9963308188217148,1.3311762255164068,-11.60497154043715,11.723483684394765
0.39791096742103954,0.9862725772691118,1.324126664258444,-11.512971702989507,11.630759324029981
0.400397910967421,0.9762223782540629,1.3170877149544864,-11.397118743493778,11.514427724988561
0.4028848545138025,0.9709686644283355,1.314847833904134,-11.295720327033235,11.413365090111503
0.40537179806018403,0.9657230716406421,1.3078302672311966,-11.18962327705188,11.307108832116471
0.4078587416065655,0.9652740422172699,1.3104002774453511,-11.0788280284725,11.1977378674523
0.410345685152947,0.9648332116802218,1.3225579168788077,-10.953758207767882,11.075417890269524
0.4128326286993285,0.9644006187075462,1.3347264310057954,-10.838356262836824,10.962733677288853
0.41531957224571003,0.9687647051327354,1.3421174684026744,-10.751776236434864,10.878440908111234
0.4178065157920915,0.9779255093035024,1.344731080747128,-10.66049973296447,10.789388052054175
0.420293459338473,0.9631526494796323,1.3377789161767268,-10.58846919483556,10.716015833543183
0.4227804028848545,0.9675417935589561,1.3404146392100054,-10.540473449333925,10.669321865207984
0.425267346431236,0.9767277694283307,1.3286962842612955,-10.502147708614723,10.630829574635447
0.4277542899776175,0.9715570014865094,1.3217775154055653,-10.492646006219422,10.62010541469347
0.430241233523999,0.9616063338857528,1.3244467865338931,-10.473661533983472,10.60077506412499
0.43272817707038047,0.9564526106093949,1.3271273413526938,-10.459559918397126,10.586711588734582
0.435215120616762,0.9560958688306556,1.3106656167032715,-10.445553170794469,10.570787327020518
0.4377020641631435,0.950959338912091,1.299003679084496,-10.426853300628462,10.550403024309821
0.44018900770952496,0.9458314610066058,1.2921415781676826,-10.417825928745982,10.540176663240121
0.4426759512559065,0.9263470618147267,1.2757141534364715,-10.3993178508583,10.518145142723169
0.445162894802288,0.9212365977481247,1.259298260748595,-10.361752667417825,10.478569908117013
0.44764983834866945,0.9161348951634622,1.2381055457726502,-10.333861203534015,10.448009181777868
0.45013678189505096,0.9014651835649898,1.2312896705498768,-10.277336635920564,10.390012611061533
0.4526237254414325,0.886804305564963,1.2149086670090712,-10.211332979217667,10.321518597473954
0.45511066898781394,0.8817291036018775,1.2033277934111914,-10.155004246142466,10.263993142520407
0.45759761253419545,0.8766628066587087,1.206123904465847,-10.074832010959835,10.184572283535703
0.46008455608057697,0.876393853504594,1.1993550314087311,-9.98518187920327,10.095066906098017
0.4625714996269584,0.8761338760927739,1.197386431805625,-9.890842647825519,10.001505542664747
0.46505844317333994,0.86630610288041,1.2002181530282827,-9.79181470851331,9.903062413445857
0.46754538671972146,0.8708525853905971,1.2030618388943872,-9.688098451002158,9.80127510123024
0.4700323302661029,0.8658313417665706,1.2107059396278246,-9.603636279672466,9.718297308524606
0.47251927381248443,0.8608192132165393,1.213573695256467,-9.514486563739457,9.63012073669068
0.47500621735886595,0.8653930407710244,1.2068767488927725,-9.430226493693175,9.546445847768979
0.4774931609052474,0.8699760520011466,1.2049803566940838,-9.360433258051001,9.477686783677829
0.4799801044516289,0.8697798776197256,1.1983077579791812,-9.314684043352448,9.431638105113555
0.48246704799801043,0.8648045514808251,1.196435805110467,-9.288190824193098,9.404777208134021
0.48495399154439195,0.8598385105793026,1.18978773693085,-9.261800363219459,9.377412387826311
0.4874409350907734,0.8596701917300522,1.1735751953646933,-9.24030143768649,9.35411579129933
0.4899278786371549,0.8595112249269421,1.1573750320578353,-9.223694419530728,9.335674333195678
0.49241482218353644,0.8545732399830039,1.1411872917754335,-9.207191275365396,9.316918752386407
0.4949017657299179,0.8400678665300052,1.134588825682619,-9.176427163155235,9.28438588730743
0.4973887092762994,0.830360347299274,1.1136376614611048,-9.131402448813288,9.23646024349073
0.4998756528226809,0.8206623115587843,1.087910649792982,-9.072117496235244,9.17389514203447
0.5023625963690624,0.8157621950346166,1.07656144775859,-9.01772628057601,9.118324395470859
0.5048495399154439,0.8108716266293026,1.0652248889531422,-8.963440758362307,9.062863073421573
0.5073364834618254,0.8059906383823616,1.049112613368984,-8.909261287409986,9.00695258519951
0.5098234270082069,0.8011192621495917,1.0473782773559848,-8.869553433460148,8.967038052616315
0.5123103705545884,0.786680722962054,1.04565671377725,-8.79164511372942,8.888491904069548
0.5147973141009698,0.7818286655881888,1.043947965211713,-8.728209116436826,8.825118571251947
0.5172842576473514,0.7817747180099979,1.0470404773129836,-8.66966898458857,8.7675895075664
0.5197712011937329,0.7865189113445461,1.0501458888478938,-8.5872946458566,8.6869469735071
0.5222581447401143,0.7769076632420302,1.0436874350162995,-8.495451655738453,8.59450800303335
0.5247450882864959,0.7720946177291657,1.0372419640521386,-8.413293970990663,8.512080617159645
0.5272320318328774,0.7768682086853904,1.0403863239416864,-8.35039873966374,8.450744761740749
0.5297189753792588,0.7768632565222009,1.048332152462128,-8.282824284496593,8.384968392848398
0.5322059189256404,0.772079791424992,1.041925877181078,-8.229724556037612,8.33127139193742
0.5346928624720219,0.7720946500324024,1.0355327486592294,-8.191099889476694,8.292320279725061
0.5371798060184033,0.7721194588344162,1.0243644039264506,-8.143008601321098,8.243426470341792
0.5396667495647849,0.7625774408126569,1.0132092864031996,-8.104604635876054,8.203214840241214
0.5421536931111663,0.7578338353619369,1.002067435939133,-8.051946305475433,8.149373630804302
0.5446406366575478,0.7578886717274369,0.9861504888126595,-7.994610743603088,8.09077801988487
0.5471275802039294,0.7531651723247026,0.9654584843711276,-7.93738667832679,8.031281039979033
0.5496145237503108,0.738874962700272,0.9495682683507043,-7.89463964225563,7.98579684113226
0.5521014672966923,0.7341716848126223,0.9384798795947056,-7.852004745974035,7.941897196387238
0.5545884108430739,0.724690157188121,0.9274049533734889,-7.843001131163383,7.930821049229212
0.5570753543894553,0.7200072147644823,0.9115551247043567,-7.853263904192383,7.93870877936574
0.5595622979358368,0.7105460790076661,0.9052956416324041,-7.830120942754421,7.91424221939872
0.5620492414822184,0.691518374513159,0.9086265419879347,-7.792726172231504,7.875936836369127
0.5645361850285998,0.6820777422869462,0.8928174434251344,-7.7267146926441885,7.807974959957994
0.5670231285749813,0.6630705965811774,0.8865988031873155,-7.646452021812534,7.7261859009309815
0.5695100721213628,0.6632273846595256,0.8851822550206043,-7.575880482071806,7.656199009103814
0.5719970156677443,0.6777597303516116,0.8837794324157622,-7.519788780347607,7.6018187059603815
0.5744839592141259,0.6779372406933726,0.8728135652875113,-7.473388814793557,7.554663645666185
0.5769709027605073,0.66375994245025,0.8618614965757461,-7.374431641585316,7.454235342199496
0.5794578463068888,0.6495930721560021,0.8605000689639348,-7.304320414370878,7.383463160595789
0.5819447898532704,0.6593786727921556,0.8639409149178461,-7.258267024892806,7.339183492954001
0.5844317333996518,0.6548095439830814,0.8482420533649042,-7.217118152790212,7.29623769838415
0.5869186769460333,0.6358857117223271,0.8325571328579235,-7.156932072236742,7.233199755603057
0.5894056204924149,0.6265492184114565,0.8456166083326064,-7.087285878500497,7.165001918699848
0.5918925640387963,0.6315884929770164,0.8443248846619191,-7.036910277980569,7.115468698242506
0.5943795075851778,0.6318499475500139,0.8334703996636019,-7.005805555001448,7.08344681195698
0.5968664511315593,0.6273336073485156,0.8274183975373697,-6.970029975130926,7.046948737837947
0.5993533946779408,0.6228279007165081,0.8261689122630627,-6.93437222170118,7.011133130571821
0.6018403382243223,0.6087560458424486,0.8201451709206762,-6.894044169243967,6.969294586414108
0.6043272817707038,0.609060083962198,0.8237124169322712,-6.834680883488401,6.911028802631793
0.6068142253170853,0.6045864262338325,0.8225054735382675,-6.780224654561879,6.856638124264351
0.6093011688634667,0.5953350969015228,0.8165243736799987,-6.706733737222354,6.78243417604718
0.6117881124098483,0.5908829266547315,0.815345956679143,-6.638150417262535,6.714087624114527
0.6142750559562298,0.5816531327061658,0.8093934483156002,-6.598416978304755,6.673270917664258
0.6167619995026112,0.5867993519947345,0.7986668807491284,-6.558803265275582,6.633257309836293
0.6192489430489928,0.5775911880603877,0.7927430925191079,-6.509732734208628,6.583211485444555
0.6217358865953743,0.5683938741298962,0.7868337119427515,-6.455994048922399,6.528555586507588
0.6242228301417557,0.5639958365932636,0.7857271737164495,-6.402375871057572,6.475019327346535
0.6267097736881373,0.5548202916832661,0.7798467023139899,-6.368032070036223,6.439551139651221
0.6291967172345188,0.5552324720378115,0.7931343451894786,-6.333809286536718,6.407377409341761
0.6316836607809002,0.5556555934966774,0.7920713096912042,-6.28055415905461,6.354643234913998
0.6341706043272818,0.5513012750232551,0.7766576261473794,-6.217843743822963,6.290366522444738
0.6366575478736632,0.5517463453450477,0.7708353412253324,-6.174408708170242,6.246753880889826
0.6391444914200447,0.5617792296722992,0.76981608140789,-6.140672490675131,6.21418307903941
0.6416314349664263,0.552669529776004,0.7640230695947703,-6.087904914446405,6.160500069584979
0.6441183785128077,0.5483592837534212,0.7630331417039764,-6.054413446887228,6.126894781638256
0.6466053220591892,0.5632137228639058,0.7524811167888246,-6.035409923326707,6.1081593357849195
0.6490922656055708,0.5589256416459949,0.7371554269206084,-5.997375756979629,6.068303878905115
0.6515792091519522,0.540283464323563,0.7218445039072015,-5.935522778789062,6.003615274746237
0.6540661526983337,0.5408060348447914,0.716125182613234,-5.854639624143999,5.923015412194567
0.6565530962447153,0.5365513571164573,0.7104206843583978,-5.788245346159567,5.8563101945615585
0.6590400397910967,0.5275194514491661,0.6903658268782582,-5.731551769191684,5.797030915003202
0.6615269833374782,0.5280755479166501,0.6799026542069506,-5.689347522039229,5.754112149588244
0.6640139268838597,0.5286428597931978,0.6742427901926924,-5.647267618021306,5.711890944589996
0.6665008704302412,0.5196446001551498,0.6733862617398634,-5.610100681538917,5.674214414786756
0.6689878139766227,0.5202344018027127,0.6677562888479711,-5.568270124832008,5.632244177697883
0.6714747575230042,0.5112586707755299,0.6669297045334375,-5.516987761260019,5.5806213468685595
0.6739617010693857,0.4975058295166919,0.6661181315873221,-5.480195821902781,5.54290281910419
0.6764486446157671,0.49334110691175276,0.6557447892158741,-5.424375695794312,5.486095001499401
0.6789355881621487,0.49397611836681304,0.6453865096420179,-5.359104399648835,5.420381547334113
0.6814225317085302,0.48983407576942134,0.6398317215037297,-5.322689367899343,5.3833394989333545
0.6839094752549116,0.4904918040901045,0.6390804498539759,-5.276823579650291,5.337965260473173
0.6863964188012932,0.4863725148198411,0.6431327194809751,-5.240660851645952,5.302330061398823
0.6888833623476747,0.482264629212227,0.6376233449472157,-5.204624578504488,5.265668020848247
0.6913703058940561,-1.1403121572634172,-0.909736711988709,12.103055817087027,12.190647760175294
0.6938572494404377,-1.240165248945496,-0.9630997222549457,11.382270860935327,11.490067922836532
0.6963441929868192,-1.2346620113082736,-0.9063142216929708,9.445104416012981,9.568479146656413
0.6988311365332006,-1.1190140238915607,-0.7633222034404223,6.497457632653822,6.637153671572064
0.7013180800795822,-0.8980096730741508,-0.5341236442983002,2.7979040999201867,2.9866330194189294
0.7038050236259636,-0.6099561686753777,-0.24744894125440986,-1.318368137795506,1.4735576178037506
0.7062919671723452,-0.26921870411133597,0.07275991175884045,-5.497017420614723,5.504086957701912
0.7087789107187267,0.10026072036286526,0.42171453382530455,-9.426797716336113,9.436758476553637
0.7112658542651081,0.47932850761422596,0.7706845271624594,-12.791674587234303,12.82383129974483
0.7137527978114897,0.824889043709853,1.0861510904025211,-15.371381659784953,15.431770483531317
0.7162397413578712,1.122577134440446,1.3489606318737428,-16.993536591462423,17.083915244887105
0.7187266849042526,1.3628159887188855,1.5639015762411739,-17.576736700623453,17.6987211007553
0.7212136284506342,1.5408172185801434,1.7022435246628311,-17.135347369827038,17.288489818459215
0.7237005719970157,1.6374272259001228,1.7639864979538527,-15.75556002923396,15.938333919198621
0.7261875155433971,1.6478576223176122,1.7443421133443753,-13.595392156606586,13.805537006713532
0.7286744590897787,1.5768968259139777,1.6576756010811196,-10.855956857387962,11.094426136013794
0.7311614026361601,1.4341216578929605,1.513563787825935,-7.76230925142152,8.037476294469537
0.7336483461825416,1.2291089392603616,1.3120066933354906,-4.553869666309762,4.895896167777973
0.7361352897289232,0.981012297464785,1.0673695470629647,-1.4844236374162065,2.0748919039541542
0.7386222332753046,0.7233505697180491,0.7988059815175268,1.2113969153761932,1.621360394669415
0.7411091768216861,0.43697015651077975,0.5302580322643162,3.3420557042668317,3.4119573310468505
0.7435961203680677,0.16496670130009494,0.26651412132307906,4.783054090137078,4.793313073290694
0.7460830639144491,-0.07350616925593811,0.021939477090136883,5.457777469268562,5.458316535492351
0.7485700074608306,-0.26887163533736747,-0.16994705902097418,5.366225693264337,5.375644347444237
0.7510569510072121,-0.4163412806418456,-0.3043570657824144,4.532340632524118,4.561587979496537
0.7535438945535936,-0.5207034957048952,-0.38607892887072404,3.0949858393293503,3.1621395312994123
0.7560308380999751,-0.5532278480169809,-0.41032422758543885,1.1738712548733758,1.3610292967394495
0.7585177816463566,-0.5234911318280902,-0.36272773484895904,-1.0681975475756733,1.2436480110457278
0.7610047251927381,-0.44107014158511904,-0.267231450409539,-3.3965889427541605,3.435516258719456
0.7634916687391196,-0.31554167193175586,-0.13820056763801913,-5.643708949693241,5.654212292836956
0.7659786122855011,-0.1516941143880456,0.019576526472321554,-7.665905601837338,7.667431319614788
0.7684655558318826,0.04089573600910934,0.206099847985608,-9.281219703881401,9.283597837060789
0.770952499378264,0.24786268070608142,0.4070042027422778,-10.379518108139454,10.390451601674082
0.7734394429246456,0.4548415209529642,0.6079243963201857,-10.93207052118666,10.95840402435603
0.7759263864710271,0.6378902511630864,0.7801300240738396,-10.890993034134246,10.937515078689081
0.7784133300174085,0.7874320755147195,0.9188326976970727,-10.285016189037263,10.355957744634983
0.7809002735637901,0.8891017946699746,1.0288208352622936,-9.195542962294596,9.295535739469825
0.7833872171101716,0.9620530323374551,1.0957292412988018,-7.73270674804902,7.868984830242704
0.785874160656553,0.9919205887880371,1.1099811233945411,-6.021006148227937,6.2022963155393045
0.7883611042029346,0.9882812806987806,1.0715764955166165,-4.208881779185726,4.454173538007348
0.790848047749316,0.9415583112702818,1.0092457912927495,-2.4208322385023724,2.7866714639039674
0.7933349912956975,0.8517516901487181,0.9134122175271147,-0.8005097348681041,1.4834482317956368
0.7958219348420791,0.7380150400666468,0.7840757874036846,0.5323755417975651,1.2011930557830963
0.7983088783884605,0.5907715636400572,0.6403901271270778,1.5155742435861193,1.7481635630424261
0.800795821934842,0.4387516898529298,0.48714365268059945,2.072471814793369,2.17369533440377
0.8032827654812236,0.29632063753398247,0.3147595698264771,2.1934913483628034,2.235684191107582
0.805769709027605,0.1586900120365492,0.15675671394985402,1.8929979560007126,1.9060945539797842
0.8082566525739865,0.030648225160650133,0.022711903574658354,1.2092987681740937,1.2099002665413636
0.8107435961203681,-0.0878047148077481,-0.07779804303457816,0.22858495071007034,0.25693050253639665
0.8132305396667495,-0.1535731698934042,-0.14477311451309016,-0.9677407317297106,0.9904878076209138
0.815717483213131,-0.19059914879878104,-0.17342489643467807,-2.259968285768526,2.2746122489131477
0.8182044267595125,-0.198882643817899,-0.18769539455362505,-3.552329732480901,3.562840214690587
0.820691370305894,-0.17363524411736897,-0.1588541783591142,-4.73948028415275,4.745319505771395
0.8231783138522755,-0.1340105556580501,-0.0916896408405723,-5.716075150924375,5.718380972817426
0.825665257398657,-0.060854958030762796,-0.005355385206133434,-6.419865170675695,6.420155824878591
0.8281522009450385,0.03146634573925022,0.10014859835983803,-6.826908405708388,6.8277154490063126
0.8306391444914201,0.1333765557550597,0.2152455127751729,-6.913262916185903,6.917898820068572
0.8331260880378015,0.2305104686076377,0.3207817540601736,-6.669351970096972,6.681039717806803
0.835613031584183,0.3324448972980166,0.4263341379004699,-6.138271269820636,6.162033316104698
0.8380999751305646,0.41044942807342905,0.5271142697644753,-5.37748172556641,5.418821633454623
0.840586918676946,0.4884660835134965,0.6039685449037093,-4.43965584209588,4.507096750041228
0.8430738622233275,0.5521296594445744,0.6616853749156535,-3.4061965419672173,3.5135238121756167
0.845560805769709,0.5774981448618459,0.6906879611815429,-2.368083552257062,2.5334509423926908
0.8480477493160905,0.5741483518124125,0.6957647147885875,-1.4019313879617847,1.6670772282009645
0.850534692862472,0.5564454954736777,0.6817040465693793,-0.5747777553202678,1.051057307929981
0.8530216364088535,0.5243895808723614,0.6437175604615981,0.07028165814372223,0.8332444069092532
0.855508579955235,0.477980612845718,0.577016860149004,0.5045163769780903,0.9032998936076999
0.8579955235016165,0.4124301927214777,0.5007555656633227,0.6848307178776807,0.9433175035797486
0.860482467047998,0.33252672827907853,0.41972208682213097,0.6064362262044884,0.8090151739241076
0.8629694105943795,0.26221224039057933,0.33870483319016254,0.3124284826253678,0.5301771211516134
0.8654563541407609,0.1823331198568543,0.25770381075933413,-0.16367373673497276,0.3555920594914992
0.8679432976871425,0.1120429838532222,0.18629583191008692,-0.7787748470157645,0.8085480997208714
0.870430241233524,0.04176502944536431,0.11969249881020128,-1.4802024546232868,1.4856210548551085
0.8729171847799054,-0.014135529886968312,0.05789381669640292,-2.186553743953173,2.187365717572738
0.875404128326287,-0.04129348085118745,0.02005340383572296,-2.8499447205574384,2.850314403850814
0.8778910718726685,-0.06365083690407436,0.00617126496337983,-3.4368565978665906,3.4374514960721925
0.8803780154190499,-0.07163078844678994,0.01624740456442586,-3.8994053772713695,3.900097081394444
0.8828649589654315,-0.05086812274642971,0.040705020233531286,-4.189707058086792,4.1902135622383545
0.885351902511813,-0.01572804717790044,0.07954411595664101,-4.312550074079184,4.313312274724812
0.8878388460581944,0.024212634018586976,0.13276469547076752,-4.239204033704011,4.241351618927853
0.890325789604576,0.06416551973783857,0.19078995562377932,-3.988822576554705,3.993898292185552
0.8928127331509574,0.11370741865062961,0.25361989965608034,-3.5853477434834105,3.596104958459824
0.8952996766973389,0.17283833260247067,0.3164661272400986,-3.076663589885827,3.097722186419611
0.8977866202437205,0.22240464997331555,0.36975183448071647,-2.5010773624626808,2.5380244719968497
0.9002735637901019,0.2719831788810237,0.403900217236028,-1.906473112504651,1.9676762853123755
0.9027605073364834,0.3072087106582623,0.4380648910396503,-1.3263696792945279,1.430221859299375
0.905247450882865,0.3232928430950376,0.47224585789805174,-0.7942859000719142,0.9789915749133852
0.9077343944292464,0.33938919039997845,0.4920779096113126,-0.3676826266385991,0.7017949883118655
0.9102213379756279,0.3411325433569375,0.48798424105483607,-0.07050188551865055,0.5995586272556855
0.9127082815220094,0.31894609588784484,0.45517645017980435,0.09246791207684346,0.5634381311592579
0.9151952250683909,0.2919834616546249,0.4175965546152076,0.12122676028475432,0.523772041746643
0.9176821686147724,0.2650330441767526,0.3704561518245759,0.01577465526584909,0.45577309560682294
0.9201691121611539,0.21894123019098144,0.318543645668937,-0.20473479151809215,0.43740330512189124
0.9226560557075354,0.1824384394564006,0.26185903644636577,-0.5019943533082589,0.5948548309573378
0.9251429992539169,0.14115946166888088,0.20519072753310796,-0.8712156245762444,0.9061158274690879
0.9276299428002984,0.09031589298486875,0.14375031542311012,-1.2740913745438895,1.2853520702115182
0.9301168863466799,0.053849749303023886,0.08711460633008938,-1.6579491604685757,1.6611093187489196
0.9326038298930613,0.02697262642083964,0.04007200290676982,-2.0036353608506587,2.0042175399003344
0.9350907734394429,-0.00946909000401508,0.0026225042454108838,-2.2728427389140027,2.2728639767984635
0.9375777169858244,-0.03153338460958299,-0.025233890801407366,-2.451206072493326,2.451538764412684
0.9400646605322058,-0.0296434521729656,-0.03392037697962813,-2.5435137507180112,2.543912641252206
0.9425516040785874,-0.02774131089117937,-0.028225359234769876,-2.5354005474539303,2.535709405129772
0.9450385476249689,-0.02103855921669917,-0.027302452711405856,-2.4364432511906386,2.436687046210568
0.9475254911713503,-0.0047467957789377735,-0.007209642908893699,-2.222699825202058,2.222716586516216
0.9500124347177319,0.01634557397554448,0.022476261194159353,-1.9372658772773352,1.9374652098473875
0.9524993782641133,0.04223854774437186,0.05696685370292487,-1.5992949966394754,1.6008665789541687
0.9549863218104948,0.07772052636975701,0.09147372848656676,-1.242305980512386,1.248091371831112
0.9574732653568764,0.10842629723737274,0.12120847917880706,-0.8950292208439556,0.9096840459862889
0.9599602089032578,0.13435585751893386,0.1509595058190749,-0.5861951076311325,0.6200523954130508
0.9624471524496394,0.14593239757106446,0.1711499982515048,-0.3110152056822191,0.38382163139651515
0.9649340959960209,0.17188633413883064,0.19135675936766106,-0.09821990110598833,0.2753351960659022
0.9674210395424023,0.18348724394993682,0.19242617190399613,0.02824882524628336,0.26738249092594857
0.9699079830887839,0.18552352680107426,0.1935118449267632,0.0731794143775879,0.27788673918039936
0.9723949266351654,0.18757198563647476,0.18503696734821728,0.04136030921857703,0.26670696327559845
0.9748818701815468,0.1609021966655419,0.17178993780999718,-0.05763164205686522,0.2423276826751951
0.9773688137279284,0.14382138241015546,0.15377075140244623,-0.20943118603642397,0.2969704626892451
0.9798557572743098,0.13632953865823716,0.13576780630581542,-0.39488466407419587,0.4392636318440803
0.9823427008206913,0.12884985438606616,0.10820429050959568,-0.5900500122955599,0.6135710802099344
0.9848296443670729,0.09744030843841717,0.07108019841466673,-0.7901387782036,0.7992911216423714
0.9873165879134543,0.07083131601337711,0.048337540794820555,-0.9664204908012763,0.9702175829260454
0.9898035314598358,0.04902287221747914,0.03039950495360122,-1.1141066937995223,1.1155989857788406
0.9922904750062174,0.03201497198804637,-0.001887528673526262,-1.2140437190596423,1.2144672383329476
0.9947774185525988,0.015019206773323468,-0.01979314667483001,-1.2662315098406083,1.2664752590321762
0.9972643620989803,-0.001964428826439102,-0.028105759107027062,-1.2706700075228419,1.2709823211570235
0.9997513056453619,-0.009359133738208625,-0.036402179572789795,-1.222570748292961,1.223148374745922
1.0022382491917432,-0.011953317017265208,-0.04468241525919936,-1.1171452664692598,1.1181023863742463
1.0047251927381249,-0.014535387885802775,-0.038581263616821015,-0.9591819011474172,0.9600675553793259
1.0072121362845063,-0.012316949091830898,-0.027675538921583254,-0.7726226028463632,0.773216224039964
1.0096990798308878,-0.005298006869640548,-0.007176845711656554,-0.5718325135915769,0.5719020891652877
1.0121860233772693,0.006521432380983794,0.013338001291295143,-0.3568115636000275,0.3571203204487849
1.0146729669236507,0.02792976541555503,0.029080590464001688,-0.15150169784794087,0.1567753711164853
1.0171599104700322,0.03977337222348848,0.04962771992283921,0.010578333884851077,0.06447272966570691
1.0196468540164139,0.05641745587233288,0.07497938092290424,0.15337062349393804,0.17979817863818282
1.0221337975627953,0.07307360598482782,0.0907703545383578,0.257721634818477,0.28284174056909184
1.0246207411091768,0.07537660537999669,0.1065774382255329,0.3044778335185061,0.33128104998845337
1.0271076846555582,0.07769165663615973,0.10803541262050143,0.3080045103118323,0.3355211204430871
1.0295946282019397,0.08001875220860166,0.10472107474282,0.2683017477653973,0.29892362244272325
1.0320815717483214,0.06799267443007162,0.0918460114336952,0.1997348402116934,0.23011453666994372
1.0345685152947028,0.06555543203471814,0.08856382591913992,0.11188068046207533,0.15702978249794297
1.0370554588410843,0.0679186136742157,0.09008610460750921,0.004739356480806478,0.11291990890287955
1.0395424023874658,0.05114019455889196,0.07247082041047692,-0.0977470253781938,0.13199174322954518
1.0420293459338472,0.03437377962229693,0.05008317258745487,-0.19557837358010666,0.2047944850678035
1.0445162894802287,0.027196166998272653,0.03728836018376125,-0.27917778817261585,0.2829669427928743
1.0470032330266104,0.024818944701146872,0.019721162109412216,-0.33417996411191275,0.33568013445073513
1.0494901765729918,0.008088490626263212,-0.0074068362976698054,-0.3605848045494593,0.360751557413857
1.0519771201193733,-0.013418397566721862,-0.02494203331008915,-0.3583922108769375,0.3595095760006393
1.0544640636657547,-0.02054811573454285,-0.03767284401337356,-0.32281367941149597,0.32565340448317787
1.0569510072121362,-0.027665883132631575,-0.05038768370374669,-0.26342591468281107,0.2696247990912796
1.0594379507585177,-0.034771709211467605,-0.043932951285870825,-0.18022881283726733,0.18873685635536133
1.0619248943048993,-0.032288796936366604,-0.04703907907684135,-0.07801067160469088,0.09664836393964554
1.0644118378512808,-0.03458236602914111,-0.050129273039864586,0.04322861633642816,0.07468331357164659
1.0668987813976623,-0.03686402308475939,-0.048415142666369704,0.15954714343129694,0.17075793748603738
1.0693857249440437,-0.048710584813000835,-0.027531491014364473,0.2709450204460442,0.2766620830088682
1.0718726684904252,-0.036603238194179266,-0.011420347910870099,0.40615277978205633,0.40795870123996214
1.0743596120368066,-0.019695606884844175,-0.004870130107440307,0.5172865024233637,0.5176842287410564
1.0768465555831883,-0.012352911373506414,0.006484358720532324,0.5947694976180653,0.5949331026462253
1.0793334991295698,-0.009786759019156321,0.017854701412030494,0.63860188295053,0.6389263931960976
1.0818204426759512,-0.002420354011656356,0.03881769056333173,0.6487837776947885,0.649948506740444
1.0843073862223327,0.00016948602723604322,0.04543129532558865,0.6348921094491331,0.6365155315946691
1.0867943297687142,0.01234795992722898,0.037695501249304986,0.606503807489478,0.6077995487231251
1.0892812733150956,0.0053846364856679485,0.03476390696475118,0.573195802763296,0.5742742827630329
1.0917682168614773,-0.001566882445975415,0.027059690979562845,0.5301798179225923,0.5308722269331313
1.0942551604078588,-0.0037182051256151594,0.009794434921662987,0.5109748038412398,0.5110821912035132
1.0967421039542402,-0.010646149919996017,-0.00745506981937849,0.48206206656198525,0.48223723891062453
1.0992290475006217,-0.02713913202288737,-0.010323628732237022,0.4338649303762274,0.4348354718827863
1.1017159910470031,-0.034043550173275705,-0.0179648707455895,0.39990235109909733,0.4017506568804733
1.1042029345933846,-0.036147819857929475,-0.03995561834456218,0.3801744629382924,0.38397361704705274
1.1066898781397663,-0.03824035670927528,-0.047565467648110094,0.36989299840972123,0.3748941568848067
1.1091768216861477,-0.04989797982514654,-0.04558283821296216,0.3930001115734427,0.3987689697392693
1.1116637652325292,-0.05675549184634071,-0.0579497630719219,0.42076552158213154,0.4285125261262442
1.1141507087789106,-0.07317811547949343,-0.0750894522096952,0.4627661757606987,0.4744955172037603
1.116637652325292,-0.08001225033244347,-0.08263671248399396,0.5285790230374978,0.540949692715228
1.1191245958716736,-0.08204631275741325,-0.09495677086697629,0.5942621906958436,0.6073680408625349
1.1216115394180552,-0.0936455258894981,-0.10247283792104556,0.6741810341723262,0.6883242214744305
1.1240984829644367,-0.09565628976327889,-0.10518493104027993,0.7635472972067365,0.7766714044954516
1.1265854265108182,-0.08807861783568338,-0.11266987444966547,0.8432075151559708,0.8552492368566338
1.1290723700571996,-0.09006613698540739,-0.12013928260276607,0.9035850315892091,0.9159755813163654
1.131559313603581,-0.09204205430921025,-0.1323815767825165,0.9494684016018109,0.9630611960167342
1.1340462571499625,-0.08921798036352063,-0.13024316185826468,0.9904345851682521,1.0029375836653003
1.1365332006963442,-0.09117073580447804,-0.12330086280843888,1.0216953338544084,1.033139177969893
1.1390201442427257,-0.09790033478578569,-0.13070831143851125,1.0336739974517268,1.0464946589630109
1.1415070877891071,-0.09504158163781123,-0.1381003164974155,1.050312750533207,1.0636077630355723
1.1439940313354886,-0.0873828941091861,-0.14547689687988763,1.0572465426422184,1.0707798791710754
1.14648097488187,-0.07971269008496568,-0.1432612650241194,1.0448987281687803,1.0576820198649628
1.1489679184282517,-0.07203098426572496,-0.15060705347347758,1.0228462763039339,1.0363809397123604
1.1514548619746332,-0.06433779148728153,-0.14836066839134032,1.005454561072268,1.0183757232573907
1.1539418055210147,-0.07099833668103017,-0.1365221294040584,0.9831469414034153,0.9951165580068406
1.1564287490673961,-0.07764742499054478,-0.13424506960015847,0.9511351810473503,0.9636954881836842
1.1589156926137776,-0.07470826501316152,-0.14631791228737123,0.9333614651693676,0.9477098084226627
1.161402636160159,-0.08133448540094312,-0.13443345106995697,0.9298259638199404,0.9430079396673688
1.1638895797065407,-0.08316089169601826,-0.12253372289477893,0.9405288485296808,0.9521159394058575
1.1663765232529222,-0.08976430617372527,-0.13456076488644175,0.9606818889823252,0.9742042506211535
1.1688634667993036,-0.09156793795920193,-0.14178417782305974,0.9950736629690002,1.0092863989362013
1.171350410345685,-0.09336020626896296,-0.1489923859010691,1.0341275397799592,1.048968363537446
1.1738373538920666,-0.10471793376967176,-0.16097381349223783,1.0826321001197226,1.099532027042807
1.176324297438448,-0.11127592665565711,-0.18251688514286135,1.1310107161784781,1.1510343110984493
1.1788112409848297,-0.10824579789049155,-0.18489120233076095,1.1888403748675387,1.2079914512840948
1.1812981845312112,-0.11478117716731845,-0.1872503999097863,1.236967644609427,1.2563146041931075
1.1837851280775926,-0.11651687106449088,-0.19917130626525426,1.2801811118545476,1.3008109277028743
1.186272071623974,-0.10866449292777042,-0.19671192671157067,1.328057767793144,1.3469376335708851
1.1887590151703555,-0.11516607615096347,-0.20381429993672606,1.3614441851062935,1.381424541230699
1.191245958716737,-0.11686802437061794,-0.20132483491554032,1.3899173578028368,1.4092764405167921
1.1937329022631187,-0.11855875794978077,-0.18924355407290383,1.413477474650044,1.4310093896225156
1.1962198458095001,-0.10587308409457291,-0.17714728664233625,1.4225479191667603,1.4374396868829378
1.1987067893558816,-0.09796463337699773,-0.16503605538390342,1.407552076257172,1.4205762268689577
1.201193732902263,-0.10919863317182632,-0.1385446732630835,1.3924321554460857,1.403561995601335
1.2036806764486445,-0.10605627777316512,-0.11203837333275457,1.381976754348626,1.3905611387904206
1.206167619995026,-0.10769119812039263,-0.11424759877143043,1.3809744719445707,1.3898706415131694
1.2086545635414077,-0.1093150086725364,-0.11644195307774119,1.3798486986104752,1.3890611687807912
1.2111415070877891,-0.10135092068890172,-0.10904465319460366,1.3833880360346615,1.3913752922050389
1.2136284506341706,-0.10774096879093747,-0.1159977394693179,1.3963810872492806,1.405326913122169
1.216115394180552,-0.1141199611569298,-0.12772442916836946,1.4140396499827732,1.4243753111677584
1.2186023377269335,-0.11569951272449491,-0.12985953639846182,1.426787119973195,1.4373487267047316
1.221089281273315,-0.13163325515088792,-0.12719148870724073,1.4633541208440448,1.4747576993026448
1.2235762248196966,-0.14276759364831043,-0.12929711712151892,1.5045872443316561,1.5168662123264502
1.226063168366078,-0.14431414350671662,-0.1409648495058109,1.545698293442248,1.5588075170342717
1.2285501119124596,-0.14584973009318136,-0.15740630724117954,1.557957055882417,1.572666232008994
1.231037055458841,-0.152162775570017,-0.16904470854470466,1.5844593704583563,1.6007001969105352
1.2335239990052225,-0.1536764922535146,-0.166303271788955,1.6108402374203772,1.626677445891346
1.236010942551604,-0.15517930253518358,-0.17312403874332638,1.6370998682605515,1.6535260891152646
1.2384978860979856,-0.1614596289201785,-0.17993022808882175,1.6728152823853444,1.6901937959101307
1.240984829644367,-0.17251749070634936,-0.17235665533907607,1.708409887186658,1.7257269320134103
1.2434717731907485,-0.16919929402266587,-0.16476855608169316,1.7390954946363237,1.7550584655889312
1.24595871673713,-0.16108186503170813,-0.17631956937583126,1.7409303046774474,1.7572348401768279
1.2484456602835114,-0.14816522336651844,-0.1830677045482294,1.747433358342306,1.7632328433055227
1.250932603829893,-0.14960300205184546,-0.18980139099704108,1.7538164713389914,1.7703891779457104
1.2534195473762746,-0.16060681762068568,-0.18694384830816757,1.764868267247425,1.7819939823196485
1.255906490922656,-0.16681148007458035,-0.18886031281689997,1.7758005642309707,1.7935891200509115
1.2583934344690375,-0.16342860616422333,-0.20512761768518972,1.7722483750293083,1.791549762536337
1.260880378015419,-0.1648234260294421,-0.2213805796195425,1.7781539401543967,1.7994464586887193
1.2633673215618004,-0.17099595995636652,-0.2232540154717202,1.7839406780786478,1.8059696333685546
1.2658542651081819,-0.16279261505647236,-0.22511316215975974,1.7848204117902524,1.806311510686243
1.2683412086545636,-0.1497902184690566,-0.23174645010461115,1.7807933687860098,1.8020456567460554
1.270828152200945,-0.15114240407935026,-0.24315390654959002,1.8293206175875927,1.8515889853075558
1.2733150957473265,-0.16206078927567535,-0.2353935422782656,1.8537879349218693,1.875687481119617
1.275802039293708,-0.1633917815894273,-0.23719580473859292,1.887714375049625,1.90956128098722
1.2782889828400894,-0.15992380525692557,-0.23898391495611904,1.9071581535474413,1.9287148979924675
1.280775926386471,-0.14686847797657754,-0.25033470737686425,1.8977542937848533,1.9198200892582262
1.2832628699328525,-0.14337943415041826,-0.25688299998364084,1.9025986601202565,1.9252086118936007
1.285749813479234,-0.1398798883600212,-0.25384041753737785,1.9025378748858977,1.9244873878824225
1.2882367570256155,-0.14594666856897232,-0.26514900485750026,1.9119373847868681,1.9357450731408186
1.290723700571997,-0.1663681995206615,-0.262078370375757,1.9307974276907567,1.9555925334301627
1.2932106441183784,-0.16283727617512483,-0.24941694590096342,1.9495414359407235,1.9721654600627494
1.29569758766476,-0.15929593675527287,-0.25589517997751887,1.977746456270121,2.0005845605451142
1.2981845312111415,-0.1653210096212347,-0.2575710847595323,1.9914707132718021,2.0148522282653105
1.300671474757523,-0.16175890330877185,-0.2496562858146345,2.005079659195556,2.027027045593172
1.3031584183039044,-0.16776325301299583,-0.2465160221231102,2.032938747378341,2.054690879139031
1.305645361850286,-0.17375727410334174,-0.25293872615514923,2.055894608994821,2.0786707850900252
1.3081323053966674,-0.17495258536510155,-0.24019400726841011,2.0547938762922806,2.076169415606984
1.310619248943049,-0.1713492089987687,-0.2274355081524626,2.067944022427092,2.087457770036322
1.3131061924894305,-0.16773557061938577,-0.21945166166384888,2.0953452950511817,2.113472535651022
1.315593136035812,-0.1736884992558851,-0.21624249746582835,2.108267522945381,2.126433742393652
1.3180800795821934,-0.17005440410825035,-0.2178080453478226,2.1258645691371107,2.14374882187428
1.3205670231285749,-0.1759869210312331,-0.20978312526360154,2.152925087729038,2.1702688288303142
1.3230539666749563,-0.17712086272900973,-0.20653297721321806,2.1655073139308305,2.1825328399312447
1.325540910221338,-0.1782446552779634,-0.20326922803900827,2.1683999038956037,2.1851882480503133
1.3280278537677195,-0.18893512816508484,-0.19999190802627576,2.175968321431368,2.19329236122401
1.330514797314101,-0.19961549768576559,-0.20148945090240966,2.173847611431218,2.192272287711201
1.3330017408604824,-0.20549738354468622,-0.19339667723445153,2.1716148363894385,2.189872701102913
1.3354886844068639,-0.20179240553485994,-0.19486723095164882,2.1788470597926377,2.196831336857095
1.3379756279532453,-0.20765420013853114,-0.20590114282114147,2.2051213461124215,2.2244270494963154
1.340462571499627,-0.21829438732339324,-0.20734483044707952,2.2169191309152563,2.23726948561591
1.3429495150460085,-0.21455937718256213,-0.2039867281525618,2.2286058839410883,2.248183822007488
1.34543645859239,-0.20602599981671932,-0.21976888365843994,2.235393462611638,2.2555994785226843
1.3479234021387714,-0.21184789205221238,-0.2403261182386962,2.222916918663681,2.2458841910828524
1.3504103456851528,-0.20808306091695583,-0.25608165660236937,2.229483741305791,2.2537688718756526
1.3528972892315343,-0.21867354672571043,-0.25745872357236665,2.2550941941250615,2.2802528234293833
1.355384232777916,-0.2196773566731749,-0.2588225606861432,2.2853833316813423,2.310459744657318
1.3578711763242974,-0.22067132127863986,-0.27932681291356287,2.296409402820199,2.3238363638191766
1.360358119870679,-0.22165546450251666,-0.2902410921325984,2.292961077228088,2.321861653542076
1.3628450634170604,-0.21784140706599125,-0.2915654302534283,2.2941922354640747,2.322882539435648
1.3653320069634418,-0.22359438305192797,-0.2976650692566345,2.3096799523509386,2.3394914883110314
1.3678189505098233,-0.22933761002139824,-0.30375163795013194,2.3106940770459534,2.3418300353832184
1.370305894056205,-0.22070590229427184,-0.30503676524953205,2.311600089478853,2.3420618047225115
1.3727928376025864,-0.2120644941907458,-0.30152048349757665,2.312398260500757,2.341595965753254
1.3752797811489679,-0.22735542674943443,-0.30756803510388275,2.3274540717986802,2.3586714571178278
1.3777667246953493,-0.23305990124234133,-0.3183910493018782,2.342402586005405,2.3754030505931936
1.3802536682417308,-0.22438953893981717,-0.3292011554291596,2.366820883215543,2.4001177386009047
1.3827406117881123,-0.21570957446928152,-0.33520998292662485,2.3959208344157252,2.428854256220149
1.385227555334494,-0.22138524253331238,-0.3459943712985196,2.4153375047975647,2.4500160800826425
1.3877144988808754,-0.22705135798711873,-0.3471891435490577,2.429859573672184,2.4650172754624844
1.3902014424272569,-0.2183427357597496,-0.34358273606435663,2.4299105112207062,2.4637750991763423
1.3926883859736383,-0.21441301409562802,-0.35432879529124506,2.4442210150103456,2.479059944011907
1.3951753295200198,-0.2200506213507678,-0.3506969345723192,2.453637750221448,2.4883224921997247
1.3976622730664012,-0.23046717931242822,-0.34705239723099357,2.458160996124537,2.493213984003776
1.400149216612783,-0.2169322932375194,-0.3386068134065656,2.4721562427526633,2.5046498123521386
1.4026361601591644,-0.2033880049769451,-0.32536021665489523,2.4764701576909403,2.5060188333458338
1.4051231037055458,-0.19462274317025807,-0.3264662539084635,2.4950450391942374,2.523828039845012
1.4076100472519273,-0.2050017431668788,-0.3323481522723677,2.508727556414202,2.5389357930700593
1.4100969907983087,-0.20100620718168888,-0.33821754226563083,2.5175179925560176,2.5480760279208807
1.4125839343446904,-0.19221296738031313,-0.334497651179694,2.5405702448710725,2.5696948598224925
1.4150708778910719,-0.19777566263627372,-0.3211885130384897,2.553942581485578,2.5816467580140223
1.4175578214374533,-0.21290591528815384,-0.31265537191784976,2.557635287877636,2.5854555838673177
1.4200447649838348,-0.21366173445924613,-0.3088982620227836,2.5420718436277294,2.5696689925392557
1.4225317085302163,-0.2096199525803426,-0.3051288143272033,2.5311945522942167,2.558122354270106
1.4250186520765977,-0.21035740214704696,-0.31092386985446385,2.5250037015634144,2.5527568592391
1.4275055956229794,-1.9971601442339582,-2.121934708191308,15.217556781986552,15.494040465951045
1.4299925391693609,-2.050551764394019,-2.132493663699534,14.339673467452936,14.641670905922993
1.4324794827157423,-1.969858997656323,-2.018541933130704,12.551892426693975,12.864869198625852
1.4349664262621238,-1.7886006933699528,-1.7944447611729433,10.012231259805787,10.327821611601195
1.4374533698085052,-1.5067768777031998,-1.4745673925983473,7.003206053904443,7.313659862745816
1.4399403133548867,-1.1531179968069658,-1.087640282223044,3.7833908801890477,4.102034745144413
1.4424272569012684,-0.765931303532827,-0.6623938849453435,0.6257250204967431,1.1903563423698509
1.4449142004476498,-0.37394724415130925,-0.23713546238568162,-2.1920638393439402,2.236339340236299
1.4474011439940313,-0.005896264991510913,0.15461612707557482,-4.4640740626478905,4.466754767109824
1.4498880875404128,0.3334332041607585,0.5080724449001783,-6.037076448596897,6.067586617190321
1.4523750310867942,0.6057339102200543,0.7945030358696261,-6.815302635568481,6.88814188721336
1.4548619746331757,0.7918522133253462,0.9851774446875545,-6.770021907783534,6.887002334625592
1.4573489181795574,0.9061532968016093,1.075307232582166,-5.963483211914982,6.127032843109278
1.4598358617259388,0.9438487306370169,1.0601039607055482,-4.481877510611319,4.701265452402387
1.4623228052723203,0.8857848748039394,0.9539328034157828,-2.488010219026158,2.8079881566421743
1.4648097488187017,0.7559037191032651,0.7711589349965116,-0.1782055749428535,1.0944559207751652
1.4672966923650832,0.5637820433214502,0.5165707230173808,2.241635377817632,2.368464623196641
1.4697836359114647,0.3429386437934576,0.21411014825648467,4.556034789393105,4.573937370707385
1.4722705794578463,0.1029503002003333,-0.11706921190024966,6.61176405367589,6.613601731747001
1.4747575230042278,-0.14181780450795262,-0.44344857017650474,8.246017758498677,8.259150549393237
1.4772444665506093,-0.386577294073413,-0.7362975426867924,9.329509315514876,9.366499887574792
1.4797314100969907,-0.6169629856476175,-0.9956161655364384,9.828720203351551,9.898264277665437
1.4822183536433722,-0.7898792765100373,-1.1878856516569682,9.695766691236708,9.800146597054951
1.4847052971897536,-0.9053261938720476,-1.303529230648944,8.997686728640243,9.136584177865153
1.4871922407361353,-0.9680921683137871,-1.3569121487810991,7.8302486855010285,8.00569843940245
1.4896791842825168,-0.9925424371038223,-1.3288808291457406,6.303586142259481,6.5181487402796225
1.4921661278288982,-0.959523414315715,-1.2194353081812987,4.556563099809972,4.81352001512502
1.4946530713752797,-0.8690351273507986,-1.057306042312123,2.7471971728544284,3.0692361307365568
1.4971400149216612,-0.740231216937552,-0.8520698747444848,1.0239291699726145,1.5239410326835938
1.4996269584680426,-0.5922653238497095,-0.6037268421063549,-0.46001169642391115,0.9627435144218409
1.5021139020144243,-0.42513747562437454,-0.35058420764967124,-1.5944918433020634,1.6870256068567617
1.5046008455608058,-0.2675781197645078,-0.10700721808541891,-2.3220501236549786,2.339864391725553
1.5070877891071872,-0.11958728389454348,0.11742728313597084,-2.5948021966263033,2.60020936174583
1.5095747326535687,0.01883500431835869,0.28920043590358446,-2.412747754079817,2.430091227573915
1.5120616761999501,0.13811191052438995,0.41310060661102055,-1.828558923926681,1.8797219872318864
1.5145486197463316,0.20951298705094412,0.49870456491486204,-0.8949078336096647,1.0456873172540033
1.5170355632927133,0.24740341606750016,0.5268586604935654,0.3068029699689019,0.6579639509887161
1.5195225068390947,0.2613599763830016,0.47362083964971946,1.6616521171188285,1.7474877668615918
1.5220094503854762,0.23222902684496913,0.3820866951156341,3.0259878186757554,3.058843383089073
1.5244963939318577,0.16958734618387303,0.25225618968698704,4.304042319119004,4.314762257412149
1.5269833374782391,0.08301171309188621,0.0841292861064864,5.409624670002063,5.410915611205387
1.5294702810246208,-0.02270949709680914,-0.10792884297436878,6.218236696742461,6.219214739267231
1.5319572245710023,-0.12363429580377897,-0.2999762183146548,6.705936694903558,6.713781209326628
1.5344441681173837,-0.2293395177292933,-0.48243607068501637,6.848782960461584,6.869582899725371
1.5369311116637652,-0.3350367876483502,-0.6553084375460982,6.641987403079139,6.682639857126733
1.5394180552101466,-0.42636092373059276,-0.7802861298449875,6.13343436934083,6.197551713759574
1.541904998756528,-0.5033119541411013,-0.8765227984203712,5.399738626144676,5.493522765039825
1.5443919423029098,-0.5611015037585795,-0.9248648675955478,4.493572924171533,4.621948457704843
1.5468788858492912,-0.5853643908544013,-0.9396775849822541,3.4771868211208234,3.649174375495745
1.5493658293956727,-0.5808890470138872,-0.9209609882767189,2.465502311585464,2.695237072188938
1.5518527729420541,-0.5668291138153496,-0.8447730986181847,1.554287777241096,1.8576187248460676
1.5543397164884356,-0.5431846195873088,-0.7494211803537492,0.7770623569562316,1.208514601946286
1.556826660034817,-0.49080197940785314,-0.6349052713108878,0.21044081983161522,0.829624388009671
1.5593136035811987,-0.42404643162747013,-0.496437006038875,-0.11684609789194411,0.6632632115031004
1.5618005471275802,-0.3620716179466026,-0.3627468423705338,-0.2000096762391843,0.5501681549867883
1.5642874906739617,-0.29051235685242505,-0.2338348182571166,-0.019895984944843903,0.3734595050741311
1.5667744342203431,-0.23331069342303057,-0.11927777833022102,0.4043416800161772,0.4818228536165894
1.5692613777667246,-0.17610144620176355,-0.03344097058053297,1.0104543931015657,1.0262300416602381
1.571748321313106,-0.12846145036068296,0.009310356963281308,1.7361932290775783,1.740964087989865
1.5742352648594877,-0.09517913777807574,0.0377065861182051,2.5193092630122793,2.5213885098501465
1.5767222084058692,-0.07146613371754679,0.03259406546175736,3.2927651669480396,3.2937019030322414
1.5792091519522506,-0.05732246678832836,-0.0060272431828232165,3.9847352098954483,3.9851520530388305
1.581696095498632,-0.0671133755853203,-0.05900376474575886,4.5377588711070445,4.538638696982534
1.5841830390450136,-0.09605048544628733,-0.1407007474333568,4.92789445335215,4.930838279589147
1.586669982591395,-0.12498021177156993,-0.23196461624281595,5.131200259667812,5.137961049028902
1.5891569261377767,-0.1539025832656731,-0.32800700616455236,5.133311399992668,5.146082056334078
1.5916438696841582,-0.19239443529602318,-0.4096743422594771,4.962958614402459,4.983553641098908
1.5941308132305396,-0.23087898997052653,-0.49133187286138646,4.620142223298445,4.651927157727686
1.596617756776921,-0.26935627605881146,-0.5729796363729531,4.162323387166466,4.210201235867863
1.5991047003233025,-0.30303791903071364,-0.6402524612649705,3.632598056765411,3.7010165950103704
1.601591643869684,-0.33671235101659824,-0.6692083693958315,3.0453317631598766,3.136121903993369
1.6040785874160657,-0.34643758424429494,-0.6742126092138894,2.4771392807988795,2.590521310214763
1.6065655309624471,-0.3561556641634741,-0.6648420258738108,1.9854817710644097,2.1239114010976974
1.6090524745088286,-0.3658666196403816,-0.6410966579154791,1.5847247656629415,1.7482036183073588
1.61153941805521,-0.3564168662775568,-0.5790345273022584,1.3179642164235368,1.4830184227271659
1.6140263616015915,-0.34696004625699217,-0.5121744958655094,1.199565655447465,1.3496895011975343
1.616513305147973,-0.33270778517548205,-0.4500934088584847,1.2199525984219024,1.3422231146164103
1.6190002486943547,-0.2992949020049699,-0.3688492883149048,1.3791253678555382,1.4586342982801583
1.6214871922407361,-0.2754518456154088,-0.2828073828528894,1.6531422698297114,1.6996273413153737
1.6239741357871176,-0.25639024164916346,-0.2063329411116248,2.022850013913785,2.04944661247657
1.626461079333499,-0.23253331244230646,-0.13942600178964915,2.440364889916501,2.45538024495344
1.6289480228798805,-0.20866949030529072,-0.09645181356597199,2.872168397762027,2.8813533649358813
1.631434966426262,-0.1895872075614263,-0.07262201185707351,3.275165230882015,3.281451592733855
1.6339219099726436,-0.18007489654630104,-0.077513442058323,3.6397789060918706,3.645054977266766
1.636408853519025,-0.17534418296657808,-0.08718412634007056,3.922914117099875,3.927798597755159
1.6388957970654066,-0.18497190250098086,-0.11121091013124573,4.086263961063212,4.091959876481081
1.641382740611788,-0.19459287423721758,-0.15438223555608266,4.14419397178461,4.151631478965238
1.6438696841581695,-0.21378393387453046,-0.21190973811302483,4.120646489823065,4.131626411182544
1.646356627704551,-0.2281799005200063,-0.27900505331460534,4.006045032604604,4.02222658362659
1.6488435712509326,-0.2282039966098625,-0.33651460672568634,3.800389924298682,3.822078324854084
1.651330514797314,-0.24258667115108232,-0.38922684052524525,3.5132582958117506,3.543067834447361
1.6538174583436955,-0.2713279532364623,-0.44671860022432686,3.2116881179840036,3.2539386799989796
1.656304401890077,-0.29527425868467183,-0.4994131180637251,2.9100449252158107,2.9673155910873734
1.6587913454364585,-0.30006040664124967,-0.5281568196538431,2.6035406387035414,2.6734639947381784
1.6612782889828401,-0.3096284428202286,-0.5521033571770548,2.330482809597262,2.4149198776435217
1.6637652325292216,-0.3239783963395033,-0.5664643662228825,2.1291789891116872,2.2269366958155037
1.666252176075603,-0.3191682797202824,-0.5616630790684995,2.0187831152384454,2.1196271067195176
1.6687391196219845,-0.31914013869120217,-0.5472763412795225,1.9705650928180862,2.069900627296222
1.671226063168366,-0.3143171957424647,-0.504150578506156,1.984525246658703,2.0715461761624536
1.6737130067147474,-0.2999110766877746,-0.46580465292771756,2.094182724850005,2.166222960285788
1.6761999502611291,-0.29507542394503733,-0.4226617968456696,2.270807432350832,2.3285787285700548
1.6786868938075106,-0.2806566533717463,-0.3699336458860034,2.4665156608656407,2.50984433077747
1.681173837353892,-0.2566547941081677,-0.3267738522796986,2.6908845419634737,2.7227766070778547
1.6836607809002735,-0.24701189189711625,-0.27881724501827687,2.93433759394658,2.9578862463094113
1.686147724446655,-0.23257436259902242,-0.25000587965772514,3.1537795118833865,3.1722104254883825
1.6886346679930364,-0.2085538320351372,-0.22118618187244454,3.3204802008054513,3.3343675250111318
1.691121611539418,-0.2036807492682355,-0.19235819061857917,3.4583820022638037,3.4697108805637855
1.6936085550857995,-0.2035899334770708,-0.19704076809422055,3.553120031236883,3.5643983898662546
1.696095498632181,-0.19391620383864483,-0.20650353333241478,3.5711757894056717,3.5823935744453297
1.6985824421785625,-0.18902479944954087,-0.21116971864575484,3.5364916182726134,3.547829757893171
1.701069385724944,-0.19370415276288336,-0.23498137958658516,3.4538562460305187,3.4672554731075165
1.7035563292713254,-0.19837748626748733,-0.2587849418212702,3.328058400837765,3.3439940180206764
1.706043272817707,-0.1934680224482594,-0.2969456542544777,3.1686752141325476,3.188433660898186
1.7085302163640885,-0.2029178070278467,-0.3350983458643766,2.994860623947228,3.02037360183796
1.71101715991047,-0.2123616591614199,-0.37324305558474524,2.8161917616210044,2.8487442656451356
1.7135041034568514,-0.22179960795957848,-0.39222620906206807,2.656610968395471,2.694553451421097
1.715991047003233,-0.231231682526878,-0.40162465185792495,2.5304837788071604,2.5725704279553505
1.7184779905496144,-0.2454463152816178,-0.41101522952641556,2.4425989206815553,2.489069484747799
1.720964934095996,-0.2500783253537503,-0.4156095776525093,2.388168315127138,2.4369280644338738
1.7234518776423775,-0.25470454846716595,-0.4058309284919632,2.3719806898107443,2.419889572349442
1.725938821188759,-0.24974820705636075,-0.40083293421279365,2.4131899822719562,2.458968706310682
1.7284257647351404,-0.24957454014872255,-0.3910388270508287,2.483066096753185,2.52602772276886
1.7309127082815219,-0.2589719801218239,-0.3716602425511879,2.572032550678151,2.611618131375524
1.7333996518279033,-0.26836374938259433,-0.33790881624725744,2.699243281286739,2.7335171046934947
1.735886595374285,-0.2681730703277323,-0.30414979694127053,2.8359681925040237,2.8648105493248517
1.7383735389206665,-0.2679767786244476,-0.2799600301020151,2.967842398098676,2.9930382009404353
1.740860482467048,-0.26298649996775614,-0.2605511512235279,3.090077818356824,3.112174436799786
1.7433474260134294,-0.2579906666815305,-0.23155798914472614,3.169155953513716,3.1880601851475387
1.7458343695598109,-0.2577777110773649,-0.21213419593151484,3.214653933552727,3.231942168096115
1.7483213131061923,-0.2527708554931286,-0.2070682136729829,3.240937291637101,3.2573677837825548
1.750808256652574,-0.2525469355346467,-0.2019948711604007,3.2288527375417457,3.245007223929382
1.7532952001989555,-0.2523175768330065,-0.20170261044903803,3.1784005941709905,3.1947736132106983
1.755782143745337,-0.2616596149659294,-0.21576827689654765,3.118311604193499,3.1367003306447456
1.7582690872917184,-0.2662078688947686,-0.24419190920134737,3.039009283552285,3.06040417976088
1.7607560308380998,-0.2611739642061971,-0.26781993276131955,2.9404939546621707,2.964193659896099
1.7632429743844813,-0.2513463331117083,-0.2962291928762637,2.8371311497245006,2.8636060962740477
1.765729917930863,-0.2606670210877451,-0.33420813150503914,2.7576516107215348,2.7900331139902126
1.7682168614772444,-0.26519404039082906,-0.3673915773039522,2.678113642926509,2.716173251941377
1.770703805023626,-0.2601390165414432,-0.38620276222765826,2.6033059713433913,2.6446222531604735
1.7731907485700074,-0.26944399496416493,-0.40500693480974537,2.5667477407013406,2.6124365347433174
1.7756776921163888,-0.283532197823114,-0.4238041335995719,2.5492856590038793,2.599780341117559
1.7781646356627703,-0.2784616373027152,-0.4330175904819127,2.54134324068745,2.5929655963980434
1.780651579209152,-0.2781743587712728,-0.4326473439575631,2.552497613256574,2.6038065910877197
1.7831385227555334,-0.2730935843351778,-0.437058642462985,2.5875375006768113,2.638361362695683
1.7856254663019149,-0.2775845526821715,-0.4318863144868552,2.6512516266896533,2.700502575550213
1.7881124098482963,-0.2772820825574297,-0.4314956084131567,2.719698294885238,2.7676402635799504
1.7905993533946778,-0.2626093960052701,-0.41673294935647176,2.7976662285406784,2.840698219147296
1.7930862969410595,-0.25750853829055087,-0.4019635856457122,2.870790537411583,2.910210246901344
1.795573240487441,-0.25240273141382213,-0.4063411689016019,2.9438599442891613,2.982470730109461
1.7980601840338224,-0.2520804073139733,-0.39155851087196725,3.0025095584324584,3.0384085057256747
1.8005471275802039,-0.2517531912662035,-0.3767692631186055,3.0371628921645355,3.0707805490599456
1.8030340711265853,-0.2514211118424875,-0.3763386738525778,3.062185474148471,3.0954520269264596
1.8055210146729668,-0.2558726009111063,-0.3711131680117217,3.058424009538288,3.091464570958071
1.8080079582193485,-0.24595407371430716,-0.35151597714280935,3.0306672198174915,3.0608823377973238
1.81049490176573,-0.22645396207097723,-0.3414891560024991,2.9693386162313686,2.997476948776715
1.8129818453121114,-0.23089111769646053,-0.3458211460332561,2.8983805329847847,2.9280561277509762
1.8154687888584928,-0.23053514911619688,-0.3453583720424338,2.8225816907136476,2.8529609637830204
1.8179557324048743,-0.22538608475117927,-0.3448892754047659,2.76109601972193,2.79166594162213
1.8204426759512558,-0.22502075963625512,-0.3492022974601947,2.704347030093661,2.7360682458584913
1.8229296194976374,-0.21986239549779418,-0.3487206695523186,2.647546634929995,2.679449339408414
1.825416563044019,-0.21948782731573624,-0.3625980429105664,2.614637166945734,2.648769480690301
1.8279035065904004,-0.22868548672157746,-0.37646924548557203,2.5960421353000607,2.633146580212894
1.8303904501367818,-0.23787859535729683,-0.37596910519071036,2.5773966455134385,2.615513804683697
1.8328773936831633,-0.24227877815615645,-0.37546286982338595,2.5539126094234827,2.5927091987982602
1.8353643372295447,-0.23709766002195004,-0.3749505771816155,2.549532358461155,2.5878405056257257
1.8378512807759264,-0.24148888243011307,-0.3887974749853025,2.569044610442689,2.6094962286496832
1.8403382243223079,-0.24108726358353816,-0.378696374391263,2.612449679525519,2.6507409041044117
1.8428251678686893,-0.24068123493557048,-0.3638009263598132,2.6605942662424065,2.696115802489266
1.8453121114150708,-0.24027082458800808,-0.3632647818104351,2.7134786840589555,2.748209951894925
1.8477990549614522,-0.23985606061097925,-0.3483575584180554,2.7663148427672146,2.7984605996213356
1.8502859985078337,-0.2442253743628191,-0.3238676970577812,2.7951610385197725,2.824440041838223
1.8527729420542154,-0.2390135838880792,-0.31373725184335655,2.804805987028062,2.8324009570231587
1.8552598856005968,-0.2385859271202186,-0.3036010502828561,2.8144036135965385,2.840768301459646
1.8577468291469783,-0.25251923863899045,-0.2838823231608987,2.8143774232350616,2.8399076428118697
1.8602337726933598,-0.2520831264278283,-0.2785231244599613,2.823881340497815,2.84875882775294
1.8627207162397412,-0.2420660216781087,-0.2731582815551028,2.7950316430723,2.8187609496742794
1.8652076597861227,-0.2368331621871711,-0.26299942841653356,2.7613474647042464,2.7839357871343884
1.8676946033325044,-0.24117297907663704,-0.25762340892933056,2.732405922145966,2.755100061711628
1.8701815468788858,-0.24072029015137986,-0.2522418569710312,2.689053711831404,2.711564507367105
1.8726684904252673,-0.2402635264616002,-0.25164321301260273,2.660021562996345,2.6826788075370835
1.8751554339716487,-0.23980271570085215,-0.2606159174772733,2.6165793646269213,2.640438139834268
1.8776423775180302,-0.23933788552594298,-0.2600063941384043,2.5874578451424552,2.6114792836302803
1.8801293210644117,-0.2388690635565227,-0.2641798899626848,2.591810925906433,2.616167678004036
1.8826162646107933,-0.24797308401530083,-0.2875016518673945,2.600908494659426,2.6284734824255125
1.8851032081571748,-0.24749636116513996,-0.30602970015733,2.5955972453582,2.6252683074839127
1.8875901517035563,-0.2470157291524015,-0.3053988617274266,2.5902426947727744,2.6198554259761786
1.8900770952499377,-0.2369544088034185,-0.3095511899840484,2.584845149278733,2.6140760847423152
1.8925640387963192,-0.23646604082722028,-0.31848672168039505,2.574616511493333,2.6049952325494425
1.8950509823427006,-0.235973845971384,-0.317840283556591,2.5595570869116537,2.589988143407906
1.8975379258890823,-0.23547785158413875,-0.3124003155813315,2.5588207938630267,2.588553192589986
1.9000248694354638,-0.23976648829365632,-0.3213204676310357,2.5724079369440984,2.6034625800806688
1.9025118129818452,-0.234474573406102,-0.3158703563252603,2.6051072236159847,2.634641541863941
1.9049987565282267,-0.22917894078805234,-0.30083842147147744,2.6329769409576222,2.659998931268346
1.9074857000746082,-0.22387961762391695,-0.29537831278328763,2.632075375583333,2.65804274111653
1.9099726436209896,-0.21857663105618536,-0.2947016633174142,2.635921653482157,2.661335713002407
1.9124595871673713,-0.20369320154441045,-0.2892317027544218,2.644516076927597,2.6680725588638254
1.9149465307137528,-0.20317137274763802,-0.2789684673591335,2.6387053344342446,2.6611779073291215
1.9174334742601342,-0.21701117168028544,-0.27827720330043393,2.6232781306362822,2.646907667672854
1.9199204178065157,-0.22127060871175724,-0.27279273676794036,2.6125999763223016,2.636106066870661
1.9224073613528971,-0.21594971076919028,-0.272091910494928,2.5923059618685294,2.615476722373418
1.9248943048992788,-0.2154137146964611,-0.2761747605156395,2.5623963871174453,2.5862232717879823
1.9273812484456603,-0.2148742440116247,-0.2802529194850907,2.5420251646938663,2.566438110992814
1.9298681919920417,-0.21911972882841824,-0.2891148266395063,2.5168273834773363,2.5428371785794712
1.9323551355384232,-0.2185733892543315,-0.29318371119424835,2.4963801484417605,2.52302296076232
1.9348420790848047,-0.21802365531211526,-0.30682481890583535,2.4806837574090395,2.509077059009006
1.9373290226311861,-0.21268215033785443,-0.31088457222769517,2.4553732977246607,2.484097611910773
1.9398159661775678,-0.20254890094154848,-0.3053630068331059,2.4300258728161355,2.4574983958836283
1.9423029097239493,-0.21156595028798936,-0.31420217493501923,2.4381606021888773,2.467409629575354
1.9447898532703307,-0.22057971161204526,-0.32782530544182986,2.4510473616566006,2.482691686284599
1.9472767968167122,-0.21043659810110504,-0.33665562719907527,2.4543212364622713,2.4862247092519336
1.9497637403630936,-0.2098670560978539,-0.34548157894989195,2.4671361345553473,2.5000324816005075
1.952250683909475,-0.20450590201398405,-0.3495147927329847,2.484703946744099,2.5174862377505534
1.9547376274558568,-0.2039299688142202,-0.3391784972024552,2.502236563293195,2.5333411345151338
1.9572245710022382,-0.20813928277378418,-0.33362634086952614,2.5245226805604126,2.554964434394245
1.9597115145486197,-0.20755706347805164,-0.3376467622192534,2.5324089777505616,2.5632363334715005
1.9621984580950012,-0.20697174042376687,-0.3320861830694377,2.53068415011471,2.5607578569559215
1.9646854016413826,-0.2063833397374557,-0.3265214450935985,2.519348489024467,2.5487893491179423
1.967172345187764,-0.20579188749539667,-0.3065873732970794,2.503190688608769,2.5302785897923896
1.9696592887341458,-0.19562060308265944,-0.2962260191806445,2.4822110391094565,2.5074666333705986
1.9721462322805272,-0.19502312575526937,-0.2906490142556617,2.461198233518104,2.4859621102783884
1.9746331758269087,-0.2135762880773729,-0.2850679899655102,2.454517770892574,2.48022903727848
1.9771201193732901,-0.20818448603810186,-0.2842713843257636,2.4286511165095357,2.4540776772336383
1.9796070629196716,-0.1932129554184232,-0.2786824253221831,2.3931753649467025,2.4170816013764944
1.982094006466053,-0.19260373858767915,-0.28266635747276414,2.3863980301181584,2.410786599414535
1.9845809500124347,-0.19199165130016793,-0.28664640862418267,2.3795889788645113,2.4044688948039137
1.9870678935588162,-0.1961651225385394,-0.29062261319353544,2.3871137073163666,2.4127275250756535
1.9895548371051976,-0.20512417791192628,-0.2898066022069714,2.3802420811251253,2.406577686218681
1.992041780651579,-0.2045036330150024,-0.2937752165805074,2.3589743852640623,2.3859768993276567
1.9945287241979606,-0.19430351334953594,-0.29774008719772116,2.342464517384136,2.3692916726372406
1.997015667744342,-0.20325426428501187,-0.3017012481905783,2.3355011645682326,2.3636627569958804
1.9995026112907237,-0.2217791045739531,-0.30087033029837684,2.3285078033276516,2.3583166702199354
2.001989554837105,-0.21157083299222623,-0.3048241741485822,2.3214847162001657,2.3509511441264266
2.0044764983834864,-0.20614829806530072,-0.30398600701421996,2.3096437817856037,2.33866607535077
2.006963441929868,-0.20551152502106707,-0.2935674594150197,2.3025620880236417,2.330280886362772
2.0094503854762498,-0.20008373239109511,-0.2879337750779434,2.309816722229436,2.336277519707135
2.011937329022631,-0.19944175193220776,-0.2918733910148994,2.3074659478480326,2.3343877546959813
2.0144242725690127,-0.1987972053839936,-0.2862327275613943,2.3098752542556547,2.3360165225054264
2.016911216115394,-0.2029385210700716,-0.28058862489956793,2.321833323553233,2.3475144306520015
2.0193981596617756,-0.20707732061654527,-0.2893063264562228,2.328975223922445,2.355993370297532
2.0218851032081573,-0.20163682227202612,-0.28365544569931345,2.312147619583328,2.338192557236398
2.0243720467545385,-0.20098226082920884,-0.2684244192625469,2.290504400673826,2.314920289671033
2.02685899030092,-0.20032525774177817,-0.2627668936637253,2.2736226500433654,2.2975066058849993
2.0293459338473014,-0.20445424104599452,-0.26668290206218437,2.2710794498902684,2.2958055611588466
2.031832877393683,-0.21336923539946362,-0.256230460938093,2.273298268477258,2.297621704543461
2.0343198209400644,-0.20791665211993282,-0.25535161989674027,2.256337363448594,2.2802394790255702
2.036806764486446,-0.20246172570843118,-0.25446960522285744,2.2393506216706465,2.26283820392352
2.0392937080328277,-0.20179288396618694,-0.248796046442731,2.2319151227053,2.2547871198198597
2.041780651579209,-0.20112174799434918,-0.2526961862847634,2.2244543321662142,2.247777212263752
2.0442675951255906,-0.20523674547496268,-0.2565932507962949,2.216968521637595,2.2411853212037927
2.046754538671972,-0.19977269074882475,-0.25091046594479094,2.2046695587101803,2.2278763549607055
2.0492414822183536,-0.1990948180183309,-0.2500130742190301,2.197134520259443,2.220257954373296
2.0517284257647352,-0.20320315146440343,-0.2586895113865628,2.184786869200373,2.209412919283503
2.0542153693111165,-0.19773250524622094,-0.26736300317302897,2.1724152777266683,2.19771910352458
2.056702312857498,-0.20183651670408054,-0.2712451785430474,2.1648084173468023,2.1910516676184644
2.0591892564038794,-0.20593840319507323,-0.270336069699864,2.166754958881083,2.19324400565169
2.061676199950261,-0.2100381886553243,-0.26942411208499717,2.187831975779021,2.2143428251080577
2.0641631434966428,-0.1949822836778604,-0.26372093441694666,2.1849441042726685,2.209422449644675
2.066650087043024,-0.19428953531704152,-0.2580149719720999,2.158091609780003,2.182127298188243
2.0691370305894057,-0.18880635404143292,-0.25230625662344375,2.155158790222342,2.178076145944026
2.071623974135787,-0.18332116685855387,-0.2561716268011671,2.1378386830527907,2.1609222076125807
2.0741109176821686,-0.18741080403337806,-0.2552459042501303,2.11091995490185,2.1345389050349337
2.07659786122855,-0.1819216758458992,-0.23995231395140282,2.0983448849730575,2.119840528295892
2.0790848047749315,-0.18121901575494848,-0.23423290404380603,2.1001137351574055,2.120892049493509
2.081571748321313,-0.18051444387451415,-0.22851089933920532,2.092284750030611,2.1124531168229024
2.0840586918676944,-0.18459638689537566,-0.2179979278846842,2.094011803334763,2.113405866160627
2.086545635414076,-0.1838880614833025,-0.21227082760284022,2.090929944850622,2.109706557244468
2.0890325789604574,-0.17838949088037992,-0.21132962968990343,2.0782510302777712,2.096571097695485
2.091519522506839,-0.1824659082250868,-0.21517436525603895,2.06076372123196,2.079985800401902
2.0940064660532207,-0.18654052998956266,-0.20943985536409082,2.0480450819221794,2.0671601485925915
2.096493409599602,-0.18103657258094374,-0.19891453427146732,2.0496721758277205,2.0672438803679243
2.0989803531459836,-0.1803192689426888,-0.19317523946887238,2.0417032424534414,2.0587335529739583
2.101467296692365,-0.19396544863248655,-0.1970104050393866,2.043292150452194,2.0619113722603446
2.1039542402387466,-0.19324471457983972,-0.20563165833784725,2.044862347817614,2.064240761187023
2.106441183785128,-0.17815708957021897,-0.21903902995147861,2.0416256851237984,2.061056399850192
2.1089281273315095,-0.17743301624484492,-0.21807893709803494,2.0335824155228357,2.052924338299696
2.111415070877891,-0.18628411393639926,-0.22190502346924745,2.03030959806265,2.0508780252690006
2.1139020144242724,-0.17597998530945091,-0.22094051274616033,2.0318074844033234,2.0513471961321934
2.116388957970654,-0.17525107280553842,-0.21997383848164498,2.018922712174052,2.038418589462937
2.1188759015170353,-0.17930899555702817,-0.21421662749855175,2.0108091448145187,2.030121645678953
2.121362845063417,-0.17378856598846987,-0.2132457164909849,2.02183224168971,2.0404611769906627
2.1238497886097987,-0.17305501637888115,-0.22663794206308863,2.018473428204759,2.03851607201051
2.12633673215618,-0.1723199656584256,-0.22566291416626205,2.0007329522479482,2.0207796187623535
2.1288236757025616,-0.1715834360097676,-0.21510906590357015,1.9877646742274768,2.006719010188893
2.131310619248943,-0.17563385286787253,-0.20934163692790753,1.9795688405066958,1.9983403027337194
2.1337975627953245,-0.1748944316385574,-0.21793746348079335,1.9665688900424803,1.9863227329639885
2.1362845063417057,-0.16936519429985647,-0.21695455847022238,1.9391882610236388,1.9586232310409069
2.1387714498880874,-0.1686229694018267,-0.2255465645953998,1.9213692141108947,1.9418971691476852
2.141258393434469,-0.17745618210541697,-0.23892510786210153,1.9226887992315982,1.9455868324042989
2.1437453369808503,-0.18628804754165273,-0.2475134108636623,1.9192052422963117,1.94404600955633
2.146232280527232,-0.1855417807723848,-0.26567671270259163,1.9109187850404457,1.9382003175897728
2.1487192240736133,-0.18958261339166532,-0.28862663910751474,1.9121948783815217,1.9431253580279981
2.151206167619995,-0.2031989702833758,-0.2924212024329136,1.9038801492139799,1.9368943191944112
2.1536931111663766,-0.18808364637885805,-0.30100244814326027,1.88118643361023,1.914377269459335
2.156180054712758,-0.19212069630516687,-0.3095820016877511,1.872844390099865,1.9079563640833908
2.1586669982591395,-0.19615652813490092,-0.30858308510165333,1.8644890465426602,1.9000053443657339
2.161153941805521,-0.185825953190705,-0.3075825336076039,1.846543833329707,1.8811864416552857
2.1636408853519025,-0.18985941260760042,-0.31136877901381865,1.828585793342394,1.864597306850434
2.166127828898284,-0.1795265076062495,-0.30557663975291804,1.8154035653488991,1.849674824064348
2.1686147724446654,-0.16919246921934777,-0.29978295076450223,1.8022089806819643,1.8347896662179937
2.171101715991047,-0.15885731844770568,-0.29398774025273955,1.7842138698776182,1.8152365059426758
2.1735886595374283,-0.15330947954133356,-0.29776784296738734,1.770995272634246,1.802385569326256
2.17607560308381,-0.1573373766789648,-0.2919696736410722,1.757765017888877,1.7887814842904028
2.178562546630191,-0.14699901404601917,-0.28617006683281065,1.749311740416915,1.7786493702925412
2.181049490176573,-0.14623642895944283,-0.2803690503652949,1.7408472675490945,1.7693335204225054
2.1835364337229546,-0.1550496420628633,-0.2745666519653023,1.7371602324509556,1.7655460659762792
2.186023377269336,-0.14949665732643413,-0.273551302583789,1.7430392674804596,1.77069631887455
2.1885103208157175,-0.12957749524980483,-0.2725346264347479,1.7536961975456338,1.7794706525164037
2.1909972643620987,-0.12402259618228567,-0.25715144099501064,1.7499776367825488,1.7731131371710716
2.1934842079084804,-0.12325517383831508,-0.24176698356651372,1.741460618436455,1.7624778573888082
2.195971151454862,-0.12248684518013236,-0.23116968471362176,1.7329337716179243,1.7525700862409757
2.1984580950012433,-0.11692922709732012,-0.22057116826292855,1.7196089179809082,1.7376360134441045
2.200945038547625,-0.10658233972696196,-0.20518305794365954,1.706274685002371,1.721869095805115
2.2034319820940063,-0.11059981641445565,-0.19458218734845012,1.697719699340075,1.7124096252215977
2.205918925640388,-0.10503966054929753,-0.18398018001125305,1.6843673768700702,1.6976382115131146
2.208405869186769,-0.09469029536963897,-0.1685886593680972,1.6662179392867191,1.6773999550809588
2.210892812733151,-0.08434014404027435,-0.1579844587178414,1.6720020273824234,1.681565677772961
2.2133797562795325,-0.09314283961344522,-0.14259079797980556,1.6538358279992433,1.662582530346604
2.2158666998259138,-0.10194478850527172,-0.11761930029514556,1.6404499802774355,1.6478177015366544
2.2183536433722955,-1.3222120503784356,-1.557898214682931,30.7836441166696,30.851386300379517
2.2208405869186767,-1.4315690344311158,-1.595173978539965,29.93706064223616,30.013689706850077
2.2233275304650584,-1.4116384408031128,-1.5366807244765541,27.14158961745637,27.22168249206772
2.22581447401144,-1.2719970955366624,-1.3919952851991528,22.737207893969252,22.815263537786457
2.2283014175578213,-1.0270102279200652,-1.156329283353943,17.135718372384623,17.20536810293445
2.230788361104203,-0.6958314704875668,-0.877566778011047,10.777654372398999,10.835688194853192
2.233275304650584,-0.32634487562080294,-0.5796498115393645,4.165798456036444,4.218574600285883
2.235762248196966,0.043142311013814716,-0.2625784096064092,-2.2066436221573964,2.222630143635904
2.238249191743347,0.3743228438245881,0.0449169822984028,-7.923080561600963,7.932045178409333
2.240736135289729,0.6528314938962059,0.3141059187857813,-12.61480509575614,12.635590967246213
2.2432230788361105,0.8451494191070408,0.5449883744885864,-16.013666428652922,16.045211197024187
2.2457100223824917,0.9177577774104941,0.7040455008978861,-17.966435444851214,18.003631911348833
2.2481969659288734,0.8945985666789144,0.7960656761679341,-18.43959311276405,18.47843665791487
2.2506839094752547,0.7756717682582617,0.8114720685925887,-17.476234854772468,17.512251092002504
2.2531708530216363,0.5609773635698985,0.7694182664885516,-15.224800967152001,15.254548979259813
2.255657796568018,0.288822560673073,0.6699042449922139,-11.953441830032265,11.975682099695927
2.2581447401143993,-0.007273835617466307,0.522506785981852,-7.939884631035527,7.9570619077795195
2.260631683660781,-0.31294663369310616,0.34159107475704475,-3.5001637851888816,3.5306892501381766
2.263118627207162,-0.5898886252674025,0.13194549007840273,1.0113790650603454,1.1782469248057617
2.265605570753544,-0.8237346185799096,-0.09206478255146067,5.293074712940277,5.357579169998427
2.268092514299925,-0.9666005985520207,-0.2969209442470153,9.048042354146055,9.104369786353944
2.2705794578463068,-1.0280633898728735,-0.46825780930222205,12.046438830003623,12.099292053446288
2.2730664013926885,-1.0081230105148848,-0.6300174184716663,14.10630501418753,14.15630866805325
2.2755533449390697,-0.9019910750539835,-0.7534693758845004,15.131873039282492,15.177446612551046
2.2780402884854514,-0.7431864245523672,-0.8242484955286913,15.137508313384012,15.178137882552996
2.2805272320318326,-0.5221322701129694,-0.8423548012509761,14.185460276933474,14.22003751707925
2.2830141755782143,-0.26277064600466166,-0.8365187367175593,12.385862402717208,12.416859484923108
2.285501119124596,-0.022562409661857963,-0.7923751156094361,9.920674212466725,9.952293414890313
2.287988062670977,0.1984924214011607,-0.69077034818481,7.024527663579207,7.061200451175041
2.290475006217359,0.38124021646574047,-0.5748000877632009,3.912901099306863,3.973227184103658
2.29296194976374,0.5113157482100934,-0.4492527609989634,0.8204264753237798,1.0660072415537523
2.295448893310122,0.5695653860689393,-0.3237051977639185,-2.0517830768008425,2.1538346218578552
2.2979358368565035,0.565565919475705,-0.20294582450662668,-4.493037619720442,4.533038591185852
2.3004227804028847,0.489740524659534,-0.08697466425240385,-6.374050073396077,6.393428244054683
2.3029097239492664,0.3468775878873998,0.009843050115724061,-7.603840585217652,7.61175489568715
2.3053966674956476,0.17049591542527237,0.07793048913814093,-8.12494812668086,8.127110438499578
2.3078836110420293,-0.025039299665172765,0.12207603341950612,-7.937372509991519,7.9383507031896885
2.3103705545884106,-0.22536286424491858,0.16622167694900902,-7.117728001346224,7.123234515837347
2.3128574981347922,-0.3921675684963277,0.17206017065524826,-5.785724497691363,5.801552211890557
2.315344441681174,-0.5254534290868738,0.14437989545314434,-4.017976266959218,4.054760183068506
2.317831385227555,-0.6252204626068616,0.1071228456424147,-1.967712031073277,2.067429942743257
2.320318328773937,-0.6627382656472613,0.06028899902488538,0.1639554539699244,0.6853744692086557
2.322805272320318,-0.6380068546435314,-0.0056984731345322,2.2525278844299876,2.341146533069392
2.3252922158666998,-0.5701798592349341,-0.07647438286556918,4.139988132454283,4.179767354766787
2.3277791594130814,-0.45925729570190604,-0.13767354209418325,5.706626295884071,5.726731611375178
2.3302661029594627,-0.31481598688813905,-0.20366118256417298,6.8758281015698905,6.88604378908688
2.3327530465058444,-0.15122115887985005,-0.26007211599362723,7.580556082134429,7.586523305098037
2.3352399900522256,0.0027967523533157235,-0.29732955731686905,7.787291592569842,7.792966253948936
2.3377269335986073,0.1472377308412492,-0.3202219313250967,7.515188423520058,7.523448549415006
2.3402138771449885,0.24858293744945312,-0.3335376627054032,6.831284397959617,6.843938001986903
2.34270082069137,0.32119756632413116,-0.32769996607975704,5.7930405313500355,5.811185226977843
2.345187764237752,0.3602931984081009,-0.3027088626065515,4.49143666152181,4.516021161241594
2.347674707784133,0.3419278014406959,-0.25377597001961183,3.036606238713393,3.0663160817747674
2.350161651330515,0.27567816648125704,-0.21442013251096492,1.5434711156099041,1.5824909255419348
2.352648594876896,0.17590948798728334,-0.16069935432455518,0.11258793406158851,0.26352319317383377
2.3551355384232777,0.061775363814456474,-0.10697886616245711,-1.1459098583148846,1.1525493814856924
2.3576224819696594,-0.061935818064611015,-0.06283549530202315,-2.141042428058668,2.1428595436417526
2.3601094255160406,-0.20001247623991847,-0.013904052314643423,-2.8632327990283786,2.8702439573587255
2.3625963690624223,-0.3141473993408689,0.020661829090619754,-3.269385172716074,3.284508320475032
2.3650833126088036,-0.3995521991609872,0.03607372527009156,-3.340345768089903,3.3643503271665045
2.3675702561551852,-0.4658036973768597,0.05148522928619226,-3.0904796282354896,3.125809998362532
2.3700571997015665,-0.48417148902448676,0.0477427077433612,-2.5628822170359946,2.6086522679970576
2.372544143247948,-0.4785976055853962,0.02963454395215992,-1.8054374025698294,1.8680305374552684
2.37503108679433,-0.4347168519005846,0.011525927968342398,-0.8851826670725993,0.9862352368616965
2.377518030340711,-0.3573176460142909,-0.016159966649315738,0.12605610302422576,0.3792455481412475
2.3800049738870928,-0.2559768092130489,-0.06299996623744386,1.1372994071322111,1.1674515253594435
2.382491917433474,-0.14505956602568204,-0.10505207378588022,2.076721357068413,2.0844303324424986
2.3849788609798557,-0.03414273758269476,-0.1279510988204704,2.872496063773948,2.8755470517130877
2.3874658045262374,0.057620048422903525,-0.17000428728590888,3.505470073838252,3.5100629575908475
2.3899527480726186,0.1350171809775219,-0.21205804517846394,3.9181827064113204,3.9262391642008727
2.3924396916190003,0.18368343586450542,-0.2349587783898479,4.101057312971575,4.111887196462358
2.3949266351653815,0.2084072022263981,-0.25307171594931566,4.0588824540822035,4.07210088669347
2.397413578711763,0.20918846596346305,-0.27118528014087895,3.791658286110719,3.807095195695704
2.3999005222581444,0.17645040641334908,-0.2749342798627161,3.347268997751989,3.3631731069748216
2.402387465804526,0.1293466229135823,-0.2738955405099568,2.773598776825665,2.7900895130406145
2.404874409350908,0.0630886982781183,-0.26806908073252567,2.104166600315141,2.1221117543091332
2.407361352897289,-0.017534977960482256,-0.24787811243515145,1.4012218642505747,1.4230859942148064
2.4098482964436707,-0.09815920955106733,-0.2276878640195683,0.7222255604668515,0.7636011747195924
2.412335239990052,-0.1644188001645337,-0.21707516046266173,0.10069666332253568,0.2903359866460362
2.4148221835364336,-0.21152536003446848,-0.19209800339461403,-0.41548064373742655,0.5042507175665445
2.4173091270828153,-0.2490557092774851,-0.16233321758329566,-0.8071525980643335,0.8601605294459054
2.4197960706291965,-0.2722214579713465,-0.14693443433274522,-1.0503770345630796,1.0949822669387201
2.4222830141755782,-0.2666574094753424,-0.12674805828004088,-1.135576998973563,1.1733313108000076
2.4247699577219595,-0.23236357703183258,-0.10177410723911029,-1.077117554510611,1.1065862040845555
2.427256901268341,-0.17412837712566853,-0.10074301884137338,-0.8845753619420176,0.9071622889651795
2.429743844814723,-0.12068224276545514,-0.09971279409046252,-0.5723154862287316,0.5933395830394739
2.432230788361104,-0.06244838031956906,-0.08910664384664324,-0.17385660648581336,0.20509976548234526
2.4347177319074857,0.014938407241726959,-0.07850139214714602,0.2772825972998998,0.2885676061953907
2.437204675453867,0.06838247718208712,-0.07268545960466799,0.7427950409491331,0.7494690200949767
2.4396916190002487,0.10267222004597598,-0.08123567004802457,1.1747968327706015,1.1820695483537156
2.44217856254663,0.12738442977581038,-0.09457523392063916,1.5637113067644872,1.5717392655028861
2.4446655060930116,0.13773069043067182,-0.09833895824152572,1.88080818277904,1.888406660177604
2.4471524496393933,0.11934577950658881,-0.09731526320690431,2.1117223897535276,2.1173297161579283
2.4496393931857745,0.09138329781929305,-0.10108097222930645,2.2468772590774844,2.2510054836509616
2.452126336732156,0.053843232980757716,-0.10963610197669826,2.2814845245917788,2.2847518037078425
2.4546132802785374,0.0019371693600730988,-0.11819226569284336,2.196390709307547,2.1995693469920985
2.457100223824919,-0.05954650195560379,-0.11717267319736013,2.0203263685709807,2.02459720852879
2.459587167371301,-0.11624258316121616,-0.11615414748734754,1.7724452502197554,1.780046709821143
2.462074110917682,-0.17293948965556788,-0.11513670481557092,1.476689504545078,1.4912331879058032
2.4645610544640637,-0.20090681351808692,-0.10454355469052912,1.1474244743307267,1.1695622372659213
2.467047998010445,-0.22887498659472633,-0.08916311647807396,0.8085923081351254,0.8450771216901498
2.4695349415568266,-0.25684402073238966,-0.07378380944055296,0.49850036361256045,0.5656107442786028
2.472021885103208,-0.24650670113840856,-0.06319405273687373,0.22672557763068646,0.3408277124287576
2.4745088286495895,-0.2265934594274288,-0.05260545878194467,0.0028448861928467295,0.2326371069421191
2.4769957721959712,-0.211469517176189,-0.04680644652801558,-0.15877637224041408,0.2685519251711613
2.4794827157423525,-0.1676160626813571,-0.03622022486317711,-0.2437728600714859,0.2980474064060481
2.481969659288734,-0.13334033396743045,-0.016058405892696914,-0.256932853845937,0.28991724413662967
2.4844566028351154,-0.0990655357789712,-0.015051424860974993,-0.18389101768944194,0.20941927360292997
2.486943546381497,-0.050426469463484336,-0.009257280386000044,-0.06774285643202127,0.08495658102976004
2.4894304899278787,-0.011365162854291233,-0.013041197545372807,0.09630015743961629,0.0978415049098126
2.49191743347426,0.0037531629325160965,-0.016826384712325115,0.3034497439388897,0.3039390737484453
2.4944043770206417,0.014082110099596479,-0.02540126011831978,0.5153987989789677,0.5162164776810384
2.496891320567023,0.014833264324514595,-0.029189031931254217,0.7273590408575181,0.7280955978666356
2.4993782641134046,0.0012182113612458911,-0.032978118177435345,0.9297537836952436,0.9303392599547047
2.501865207659786,-0.021974656319272146,-0.04155693678073513,1.0938527274757153,1.094862390403931
2.5043521512061675,-0.04995694616983748,-0.045348695601751476,1.214867587929037,1.2167396832781912
2.506839094752549,-0.0779402655670593,-0.05871861900040498,1.2927984832514632,1.29647617776466
2.5093260382989304,-0.110713028452058,-0.05772470467197799,1.3084919175047034,1.3144354736439627
2.511812981845312,-0.14348684204929335,-0.056732176772217535,1.2906784271011986,1.299868384070871
2.5142999253916933,-0.1618965068666431,-0.06531785603462525,1.2393581276800258,1.2515931726799727
2.516786868938075,-0.16594203329704532,-0.06432814316900437,1.130589117428146,1.1445115206345822
2.5192738124844567,-0.15562343165764153,-0.0777050686662557,1.0074671401672415,1.0223731064020065
2.521760756030838,-0.14530592215080562,-0.09108343635316274,0.8604155023470117,0.8773396378079912
2.5242476995772196,-0.13498951494233824,-0.10446325991596428,0.699011122850596,0.7195493670940786
2.526734643123601,-0.11030901016156153,-0.10347934297858252,0.5376193230347415,0.558489560015616
2.5292215866699825,-0.07605282114360218,-0.09770850566522338,0.38581702009033947,0.40519841642659604
2.5317085302163638,-0.046586167788845445,-0.10630437463958176,0.24839272704320337,0.27417118365124066
2.5341954737627455,-0.01233225332081267,-0.10053654326120709,0.1445001660364138,0.17646523450082857
2.536682417309127,0.031497315791783886,-0.10434704131216943,0.06935104176908702,0.12918960069273613
2.5391693608555084,0.041806899952264,-0.11773588187220874,0.06125268798150074,0.13914541511959488
2.54165630440189,0.05211531276390752,-0.10718425467821557,0.08668638776889281,0.14737367505705803
2.5441432479482713,0.07199935130333635,-0.09663418921030686,0.11213342338717247,0.16460855917284953
2.546630191494653,0.0775169894798019,-0.10523931152788135,0.17590112605875596,0.21914698833799323
2.5491171350410347,0.06387981455848674,-0.1042692143869548,0.282778002926797,0.30808456422899055
2.551604078587416,0.04545302716045602,-0.08893550704497599,0.38488012377503367,0.39762823311289325
2.5540910221337976,0.03181342466094317,-0.09754542854219261,0.472630784115049,0.48363939325838995
2.556577965680179,0.013384191228346498,-0.10136857133462307,0.5603952952263338,0.5696469176086791
2.5590649092265605,-0.014623085574328176,-0.0956165443801189,0.6338085476341124,0.641147122932773
2.561551852772942,-0.03784320482863385,-0.09465456981819864,0.6976590443136903,0.7050671867643975
2.5640387963193234,-0.05148777218265205,-0.08890585308737808,0.7519468840900494,0.7589330391347193
2.566525739865705,-0.06513360317143779,-0.07837040616749258,0.7775185516782628,0.7841679699074781
2.5690126834120863,-0.06920389997491588,-0.06783664425954194,0.7743741442471261,0.7804141883350165
2.571499626958468,-0.05891026801956578,-0.06688138578583214,0.75687896810018,0.7621084645870059
2.5739865705048492,-0.04861792593946501,-0.061139432468246824,0.7010911021535069,0.7054292781307093
2.576473514051231,-0.028750075693606825,-0.05061079589090722,0.6309526577027231,0.6336318140491597
2.5789604575976126,-0.023248742409729517,-0.04008389085968034,0.5656173419007349,0.5675122904298527
2.581447401143994,-0.008171917939153395,-0.034347132082041654,0.48114323119666835,0.4824368504285676
2.5839343446903755,0.021268792658744706,-0.023823724206282648,0.3823188211418458,0.38365037778621874
2.5864212882367568,0.03634296115547242,-0.01809048506385702,0.3218166396724005,0.32436711615919
2.5889082317831384,0.03705057931736544,-0.017147425747664702,0.25654114750126134,0.25976939773342816
2.59139517532952,0.04254525226484157,-0.011417750612213062,0.19606924104922996,0.2009567386402923
2.5938821188759014,0.03367335862852999,-0.015266680515968023,0.15476621924323908,0.1591211778304465
2.596369062422283,0.024800100353835397,-0.014329016298082475,0.13263217023652274,0.13568956580106287
2.5988560059686643,0.02071387281800191,-0.018181575301996933,0.14403239133189416,0.1466457089735886
2.601342949515046,0.016626264829987414,-0.017247561492795604,0.165024952459774,0.1667547480403341
2.603829893061427,-0.0018279413696626334,-0.01631538869956506,0.19082153602335694,0.19152647829577543
2.606316836607809,-0.025071946866755068,-0.015385067334311664,0.23099903357978313,0.23286445914171716
2.6088037801541906,-0.048317355995453504,-0.019245011032760218,0.2664039159587901,0.27143320316096287
2.611290723700572,-0.06198736969778257,-0.0374720366545267,0.31140147642827465,0.3197146650605772
2.6137776672469535,-0.07565880212532294,-0.04133573440048677,0.35162658753173304,0.36204164724058735
2.6162646107933347,-0.07975485407683924,-0.04520132425825363,0.3966561376131761,0.40711188630365563
2.6187515543397164,-0.07906393624061009,-0.0490688161586208,0.4273365942953067,0.43735045393480426
2.621238497886098,-0.07837445923361541,-0.05293821993666947,0.44845644100441895,0.45832105610431506
2.6237254414324793,-0.06810962364074874,-0.06159794865225843,0.4504389504094757,0.4597047706481202
2.626212384978861,-0.057846243257116514,-0.06547120530898631,0.43807260434559403,0.4466993096722943
2.6286993285252422,-0.05716113180695842,-0.06455799945590046,0.4113574805343134,0.42029764105302636
2.631186272071624,-0.04211227970157505,-0.06364674386740132,0.3607168492649233,0.368701773049981
2.633673215618005,-0.03664171048479076,-0.05316064126216791,0.3100928032788772,0.31674313784517666
2.636160159164387,-0.031172624387781234,-0.057041717506474576,0.2930042411698377,0.30012826489823075
2.6386471027107685,-0.011339818251091038,-0.056136368489383415,0.24720199433843604,0.25374930413706315
2.6411340462571498,-0.0010853154075902705,-0.05523300660731101,0.1822629432048668,0.19045115750269861
2.6436209898035314,0.004379280801756258,-0.04954323752203438,0.14607119396833923,0.15430652673118375
2.6461079333499127,-0.004522842855070264,-0.039067070121825864,0.13383841552284004,0.13949700192140227
2.6485948768962944,-0.008638079618476957,-0.0429581264825889,0.0976806460994073,0.10705851518112376
2.651081820442676,-0.012754839260845141,-0.05163960866492978,0.08548198955691078,0.10068021477055406
2.6535687639890573,-0.021661531485116958,-0.045957911995609724,0.07330049917282189,0.08918696541682414
2.656055707535439,-0.02578135596400838,-0.04506665827086742,0.06592464737149051,0.08391508287609221
2.65854265108182,-0.025114318941723446,-0.05375425923318922,0.06335450248369412,0.08679886166633709
2.661029594628202,-0.034025636554418925,-0.048078706610573896,0.06559013206869935,0.08815538212195824
2.663516538174583,-0.04772691158817094,-0.037616815280803184,0.09178521619725544,0.1100791024399821
2.666003481720965,-0.04706453679944217,-0.03673380334977017,0.11799780428929907,0.1322419175215686
2.6684904252673465,-0.04161532479804986,-0.03106446890950343,0.14422796160011409,0.15329233964553046
2.6709773688137277,-0.0409560881254476,-0.020608819921191124,0.18005255926117059,0.18579840879184314
2.6734643123601094,-0.030721622653320402,-0.014943670895072092,0.18237603111791145,0.1855482366518061
2.6759512559064906,-0.020488740786865522,-0.014069029609420358,0.18471726337991612,0.18638184858979004
2.6784381994528723,-0.0006806415821568046,-0.017984903751360193,0.19186472157593037,0.19270700926878176
2.680925142999254,-2.77505900195818e-05,-0.0075376876358457245,0.18466485387598652,0.18481862936952617
2.6834120865456352,0.010200346550014505,0.0029074012706828967,0.17748293093699274,0.17779958049971462
2.685899030092017,0.01563843438301671,0.01335035555322106,0.09370455957647295,0.09593402477103787
2.688385973638398,0.016286507482226875,0.00942595792608758,0.10092391519632748,0.10266321477213007
2.69087291718478,0.02172136712858458,0.010287814435837372,0.11773819979251776,0.12016630395490996
2.6933598607311615,0.0223662013886875,0.015935917937599076,0.12020545445695419,0.12330268337013638
2.6958468042775428,0.0277978116771207,0.012005051415167944,0.10832573613721586,0.11247801875560934
2.6983337478239244,0.03322778951410932,0.003283611222959948,0.10125271431816252,0.10661604126702949
2.7008206913703057,0.019502516525341795,0.008925203765477452,0.08462123450041581,0.08729696868420396
2.7033076349166874,0.024929214246490805,0.01935301561426961,0.06800815804603744,0.07497409217275265
2.7057945784630686,0.020777457794921073,0.015413426788955853,0.056201942258610416,0.06187030621742879
2.7082815220094503,0.002258838955447373,0.006683237319481616,0.049202640385193064,0.04970581289315959
2.710768465555832,-0.0066846304995169525,0.01710445728496346,0.047010304938593706,0.050469946644986455
2.713255409102213,-0.0012645520132665844,0.022735063649387044,0.03047137441811465,0.03803928061707882
2.715742352648595,-0.0006345435652818088,0.018786646745752478,0.018739513155267673,0.026542609042488324
2.718229296194976,-0.014371416429225126,0.01962441027583539,0.002237964831424577,0.024426698005322146
2.720716239741358,-0.01374475525123775,0.006094734786513012,-0.02861002759831166,0.03232023774990701
2.7232031832877395,-0.008331371175117397,-0.002648772525786214,-0.05943920530152624,0.06007867232577566
2.7256901268341207,-0.007708075279995952,-0.0018177143387574368,-0.0663075035273959,0.06677876559187829
2.7281770703805024,-0.0070864686195809545,-0.005777306524770598,-0.06836848812809748,0.06897713735071404
2.7306640139268836,-0.001678152183274384,-0.0049507482683019965,-0.05604530575208777,0.056288563669819526
2.7331509574732653,0.003728466463026936,0.0006619546916359909,-0.03412631372480135,0.03433576757003199
2.7356379010196465,0.00913338313767803,-0.0033044132590611675,-0.036130290007589494,0.037413041717545524
2.7381248445660282,0.01453659372279914,0.002303755593289658,-0.04769198007059572,0.04991136954592046
2.74061178811241,0.01036128752346771,0.003121245805541406,-0.059234533414114665,0.06021485201601383
2.743098731658791,0.006184267189401127,0.013513261941527244,-0.07554631020712321,0.07699414519871703
2.745585675205173,0.011582335433531099,0.00953778208744005,-0.08705046136329386,0.08833403989858406
2.748072618751554,0.012190278430249946,0.005560010976581431,-0.09374694514044712,0.09469955825363034
2.7505595622979357,0.017584899018350253,0.006368346785986745,-0.11000093045873527,0.11157951969810444
2.7530465058443174,0.008612580177402296,0.002385977815861917,-0.11665876369540307,0.11700058364978295
2.7555334493906987,-0.00036147180837153847,0.007978109051824944,-0.12329721184667264,0.12355558803661748
2.7580203929370803,0.009816352727830213,0.013567928961538023,-0.13949304260373552,0.14049469175748275
2.7605073364834616,0.0008388236711487362,1.8194553792483248e-06,-0.13651579778807665,0.13651837485912557
2.7629942800298433,-0.003352045867320297,-0.013566610910679788,-0.12394224647432317,0.12472758156959618
2.7654812235762245,0.002032144003966674,-0.0079837534978493,-0.1209259650661636,0.12120626615959382
2.767968167122606,0.007414583277130515,0.007173580493376797,-0.1322553206926358,0.13265709989962993
2.770455110668988,0.0032184620056048274,0.007963369983868152,-0.12919985792465383,0.12948504564980556
2.772942054215369,0.0038089869055094594,0.013539223859365013,-0.1357015585384378,0.1364284865917723
2.775428997761751,0.013974558113267643,0.014324331165527227,-0.15176038838829875,0.15307413309102252
2.777915941308132,0.028926769185410484,0.010318687670169524,-0.1582227007247301,0.1611758552493767
2.7804028848545137,0.03908881041869361,0.020675902503621835,-0.16945367271561018,0.17512845354509637
2.7828898284008954,0.0396722754905246,0.04060756827565326,-0.1758764656002132,0.18481178316298152
2.7853767719472766,0.03546556477908169,0.03659485775490179,-0.18706785456977038,0.19388494555415461
2.7878637154936583,0.045622288683419776,0.023002976993595325,-0.20781621216366375,0.2140049256754014
2.7903506590400395,0.055777234420154476,0.02856234208510644,-0.22375629830622756,0.232365634930497
2.792837602586421,0.03719997930450902,0.03411933599961925,-0.22052287358571476,0.22622622598587447
2.7953245461328025,0.037774553836051994,0.03488555174792074,-0.222057925814525,0.2279334136438068
2.797811489679184,0.047924148729746374,0.04043779238113432,-0.2235730235425475,0.23219999125772392
2.800298433225566,0.048495148118872455,0.036410844427947175,-0.21070292933610446,0.21925613654774403
2.802785376771947,0.03948754947670019,0.04674672105839761,-0.197812826338156,0.20706143232692067
2.8052723203183287,0.04484336693659918,0.052291805638293276,-0.19447949502379025,0.2063192537787784
2.80775926386471,0.050197388127771414,0.043469288252371285,-0.2102797165182384,0.22051511507152652
2.8102462074110917,0.041184400737548865,0.04900958562590141,-0.21648304603202284,0.22574986947202538
2.8127331509574733,0.03695801575336771,0.044970678038475764,-0.22745466930396674,0.2347847597265276
2.8152200945038546,0.04230663425945047,0.040929369089349965,-0.2575597727160215,0.2642008725911854
2.8177070380502363,0.033288237475653515,0.046462462454978315,-0.2684911067675184,0.2745074526945721
2.8201939815966175,0.029056436561947507,0.04720474528718244,-0.2650370524790091,0.27077149715224325
2.822680925142999,0.029611229454149568,0.05273302141598535,-0.25198599150713896,0.25914192322602103
2.825167868689381,0.030164210824651427,0.058258884786842824,-0.2532799194234858,0.26163848121873834
2.827654812235762,0.030715378722835085,0.04941712278067145,-0.2641304125091004,0.27046323470341527
2.8301417557821438,0.031264731254550815,0.04536134609636777,-0.2797490476739739,0.28512219277809486
2.832628699328525,0.027023863261594228,0.0556683588677247,-0.29534740245467184,0.3017604074449281
2.8351156428749067,0.032357982923058304,0.05160773874127411,-0.31092545833222474,0.3168359802736119
2.837602586421288,0.032901878551996167,0.0475446933213064,-0.32169479408912593,0.3268494638504284
2.8400895299676696,0.03823235511864648,0.053056026966468384,-0.3132901824865897,0.3200427993532515
2.8425764735140513,0.03877260436740748,0.05377652750822204,-0.3096536234652696,0.3166711169106602
2.8450634170604325,0.03452262473850293,0.04491778949275238,-0.3107851009787659,0.31590631272915776
2.847550360606814,0.035059221367759685,0.045633424141604095,-0.32147300291307523,0.32658299098965826
2.8500373041531954,0.030805586164526666,0.036769816187346205,-0.3321405078029134,0.3355865319779214
2.852524247699577,0.03612692769426856,0.02311536703733763,-0.34278760143082465,0.34546029408977763
2.855011191245959,0.041446437975223516,0.019035284812504827,-0.3390490602231857,0.34210292972576634
2.85749813479234,0.032398905759445595,0.014952761104864987,-0.3448668877711789,0.34670801034883447
2.8599850783387217,0.02334953977475851,0.015656197539726247,-0.350664265023644,0.3517893464755128
2.862472021885103,0.023875145482367688,0.01156878585353116,-0.34686437352680066,0.347877497116541
2.8649589654314846,-1.4169104842983657,-1.194410305583005,15.38207249520322,15.493301957500375
2.867445908977866,-1.5313102314995168,-1.255963451296437,14.911861415268772,15.042804462076516
2.8699328525242476,-1.5164249272188806,-1.202597366562453,13.364280082252847,13.503694572332932
2.8724197960706292,-1.3914081857045097,-1.0678308759607766,10.940441445055587,11.080141629581757
2.8749067396170105,-1.151471604550491,-0.8660291907194833,7.889342485199107,8.01982657318922
2.877393683163392,-0.83492241118108,-0.6115575219960931,4.464768586939002,4.583149197911816
2.8798806267097734,-0.4752794296482433,-0.32835788751890016,0.9444471505548986,1.107108783604349
2.882367570256155,-0.1012730806316613,-0.045160708266767546,-2.4178364408531348,2.42037781785182
2.8848545138025368,0.2583662152407513,0.2332456114524577,-5.382662014721355,5.3939046136508395
2.887341457348918,0.5749080373923404,0.47334224747799336,-7.782435448861419,7.817983988881063
2.8898284008952997,0.8291987719386342,0.6511871823587176,-9.483081444899337,9.541511884415746
2.892315344441681,1.011661611686781,0.7763572219541639,-10.417562351512364,10.495322534362101
2.8948022879880626,1.098354539533592,0.8392755589106762,-10.561936147824014,10.652007385887902
2.897289231534444,1.0940659583485273,0.8399421925832633,-9.964086863326,10.059100865783403
2.8997761750808255,1.0179494810122791,0.7783571223944898,-8.729359367912926,8.822911986982787
2.902263118627207,0.870005107174538,0.6688855577952415,-7.00140575860034,7.0868892592236
2.9047500621735884,0.6741748531363159,0.52589270830329,-4.933454939597204,5.007000350937075
2.90723700571997,0.4352471219671704,0.35416697686256526,-2.6978894289470663,2.7556272744159362
2.9097239492663514,0.18674073670801705,0.17765037976465692,-0.46709174524309205,0.5334852000299702
2.912210892812733,-0.056979092832418754,-0.0036570832344415827,1.6104976089777505,1.6115093979871296
2.9146978363591147,-0.28154715679616593,-0.1658133957112189,3.386438130631948,3.4021649131538716
2.917184779905496,-0.4582330353155831,-0.29445334781734145,4.755384945977594,4.78647743890282
2.9196717234518776,-0.5918251317168065,-0.3800001329597178,5.645512003976817,5.689153089399806
2.922158666998259,-0.6679582359962684,-0.42724215444123015,6.02808888293691,6.080013128616943
2.9246456105446406,-0.686632348063269,-0.44096781550021946,5.903115580553253,5.9592524827434925
2.927132554091022,-0.6334822578183151,-0.4163887126701553,5.328052933833412,5.381712310848707
2.9296194976374035,-0.537238384997064,-0.3535048457408565,4.393880602498392,4.440695610744802
2.932106441183785,-0.4026891326862161,-0.2618930210791386,3.172424632461569,3.2085860656560943
2.9345933847301664,-0.2394113072455969,-0.15113004498847893,1.7642414890345464,1.7868145108449558
2.937080328276548,-0.06177011830839718,-0.030792723709332837,0.3034064602500415,0.31115786904838627
2.9395672718229293,0.10629241789828792,0.09433053990087226,-1.104735586299574,1.1138388772606738
2.942054215369311,0.24562268851416408,0.19550932644554697,-2.378781800139338,2.399407688266891
2.9445411589156927,0.36579750064710226,0.28710884647303203,-3.413387314706233,3.4449168729303423
2.947028102462074,0.4572400481696186,0.349975487351172,-4.165456507110854,4.205065899130357
2.9495150460084556,0.5151619283205197,0.3984744597515939,-4.615835771574883,4.661556990707669
2.952001989554837,0.5347747383840854,0.42781736112577917,-4.7453715028246375,4.7945346400995525
2.9544889331012185,0.5112900756898948,0.42363898234540187,-4.56842891933115,4.616430473844787
2.9569758766476,0.4590731508939143,0.40030453426458124,-4.118526853347135,4.1633226297953305
2.9594628201939814,0.36854715809538086,0.3386604045554473,-3.4435493475834926,3.4797341833244304
2.961949763740363,0.2588657113601143,0.25786020751259864,-2.605745655207488,2.631238066532392
2.9644367072867444,0.15875923143883747,0.18663436413076528,-1.6817302398386165,1.6994862397292883
2.966923650833126,0.04428570260307663,0.10582926226089473,-0.7624827755474648,0.77106487354327
2.9694105943795073,-0.06540126094890086,0.020233306414465524,0.10411269299128811,0.12460403068948488
2.971897537925889,-0.14635964165490034,-0.04621148555720289,0.8653837172990073,0.8788888577453936
2.9743844814722706,-0.20337784183103247,-0.098293515666243,1.4590810417739704,1.476462545489757
2.976871425018652,-0.2460326670705445,-0.14080118586679502,1.8804162501795538,1.9016630409056898
2.9793583685650336,-0.2551705030018451,-0.17373449473501124,2.0862936992406347,2.109008548999794
2.981845312111415,-0.24036815513243304,-0.16836302086774113,2.0719249717706347,2.0926050858784193
2.9843322556577965,-0.2064140256069832,-0.15341718264851423,1.8708288766745618,1.8884237521537612
2.986819199204178,-0.14851970988724905,-0.12410857516190488,1.5069474157483889,1.5193260204723864
2.9893061427505594,-0.07147361003361563,-0.07564879343607389,1.0090109936430895,1.0143640382881216
2.991793086296941,0.015147468615112847,-0.02240304572425522,0.4249036278273355,0.4257633558727192
2.9942800298433223,0.09697831744134044,0.02605186309640617,-0.18312545472922537,0.20885024729296553
2.996766973389704,0.15965372786882398,0.07929274148552024,-0.7863458507568915,0.8062979899995295
2.9992539169360852,0.20796210464368114,0.12774278467662903,-1.3272967375191609,1.3495492156397177
3.001740860482467,0.2562686591934859,0.16182518795811207,-1.7820361159737228,1.8076265476522568
3.0042278040288486,0.2806313764239922,0.1863283566338616,-2.1314103908487,2.1578652599588573
3.00671474757523,0.28583866120318674,0.21082909938228367,-2.3419007573579336,2.3686814489708063
3.0092016911216115,0.2766789184392197,0.22096220833413094,-2.4182956377221467,2.4440804636604248
3.0116886346679927,0.2483637464395339,0.2167276856346776,-2.365383454603677,2.3882408437129765
3.0141755782143744,0.20568155019187673,0.20291393680277947,-2.197529437744431,2.216441877332111
3.016662521760756,0.15820913804375097,0.1747325607696184,-1.9290988173225774,1.9434463836568845
3.0191494653071373,0.1107349150615522,0.15133717312057327,-1.5840336305904863,1.5950948887835774
3.021636408853519,0.058470479710018175,0.13272777621208398,-1.2150063351533014,1.2236322380676234
3.0241233523999003,0.010992640453554636,0.11411596913227307,-0.836382162481879,0.8442028276859793
3.026610295946282,-0.031698600845566305,0.09071335102093636,-0.46252634447260377,0.4724027229813603
3.029097239492663,-0.06481483896650597,0.06251992438954002,-0.14611134000720938,0.17163399422792167
3.031584183039045,-0.08356766865040954,0.03911249844121034,0.09849761817492642,0.13496341565073075
3.0340711265854265,-0.0975338945615819,0.03006788242978864,0.2808773135185145,0.29884611992050236
3.036558070131808,-0.08277149808460083,0.021020869057950087,0.3818741091316067,0.39130657170073035
3.0390450136781895,-0.06322249376986278,0.011971461039382625,0.3823343677101487,0.38771119190734876
3.0415319572245707,-0.03409847620884687,0.01249646777816249,0.3109884847438664,0.3131017493243722
3.0440189007709524,-0.00018784659680215476,0.017807488766862445,0.1678364353937969,0.16877858569208956
3.046505844317334,0.028932590587279594,0.04226973682842772,-0.023179788981453342,0.056223910099355276
3.0489927878637153,0.053262837541362185,0.071518004912698,-0.2429066007447478,0.25875736042674913
3.051479731410097,0.08237970314018694,0.08161027937741983,-0.4817672192986091,0.4955262927234436
3.0539666749564782,0.1162831896536981,0.10127698315187894,-0.7301848644411244,0.7462899863801518
3.05645361850286,0.1310312827859309,0.11136450601010006,-0.9737943530435214,0.9888613109465101
3.0589405620492416,0.16014280812006382,0.12144965769549865,-1.1742884857660414,1.1913644220596968
3.061427505595623,0.17967575143066677,0.1315324413580532,-1.3316672902192082,1.3501562615569922
3.0639144491420045,0.17526490516787102,0.13203605355400772,-1.4267771811176448,1.443552711534855
3.0664013926883857,0.17564069169928404,0.13253730416740517,-1.4883486067615053,1.5045256278393797
3.0688883362347674,0.16164950022383057,0.12824779316758939,-1.497227982627658,1.5113800611819177
3.0713752797811487,0.1428681398965111,0.11916752389013485,-1.4390501278904146,1.451026352182831
3.0738622233275303,0.12408501658597515,0.10529649971621335,-1.3425454919813422,1.3523730410774435
3.076349166873912,0.10051172955397036,0.09142312739258607,-1.207714104781882,1.2153329399342694
