Time (s),Acceleration x (m/s^2),Acceleration y (m/s^2),Acceleration z (m/s^2),Absolute acceleration (m/s^2)
0.0,0.10442389875998837,0.22406312170161413,2.5449129394335657,2.5568907881321996
0.002486943546381497,0.3849996485953082,0.34662210184735665,4.78726358613281,4.815211755885795
0.004973887092762994,0.7996507270977327,0.6128333076536085,8.111794518069884,8.174118683485469
0.007460830639144491,1.3052815656141823,0.9748127671445693,12.250355746799475,12.358205202199192
0.009947774185525988,1.8635849988094373,1.418195331582198,16.877336443991762,17.039034963577063
0.012434717731907486,2.4266770547038643,1.9190390455820565,21.600088134778744,21.82052427913922
0.014921661278288981,2.941885357992384,2.4007295172291543,26.064269570787946,26.339406597969663
0.01740860482467048,3.370902743324368,2.8297479844828493,29.963423536769934,30.28493369655108
0.019895548371051976,3.6849988519819807,3.1821524919333064,33.02940004394452,33.38632322200137
0.022382491917433474,3.8554433252382094,3.419635874198599,35.061086749909535,35.43780688517437
0.02486943546381497,3.877447820957079,3.556563402407729,35.97229299183081,36.355049276953416
0.02735637901019647,3.7653776102719942,3.5546279111524104,35.734288946585295,36.10751797967744
0.029843322556577963,3.514444351021897,3.428194671532599,34.41411285731044,34.762551712411074
0.032330266102959464,3.1629553309139755,3.2059941645926453,32.15062901678954,32.46452881506196
0.03481720964934096,2.749217837639516,2.9071800647183967,29.12579734751668,29.399353152341654
0.03730415319572246,2.3019623522319277,2.5509060462764683,25.602980628246286,25.832513802926297
0.03979109674210395,1.8547077590263457,2.175479396894163,21.85511844417524,22.041298820319827
0.04227804028848545,1.4457613456582856,1.814419000856561,18.155150380289243,18.302781960952974
0.04476498383486695,1.1038535931013642,1.5012437424254934,14.761650811388728,14.878795657127226
0.04725192738124844,0.8481381756659645,1.2359536825960233,11.928405708716546,12.022220369893665
0.04973887092762994,0.7073455742791421,1.0472793022591622,9.80385617021826,9.884974835816193
0.05222581447401144,0.6910526565614177,0.9639510822786659,8.512501276974506,8.594732890186839
0.05471275802039294,0.7848942735051259,0.9668154702865717,8.12137926994573,8.216300409580388
0.05719970156677443,0.9745052760746451,1.0558725271662435,8.60176032339674,8.72094077424472
0.059686645113155926,1.2311553052441255,1.2167571038088494,9.891395788047742,10.04171060482768
0.062173588659537427,1.550056018558661,1.439892454393285,11.832268947897342,12.019923144357634
0.06466053220591893,1.8929002502892027,1.7061250264239045,14.256786279975184,14.482744525683781
0.06714747575230041,2.2453228512749854,1.9723592507682572,16.973412244368067,17.2345118566733
0.06963441929868192,2.5546514457581413,2.229018381499516,19.771457687527388,20.060042523485905
0.07212136284506342,2.801732481187052,2.4521604626920213,22.425868245576446,22.732847652656332
0.07460830639144492,2.972200808293159,2.636997151662155,24.735531570860154,25.052629676656945
0.0770952499378264,3.0660564877302665,2.754798089084203,26.561584558494587,26.879497561443237
0.0795821934842079,3.068934370151343,2.791198125551542,27.784317716471392,28.0923024352616
0.0820691370305894,2.9712577094884547,2.765350934856569,28.31754037560583,28.60696822617128
0.0845560805769709,2.806545389513949,2.69162178742689,28.18040673932868,28.44744011091252
0.0870430241233524,2.570009067393827,2.541280323761509,27.38728260730627,27.624740739107118
0.0895299676697339,2.304744433452061,2.3669990407576424,26.005206215271393,26.214219074030524
0.0920169112161154,2.034693564684893,2.173566402060967,24.187407058252738,24.369961612771423
0.09450385476249688,1.7502797147986406,1.9609824679471592,22.07753782415621,22.233456944359325
0.09699079830887838,1.4993869772942534,1.7627661218830424,19.809674393751706,19.94439032145631
0.09947774185525989,1.3059574290207498,1.5980710373221982,17.546623067223315,17.66757869403603
0.10196468540164137,1.1604143235332816,1.4668972743833453,15.484708967476841,15.597261324454118
0.10445162894802287,1.081911334255889,1.3788216997709177,13.753219570400592,13.864441206431666
0.10693857249440437,1.0752369245973998,1.352997986773774,12.447923528095021,12.567320245682179
0.10942551604078588,1.1356027512704452,1.3606957754201576,11.650224282141341,11.784261216815205
0.11191245958716736,1.258220470930792,1.416280335562344,11.393641240346781,11.550066210031043
0.11439940313354886,1.4287249335354384,1.510174920390985,11.649444566771136,11.833488156083028
0.11688634667993036,1.63275098898194,1.6232259763947594,12.379327618237667,12.591603974161755
0.11937329022631185,1.8415682771462043,1.7554335632809699,13.49709971775814,13.734796012522043
0.12186023377269335,2.0503884544437034,1.9020093373727085,14.916570187723504,15.17648834542598
0.12434717731907485,2.230481160625068,2.0485881482872617,16.51802952664925,16.79336354196094
0.12683412086545634,2.3579044386966928,2.156862828973909,18.14824940916302,18.42744494557563
0.12932106441183785,2.456600364802277,2.2316218421970317,19.711462349078264,19.98891616216466
0.13180800795821934,2.4978385784949895,2.277653650652025,21.08795884293638,21.35717471665962
0.13429495150460083,2.4768307358612116,2.2901699103234225,22.162817789916502,22.418074428935615
0.13678189505098234,2.412730509519267,2.2643822771242554,22.878578928346574,23.116618900459976
0.13926883859736383,2.305537958735359,2.205079213535428,23.182570399167616,23.401056598570463
0.14175578214374532,2.160041546023863,2.121837585284147,23.07958118244503,23.277350402826013
0.14424272569012683,1.9906065404663997,2.0098690480614283,22.574400257512604,22.75094800169189
0.14672966923650832,1.8163866143902638,1.8931156774036584,21.710123829522885,21.868073166014995
0.14921661278288983,1.651747036726554,1.7763659354882295,20.577732136075692,20.720202800025394
0.15170355632927132,1.4918994630479954,1.6644082844135513,19.287359027284133,19.416442444289995
0.1541904998756528,1.3751511787317603,1.5668195895181254,17.915619529239137,18.03650153180821
0.15667744342203432,1.2919254358722918,1.4931767160590013,16.572647490481742,16.689855987425577
0.1591643869684158,1.2374338898035149,1.4482681258902403,15.335057935506885,15.452919629683466
0.1616513305147973,1.2404070190194736,1.4225170708210588,14.269889081352826,14.39416196878869
0.1641382740611788,1.2912680753684247,1.4255004158567992,13.46333275751125,13.600027706499317
0.1666252176075603,1.3756519072937974,1.4715834292367722,12.94890835611064,13.104663428497402
0.1691121611539418,1.4791933631532919,1.5272473459096063,12.750558461787264,12.926609708219688
0.1715991047003233,1.6018925011785998,1.5877038206570384,12.882648851673348,13.078589543333097
0.1740860482467048,1.7341725728726305,1.6625297181317684,13.287719252221263,13.503141949265977
0.1765729917930863,1.8568800230083096,1.7325714829734462,13.922674598957443,14.152408818003913
0.1790599353394678,1.9604381029085993,1.802617576330896,14.749208229829865,14.987724680174571
0.18154687888584928,2.0448468704453515,1.8583028459781419,15.676341045353094,15.917988464663578
0.1840338224322308,2.095741173436488,1.8996273495553662,16.613093945119537,16.852169164905245
0.18652076597861228,2.108332666246415,1.9218027412864984,17.50679505435078,17.737707447215914
0.18900770952499377,2.096986616425438,1.9200406752983374,18.29519569068272,18.514807436877195
0.19149465307137528,2.042549468185147,1.89434120893968,18.906470364154178,19.11060330226418
0.19398159661775677,1.9641748922019238,1.859069609420778,19.31667761703904,19.505080286439362
0.19646854016413826,1.8666513490923258,1.8094375305699733,19.47314557071,19.645911784749668
0.19895548371051977,1.7643441060134806,1.740656626113787,19.390239992033287,19.54799740544042
0.20144242725690126,1.6428880100994225,1.6623037596366932,19.082326646873053,19.224919377229963
0.20392937080328274,1.5358019415849138,1.58874419793933,18.558982896759684,18.69006800128026
0.20641631434966426,1.4574511673199226,1.5247664010764144,17.87767013540202,18.00167119889759
0.20890325789604575,1.3838937274872132,1.4751588289962185,17.091061352152686,17.2103350799103
0.21139020144242726,1.3151296787652584,1.435133134898793,16.256617938637532,16.372745646032776
0.21387714498880875,1.2894663042880268,1.4094777785160817,15.436589688744517,15.55434512207693
0.21636408853519024,1.2973268538782177,1.4029812194701559,14.66928437869074,14.79321863053743
0.21885103208157175,1.3195577706086277,1.415643513951774,14.00737499357386,14.140432577512104
0.22133797562795324,1.3753127240041345,1.4474647180395612,13.508322920720541,13.65508796490308
0.22382491917433472,1.4406497535952663,1.4888680810582675,13.181705513151972,13.343521278537736
0.22631186272071624,1.5251457220420668,1.520700045577645,13.027523316135508,13.20435389765578
0.22879880626709773,1.6048586686486055,1.5573258772941476,13.050565277134714,13.240773742012996
0.2312857498134792,1.6702118425649868,1.598745631826696,13.260408745798525,13.460461927436937
0.23377269335986073,1.7307821061065525,1.640170961356198,13.609170230786436,13.816485872023264
0.23625963690624222,1.7817811115105802,1.6720251146244474,14.063331449562416,14.274021976076753
0.2387465804526237,1.7944784942945637,1.6799429369330312,14.603739328384222,14.80917160779876
0.24123352399900522,1.802393133020739,1.6735012900641109,15.134626339206864,15.333171296285082
0.2437204675453867,1.8007366795684296,1.6718538423184008,15.646416212562553,15.838184496840483
0.24620741109176822,1.7607787690938963,1.6558470353109587,16.10559066118304,16.285951670799783
0.2486943546381497,1.7064614731542567,1.6206925204935523,16.435535766707787,16.603177134032943
0.2511812981845312,1.652150056542339,1.590332369114517,16.6362520626814,16.79355946625543
0.2536682417309127,1.5739025573637389,1.5599782323739495,16.70295167809783,16.849311443095463
0.2561551852772942,1.495661046801371,1.5296301646648245,16.635635144030676,16.772630296196244
0.2586421288236757,1.4317907892706585,1.489711413611004,16.419937780341623,16.54942964788737
0.26112907237005717,1.3775034357778477,1.4402220333474354,16.08459053551391,16.20758488844229
0.2636160159164387,1.3280106372002103,1.4051040944800401,15.663112760079652,15.781984384221508
0.2661029594628202,1.3024660608865477,1.393934457522176,15.174658593328331,15.294107837193456
0.26858990300920166,1.286504550812405,1.3779827562920317,14.671900996499891,14.792518693143291
0.2710768465555832,1.2944913707430896,1.3716142543569123,14.159628896329348,14.284681447391414
0.2735637901019647,1.3168497677092077,1.374829005188459,13.685726848122595,13.817502215148979
0.27605073364834615,1.3440029886071918,1.3876270621225664,13.27413738926219,13.413969447032763
0.27853767719472766,1.3855278934795272,1.4100084783583646,12.929649442517686,13.07989473042693
0.2810246207411092,1.431847728951235,1.437184903636896,12.69535915587949,12.856431560231549
0.28351156428749064,1.4781741448304255,1.4547911809198,12.571267046103749,12.7411997601082
0.28599850783387215,1.5149303874666549,1.4724041696304908,12.581315645186962,12.75744847065593
0.28848545138025367,1.546904913031182,1.4948123257312942,12.668044627309367,12.849386498141454
0.2909723949266352,1.5693093709144035,1.5124388950818308,12.826666101794032,13.010517537742619
0.29345933847301664,1.5773554103654859,1.5061303167583402,13.076334193175352,13.25696023050815
0.29594628201939815,1.5806198904523172,1.5141938695370756,13.359588571462933,13.537715801101756
0.29843322556577967,1.569526056818337,1.5174759922058332,13.657276131819554,13.830666533855874
0.30092016911216113,1.5440739616034334,1.49682312340673,13.950243767989235,14.115025506459041
0.30340711265854264,1.4946868501617252,1.4809657348383642,14.200184759006543,14.355228854941096
0.30589405620492416,1.4644604042246534,1.4603270714892336,14.37836918910913,14.52634503134181
0.3083809997513056,1.4198758522515884,1.4205419748789692,14.470432351048727,14.609154642363048
0.31086794329768713,1.3561448424757427,1.3903409162605083,14.495528359363156,14.625064755901192
0.31335488684406865,1.3211514595047924,1.3697239468144706,14.439292503882735,14.564159875602602
0.3158418303904501,1.2957421413121124,1.3443259076091563,14.301725282924265,14.423089333110171
0.3183287739368316,1.2511865190795897,1.323723656162113,14.10676920992255,14.223876038739531
0.32081571748321314,1.2353686769623176,1.3127056465173366,13.8400595702573,13.956954567192973
0.3233026610295946,1.2243466491579773,1.2969067192834125,13.501596857767602,13.618887967286712
0.3257896045759761,1.2276972929527905,1.30026894147635,13.163207614586682,13.284124911638118
0.3282765481223576,1.2454206588377916,1.3084271533936733,12.829680734844022,12.956224835623441
0.3307634916687391,1.2631515871876,1.3118045984963287,12.520170321101812,12.651918751962064
0.3332504352151206,1.2856785315017056,1.319978133368727,12.27777249098681,12.415273210822564
0.3357373787615021,1.3034247351613768,1.328159404475661,12.068968907455066,12.211590147603415
0.3382243223078836,1.340332264631894,1.3363484614426684,11.903336861791082,12.052872945289344
0.3407112658542651,1.3724591530163468,1.3493337570551525,11.804818853677311,11.960689523717361
0.3431982094006466,1.3758634332578734,1.3671153406168781,11.74947334802156,11.908489765599798
0.34568515294702806,1.3888523813028457,1.3753280513084811,11.73730082475318,11.898935617798688
0.3481720964934096,1.3922724330921847,1.3643951314678486,11.811397392095856,11.971178093935883
0.3506590400397911,1.3813352343651828,1.3391050332298888,11.938244703551426,12.092269262698132
0.3531459835861726,1.3704060439789536,1.3233998218459901,12.079536007696257,12.228842544372975
0.35563292713255407,1.3499081040247687,1.3077027391597345,12.249636988016638,12.39297965307387
0.3581198706789356,1.3198414630693893,1.2776486235279336,12.419817696494428,12.554928877018625
0.3606068142253171,1.294571379474536,1.252391136382291,12.556559780161326,12.68509330386689
0.36309375777169856,1.2645210948335555,1.2319303257051377,12.640710094371993,12.76339365594547
0.36558070131808007,1.2201138505721425,1.2019010293489176,12.672269106116401,12.787480134512043
0.3680676448644616,1.1948685178303298,1.1814569082384947,12.675179297332058,12.786075293867219
0.37055458841084304,1.1792083376960447,1.1705980098469018,12.625499115091454,12.734365312394823
0.37304153195722456,1.1587681477667928,1.1645359781554754,12.513652214758197,12.621029253457111
0.3755284755036061,1.1431248020707225,1.1632708602936763,12.368369476580785,12.475435740555634
0.37801541904998753,1.1514319611048842,1.157225896577358,12.180074552559807,12.288986265867422
0.38050236259636905,1.1597476553109947,1.1511895371095402,11.958344706284022,12.069476380053151
0.38298930614275056,1.1537067215980847,1.154738635139,11.736699216242982,11.849665354241102
0.385476249689132,1.1620396265838968,1.163084833778243,11.51035013265541,11.627177757333746
0.38796319323551354,1.1799580134691103,1.1666513726433605,11.288874713985052,11.410173909581383
0.39045013678189505,1.1787315086771883,1.175015104454821,11.101003830253578,11.22507703780023
0.3929370803282765,1.1966673849395468,1.1690224618335907,10.970679946431536,11.097497232866724
0.395424023874658,1.2050352683260475,1.1630387004644394,10.86917308922788,10.99744027764112
0.39791096742103954,1.2038352046504852,1.1762174791733186,10.79169530020769,10.92215153762268
0.400397910967421,1.2074324495089026,1.179828423403184,10.733458619183327,10.865404831782293
0.4028848545138025,1.2014618383960338,1.1642947716976333,10.708828697488508,10.83873170332571
0.40537179806018403,1.1859234165873755,1.1679237956220474,10.717805974728988,10.846281632629998
0.4078587416065655,1.175182439138456,1.1619851200753712,10.76517929205671,10.891296909673457
0.410345685152947,1.1740273542825463,1.1512671930159548,10.841372278881591,10.965359513833587
0.4128326286993285,1.144150980187752,1.1453468655389683,10.917654949544197,11.037032685698247
0.41531957224571003,1.1142837813234845,1.1250705686335094,11.00360454315263,11.116956646124653
0.4178065157920915,1.0940026086941284,1.1095919596662767,11.070491070450654,11.179615761094531
0.420293459338473,1.07851910315865,1.1036994858574387,11.11831496029533,11.224895704071688
0.4227804028848545,1.0630449053908393,1.0978163842799453,11.127923026447133,11.23236111274042
0.425267346431236,1.0523684625192455,1.0823658918197852,11.108892500766414,11.210998523693785
0.4277542899776175,1.046489818165552,1.0669248584565574,11.056435403324004,11.156981375846835
0.430241233523999,1.0358322091235879,1.0610701339815505,10.960975349035266,11.060822699819587
0.43272817707038047,1.0251840819602145,1.055224954715833,10.832089564255192,10.931544558524466
0.435215120616762,1.0289106896943476,1.044600960111155,10.698508886771947,10.798515674553181
0.4377020641631435,1.0182816552728617,1.0435634027102347,10.545868522636454,10.64618546718381
0.44018900770952496,1.01245063465587,1.0329587116226724,10.388534095960777,10.488741614248672
0.4426759512559065,1.0162060736520142,1.0271521390086888,10.236082825669651,10.337558121469817
0.445162894802288,1.0295480145584495,1.030932130195677,10.07893831553338,10.183702064557755
0.44764983834866945,1.0381112895195805,1.029933517036951,9.931466184044496,10.038548633331585
0.45013678189505096,1.0418959404483057,1.0337331477939384,9.793666837849209,9.903032944626506
0.4526237254414325,1.0409020090644567,1.0375426605730615,9.684694294983546,9.795574273735577
0.45511066898781394,1.039917940214492,1.0222084833251317,9.60933736162522,9.719346893453704
0.45759761253419545,1.043732178550571,1.0020958670478712,9.57238484204869,9.681122070895494
0.46008455608057697,1.0427679585690146,0.9963584658634368,9.549895118697416,9.658187821016769
0.4625714996269584,1.0226601112503257,1.0002079170959584,9.561022201982793,9.66743994692348
0.46505844317333994,1.0073506939414063,0.9897022445912649,9.577036067192473,9.680593255882549
0.46754538671972146,1.006416553831535,0.9792066985600594,9.597937107609738,9.700109110724632
0.4700323302661029,0.9863389080299116,0.9639329157335927,9.642879327867231,9.74100368747171
0.47251927381248443,0.966271409971327,0.9630345492459111,9.668767487496146,9.76453689163146
0.47500621735886595,0.9605793095718491,0.9621464287895436,9.666025167326964,9.761172106658517
0.4774931609052474,0.954897436626696,0.9564801904977616,9.653806366163735,9.747956751272255
0.4799801044516289,0.9492258306924886,0.9651894869049673,9.632111467575598,9.726777048287222
0.48246704799801043,0.948352934446075,0.9547555338211524,9.600940853172704,9.694792245517961
0.48495399154439195,0.9331251737621121,0.9443319833782378,9.555506499280689,9.647289253595288
0.4874409350907734,0.9226962008765865,0.9482840841857931,9.50059718689641,9.59228637453533
0.4899278786371549,0.9218544578628471,0.9618234713695755,9.417059678440642,9.510832404099633
0.49241482218353644,0.9258115799513895,0.9705849732116378,9.30968275095613,9.405814967095962
0.4949017657299179,0.9297792021699587,0.9697802244310669,9.183255179501039,9.281009575488975
0.4973887092762994,0.9385457659836618,0.9641976661834772,9.056930947104927,9.156338977721743
0.4998756528226809,0.9329576960522707,0.9634141427402008,8.940287228162314,9.040315956596716
0.5023625963690624,0.936957046714094,0.9626412882065432,8.83332438842785,8.934885925871766
0.5048495399154439,0.9409670488604844,0.9570907364822323,8.74083119497248,8.843278331247149
0.5073364834618254,0.9354109331775333,0.951550927901567,8.667596412858432,8.769701839771677
0.5098234270082069,0.939442350067462,0.9460218992720026,8.608831998493953,8.711457842479401
0.5123103705545884,0.9386961264840799,0.9357152838736806,8.550173099628706,8.652292964524802
0.5147973141009698,0.9283838958151267,0.9302079247402184,8.505985281911753,8.606914026371923
0.5172842576473514,0.9180825012021199,0.9342882613770023,8.471480495683963,8.572149778387812
0.5197712011937329,0.9125803822586434,0.9288027164794854,8.43229388261421,8.532236375241608
0.5222581447401143,0.9023007684292708,0.9185397291358717,8.38842579229662,8.486668909741692
0.5247450882864959,0.8872436955906791,0.9082877382251142,8.3733953955275,8.469116745010464
0.5272320318328774,0.876986006051208,0.8884699724555463,8.368049424535501,8.460658042861308
0.5297189753792588,0.8715277352691759,0.8782400802472676,8.34365780286025,8.434897258599353
0.5322059189256404,0.8565037085321374,0.8775980965285979,8.328951291832624,8.418741393075349
0.5346928624720219,0.8510675741595839,0.8626020394153533,8.328718634125373,8.416409708457438
0.5371798060184033,0.8408541570181536,0.8428287500541873,8.299864537147574,8.384816476840296
0.5396667495647849,0.830651895044656,0.8326434727003174,8.261542949407884,8.344840898919694
0.5421536931111663,0.8204608226441052,0.8081042248343138,8.218542607385661,8.298833110088575
0.5446406366575478,0.8102809740096348,0.8075182668882759,8.151710228886525,8.231586764648323
0.5471275802039294,0.8049007864424174,0.8021552125970093,8.070622949562049,8.15023147248652
0.5496145237503108,0.8091086970309649,0.7920150954038983,7.984857902984174,8.064731894229816
0.5521014672966923,0.8181163360101233,0.7866747551792856,7.918357430602516,7.999284712301538
0.5545884108430739,0.8175585267606982,0.7813458216185447,7.851968241897037,7.93298862405585
0.5570753543894553,0.8074353024106486,0.7568747142417205,7.771325447577651,7.849733136406959
0.5595622979358368,0.81168871247535,0.7515686921978639,7.700371382822954,7.779422439901988
0.5620492414822184,0.8063767730525504,0.7510625778974966,7.6199527508315015,7.69922193607518
0.5645361850285998,0.791499516626706,0.7457795968560224,7.549223479263784,7.627151095381199
0.5670231285749813,0.7957873953889514,0.7500849909746419,7.459453460473317,7.539187688425903
0.5695100721213628,0.8048752314320724,0.7544019853369002,7.379373424550295,7.4613737764980135
0.5719970156677443,0.7900326366720494,0.744365401489613,7.332925696154359,7.4128287909045
0.5744839592141259,0.7799900626524179,0.7391288840050501,7.286591757988047,7.36539988409227
0.5769709027605073,0.7747475407783253,0.7434808672774962,7.240371913879689,7.319561667425693
0.5794578463068888,0.7743051022380905,0.733479365562016,7.213420078819478,7.291842675522642
0.5819447898532704,0.76908597136227,0.7282780227788341,7.210524955714348,7.287904516854505
0.5844317333996518,0.7590901789046072,0.7230884660286734,7.1933796154632175,7.269373089997162
0.5869186769460333,0.7491061587214216,0.7131223221940286,7.176349563360441,7.250496296046869
0.5894056204924149,0.7343455378103838,0.70316802457951,7.154646689288347,7.226525990283144
0.5918925640387963,0.7339619595524154,0.68364879631001,7.118694477675485,7.189011538539467
0.5943795075851778,0.724013437227039,0.6689298768929262,7.097223637376791,7.165350374993895
0.5968664511315593,0.7092884038167924,0.6733765056163434,7.06150403526476,7.128910519719373
0.5993533946779408,0.7089405020460231,0.6826235016268976,7.001959149351915,7.070785204601227
0.6018403382243223,0.713392954497819,0.6775172805310912,6.932954472108648,7.002415075192035
0.6043272817707038,0.7034921768950013,0.6724230809575438,6.88800910714051,6.956415995525822
0.6068142253170853,0.7031802146233124,0.6721293346739439,6.8144508961389825,6.883528257562128
0.6093011688634667,0.6980918862858636,0.6718476665868143,6.726645325129164,6.796062749774927
0.6117881124098483,0.6930156235466454,0.6715781047022233,6.634169474662867,6.703990783387441
0.6142750559562298,0.6975282611693592,0.6904742900865002,6.55617722977737,6.629235271782989
0.6167619995026112,0.6972646170953183,0.6998058303816441,6.487880456751098,6.562659443212184
0.6192489430489928,0.6874363156854169,0.694784349609805,6.429279423023441,6.503147536377941
0.6217358865953743,0.677620191040228,0.6993518914933892,6.38037439387244,6.454257478395473
0.6242228301417557,0.667816270398234,0.7039316762907983,6.326800422451884,6.400773543989157
0.6267097736881373,0.6628129840965626,0.6941585207181138,6.273346173031605,6.3463414114324825
0.6291967172345188,0.6482451489692309,0.6796092578707853,6.229588711034712,6.2999893670701494
0.6316836607809002,0.6432664048703916,0.6746491239421979,6.176374679793618,6.246322701659479
0.6341706043272818,0.6382999715100866,0.674489741621938,6.137646350352998,6.207500784308004
0.6366575478736632,0.6285574716962545,0.6695543300565612,6.103827168343139,6.172527326559722
0.6391444914200447,0.61403893133456,0.6646313181306778,6.079705787181426,6.146673983295513
0.6416314349664263,0.5995327794282261,0.6692975378261712,6.060494051469258,6.126743580046693
0.6441183785128077,0.5898274447575614,0.6500341910189227,6.036615400310827,6.100095602148602
0.6466053220591892,0.5801345492391797,0.6355717225255408,6.01285848059295,6.074123362044402
0.6490922656055708,0.5848193278477254,0.6259101570172818,5.994011937022741,6.054911747668398
0.6515792091519522,0.5847281920922935,0.6114727123011658,5.965710798845014,6.025405486104025
0.6540661526983337,0.5702843598991049,0.6066246225620373,5.908801689801968,5.967173124122565
0.6565530962447153,0.570218275533247,0.6017891051593172,5.847226861335082,5.905705798357981
0.6590400397910967,0.5701647531532348,0.5969661838690732,5.7905633527402,5.849109369170602
0.6615269833374782,0.5701238166546407,0.5921558822432815,5.734022991166434,5.792642697285707
0.6640139268838597,0.5605186830684175,0.5969350302503469,5.677606004896353,5.736350980479128
0.6665008704302412,0.5605029891232878,0.5873616343921912,5.616524216704358,5.674901018273227
0.6689878139766227,0.570076758042517,0.5778009275088465,5.565143060457306,5.624025133767314
0.6714747575230042,0.5652979962235014,0.5778297388955504,5.504309144590181,5.563350446529995
0.6739617010693857,0.5701087430423639,0.5778712843417286,5.457964705230269,5.51800126166164
0.6764486446157671,0.5509901978069929,0.5731371827324778,5.411744749751064,5.4698315938215245
0.6789355881621487,0.5414612060850856,0.568415859368808,5.351284283334043,5.40855991072809
0.6814225317085302,0.5415217899775095,0.5589189326863253,5.305313938850818,5.362088418899902
0.6839094752549116,0.5368067613994834,0.5494348275364238,5.273833927057827,5.329480689427475
0.6863964188012932,0.5368929486430123,0.539963565225289,5.21374882663484,5.269059832390364
0.6888833623476747,0.5322035664940159,0.535293570154477,5.168154473832892,5.222987699376346
0.6913703058940561,0.5323154427947752,0.5210596532193059,5.113109056223829,5.167083037235705
0.6938572494404377,0.5276517918813854,0.5068386416916297,5.043824372465528,5.096613201182206
0.6963441929868192,0.5182126345055877,0.5022073626182417,4.9938194455828135,5.045690163368162
0.6988311365332006,0.5135747978347336,0.4928006262192848,4.9487292632015425,4.999653273042081
0.7013180800795822,0.5089498988501906,0.47383004913041527,4.913342424032731,4.962305783685482
0.7038050236259636,0.5091263609488796,0.4788144743246656,4.878082314630186,4.927896104885294
0.7062919671723452,0.4949505907010665,0.47423509806555497,4.838160722671629,4.886478711083784
0.7087789107187267,0.4903646243347215,0.4600919396336498,4.79357783695861,4.840509326165541
0.7112658542651081,0.49058007793082337,0.45553863136562134,4.763487457377427,4.8103011354925735
0.7137527978114897,0.4860201640249182,0.4509983854511299,4.719159348414776,4.765509427044385
0.7162397413578712,0.4958385148493052,0.45604802713595616,4.674958902243767,4.723248497965231
0.7187266849042526,0.5008815358486753,0.46111076815952146,4.635674702200629,4.68540130598113
0.7212136284506342,0.4867840355629288,0.46139822335646485,4.582153312823947,4.630980025871296
0.7237005719970157,0.47748804886938556,0.45212200733636276,4.538336926339283,4.585729080888408
0.7261875155433971,0.4825704004593674,0.44764734776500736,4.4994373128547664,4.547328718233407
0.7286744590897787,0.46851228491635255,0.45755106876288476,4.45108943364269,4.499005877738904
0.7311614026361601,0.45446733312226184,0.47704478426458463,4.407658667702399,4.456631823927279
0.7336483461825416,0.45480077241374284,0.4773980913782365,4.359568375237301,4.4091483416425135
0.7361352897289232,0.45035900666034334,0.4777646201902406,4.316395527538172,4.36604542089717
0.7386222332753046,0.4507188594286201,0.4733559839606394,4.273351883741518,4.3230486580737395
0.7411091768216861,0.4463035407790711,0.4593837957247482,4.240014410752045,4.288116430983588
0.7435961203680677,0.43232466386775537,0.4597900882150956,4.202018056680817,4.249149007610917
0.7460830639144491,0.4231474549072979,0.45542126405681094,4.17851659068969,4.224507449989717
0.7485700074608306,0.41877192992476975,0.45585414557239057,4.159933359828018,4.20573637898745
0.7510569510072121,0.40483289476176665,0.4467235382583441,4.117538095674066,4.161438640859968
0.7535438945535936,0.40527238159792534,0.442394667308724,4.060907754179622,4.104988493638616
0.7560308380999751,0.4057251958260104,0.43807914441209306,4.004407692428701,4.048679690773159
0.7585177816463566,0.39182614261450555,0.4242001777125637,3.9671916686385016,4.009000280933175
0.7610047251927381,0.382728850149897,0.4294882016927124,3.92531780895727,3.967248591838858
0.7634916687391196,0.3832217364336502,0.4252128107674431,3.8692094473091156,3.911322868399141
0.7659786122855011,0.37415120264169077,0.40179721240910027,3.818020335356044,3.8572930149951308
0.7684655558318826,0.3650940696479539,0.4023370503897765,3.7717506092959825,3.810678606302697
0.770952499378264,0.37520396474325124,0.4076787250939393,3.711246789863978,3.752376939131909
0.7734394429246456,0.37096207847133067,0.3890918300419983,3.67002783213814,3.709192581214647
0.7759263864710271,0.36673363435556383,0.3705183950545008,3.6433054624549914,3.68041466853883
0.7784133300174085,0.35294183909439114,0.3759004497288365,3.611926195012373,3.64854490558993
0.7809002735637901,0.34874031908489633,0.37650758691594266,3.566313348472412,3.603049912595329
0.7833872171101716,0.35891749054013566,0.362763012525142,3.5064670459629443,3.543406540702893
0.785874160656553,0.359531349528347,0.34903194884461364,3.475483038321209,3.5114197188980936
0.7883611042029346,0.35058190849653814,0.3401028112993658,3.4446310244078795,3.479089031791524
0.790848047749316,0.3512227929503319,0.3359756117717092,3.404334314194587,3.4388557958710533
0.7933349912956975,0.34708880493068905,0.3462271685623657,3.368958232085874,3.404441725202255
0.7958219348420791,0.3429683595375126,0.342127073187517,3.338502890358373,3.3734670264852036
0.7983088783884605,0.3388614683282569,0.34282895014460957,3.29860318916253,3.333637920249896
0.800795821934842,0.3491333525993534,0.3531212137484787,3.2540476397665756,3.2917191148952676
0.8032827654812236,0.34984200686295397,0.33948505152997477,3.2144131545974073,3.2511677069057914
0.805769709027605,0.3457758453314925,0.3354392972830307,3.170123030640897,3.206518436993037
0.8082566525739865,0.3513000886366247,0.34577236465861105,3.1163889660453714,3.1551308163255367
0.8107435961203681,0.34726113394661146,0.34175384384460417,3.0723646734048096,3.110757250464634
0.8132305396667495,0.3288705881696433,0.3329605513707148,3.0380502498780535,3.0738848243413806
0.815717483213131,0.3248588812352956,0.3193924969055528,3.0038689838314765,3.0382188419897864
0.8182044267595125,0.32564921629005017,0.3154148998584154,2.9698209681223435,3.004225449899217
0.820691370305894,0.31687639293969727,0.3066625594966954,2.935906293460336,2.9688378766412202
0.8231783138522755,0.3176940338120543,0.29792388814923454,2.911701855050361,2.9440950791293146
0.825665257398657,0.30894853475250206,0.2939872979253031,2.8780541260322874,2.909479898682686
0.8281522009450385,0.29542830798827624,0.2948527973945252,2.8301747873660483,2.860787546172321
0.8306391444914201,0.301075378808387,0.2909435882668072,2.792005937794901,2.823223638318467
0.8331260880378015,0.30194773907948136,0.2918364853144557,2.7587592540040475,2.7905364346033674
0.835613031584183,0.2980453970507748,0.2975314964505551,2.716069603904306,2.7485250850840264
0.8380999751305646,0.2941567640730456,0.2984518227292208,2.6591486599158154,2.6919645777521657
0.840586918676946,0.28070504131763874,0.2993858749474225,2.621515318892416,2.6534448909911013
0.8430738622233275,0.27684384965953013,0.3051220636843097,2.6079580556398314,2.6403005909967847
0.845560805769709,0.2825731964744669,0.29171837937960143,2.5801697129573204,2.611938546730363
0.8480477493160905,0.27873947563922896,0.28311684545886484,2.5525155680465543,2.583251162504768
0.850534692862472,0.2701310974147113,0.2841058718494107,2.5249956860299347,2.555247575222325
0.8530216364088535,0.2663248751649486,0.2898970616212049,2.4784565166330026,2.5095250447662067
0.855508579955235,0.26732081539645547,0.2861252109871488,2.4416285406715765,2.4728279328187552
0.8579955235016165,0.2539653111178849,0.272790325904936,2.400146606968627,2.428912653040767
0.860482467047998,0.24541198168406408,0.2690460253976594,2.3540107722008754,2.382011654080252
0.8629694105943795,0.2464492362728482,0.279680718311921,2.3127978975813877,2.3426465045567224
0.8654563541407609,0.23792346724479463,0.27117558671657704,2.266931228940618,2.2954565933258433
0.8679432976871425,0.2294114866668978,0.2531074423483535,2.221199219971587,2.247313725848981
0.870430241233524,0.22091329975039609,0.2446299033699746,2.1851787255922845,2.2098987620274673
0.8729171847799054,0.21242891149170273,0.2457429744485986,2.1445045820268476,2.1689664714472974
0.875404128326287,0.20874672999303445,0.24208145007645498,2.1039652366914803,2.1281091003424004
0.8778910718726685,0.2098667598221018,0.23364533449304137,2.058772328275725,2.082589181495583
0.8803780154190499,0.21100060201243276,0.22043463172451494,2.018502703347214,2.0414372006831716
0.8828649589654315,0.20735985738400897,0.20723774890433733,1.992733206393953,2.0141825207488964
0.885351902511813,-1.539245875409529,-1.9080543679841995,-7.753360077008337,8.13169981122616
0.8878388460581944,-1.2842851961696078,-1.7153222575451341,-6.3231850233179285,6.676405301615705
0.890325789604576,-0.952696236160197,-1.4076546373054255,-4.447553441726839,4.761286938773752
0.8928127331509574,-0.563632605373091,-1.0089935209021033,-2.2653289989621506,2.5431211360454187
0.8952996766973389,-0.13624791401193614,-0.5384925188631642,0.05589421626430813,0.5582668272036235
0.8977866202437205,0.2863622109065554,-0.020093645247839298,2.353310516501618,2.3707546177307655
0.9002735637901019,0.6850441587560874,0.4695886491506416,4.483267825524214,4.559549253406259
0.9027605073364834,1.035855915379262,0.9114007531726065,6.330844484976075,6.479447561579752
0.905247450882865,1.3196438697285688,1.2766122488079281,7.785907237772707,7.999471875812806
0.9077343944292464,1.5172544105464398,1.541281121157346,8.810148874589196,9.071732559615276
0.9102213379756279,1.6286875396468639,1.6910421617531388,9.322166554176317,9.61327394587459
0.9127082815220094,1.6443664519939138,1.7258953718798598,9.288441466450292,9.58946300575755
0.9151952250683909,1.5595027456630053,1.631475542652768,8.780799672340029,9.066212227042303
0.9176821686147724,1.3980384384429279,1.4365130948620775,7.842336810822571,8.094462798818517
0.9201691121611539,1.1839155479142702,1.164950045770123,6.544878938770212,6.752348106909985
0.9226560557075354,0.8931920582467143,0.8359400091117837,5.008136144235744,5.155387026300671
0.9251429992539169,0.578540406527615,0.4590597917746537,3.342241706612958,3.4228678794006093
0.9276299428002984,0.259114206395123,0.08698183032277029,1.638175289999431,1.660820367025523
0.9301168863466799,-0.06987494532072402,-0.25635185880759304,0.0012817664430464504,0.2657074075423883
0.9326038298930613,-0.3653314187930028,-0.5709412759872909,-1.4535171873747919,1.603793378268295
0.9350907734394429,-0.6081016010019908,-0.818479195229636,-2.659183929977927,2.8479738277620794
0.9375777169858244,-0.8077622990552736,-0.970235197393325,-3.5630460318502193,3.7800969954644708
0.9400646605322058,-0.9355830937028586,-1.0453628967444033,-4.12200787211063,4.354198917005798
0.9425516040785874,-1.001140792461736,-1.0247086811902095,-4.316915848469962,4.548414362215542
0.9450385476249689,-0.9852817831311056,-0.9274261654039635,-4.133404763945537,4.3492452709698455
0.9475254911713503,-0.9023712769560264,-0.7726689642618656,-3.6241470700211478,3.8138868933086654
0.9500124347177319,-0.757197678744122,-0.5460718696003766,-2.841815220158084,2.9912299405071616
0.9524993782641133,-0.5689146034667364,-0.281153706661164,-1.8582352830723492,1.963606274196026
0.9549863218104948,-0.3470988596569945,-0.011433300887587095,-0.7500217327696355,0.8265234046118346
0.9574732653568764,-0.09175044940921395,0.2583009419978022,0.41099935810036925,0.4940222605942573
0.9599602089032578,0.14445818845734992,0.5041070027904286,1.5530019149274175,1.6391482502333197
0.9624471524496394,0.36631545476621724,0.7116196687261085,2.5850062478642517,2.706075916676333
0.9649340959960209,0.5690329434996678,0.8760505334814228,3.4734935049556572,3.6271779880466464
0.9674210395424023,0.7286686351587137,0.9543039639711868,4.161002815698252,4.33077342604805
0.9699079830887839,0.8500109299666148,0.9703219733956958,4.580496501005655,4.758675394355269
0.9723949266351654,0.9378482279473942,0.9241045581552685,4.751128139619011,4.930187332358377
0.9748818701815468,0.9442964924030012,0.8156517144523017,4.663320888424593,4.827374575612579
0.9773688137279284,0.8980861395621347,0.6689054548933071,4.326651515661263,4.469217667515596
0.9798557572743098,0.8231591821354336,0.4982309852471958,3.7985808208471106,3.9185509319519856
0.9823427008206913,0.6907851961128206,0.3036283011254479,3.1078391816590916,3.1981305025699633
0.9848296443670729,0.5249061938108852,0.08509739794357207,2.2831569738597945,2.3442640309321843
0.9873165879134543,0.3446757840295942,-0.10468929255501136,1.4011486045051864,1.4467130523980614
0.9898035314598358,0.15967076873242142,-0.27052017866569056,0.5192748654648263,0.6068956313538869
0.9922904750062174,-0.0348972602733586,-0.40760686223768205,-0.29542664665087237,0.5046167619780527
0.9947774185525988,-0.21987469477374755,-0.5015841386736208,-1.0190139670096112,1.1568582430580991
0.9972643620989803,-0.3665311201084889,-0.5428752068899891,-1.6227567293492182,1.749970844017695
0.9997513056453619,-0.47965494505334483,-0.5410568792775159,-2.053982552691367,2.1775343257198485
1.0022382491917432,-0.5496693686164129,-0.5104943717397474,-2.293537881180172,2.4131011024782114
1.0047251927381249,-0.5861512032799209,-0.42724567380970724,-2.341422774116678,2.4511982184327423
1.0072121362845063,-0.5795236484371246,-0.3104644050947125,-2.2311561159144624,2.32600374451788
1.0096990798308878,-0.5441519202746421,-0.174515782072719,-1.9579495662900248,2.039638098944597
1.0121860233772693,-0.47045921856880624,-0.02897661809180052,-1.5313799967811201,1.6022784449881842
1.0146729669236507,-0.37281075988826895,0.1165762733100646,-1.0184851206244776,1.0908207144718092
1.0171599104700322,-0.2559949543512885,0.2477776750852092,-0.4527838296647264,0.5761426813991528
1.0196468540164139,-0.12001180894553032,0.3502623699971128,0.1417817890491584,0.39647022312949665
1.0221337975627953,0.025561862511601308,0.42403035058192495,0.6933856134256313,0.813165884635682
1.0246207411091768,0.16157243937330806,0.46908160918794684,1.1780855527412477,1.2782913513049543
1.0271076846555582,0.288019914086058,0.4854161379763098,1.5958815310453875,1.69275578836693
1.0295946282019397,0.39053906894774937,0.46824552560111554,1.8988894373601202,1.994381039806053
1.0320815717483214,0.45476468606926856,0.4223581671709442,2.067955578810782,2.159082586888773
1.0345685152947028,0.4998503706171879,0.3381772476478697,2.1030798739906356,2.187957769294759
1.0370554588410843,0.516219307650294,0.23485637173075657,2.0377810629272144,2.1152284863244093
1.0395424023874658,0.4942946820419701,0.13154914393400663,1.838540237361121,1.9083664780017044
1.0420293459338472,0.4484416950823331,0.018678748666210332,1.5340877303999019,1.5983973267318654
1.0445162894802287,0.35950672463504285,-0.09417801656615232,1.1579422766797745,1.216118785310255
1.0470032330266104,0.2753737948643686,-0.1830791444785218,0.7196805924490004,0.7920156912515907
1.0494901765729918,0.18167768658747174,-0.24802464457004003,0.2576098120975434,0.4011057484090722
1.0519771201193733,0.05926477711848055,-0.30816813980287794,-0.20432814172132652,0.3744728370599926
1.0544640636657547,-0.04876931324636735,-0.33477922011712646,-0.6374029448032701,0.7216218443067215
1.0569510072121362,-0.16157820755636798,-0.32306949223497794,-1.0176726780283634,1.0798792032331745
1.0594379507585177,-0.26000830247920004,-0.3113461929413863,-1.3355606339960069,1.3958019115537226
1.0619248943048993,-0.32490599486285354,-0.27087891271629827,-1.5383944771755598,1.5954926694461649
1.0644118378512808,-0.37063650497721967,-0.2160328721012812,-1.640539520267824,1.6957038474364086
1.0668987813976623,-0.4067766499510467,-0.14201967853483355,-1.6419958677541278,1.69758277022305
1.0693857249440437,-0.40459602052914345,-0.06320455291430793,-1.571494045773326,1.6239723800724362
1.0718726684904252,-0.38324824083741743,0.020412493646787766,-1.4386109689130642,1.4889249154604274
1.0743596120368066,-0.35231012853854243,0.08010102993670909,-1.2241931335632152,1.2763962668117963
1.0768465555831883,-0.2974164848704297,0.13022625445065206,-0.9521826677149132,1.0060155443717642
1.0793334991295698,-0.2329325311690948,0.1707881555476205,-0.6704637176735293,0.7300327080815007
1.0818204426759512,-0.15885827898519028,0.196998318091691,-0.3790363982479228,0.45575528667240883
1.0843073862223327,-0.07040533672409349,0.19927992345257062,-0.10663124586980466,0.2367268931199878
1.0867943297687142,0.003695863792225307,0.19199816942809633,0.1323864112950517,0.23324476064532135
1.0892812733150956,0.07781052045079956,0.16557623704171576,0.31407443675114877,0.3634731340639499
1.0917682168614773,0.14236181436389822,0.12480251710559376,0.4240674989604454,0.4644090849019218
1.0942551604078588,0.1877729264711956,0.0792538035806003,0.4863074912701766,0.5272900656783155
1.0967421039542402,0.20925544086069559,0.01935327697536149,0.4864290787938419,0.5298826639509117
1.0992290475006217,0.22596295805059335,-0.05011067241093414,0.4148553283000034,0.4750529247561305
1.1017159910470031,0.21874185182582953,-0.10519604116760561,0.2811629181792572,0.37143881242622645
1.1042029345933846,0.18759210908245588,-0.14590284265467002,0.10450533180965849,0.2596147208102118
1.1066898781397663,0.14687892650794765,-0.18659630036159047,-0.10554075571845445,0.25986621457662107
1.1091768216861477,0.10617909730055264,-0.2176996213441722,-0.3489754775964595,0.4247952563301916
1.1116637652325292,0.046338994568413616,-0.23921281946607564,-0.5874917420879733,0.6360162124003463
1.1141507087789106,-0.01827618550582799,-0.2415591021169905,-0.8067244756871297,0.8423118178233547
1.116637652325292,-0.07808965022683528,-0.22473848349321957,-1.0162506231121498,1.0437292313676063
1.1191245958716736,-0.14267822034691124,-0.2031161879173684,-1.1969167107758452,1.2223840938469028
1.1216115394180552,-0.20246510350286023,-0.18148063323614405,-1.3343576700216015,1.3617774157040838
1.1240984829644367,-0.24308510417629092,-0.14067822085877868,-1.428573643757769,1.4559201163991582
1.1265854265108182,-0.2741150436148526,-0.09028577227982781,-1.4891415831311292,1.5168497725293772
1.1290723700571996,-0.28118972662847197,-0.04945691579727418,-1.492119617637817,1.5191887974248621
1.131559313603581,-0.29303958807308556,-0.01819166659001148,-1.4518731049217397,1.4812625188353543
1.1340462571499625,-0.29529943308436885,0.013086766642182113,-1.3875558075260823,1.4186909944171968
1.1365332006963442,-0.268815663639603,0.04437836839802545,-1.2895910696448567,1.318057824037867
1.1390201442427257,-0.23274190843981396,0.05652950973479465,-1.1771326569602039,1.2012517111318726
1.1415070877891071,-0.20144339302633607,0.05432857815175751,-1.0406039167923993,1.0613140659774736
1.1439940313354886,-0.16055492317858472,0.05214076762990327,-0.9135238278981159,0.9289899499690745
1.14648097488187,-0.11007651479621805,0.04517765871072266,-0.8006809506593484,0.8094738073001636
1.1489679184282517,-0.06437339389847774,0.01428562181717341,-0.7068638469988677,0.7099327510593877
1.1514548619746332,-0.01865717338136469,-0.0213817462222039,-0.6320726770535341,0.6327093631895409
1.1539418055210147,0.0222837270611837,-0.06182446201640035,-0.5858844091287096,0.5895586225774769
1.1564287490673961,0.039295677617620595,-0.09746573568939221,-0.5730876097309068,0.5826432256020716
1.1589156926137776,0.05153227488286699,-0.1330939874810011,-0.5888940402410103,0.6059420562145995
1.161402636160159,0.05420509869496076,-0.17349763778535188,-0.6285154635483394,0.6542715880741052
1.1638895797065407,0.052102535377877235,-0.20909989718921995,-0.6967404506848087,0.7293042553131139
1.1663765232529222,0.03564776114065188,-0.23032397643230462,-0.7983575741777162,0.8316818581890899
1.1688634667993036,0.019205968640536586,-0.2467466996878227,-0.9285786014026449,0.9609948085297578
1.171350410345685,-0.021164876180378378,-0.27273329460088025,-1.0586732846158906,1.0934443403881973
1.1738373538920666,-0.061522774328871654,-0.2603997458034275,-1.203007007432289,1.232403724153251
1.176324297438448,-0.09229093692397738,-0.2432648945229583,-1.3424263316936003,1.367407723383888
1.1788112409848297,-0.13262299515724574,-0.23569396885526572,-1.4482010140634696,1.4732368047716182
1.1812981845312112,-0.1681537571280015,-0.2137449704825123,-1.5346964425442007,1.5586069963915399
1.1837851280775926,-0.19888324104578892,-0.1822063211569218,-1.6067011999467198,1.6291845914286835
1.186272071623974,-0.22481146526875262,-0.1650200560594719,-1.6498502572432265,1.6732536224803745
1.1887590151703555,-0.2459384483029537,-0.1334557739945179,-1.6880858134043297,1.711119480744433
1.191245958716737,-0.2478989988407474,-0.1114555104359809,-1.6878892289860588,1.7096333799268022
1.1937329022631187,-0.24984674896322157,-0.10380768772196891,-1.6588374958497365,1.6807561606713501
1.1962198458095001,-0.25178171761607054,-0.08178190509316252,-1.6152960105927612,1.636845599060356
1.1987067893558816,-0.24891552056984545,-0.07889700509835151,-1.5716301712215497,1.5931745255583032
1.201193732902263,-0.231671370419259,-0.09036460386719458,-1.5230517638635312,1.5432187339816175
1.2036806764486445,-0.204837689863745,-0.09224270439077475,-1.4408305594400712,1.4582386281807338
1.206167619995026,-0.17799130506614996,-0.10368493968495684,-1.3824275900269214,1.397690063305977
1.2086545635414077,-0.14634383237075993,-0.11511452298501412,-1.3382662425973457,1.3511566921532996
1.2111415070877891,-0.11947209822451743,-0.12174307098710546,-1.2939815021794612,1.3051754999118528
1.2136284506341706,-0.09258771925440962,-0.13314741048820666,-1.273515581732159,1.2838000839659764
1.216115394180552,-0.08484432882929666,-0.14932756178384698,-1.262503469013339,1.2741319751554459
1.2186023377269335,-0.07708833389513664,-0.16070673866740348,-1.260945363096468,1.2734804575612162
1.221089281273315,-0.05974294817741033,-0.1720733650309607,-1.273629867723109,1.2865890963187863
1.2235762248196966,-0.05196180546166751,-0.1786390582630446,-1.3340760078976093,1.3469857969599999
1.226063168366078,-0.05374492638969841,-0.19476904916979,-1.3848231468724208,1.3994851366630416
1.2285501119124596,-0.06988073506038972,-0.186944535489856,-1.4210830857505652,1.4350291680270637
1.231037055458841,-0.08600404242745535,-0.18389595826090854,-1.4811632568381157,1.4950113752697185
1.2335239990052225,-0.09732646622060342,-0.18562333873297066,-1.5554870605513251,1.5695440294722438
1.236010942551604,-0.12300164090576376,-0.17776148832864802,-1.6296894952925154,1.6439636253473189
1.2384978860979856,-0.15824118448125235,-0.16031042856429156,-1.7229243840056494,1.7375868723530754
1.240984829644367,-0.17910310179737265,-0.1380585844086606,-1.7968847110834485,1.8110584636415832
1.2434717731907485,-0.195164221079141,-0.12537118760251786,-1.837205478805739,1.8517912893261266
1.24595871673713,-0.21121296736306572,-0.11267145341573759,-1.8917709338949447,1.9068568484096748
1.2484456602835114,-0.232037765816758,-0.10953621052938312,-1.931850871220103,1.9488169474879473
1.250932603829893,-0.243273428456953,-0.10160027115219217,-1.9430802968757739,1.9608838864650413
1.2534195473762746,-0.24970838071129853,-0.08886365758235604,-1.9350362348156729,1.953104261191908
1.255906490922656,-0.2561310481363856,-0.10005681216773077,-1.9268725168847123,1.9463946608553564
1.2583934344690375,-0.2529646464560918,-0.1256029508207437,-1.9185893628901205,1.939265932513293
1.260880378015419,-0.2593628114436739,-0.1367716762989244,-1.89103338059439,1.9136307914328279
1.2633673215618004,-0.2513835491163591,-0.14313981804792864,-1.8777236155129415,1.8998759624070525
1.2658542651081819,-0.23860368885962402,-0.16386101227893768,-1.8595066778602227,1.881899900815466
1.2683412086545636,-0.22581165686396537,-0.1797816687648197,-1.836382792347285,1.858928216158097
1.270828152200945,-0.20821907280387658,-0.19569021400344955,-1.817928991534158,1.8402488039383216
1.2733150957473265,-0.19061436311836033,-0.20679826797481438,-1.7993570992211545,1.8212043623882435
1.275802039293708,-0.18257435768989633,-0.22747106406215245,-1.7854557470433985,1.809123739748541
1.2782889828400894,-0.17931067656246402,-0.2337666092074766,-1.7953787777840269,1.8193911349753564
1.280775926386471,-0.16645813326112702,-0.23047333039522,-1.8243380188045908,1.8463573524667707
1.2832628699328525,-0.1583819613538085,-0.23195646137025783,-1.8436032820379626,1.8648757886773153
1.285749813479234,-0.15029378124743242,-0.23821602603561454,-1.8723284137858975,1.893396098235091
1.2882367570256155,-0.14219361678875775,-0.23488683845173908,-1.9105136482275427,1.930143324107574
1.290723700571997,-0.15323510522458544,-0.23633413271857728,-1.934217204092013,1.9546178686297113
1.2932106441183784,-0.1642646573572823,-0.23776952977172172,-1.9673813344559026,1.9884935358481957
1.29569758766476,-0.16570549074716795,-0.22961624734260866,-2.005217873611187,2.0251125033827706
1.2981845312111415,-0.18149964631334292,-0.22623951987966784,-2.0333618503392845,2.053944219394103
1.300671474757523,-0.19728193852827963,-0.22285096866477083,-2.0709671177867595,2.0922446129595604
1.3031584183039044,-0.21305239194051306,-0.20987381177343822,-2.103668706973753,2.1248200788020872
1.305645361850286,-0.21923422457235087,-0.2016732839959765,-2.117101650029026,2.1379558356657387
1.3081323053966674,-0.2254042678410117,-0.19824941027424314,-2.1447850133859063,2.165689882296127
1.310619248943049,-0.23156254663601572,-0.1948138123415326,-2.1723538313688664,2.1933296157090916
1.3131061924894305,-0.24249748927938114,-0.19615491868277823,-2.190231542709787,2.212328184314241
1.315593136035812,-0.23905550760302147,-0.19269594793225275,-2.193629990540753,2.2150150788346052
1.3180800795821934,-0.2451786434323745,-0.1796485221540789,-2.182549422386865,2.203612520355773
1.3205670231285749,-0.26086692210129403,-0.18095468344305976,-2.195297313401218,2.2181358034920193
1.3230539666749563,-0.2526015458106855,-0.18703765075987455,-2.222297106592089,2.2444141894301266
1.325540910221338,-0.2347477500730799,-0.18832064317252417,-2.2252418260969744,2.245500468808832
1.3280278537677195,-0.23603598046970753,-0.19438049313684225,-2.2089201269801,2.229983158583535
1.330514797314101,-0.2325242461653828,-0.21000562989419702,-2.2020626819439055,2.2242414313315955
1.3330017408604824,-0.23378937967338959,-0.2160424661894922,-2.1807277281968958,2.203838752216709
1.3354886844068639,-0.22546619701099174,-0.2172794314735591,-2.1592807305323074,2.18186585989703
1.3379756279532453,-0.2171315309018123,-0.23287016526179016,-2.1616639613990003,2.1849864296127874
1.340462571499627,-0.21357381085322802,-0.23408427396933318,-2.1687240643708368,2.191751191942936
1.3429495150460085,-0.21000465983530425,-0.23528699399628739,-2.185249700623771,2.2078899838471644
1.34543645859239,-0.21600091088162016,-0.24126675520352237,-2.211241129006762,2.2348273694581477
1.3479234021387714,-0.20762057388540278,-0.2376583742713132,-2.2371218027142135,2.2592701843164043
1.3504103456851528,-0.20401728872378316,-0.23882708790172336,-2.2772571925209437,2.298817468374162
1.3528972892315343,-0.20519108209299136,-0.23040771297411,-2.302917140290555,2.323492726352394
1.355384232777916,-0.21114198078886465,-0.23155388970844415,-2.3188903120931954,2.3399680381172376
1.3578711763242974,-0.22187001170610016,-0.24226564514112603,-2.3491189882373487,2.3719778594682066
1.360358119870679,-0.23737520183751942,-0.23860098980393873,-2.3696614167782464,2.393443679920275
1.3628450634170604,-0.24808077163269215,-0.24450196752798536,-2.380517863315294,2.4058658688593058
1.3653320069634418,-0.24919834495813392,-0.24081499235700754,-2.400842207664498,2.4257235996248867
1.3678189505098233,-0.2550931590574989,-0.24190530167164503,-2.4114811040074624,2.4369718524759025
1.370305894056205,-0.2657652413086485,-0.25256132630587835,-2.412434820727892,2.440135273154676
1.3727928376025864,-0.2716378125432197,-0.25362948058534274,-2.437222450365276,2.465394144389448
1.3752797811489679,-0.27271090032713097,-0.2546865988500282,-2.4523254398810543,2.4805516648275714
1.3777667246953493,-0.27856133895983703,-0.26052111221134,-2.4577440603779284,2.4871617429901733
1.3802536682417308,-0.2748239462313992,-0.2567678385904215,-2.458266987170731,2.486872434317864
1.3827406117881123,-0.2710755566248628,-0.25779201592053,-2.4538944931385522,2.482244320031282
1.385227555334494,-0.2721046013936389,-0.26838207558379734,-2.4350500453971407,2.4648607620275174
1.3877144988808754,-0.27312270524044985,-0.27417283576986096,-2.420887531854186,2.451624603783989
1.3902014424272569,-0.2645530896368936,-0.2847411313579311,-2.4353492446004683,2.4661694573365174
1.3926883859736383,-0.2607609927445764,-0.30008699067386146,-2.440128233418239,2.472301416258472
1.3951753295200198,-0.26653484617218043,-0.3058452321690903,-2.449589985461465,2.4829565495871435
1.3976622730664012,-0.2627210650137818,-0.30201588434177307,-2.468523182084496,2.5007684124855074
1.400149216612783,-0.24931967773091895,-0.3029641857360388,-2.4777744888738837,2.508647846401879
1.4026361601591644,-0.2502727294721609,-0.2991133583787473,-2.4821325888442516,2.51258580527725
1.4051231037055458,-0.2560034422286131,-0.2856750277006168,-2.491174569149793,2.5205354030172447
1.4076100472519273,-0.2521466347550488,-0.2818028358167335,-2.50011230779576,2.5285474714318674
1.4100969907983087,-0.25306754581135227,-0.2827084083226792,-2.504157683592153,2.532740202068293
1.4125839343446904,-0.2444009943180241,-0.2548729509734784,-2.5033109794667876,2.528093733839894
1.4150708778910719,-0.23093541255857036,-0.2366037194094277,-2.531091302379906,2.552593909299946
1.4175578214374533,-0.2366128461787405,-0.23747754942876265,-2.558768516910698,2.580635105665438
1.4200447649838348,-0.2422797110217454,-0.233552453666642,-2.581554505015651,2.60339583416604
1.4225317085302163,-0.2479360362915614,-0.23440526807875006,-2.609026359380735,2.6312424159963927
1.4250186520765977,-0.25837025459125706,-0.24003602205775554,-2.631607560171954,2.6551329215497
1.4275055956229794,-0.2687939919613052,-0.23129113179194416,-2.6349331849890447,2.6586873992849562
1.4299925391693609,-0.2696304711991661,-0.21295903014729056,-2.604638312178581,2.6272024811172905
1.4324794827157423,-0.27045652846009716,-0.20419336002608546,-2.593395667311089,2.6154431267556477
1.4349664262621238,-0.28084899997516655,-0.20978255444432703,-2.605993943486334,2.6294655948355157
1.4374533698085052,-0.28644270544894873,-0.21536143321066437,-2.618491414607348,2.642901295696049
1.4399403133548867,-0.28723767462128336,-0.21614162284753435,-2.602157951974773,2.6268705125823297
1.4424272569012684,-0.2880223406259102,-0.21691155659042494,-2.609666284045268,2.6344573646511624
1.4449142004476498,-0.2935851366694146,-0.2176712644261971,-2.631439896814916,2.656698880637283
1.4474011439940313,-0.2943492860695549,-0.21842077641265956,-2.653113873655771,2.678313343199988
1.4498880875404128,-0.29510322217639345,-0.22394852599814108,-2.660323298628958,2.68599309516307
1.4523750310867942,-0.29584697509030994,-0.23425454338012797,-2.6626452730790326,2.689252772428511
1.4548619746331757,-0.2917921716612627,-0.23018524554359399,-2.67444530234555,2.7001454764413975
1.4573489181795574,-1.532712108730217,-2.280330897197741,-26.40789692466179,26.55044510723925
1.4598358617259388,-1.2940053273472643,-2.079916943783166,-22.646238522672668,22.778336715090127
1.4623228052723203,-0.9882508373800739,-1.7166872634241075,-17.553306135924664,17.664716560971915
1.4648097488187017,-0.6393906858725756,-1.243314323177672,-11.550479554609154,11.634785296551177
1.4672966923650832,-0.2713669199351801,-0.7028937835257651,-5.19800226585003,5.25232588782687
1.4697836359114647,0.06314799333463328,-0.15767491829549485,0.9965546791253193,1.0109254559106966
1.4722705794578463,0.3450004100168344,0.34924661190373696,6.587869471629425,6.606135228260544
1.4747575230042278,0.5550366861270941,0.7699867430788108,11.164139125593673,11.204416438310187
1.4772444665506093,0.6741031776181607,1.066238217815755,14.428482334033935,14.483521032357263
1.4797314100969907,0.711776660301942,1.2284241985607336,16.198939469046763,16.261036004744632
1.4822183536433722,0.6584802966473309,1.2373910410586983,16.413260985141463,16.473004251074908
1.4847052971897536,0.5237908623434004,1.0931387142759177,15.119330612605818,15.167843198339131
1.4871922407361353,0.32207353633917474,0.8339744136819318,12.503895777434733,12.535814863758809
1.4896791842825168,0.07727030416478256,0.4886285280473044,8.844683568135883,8.858507546916709
1.4921661278288982,-0.18667684870865775,0.09061984940498213,4.476881912491342,4.481688505612825
1.4946530713752797,-0.4218839202665262,-0.32174442694867045,-0.21164882575230415,0.5712274012110328
1.4971400149216612,-0.6331393450750835,-0.7101571057736096,-4.837836686722286,4.930502241411003
1.4996269584680426,-0.815654751116658,-1.0315225885650414,-9.061705340974713,9.156627938842375
1.5021139020144243,-0.9263345398670431,-1.2762641001152013,-12.572008879526576,12.670530888636382
1.5046008455608058,-0.9747555493807089,-1.4156512519891853,-15.153269460333023,15.25043580314243
1.5070877891071872,-0.9657062144463276,-1.435318865766416,-16.64268167839749,16.732351364572548
1.5095747326535687,-0.8848213566251159,-1.3544205863211787,-17.001938615569294,17.078737677163872
1.5120616761999501,-0.7560430240938136,-1.1921100585796525,-16.250194194052177,16.311392913864065
1.5145486197463316,-0.6128900717222225,-0.9627525241990544,-14.488005192999319,14.532887570446643
1.5170355632927133,-0.44578572454884335,-0.6759248215666416,-11.916484861786277,11.943961266590032
1.5195225068390947,-0.2595184176240708,-0.36514580572110367,-8.75111166023975,8.762570202771897
1.5220094503854762,-0.10197221593127531,-0.08308794503142503,-5.279190098473561,5.280828536816241
1.5244963939318577,0.03164125202015358,0.16546032528818788,-1.8359087202802264,1.8436211967958207
1.5269833374782391,0.12695674439083954,0.36134536001496187,1.344100399805713,1.397603079886611
1.5294702810246208,0.18876263257463757,0.4854135138792115,4.040570396749265,4.073998863770041
1.5319572245710023,0.19790527131653415,0.53287635152597,6.057176421661525,6.083790751296664
1.5344441681173837,0.15917303191649607,0.48936863091419136,7.283784884973416,7.301940835256029
1.5369311116637652,0.10608470555050604,0.37883233652055326,7.6629346331967305,7.673026462654177
1.5394180552101466,0.005121436864991669,0.2204210494573271,7.189836948934126,7.193216736649731
1.541904998756528,-0.11977478969429331,0.014134737512218276,5.969836390728407,5.971054540289849
1.5443919423029098,-0.23987358640502732,-0.216084614968167,4.146584743264924,4.159134156451098
1.5468788858492912,-0.3599633888300515,-0.4271414103978297,1.8876758074185407,1.9685891850987858
1.5493658293956727,-0.47046742261364116,-0.6142472777946013,-0.6297198097024097,0.9975902729830718
1.5518527729420541,-0.5522321068010054,-0.767825442896449,-3.1853358715052096,3.32278209108555
1.5543397164884356,-0.6004690704391744,-0.8687223248405063,-5.5924249650307924,5.691261597548477
1.556826660034817,-0.624755152576323,-0.8977843428030599,-7.6498744677456845,7.72767203620342
1.5593136035811987,-0.6250903856594532,-0.87416514256125,-9.233186210619063,9.295516676693072
1.5618005471275802,-0.5918979955337402,-0.8074415632893421,-10.251380848233262,10.300151183879182
1.5642874906739617,-0.5299664180433262,-0.6976136375578958,-10.627844245497238,10.663892464672982
1.5667744342203431,-0.44887249239005267,-0.5494698012941286,-10.39609554404418,10.420278601738723
1.5692613777667246,-0.3629814611327274,-0.3917405070624027,-9.594442289178694,9.609294407311083
1.571748321313106,-0.267504953584868,-0.23879099750103672,-8.313864463072926,8.32159373864327
1.5742352648594877,-0.1768082123764953,-0.0906213053216014,-6.6932260814392635,6.69617418696682
1.5767222084058692,-0.10525648017221606,0.014461310168294439,-4.861814353680594,4.862975104374346
1.5792091519522506,-0.06721499967046196,0.0860336228314158,-2.97285850612408,2.974862574619624
1.581696095498632,-0.05310699700129404,0.1288840031780656,-1.1700109587738172,1.17828565426917
1.5841830390450136,-0.048567295006925915,0.12385880508557046,0.40307586805613305,0.424464299029636
1.586669982591395,-0.06796113648322397,0.08053480232240151,1.6362683769905182,1.6396581265606511
1.5891569261377767,-0.10171174765557925,0.008488768626978338,2.4385865836387737,2.4407215868892096
1.5916438696841582,-0.14024235477976288,-0.1018561355728389,2.7717229398437713,2.7771371312350066
1.5941308132305396,-0.2074950073834561,-0.2217695233154151,2.659619140329477,2.6769030373114964
1.596617756776921,-0.26995091517959,-0.3320978143076756,2.1310052828635992,2.173556065636864
1.5991047003233025,-0.32282170783130426,-0.4376294448854168,1.238553481545594,1.3526818224277837
1.601591643869684,-0.3756842249902963,-0.5335760447703848,0.06845467345447709,0.6561463821260667
1.6040785874160657,-0.40459648309305735,-0.5864188237884265,-1.27394659130651,1.4596318948714941
1.6065655309624471,-0.44307733844607955,-0.6105230249937224,-2.6689405529224963,2.7734995163017766
1.6090524745088286,-0.46718480753769687,-0.6154654881447126,-4.011182661782719,4.084929100691656
1.61153941805521,-0.4529769068811479,-0.5820926331018481,-5.214481981794108,5.26638796995953
1.6140263616015915,-0.4243956862170215,-0.5199812996706634,-6.1639171571715305,6.2003521650758175
1.616513305147973,-0.4005947919891404,-0.4434967309995388,-6.797239268876495,6.823461527416474
1.6190002486943547,-0.3719974507423166,-0.35742736361807825,-7.114448641251184,7.133128058055776
1.6214871922407361,-0.31945008240294503,-0.26656163407709954,-7.09160358224622,7.1037979157375055
1.6239741357871176,-0.28125994676267496,-0.18047638226822516,-6.733492819937662,6.7417805095064915
1.626461079333499,-0.25742707707149803,-0.09917164146228474,-6.121519535723285,6.127732463213593
1.6289480228798805,-0.22400948999802572,-0.04658946155086907,-5.293991281308539,5.29893333757914
1.631434966426262,-0.2097376387538061,-0.013153069201879308,-4.317946028504524,4.323056879734229
1.6339219099726436,-0.2002463466864077,-0.003650901061995171,-3.289152169221545,3.295244136742316
1.636408853519025,-0.19553564712250257,-0.01808299047476014,-2.2938012889000756,2.3021914639750913
1.6388957970654066,-0.20997078336719988,-0.06123777412054343,-1.3845661499027244,1.401735074221776
1.641382740611788,-0.22918657882056842,-0.10438486545337389,-0.6572151446327688,0.7038142044473574
1.6438696841581695,-0.2531830668597841,-0.16667791114558872,-0.14526742248084723,0.3361336273606252
1.646356627704551,-0.29153708751816554,-0.2481169446028284,0.13212307697857284,0.40498444299491726
1.6488435712509326,-0.32509506092199353,-0.3151831760023889,0.14622560739161372,0.4758247170207469
1.651330514797314,-0.35385702049299794,-0.3678766387769934,-0.07901814120407558,0.5165190015375888
1.6538174583436955,-0.3682461930258143,-0.4061973663719258,-0.5196664788966157,0.7554169765197897
1.656304401890077,-0.38741622524983077,-0.43014539224438053,-1.1230472959715385,1.263468091819055
1.6587913454364585,-0.4065787473050959,-0.4397207498628122,-1.8173348695460625,1.9134697916842323
1.6612782889828401,-0.4065801793822917,-0.43971187602659656,-2.573799106726886,2.6425547899662334
1.6637652325292216,-0.4113625715658299,-0.42054199758414557,-3.3158258815175543,3.367606867429597
1.666252176075603,-0.4065607473878942,-0.37742274471348747,-3.995531487937793,4.03385813343083
1.6687391196219845,-0.3825979337105979,-0.33908457084351395,-4.565032220094707,4.59356927623461
1.671226063168366,-0.35383937400660237,-0.3007391061689728,-4.966867565536013,4.988528813803759
1.6737130067147474,-0.33465031175688376,-0.2719631908529143,-5.191461045087794,5.209339938130543
1.6761999502611291,-0.30587716720792546,-0.2336032451432719,-5.253178196246321,5.267258535431725
1.6786868938075106,-0.2866735871757605,-0.20481291585659678,-5.118500523367345,5.1306118235350535
1.681173837353892,-0.27703960520156656,-0.19516904317427208,-4.801793564065973,4.8137369402751125
1.6836607809002735,-0.26739844819166964,-0.1903064506809664,-4.384460502491809,4.39672746178073
1.686147724446655,-0.2481733430575236,-0.20459038188742262,-3.8856552796742694,3.8989439833146764
1.6886346679930364,-0.25288314659788946,-0.22365566038607954,-3.3197434333601485,3.3368650262774806
1.691121611539418,-0.26716268241226426,-0.2475023197332531,-2.7585513411715237,2.7824878794032992
1.6936085550857995,-0.26706996746274936,-0.2857072001281957,-2.2643285741152255,2.2978552746594674
1.696095498632181,-0.2813354552374824,-0.32390512517028247,-1.83228705673295,1.8818448466216215
1.6985824421785625,-0.28601716270313415,-0.3573077251005725,-1.510311150102952,1.5781363686014587
1.701069385724944,-0.2859035267495944,-0.38112663016056514,-1.3271316020292474,1.4100626312083167
1.7035563292713254,-0.30014819422840877,-0.400150277232195,-1.2683835304339777,1.3634536894019313
1.706043272817707,-0.3191743920693431,-0.41437869987628106,-1.3292788598747958,1.428483211932863
1.7085302163640885,-0.3142517339203891,-0.4286003349725225,-1.5098179182184435,1.6006256731615935
1.71101715991047,-0.3188990765924501,-0.42845000611733575,-1.7812706133925555,1.8596212052268475
1.7135041034568514,-0.3187512436915445,-0.4091393435450983,-2.1340604665828646,2.196181102009416
1.715991047003233,-0.3090198654619327,-0.38024518744785585,-2.5394573856645213,2.5862953221613054
1.7184779905496144,-0.3088585887464427,-0.35613278133408555,-2.959154471836859,2.996467816275569
1.720964934095996,-0.30869064046241795,-0.32243694878589757,-3.340479616297106,3.3701720377968716
1.7234518776423775,-0.2989392475229864,-0.2887345299818769,-3.669067936757724,3.6925318992605938
1.725938821188759,-0.28439284679737886,-0.2646023650948899,-3.9209777442376534,3.9401726070986185
1.7284257647351404,-0.27941668179001855,-0.25004048765087994,-4.062690543056107,4.079956908616163
1.7309127082815219,-0.2792223827180357,-0.22589531788762907,-4.122937080631489,4.138550954682134
1.7333996518279033,-0.2694447731512898,-0.21610890591820864,-4.0873524744286485,4.10192074462851
1.735886595374285,-0.2740259032148913,-0.2206812852460307,-3.9511486484764315,3.966782835957586
1.7383735389206665,-0.2786005964636028,-0.2300356827251666,-3.747844753283724,3.7652191174476215
1.740860482467048,-0.2783804830843659,-0.23938372852070167,-3.491806325989792,3.511055636281642
1.7433474260134294,-0.28773080653632793,-0.25830226274876145,-3.202187306960173,3.2254476627017254
1.7458343695598109,-0.3018631969877483,-0.28200291555404666,-2.8981416364604957,2.927434368019643
1.7483213131061923,-0.30162407463571783,-0.29133210710924695,-2.6084000612913574,2.6418937069415422
1.750808256652574,-0.3109554895493193,-0.3054434841378906,-2.366481731462242,2.406288599446808
1.7532952001989555,-0.3250690718643424,-0.3147602734293766,-2.1771753769436835,2.2236988449837245
1.755782143745337,-0.3248112417436544,-0.3336477183618465,-2.054846534223822,2.106945044832156
1.7582690872917184,-0.32933564590002534,-0.33816383573751674,-1.9994955297014663,2.0544583521593336
1.7607560308380998,-0.3386423177518143,-0.3330970622664893,-2.0111226896410894,2.0664575352646604
1.7632429743844813,-0.34315448406300575,-0.33281264128491905,-2.0897283401672766,2.14370795348384
1.765729917930863,-0.33808377490356756,-0.3325222028325605,-2.230524403938759,2.280375138172669
1.7682168614772444,-0.3377954336098117,-0.3130721669725056,-2.4095691901818572,2.453190497897412
1.770703805023626,-0.3375010902213178,-0.2984045836343632,-2.6172862179270453,2.655774732161113
1.7731907485700074,-0.3419891814022346,-0.29330788944962327,-2.829733796081502,2.8653759744395484
1.7756776921163888,-0.33210612719852045,-0.28820531107140424,-3.0469122499860344,3.0784786892501828
1.7781646356627703,-0.32700557420143617,-0.27352007513482324,-3.2448798882063876,3.272765094831413
1.780651579209152,-0.3218991523829127,-0.2684058281783033,-3.4044834224496885,3.4301848531295893
1.7831385227555334,-0.30721008837623964,-0.26328579679926856,-3.50656956423844,3.529833927827161
1.7856254663019149,-0.3020920287176837,-0.26294841753638565,-3.5655038481474115,3.5879268603545493
1.7881124098482963,-0.29696820000217894,-0.2673937235877637,-3.5717097919543175,3.5939950407824743
1.7905993533946778,-0.29662703876557883,-0.2766217481307094,-3.510822509915636,3.5341734377073304
1.7930862969410595,-0.30106857820284816,-0.2858441210008569,-3.3972075360033536,3.422479830907673
1.795573240487441,-0.30071604484719405,-0.2950608753322359,-3.2548072106183614,3.2819599385235714
1.7980601840338224,-0.2859926652101369,-0.3090604475567309,-3.074045050702132,3.10275089856473
1.8005471275802039,-0.2904172956637704,-0.31826606412227054,-2.883651799536171,2.9156617077707656
1.8030340711265853,-0.2948363560339634,-0.3178893547735404,-2.7123582001740143,2.7467925157843545
1.8055210146729668,-0.2896730727638718,-0.3127187558717437,-2.5457993655533198,2.581239608988309
1.8080079582193485,-0.27971588223370525,-0.31711951039405895,-2.407917634935554,2.4447644253138137
1.81049490176573,-0.27933002743987256,-0.31193803805029896,-2.303501734057244,2.341249846260958
1.8129818453121114,-0.2741503314319387,-0.3019627751261069,-2.256494001686951,2.2930558435056243
1.8154687888584928,-0.27854203715583276,-0.2871937545605512,-2.2716831630576895,2.306644817140536
1.8179557324048743,-0.2781399676095647,-0.2724194125862178,-2.315550716580386,2.348052235149723
1.8204426759512558,-0.268155752405186,-0.2624281854083583,-2.3880969836433277,2.417391830740535
1.8229296194976374,-0.2629546344088771,-0.2380664926027949,-2.4893222853648673,2.5144673859629734
1.825416563044019,-0.2577482431779311,-0.2184879802794879,-2.6048617326270804,2.626685325746667
1.8279035065904004,-0.26211341820238965,-0.20848108455850856,-2.729927242672561,2.75039461839683
1.8303904501367818,-0.2616849823420315,-0.21283424153051733,-2.850153925817688,2.8700443977759647
1.8328773936831633,-0.2516745650680331,-0.20760546733433305,-2.9607536987288814,2.978674635019079
1.8353643372295447,-0.24644740910305782,-0.19758319800016722,-3.0521500744566854,3.068451649055519
1.8378512807759264,-0.25558035381919,-0.21149788612879883,-3.1099781624304974,3.1276215953804045
1.8403382243223079,-0.2742850285967764,-0.22061914444573905,-3.1342382817348966,3.153942721499682
1.8428251678686893,-0.2738310461832954,-0.21537019892572973,-3.134507557784266,3.153808078220016
1.8453121114150708,-0.25421843921627074,-0.2292699053937728,-3.0964210990755987,3.1152873586809555
1.8477990549614522,-0.25375446686338443,-0.2383762797980875,-3.039132837027232,3.05901013096078
1.8502859985078337,-0.2628623550563455,-0.2474777579751981,-2.962643089450488,2.9845595879236404
1.8527729420542154,-0.26717692637319546,-0.2613627757275734,-2.876528980466535,2.9007090488337663
1.8552598856005968,-0.2714866166393563,-0.25608934890124324,-2.7903676338609174,2.8152154925926225
1.8577468291469783,-0.27100305500525945,-0.25559952651029283,-2.689794156476996,2.7154679850796
1.8602337726933598,-0.2657262739067764,-0.2598933409316815,-2.613116091336142,2.639418630703528
1.8627207162397412,-0.2700215157053444,-0.25460561454537434,-2.545968544585934,2.572876108156562
1.8652076597861227,-0.27431200612496776,-0.25888999293695836,-2.493140235300114,2.5215113202243433
1.8676946033325044,-0.2881745841345408,-0.2679581050534203,-2.4498430755517084,2.4812450970900857
1.8701815468788858,-0.2828788621035966,-0.2626563698432691,-2.4400193969709,2.470365049307188
1.8726684904252673,-0.27757848556744363,-0.26692683609979273,-2.4493043042557794,2.4793933383644573
1.8751554339716487,-0.28663869670323744,-0.28076953597621435,-2.4824865150113826,2.514703277127023
1.8776423775180302,-0.2861175110873115,-0.28981929162581554,-2.5299895365027325,2.562558390898166
1.8801293210644117,-0.285591767499374,-0.2940761351233454,-2.582236875611102,2.6145727591096573
1.8826162646107933,-0.285061498039214,-0.29832850182390747,-2.6440172487902522,2.6760207705780674
1.8851032081571748,-0.2749499281262284,-0.2977880204015424,-2.6961773554991595,2.7264716210475632
1.8875901517035563,-0.27919910638173995,-0.30203152945032175,-2.748294314720969,2.7789020900553627
1.8900770952499377,-0.2738670481832266,-0.306270657562,-2.7907916317551233,2.8208727031963847
1.8925640387963192,-0.27331899542946025,-0.31529383992709503,-2.823669618134616,2.854334176499842
1.8950509823427006,-0.2823433833369156,-0.3003706884516273,-2.8421401816605467,2.871881116760317
1.8975379258890823,-0.2817866304783642,-0.29980846148319706,-2.8557804396787425,2.8852678798241564
1.9000248694354638,-0.27164876866521703,-0.30881878744334834,-2.8502254925127293,2.8797478110356707
1.9025118129818452,-0.2662950396267434,-0.30824808474898324,-2.81589884338109,2.845209346609874
1.9049987565282267,-0.27051387840805474,-0.3172499983353192,-2.7767428183148404,2.8078685864759003
1.9074857000746082,-0.27472851004932747,-0.3118825432101442,-2.7327577263091687,2.7641836526713646
1.9099726436209896,-0.2693621595462808,-0.30172255757834643,-2.6743670692799775,2.704779417253139
1.9124595871673713,-0.268780068451282,-0.2963468795992754,-2.606359558660957,2.6368872458389725
1.9149465307137528,-0.2729822683103964,-0.2957555407456698,-2.5670427286804447,2.5984031691723275
1.9174334742601342,-0.2676035806629343,-0.2807949591625847,-2.5372632732711455,2.5667415926355637
1.9199204178065157,-0.26222084360350006,-0.27540718283100185,-2.488291079268805,2.5171812374844516
1.9224073613528971,-0.2616224918596721,-0.27001543644239634,-2.458433679532906,2.4870164496492064
1.9248943048992788,-0.26102015347124585,-0.2646197512811015,-2.447691379895458,2.475752052306684
1.9273812484456603,-0.26041385975072606,-0.26400856190355215,-2.44169927575825,2.4696986156911973
1.9298681919920417,-0.26459204528288893,-0.25381668953629255,-2.435669268690136,2.463111172634253
1.9323551355384232,-0.26876633796340393,-0.2436209719583533,-2.448755276383702,2.475477514746844
1.9348420790848047,-0.26814836563902716,-0.2382098435789377,-2.4809576027682283,2.506750506593398
1.9373290226311861,-0.26273815942747614,-0.2327949321166849,-2.5131229380054894,2.5375207826474826
1.9398159661775678,-0.26211255703731295,-0.22737626856018167,-2.530886375087082,2.554562350709495
1.9423029097239493,-0.25669478284563996,-0.21716548052690232,-2.553401829752188,2.575444420222357
1.9447898532703307,-0.25606167446017297,-0.2117394055440447,-2.585458007280243,2.6067209793909702
1.9472767968167122,-0.2602132627969425,-0.20630967112622578,-2.603113192525896,2.6242090076131523
1.9497637403630936,-0.26436117540018156,-0.1912995014157004,-2.6111560897586372,2.6314669778251973
1.952250683909475,-0.26371703976222266,-0.19543934706473776,-2.614375402736865,2.6349007499102477
1.9547376274558568,-0.263069289963701,-0.19478722214928545,-2.622348238024129,2.642698960287171
1.9572245710022382,-0.2576295533918917,-0.18455475397323795,-2.611132878422609,2.6302943471738227
1.9597115145486197,-0.2569746673418566,-0.18389558638833892,-2.5663644128519003,2.5857455145279182
1.9621984580950012,-0.25631625909416117,-0.18802134659065572,-2.5502923828293795,2.5700274880567604
1.9646854016413826,-0.24607755255509595,-0.1921436617217238,-2.5341866662553443,2.5533459240842618
1.967172345187764,-0.25498899813906395,-0.20105096550877866,-2.5084707537762014,2.5294004037428555
1.9696592887341458,-0.2638970130025762,-0.200378078342482,-2.473144942139923,2.4952432571964183
1.9721462322805272,-0.2584364175672748,-0.19491343383901993,-2.437786334192195,2.459183368476239
1.9746331758269087,-0.2577608554414061,-0.20381067551939047,-2.416760435552149,2.4389978378226926
1.9771201193732901,-0.2570819535756819,-0.22228143024652303,-2.386125524725733,2.4102064610390506
1.9796070629196716,-0.26118814550506536,-0.226383711545179,-2.360247106226881,2.385421395614978
1.982094006466053,-0.26050265474682527,-0.23048275944533492,-2.353490684011158,2.3790549248092163
1.9845809500124347,-0.2598139147220071,-0.22979020063802613,-2.3514913415501457,2.3769346511794853
1.9870678935588162,-0.2495451488331854,-0.23867127503747243,-2.3446725650698337,2.369963332253337
1.9895548371051976,-0.24406159702656682,-0.2571260125385031,-2.3521882601484396,2.3787537620878823
1.992041780651579,-0.24336328922911238,-0.2660008296958716,-2.3596735085486387,2.3870570162628177
1.9945287241979606,-0.2378734486684696,-0.26529575628636826,-2.3814938113779043,2.408002987854509
1.997015667744342,-0.24195731511477808,-0.2693760319881404,-2.4032842492411124,2.430407778871201
1.9995026112907237,-0.24124970835686071,-0.27345328313812933,-2.4106799021587104,2.4381049424734003
2.001989554837105,-0.24053906140497028,-0.2727391360129525,-2.418046269485009,2.4452389326495365
2.0044764983834864,-0.23503700056854526,-0.27681042678947154,-2.372711203498298,2.400338488468235
2.006963441929868,-0.22474355541677787,-0.28566718494286203,-2.3752314621316426,2.402881583631323
2.0094503854762498,-0.2288123687391846,-0.28015582660562544,-2.368146493148995,2.395612698305592
2.011937329022631,-0.232878260021804,-0.2698531877703534,-2.3801870034776034,2.406728733875984
2.0144242725690127,-0.23215285532964725,-0.27870131432843204,-2.392199666235726,2.419543058923404
2.016911216115394,-0.23142458730633803,-0.2875466222259342,-2.3706659439713302,2.3992285046382995
2.0193981596617756,-0.22590508189250635,-0.296389140627324,-2.353893348424238,2.3832107595558005
2.0218851032081573,-0.2203827716066798,-0.290863688672931,-2.337093760835174,2.3654127543293924
2.0243720467545385,-0.22443449222462258,-0.29970071532231435,-2.320267465145479,2.35028348713032
2.02685899030092,-0.22369506285710983,-0.29895823294770985,-2.3082031479936784,2.3382081341492658
2.0293459338473014,-0.2229529158323883,-0.2886362704586545,-2.300901092071488,2.329627595732462
2.031832877393683,-0.22699648341457945,-0.2926768733016498,-2.293573176120452,2.323287556431074
2.0343198209400644,-0.23103739116271904,-0.29192645697545894,-2.295796488209863,2.325786070917585
2.036806764486446,-0.2350756678913442,-0.2815966468745028,-2.297994502491253,2.3270874445636003
2.0392937080328277,-0.22474613238891072,-0.2712642782885344,-2.2810138858357547,2.308055345973034
2.041780651579209,-0.2287792332611977,-0.2561409764804221,-2.2687969343542296,2.2946432547869127
2.0442675951255906,-0.22802138584505155,-0.24580357660770602,-2.266132330229995,2.2908009273591334
2.046754538671972,-0.2224726186924168,-0.23067530048007878,-2.2442899317546328,2.26705590096377
2.0492414822183536,-0.22649817024969343,-0.22033298312154326,-2.217635226449799,2.2400343841487675
2.0517284257647352,-0.22573285897460443,-0.2195650561685505,-2.2196873144625044,2.2419134487078027
2.0542153693111165,-0.22017671321867893,-0.20921793458841043,-2.2169276487963128,2.237636728603365
2.056702312857498,-0.22898337454724338,-0.19886845320241742,-2.214144908355099,2.23481984121606
2.0591892564038794,-0.2234224512547261,-0.18372823680271777,-2.2257045780180533,2.2444229827137816
2.061676199950261,-0.21785918145027716,-0.18295092671449975,-2.2085113021522194,2.2267590431526196
2.0641631434966428,-0.2266588031746416,-0.19653655091286382,-2.186507370937555,2.206992367921907
2.066650087043024,-0.2354561344779632,-0.19575471738188455,-2.178846670559196,2.2002573291429934
2.0691370305894057,-0.22988599334136545,-0.19497066391899365,-2.171164263282588,2.191988911440699
2.071623974135787,-0.24346723087975092,-0.19418441829092536,-2.1634604206536103,2.18575956421422
2.0741109176821686,-0.25225785829462893,-0.17903079823341272,-2.170100623495591,2.1920362154589137
2.07659786122855,-0.24668109667849736,-0.16866344465401362,-2.1719315287032437,2.1923926396510898
2.0790848047749315,-0.2554673936161037,-0.16787078842868564,-2.159376599122554,2.180906116192708
2.081571748321313,-0.2690399700591458,-0.1766528570421162,-2.161166523469749,2.185001025069986
2.0840586918676944,-0.2586684336072253,-0.17585606462648862,-2.177301569844044,2.199653800045832
2.086545635414076,-0.2435064249919277,-0.1654804385236921,-2.1886283923654,2.2083417748198078
2.0890325789604574,-0.23791918155309344,-0.15989121596471856,-2.1616284344920125,2.180552275616881
2.091519522506839,-0.2419067305979023,-0.1590884241475008,-2.1250323821424963,2.1446656191958025
2.0940064660532207,-0.24110388940058525,-0.1534952835569423,-2.107570920529019,2.126863200259446
2.096493409599602,-0.2355106851240189,-0.15747703120681855,-2.0900907009514373,2.1092044558005676
2.0989803531459836,-0.23949235481943293,-0.16145688743638198,-2.0678035839585736,2.0878784869693745
2.101467296692365,-0.23868371554333023,-0.1606464758319568,-2.055075042665848,2.075117017724744
2.1039542402387466,-0.22350798759938306,-0.16462262986728016,-2.047116936190065,2.065851926257384
2.106441183785128,-0.21311881113972925,-0.178173779621988,-2.039141122927962,2.0579752288650868
2.1089281273315095,-0.22188142292250634,-0.1821463385000941,-2.050301477155145,2.0703006549029723
2.111415070877891,-0.21627702642877294,-0.18611713975315114,-2.0518678392187564,2.0716121672482557
2.1139020144242724,-0.20588245494816843,-0.1948746132378072,-2.0534172753005127,2.0728931971142774
2.116388957970654,-0.2050629450161553,-0.19884197877491072,-2.050161640890657,2.0699641778835915
2.1188759015170353,-0.20424171649187578,-0.2075960693914416,-2.0373127907463626,2.058021917794137
2.121362845063417,-0.19863039247976588,-0.21156010475775977,-2.03881299881105,2.059361589149095
2.1238497886097987,-0.1882289993292966,-0.2107341111092058,-2.03072050508686,2.050284075818209
2.12633673215618,-0.19219117659564994,-0.22427172788647942,-2.0034587587962385,2.025112899195443
2.1288236757025616,-0.20094014383634745,-0.22823096457133873,-1.9905468383013183,2.0136392502296707
2.131310619248943,-0.19532231389223909,-0.22740025049101265,-1.98240819133588,2.004944866399869
2.1337975627953245,-0.18970292277006967,-0.22656801489609624,-1.9790430715263359,2.0009826943874
2.1362845063417057,-0.19844720640004265,-0.22094588031967222,-1.9660865217877745,1.9883899484039254
2.1387714498880874,-0.1928247707527619,-0.21532227585832509,-1.9579040042043712,1.9791243428284575
2.141258393434469,-0.17762404496398798,-0.20969722721096007,-1.9592841734645585,1.978463469674897
2.1437453369808503,-0.18636387801408538,-0.19928235667856198,-1.9558620702180374,1.9748016078658124
2.146232280527232,-0.18552547232153327,-0.18886609312489888,-1.9476379443156802,1.965549201661103
2.1487192240736133,-0.1798972567895643,-0.18802526865597669,-1.9441888514869117,1.9615266541394638
2.151206167619995,-0.18384446688405542,-0.19197150533856044,-1.935938233415559,1.95410048115904
2.1536931111663766,-0.1877903213911094,-0.19112802184056799,-1.94682835426104,1.9651808482924962
2.156180054712758,-0.1917348456590086,-0.18549484339178557,-1.9529174442108257,1.9710548272099817
2.1586669982591395,-0.19567806495737172,-0.1846488017836374,-1.9350521360017048,1.9536662596642125
2.161153941805521,-0.19962000447691963,-0.18858992208771808,-1.9171746914800813,1.936742910804674
2.1636408853519025,-0.19877228600894487,-0.1877414226555696,-1.9184389683966927,1.9378248989340923
2.166127828898284,-0.1931349345857154,-0.19168013504034276,-1.9005379838810494,1.9199184892336334
2.1686147724446654,-0.19707318512088162,-0.20040608407470906,-1.8682603841658576,1.8892848651993712
2.171101715991047,-0.20101025584676052,-0.1899772779097053,-1.8503368313037,1.8708936042321005
2.1735886595374283,-0.20015776823599712,-0.189124161139528,-1.8419791633212164,1.8624495479398826
2.17607560308381,-0.1945157470013536,-0.18826995171538297,-1.8336108141389307,1.8534860582906039
2.178562546630191,-0.19844942673612537,-0.18262627082809413,-1.8300204268504778,1.8497862829144556
2.181049490176573,-0.19759362203112174,-0.18176994954852344,-1.812054627158103,1.831836653697961
2.1835364337229546,-0.1919483573572741,-0.18091260890549643,-1.7892904598941168,1.8086276271862178
2.186023377269336,-0.1910904637451214,-0.1800542731668502,-1.7665165657767723,1.7859215782849285
2.1885103208157175,-0.19501996550336115,-0.17919496651892297,-1.7580983913692485,1.7779352003674906
2.1909972643620987,-0.19894848353896039,-0.17354630974605456,-1.7400941558746386,1.7600075261310664
2.1934842079084804,-0.2028760419975938,-0.17747353683194866,-1.7268693042590257,1.7477794880030781
2.195971151454862,-0.20680266494312843,-0.17661146175636677,-1.7375776840074568,1.7587311217500012
2.1984580950012433,-0.2011515697168179,-0.18053691501836822,-1.738700705278335,1.7595839491820982
2.200945038547625,-2.053400075140225,-2.497260320784579,-15.669280666096915,15.999347410793654
2.2034319820940063,-1.7460778192884907,-2.2665523326311763,-13.003246631259735,13.314295707281506
2.205918925640388,-1.3573518669120124,-1.8538842144030938,-9.484868948934421,9.759202311125785
2.208405869186769,-0.8920106449831411,-1.3167168294716511,-5.511585324876651,5.736462236707636
2.210892812733151,-0.38836140363350197,-0.7077226378046881,-1.466468254069067,1.6739847825132064
2.2133797562795325,0.0865581871664961,-0.07957409928670556,2.296140189241374,2.2991485653807264
2.2158666998259138,0.5279597006937724,0.5150563262813042,5.445839948224791,5.495561591546403
2.2183536433722955,0.8927474837461851,1.0187077758617145,7.7384222266341,7.856076766427433
2.2208405869186767,1.166556303127076,1.3882845964616806,9.054176715369165,9.233975510161994
2.2233275304650584,1.330232522403252,1.5998447484536218,9.321277139353425,9.550666431796616
2.22581447401144,1.3789877151864012,1.6485998055753779,8.534934870816752,8.801397712105842
2.2283014175578213,1.3223986651332564,1.5345497449694387,6.886685818945459,7.178441524327998
2.230788361104203,1.1556769460238825,1.2624829471830994,4.596796313672952,4.905098240086171
2.233275304650584,0.8979761483243345,0.8754950194108009,1.8855326857593813,2.2645278097297705
2.235762248196966,0.5828150725461909,0.4214699722521065,-0.9693778933630917,1.207064143464745
2.238249191743347,0.22934730932483305,-0.07086179688971628,-3.699785058073169,3.7075640329594393
2.240736135289729,-0.143273550619465,-0.5440394706044165,-6.05190365187926,6.077996714996823
2.2432230788361105,-0.5015287065204475,-0.9549674413574276,-7.848562970582087,7.922337695447546
2.2457100223824917,-0.802322550885987,-1.284492118130292,-8.960476342351182,9.087561705927188
2.2481969659288734,-1.0600203159825845,-1.4943062965379983,-9.330183144326039,9.508360104920019
2.2506839094752547,-1.236314797467496,-1.5700447887110602,-8.981625609253346,9.201256082828658
2.2531708530216363,-1.3312060174750697,-1.5164960199756579,-7.9866300022454295,8.237604532406898
2.255657796568018,-1.3351171914131967,-1.3432368188922177,-6.460118217457281,6.732009391701573
2.2581447401143993,-1.2528367445648758,-1.0694208205759428,-4.607991811290514,4.893551811612264
2.260631683660781,-1.0987299087675488,-0.7285668700162664,-2.59784511273868,2.9132140886460594
2.263118627207162,-0.8823735124523213,-0.3446170054761293,-0.6164260632363305,1.1301880318680702
2.265605570753544,-0.6229211906045495,0.04412152490731547,1.1399405899878001,1.299785392811471
2.268092514299925,-0.34910338476380065,0.39455306976315807,2.5371793437147687,2.591297806174732
2.2705794578463068,-0.07049692310183503,0.6731587844478439,3.4843103254556773,3.549440943208264
2.2730664013926885,0.18895615633532875,0.8703618410062304,3.9334492934529024,4.033020891027211
2.2755533449390697,0.40531381558847523,0.9622202016092056,3.8606540234000093,3.9993495088434607
2.2780402884854514,0.5785760333868425,0.9535222484366233,3.304231535005517,3.4873917103758507
2.2805272320318326,0.6848007719452698,0.8442679604352206,2.355161285352894,2.5939400853333874
2.2830141755782143,0.7287764134874424,0.6488225265999961,1.1235763456605081,1.4881228230247139
2.285501119124596,0.7152913403244251,0.39112794265393935,-0.26123659871855764,0.8560767077650556
2.287988062670977,0.6395571282140629,0.09991460772809546,-1.6699908615749237,1.7910571534238193
2.290475006217359,0.5015737563219224,-0.2008754822794745,-2.9829765624850815,3.0315138734215297
2.29296194976374,0.3204948171824729,-0.48251192806244525,-4.070907013526624,4.111911793964412
2.295448893310122,0.12505071005849847,-0.7258411368673232,-4.842802752481599,4.898491761297382
2.2979358368565035,-0.08475858562132327,-0.9069211125323793,-5.255568349475902,5.333918690625715
2.3004227804028847,-0.2897794770590101,-1.0209634720890104,-5.2852619870564075,5.390763659119929
2.3029097239492664,-0.47564677468910815,-1.0488146225196602,-4.96540268675259,5.097202743495009
2.3053966674956476,-0.6232068855375751,-0.9856861806794077,-4.343874679192819,4.497689551035767
2.3078836110420293,-0.7372482331438768,-0.8603085865771736,-3.5116578240248204,3.6899060278612676
2.3103705545884106,-0.803405627677782,-0.6822586668522825,-2.540578366751822,2.7505410247234523
2.3128574981347922,-0.8121022825410892,-0.4611132480554718,-1.5216161652929099,1.7853434681655556
2.315344441681174,-0.7729150243283822,-0.2112375599693963,-0.5553278833429705,0.9748887113884086
2.317831385227555,-0.7002090828659606,0.024272747790346383,0.29124863951275337,0.7587540418550093
2.320318328773937,-0.5891960746102651,0.2262640422982911,0.9223451446337165,1.1176171066168858
2.322805272320318,-0.4350876159290082,0.40431311063972286,1.2996542140913014,1.42894065698168
2.3252922158666998,-0.27619095298394464,0.5249011101059926,1.4135988507475528,1.5329919532520335
2.3277791594130814,-0.11250610528531035,0.5736628113587594,1.264178864974662,1.3928010796632553
2.3302661029594627,0.04639010110470482,0.5458097917892548,0.8944896978980612,1.048890933290635
2.3327530465058444,0.18134403357259524,0.47964925876069353,0.35720359815443814,0.6249347809784143
2.3352399900522256,0.2923556728750625,0.3608159832020408,-0.2854303781070069,0.5450967931868567
2.3377269335986073,0.36027138657674235,0.19888675273310374,-0.9567979639037922,1.041543929044325
2.3402138771449885,0.38987955893311743,0.022591968344141122,-1.6185921179434626,1.6650396126748004
2.34270082069137,0.3859685742888992,-0.16327998548659606,-2.1989869748170854,2.238565569603514
2.345187764237752,0.35811522039852395,-0.32999870758996774,-2.66446389480455,2.708599915973041
2.347674707784133,0.2871658651839662,-0.4727758133088682,-2.967139027349943,3.018260295501348
2.350161651330515,0.18748569989887368,-0.5676693046153849,-3.097435747584538,3.1546010108227116
2.352648594876896,0.06865151256612395,-0.6194676033138706,-3.0601426397246962,3.1229675177936578
2.3551355384232777,-0.054971505381495755,-0.6233823244783889,-2.8504714804697757,2.918358279897714
2.3576224819696594,-0.16422975910125637,-0.5698366797729641,-2.506729675524996,2.5759229261658403
2.3601094255160406,-0.28306528354345317,-0.48277270401410677,-2.048071016437289,2.1231557471978117
2.3625963690624223,-0.37795927372500854,-0.37176722196749035,-1.5415333270784028,1.6301500171510508
2.3650833126088036,-0.44412334449482366,-0.23203184834808566,-1.0350008171609755,1.1499178298021924
2.3675702561551852,-0.4911343205729683,-0.08750861770270646,-0.5811460988387669,0.7658991233918652
2.3700571997015665,-0.523780623269217,0.04264883883183934,-0.21827657342629614,0.5690428167306208
2.372544143247948,-0.5085434472409995,0.15844050349020256,0.05360758520463449,0.5353443789463567
2.37503108679433,-0.46457642357917994,0.2407127453156801,0.1722569608976663,0.5508596370045034
2.377518030340711,-0.4014563766439978,0.3038307566838192,0.15203659150171944,0.5259234509038841
2.3800049738870928,-0.3239717273853401,0.30469889021649355,0.0456187423087151,0.4470795941373671
2.382491917433474,-0.2560645099442704,0.26247074178974383,-0.15657356367264086,0.39871694770828114
2.3849788609798557,-0.16421591852801365,0.1962999073697551,-0.44496368927121743,0.5133158932871903
2.3874658045262374,-0.07236798709733189,0.10618636973155482,-0.7860329798332124,0.796467523543029
2.3899527480726186,0.005114057117647508,0.0017069183811257993,-1.1318975698616605,1.1319104097980965
2.3924396916190003,0.07780700357869391,-0.12671527036675467,-1.4586156095798657,1.4661753599280196
2.3949266351653815,0.13134562523615873,-0.2359845835835772,-1.732668441688153,1.7535906950539641
2.397413578711763,0.16094150177124458,-0.3356778447739712,-1.9205374080044884,1.9562836496809661
2.3999005222581444,0.1618062129554362,-0.4162182640711607,-2.012645866066144,2.0615921701661875
2.402387465804526,0.1530933552520305,-0.4632406481977065,-2.037724399090143,2.0953162530301337
2.404874409350908,0.13480291193336552,-0.4767450137468354,-1.97183115288734,2.033119703484082
2.407361352897289,0.08778125308082907,-0.46151978054178544,-1.8101778856669775,1.8701470621268124
2.4098482964436707,0.02639357210830756,-0.41277656167485777,-1.6102255979193902,1.6625004020184813
2.412335239990052,-0.03978334080030277,-0.3353037767886615,-1.362397642767485,1.4036162844425728
2.4148221835364336,-0.10117269537077589,-0.23867824875579613,-1.0858477923729097,1.1163640306454
2.4173091270828153,-0.15777450787918285,-0.1324768003585195,-0.8476138512172398,0.8722913152984331
2.4197960706291965,-0.20480039119090715,-0.04542986757007661,-0.6237539598130777,0.6580851582294481
2.4222830141755782,-0.25661557136229085,0.04161614692983351,-0.457363904273981,0.5260847803193129
2.4247699577219595,-0.27970124115617295,0.12387282395021204,-0.35323224326796776,0.46727965770170715
2.427256901268341,-0.28363422312787123,0.1917633410700823,-0.3113591312595574,0.46278079057629223
2.429743844814723,-0.28277974306267467,0.21176885935722023,-0.31737951186922864,0.47491071522382
2.432230788361104,-0.27234941337429436,0.2126197831337695,-0.37129353779531904,0.5071885905200721
2.4347177319074857,-0.2427664430657911,0.2038929035309205,-0.47788976417357354,0.5734862585022931
2.437204675453867,-0.19881925101085107,0.16164618852796142,-0.6036495186943434,0.6557829871672834
2.4396916190002487,-0.1596614659537876,0.10024483275695228,-0.7389961447668103,0.7626638264564475
2.44217856254663,-0.10613948998611811,0.03405403094020665,-0.9030834048394212,0.9099367584915732
2.4446655060930116,-0.04783014503096378,-0.04171463539095832,-1.0623926239547181,1.0642865784237225
2.4471524496393933,-0.008675462882076046,-0.10790756801349843,-1.207347142874644,1.2121907565636574
2.4496393931857745,0.030478154639792032,-0.15973637857502299,-1.3140050915179433,1.3240294592967292
2.452126336732156,0.05526548256196978,-0.1972010819533323,-1.3632130022419187,1.378510874011445
2.4546132802785374,0.07047490928323319,-0.2346669028970001,-1.3597594231237657,1.3816587700758918
2.457100223824919,0.07131801665191667,-0.24819183950196289,-1.322798111320214,1.347768634449866
2.459587167371301,0.06258319324713452,-0.24256430969594645,-1.2475408065052562,1.2724433835385622
2.462074110917682,0.04427042441783391,-0.2273611346369182,-1.1291992474721209,1.1527115408952606
2.4645610544640637,0.011591292282737586,-0.18342871547092798,-0.996503995375555,1.0133117311644737
2.467047998010445,-0.021089007668118553,-0.139497486457123,-0.8638204005290913,0.875265662152081
2.4695349415568266,-0.05377048981557181,-0.1051442684834667,-0.7407254090461297,0.750080471933836
2.472021885103208,-0.09602997509107086,-0.06121546242611542,-0.6463727728010955,0.6563283098987971
2.4745088286495895,-0.14307907437520218,-0.017287888993164913,-0.5807626295078823,0.5983775768382488
2.4769957721959712,-0.17097578517731782,-0.006880385404454792,-0.5486835193219406,0.5747466078158483
2.4794827157423525,-0.18929692815910248,0.0035258576943792974,-0.5309819649187055,0.563726534546568
2.481969659288734,-0.21719613053299258,0.018719229825592265,-0.5324465046971696,0.5753467207241223
2.4844566028351154,-0.23073138953880745,0.005180894038664174,-0.543500466217818,0.5904714832746237
2.486943546381497,-0.2299027189281641,-0.02751235664443863,-0.5976628060468165,0.6409469710283744
2.4894304899278787,-0.214710132362958,-0.06020692247150139,-0.6853568499908871,0.7207213929683506
2.49191743347426,-0.19951885337636138,-0.09290281688195812,-0.758698696418012,0.7899762136821661
2.4944043770206417,-0.1699636854900351,-0.12081164990543991,-0.8176884760237151,0.8438587280820267
2.496891320567023,-0.13083304541733082,-0.15351024144302228,-0.8910567385501782,0.913599907682104
2.4993782641134046,-0.09649215642270575,-0.19099860466574548,-0.9500731930212378,0.9738738498044477
2.501865207659786,-0.06694103172021848,-0.22369994601466603,-0.9564307409460291,0.9845214724937704
2.5043521512061675,-0.037391281114209474,-0.22288385856028992,-0.938859929444579,0.965677632249378
2.506839094752549,-0.007842917639984848,-0.2268575817682601,-0.9069376914827387,0.9349127499370675
2.5093260382989304,0.016915642436123535,-0.2308327251322324,-0.8606641525134346,0.8912422057850875
2.511812981845312,0.03209598293700999,-0.21086728477550265,-0.8144046470788204,0.8418729673132781
2.5142999253916933,0.03769809109504324,-0.17653807997450732,-0.7633708955687286,0.7844246069283513
2.516786868938075,0.0432987608723141,-0.12784512327608022,-0.7027746175025715,0.7156195366564831
2.5192738124844567,0.02974436639806588,-0.08394204041939357,-0.6421927414909394,0.6483382687346491
2.521760756030838,0.011400105132705673,-0.04961724709386006,-0.5864137919550831,0.5886195452084049
2.5242476995772196,-0.011734035335420945,-0.015293948939162139,-0.5210726791665756,0.5214291221568275
2.526734643123601,-0.03008126068852557,0.023816245173398087,-0.4701115390918371,0.47167462828316975
2.5292215866699825,-0.05321838980129995,0.05813651650016949,-0.45747250683039375,0.46421239327435265
2.5317085302163638,-0.06678022485821461,0.07330164306574938,-0.4496368767718071,0.4604411474459656
2.5341954737627455,-0.08992039119734085,0.07410001626445428,-0.46096997564335673,0.4754679879951037
2.536682417309127,-0.11306209414632323,0.08447364086020848,-0.5010487259873262,0.5205465002729864
2.5391693608555084,-0.12662853894440274,0.06611527854119537,-0.5363544195993892,0.5550514213616353
2.54165630440189,-0.14019654402369264,0.0381785309275533,-0.5860407839355837,0.6037851203994735
2.5441432479482713,-0.1441893144467843,0.024605403047868624,-0.6213775123865979,0.6383619640607814
2.546630191494653,-0.13860686182870668,0.006242270135945471,-0.6375763140833275,0.6524985703911803
2.5491171350410347,-0.13302600433699968,-0.01691087920519152,-0.653790913897673,0.667401269672537
2.551604078587416,-0.11308154344964033,-0.035277249644023456,-0.679598229201245,0.6898446730568176
2.5540910221337976,-0.10750391043946772,-0.06322206236283678,-0.6862679499444013,0.6975082931765606
2.556577965680179,-0.1019279066086844,-0.08638011853434868,-0.6929537984227263,0.7057165080768065
2.5590649092265605,-0.08198833317174342,-0.0903862192436935,-0.6852906728326502,0.6960711613598687
2.561551852772942,-0.06683881449763024,-0.09439398873069837,-0.6584902771551917,0.6685709366550875
2.5640387963193234,-0.046902554945912,-0.09840343786654415,-0.6269179277975585,0.6363247397660992
2.566525739865705,-0.0317563720699256,-0.09283777079449518,-0.585785327031564,0.5939459303830705
2.5690126834120863,-0.011823470054410923,-0.07290859489093293,-0.5398809829165092,0.544910023185474
2.571499626958468,-0.006257472918717255,-0.06255793736702264,-0.49399340265953384,0.49797804506432725
2.5739865705048492,-0.010269987993473784,-0.06178580874537287,-0.433757479335366,0.43825621466794557
2.576473514051231,-0.02386102584255495,-0.041861799539846256,-0.40226894501237176,0.40514449636683936
2.5789604575976126,-0.027876983661647925,-0.021939533380632703,-0.39952790102696945,0.40109975447767054
2.581447401143994,-0.031894678481457495,-0.021172633811264774,-0.40159243126598554,0.40341297920129787
2.5839343446903755,-0.045490927245951385,-0.025195901046525027,-0.4036742320504878,0.40701000419251837
2.5864212882367568,-0.04951212689059176,-0.024432538535061443,-0.4105618054962523,0.4142576442032661
2.5889082317831384,-0.05353509418619523,-0.028459362920433495,-0.4270436528742305,0.4313261215223674
2.59139517532952,-0.07192504913748221,-0.046853190759978514,-0.443543064650731,0.45177304520918765
2.5938821188759014,-0.08552838842069055,-0.06524882192336356,-0.4504833304494529,0.4631498083785183
2.596369062422283,-0.09434512190712707,-0.07406945951457544,-0.4670181589745095,0.4821755361612534
2.5988560059686643,-0.09358685606172207,-0.08289191983297961,-0.4835708381678163,0.49947004467479234
2.601342949515046,-0.08325360058377157,-0.10129301909218658,-0.48098784849151244,0.4985386124699534
2.603829893061427,-0.0824989783679938,-0.11490755681861398,-0.4640576861713157,0.4851384999569309
2.606316836607809,-0.07216938566089948,-0.11894713909379151,-0.4471456532367881,0.46829059069537515
2.6088037801541906,-0.057053235224976795,-0.11820017855448972,-0.43025184092097035,0.44982552225927974
2.611290723700572,-0.05630414969818898,-0.12224349107252985,-0.4133763396225376,0.43473397215143345
2.6137776672469535,-0.055556928390973315,-0.11192347251272272,-0.406096045547665,0.42488520120262735
2.6162646107933347,-0.04523477384887509,-0.09202853525644983,-0.3844690308284573,0.3979093762815596
2.6187515543397164,-0.025337695172970798,-0.0721354949205053,-0.35807219000855817,0.36614371724997496
2.621238497886098,-0.024596121301263152,-0.0474559570760098,-0.3316940134819468,0.335973147178206
2.6237254414324793,-0.019068044563495645,-0.02277833385011352,-0.3196997974551632,0.3210769429736976
2.626212384978861,-0.0039650704859602315,-0.007679440605756316,-0.3125128207064023,0.31263230590879104
2.6286993285252422,-0.00322922443227297,0.012205923979987876,-0.31492157114934116,0.31517456820912565
2.631186272071624,-0.00249530511912055,0.032089348033024656,-0.29819571263134037,0.2999277176863369
2.633673215618005,-0.0017633211398383475,0.04239401644301877,-0.2814889413800916,0.2846689060134559
2.636160159164387,-0.010610087644234656,0.05269672746481602,-0.2839549528018317,0.2889981561636854
2.6386471027107685,-0.019458806416854102,0.04384385951518244,-0.31038223152178546,0.3140669654847496
2.6411340462571498,-0.02830948579899195,0.04456582429766076,-0.30331001818241177,0.3078709255700321
2.6436209898035314,-0.03237373072789801,0.05007421035711479,-0.31062242565574216,0.3162938132565797
2.6461079333499127,-0.03643995269785638,0.03642699304052455,-0.3083775161932021,0.3126523444148229
2.6485948768962944,-0.04050815979939143,0.02756618098121555,-0.30136377115359814,0.3053210243467364
2.651081820442676,-0.04936676336003776,0.01870336297370967,-0.29436967108266465,0.29906587295191084
2.6535687639890573,-0.053438964663237,0.0050501278954562245,-0.28739529239420314,0.29236497879600537
2.656055707535439,-0.05272477155004779,-0.003816725332381754,-0.2804407106918436,0.2853795037149898
2.65854265108182,-0.05680099841929476,-0.00789720434663943,-0.2687175974502054,0.2747687508384677
2.661029594628202,-0.05609084630584382,-0.011979720021993323,-0.27137963993824954,0.27737448639722634
2.663516538174583,-0.04580591948231594,-0.016064279830483308,-0.25969649141607754,0.264194078283207
2.666003481720965,-0.03552303209986468,-0.01536248784167249,-0.238456627581753,0.24157701687022382
2.6684904252673465,-0.044395804868017585,-0.019451158004050395,-0.23160213661186901,0.23661970484463138
2.6709773688137277,-0.043693825211082005,-0.023541894223312987,-0.2247678793193284,0.23018247265790334
2.6734643123601094,-0.02862869707298865,-0.022846300323464686,-0.22274232899864188,0.2257336945657562
2.6759512559064906,-0.027930847558072625,-0.02694119000790396,-0.22073715150559003,0.22412239963724306
2.6784381994528723,-0.01765826716561586,-0.026249763617403943,-0.2235408185400498,0.22576838140629285
2.680925142999254,-0.002599366235302547,-0.0159836247318359,-0.2359418010069465,0.23649686346079715
2.6834120865456352,-0.0019077649864601698,-0.015296393451578627,-0.22920974577564834,0.22972750548945245
2.685899030092017,-0.006006663635401144,-0.014611269874248212,-0.19376791220499356,0.19441083564361597
2.688385973638398,-0.01010766563777521,-0.018716663977672354,-0.17271199538710036,0.17401698700325763
2.69087291718478,-0.0046339710481100305,-0.018035775698187706,-0.15646525310211779,0.15756947141188182
2.6933598607311615,0.005626010198771736,-0.022145418172993203,-0.14502774898390314,0.14681661865113035
2.6958468042775428,0.0015186582875897914,-0.031045597818433635,-0.1383995458810645,0.1418469942120145
2.6983337478239244,0.0021975800458673422,-0.025582707689561612,-0.13179230253828855,0.13427030684083258
2.7008206913703057,0.002874365779706678,-0.034487173964666606,-0.12999448355895282,0.13452209076008143
2.7033076349166874,-0.0012393941248215468,-0.0433937928595185,-0.1425829560864873,0.1490451499475666
2.7057945784630686,-0.0053553025612296246,-0.037937360510359674,-0.14082735992327855,0.14594611296973944
2.7082815220094503,-0.009473365663714928,-0.032483092895936316,-0.12951615733701338,0.13386310541904547
2.710768465555832,-0.008805186166717549,-0.03181939927519162,-0.11822621314055581,0.12274951302233647
2.713255409102213,-0.008139173366029095,-0.02636947886712404,-0.10695758473272043,0.11046049289525668
2.715742352648595,-0.007475333158032504,-0.025710144093146425,-0.10049873206094517,0.10400426559027078
2.718229296194976,-0.0020252680398793466,-0.02984140065539842,-0.08927290434178659,0.09415021164780857
2.720716239741358,0.0034226129293940533,-0.024398044216609183,-0.08285696330485948,0.08644220733509124
2.7232031832877395,-0.000708502551001855,-0.018956886962776753,-0.086039366593047,0.08810583489711113
2.7256901268341207,-0.004841813422223784,-0.013517934361169104,-0.08445495780334333,0.0856668991161289
2.7281770703805024,0.010176288093388997,-0.008081191801123211,-0.08289219305112461,0.08390457776016218
2.7306640139268836,0.0156153766483893,-0.002646664594238235,-0.06698591440946622,0.06883282320679424
2.7331509574732653,0.01626385021534965,0.0027856420254503966,-0.04631297979375226,0.049164669455797116
2.7356379010196465,0.016910106844482853,0.0034273195809588763,-0.049603859643186254,0.052518959666988566
2.7381248445660282,0.01755414134314981,0.004066766313117309,-0.05770499043824806,0.06045289395900817
2.74061178811241,0.008619141955364507,0.014280783860057156,-0.05625121122596255,0.05867221795783971
2.743098731658791,0.004470313603776588,0.019704157335161288,-0.0452425702623902,0.049549245039175065
2.745585675205173,0.009896054647310915,0.020336881889358782,-0.043832728334784576,0.0493237137271244
2.748072618751554,0.01531955356065684,0.0113905494296902,-0.032868118919726186,0.03800982213756481
2.7505595622979357,0.0015871922543934103,0.007230365220677104,-0.007560384708421353,0.01058096297206048
2.7530465058443174,-0.0025706140814656386,0.007856324641934975,-0.011005200850771502,0.01376387806546999
2.7555334493906987,-0.0019422734229522787,0.013268423148923514,-0.004895385308888223,0.014275443118547136
2.7580203929370803,-0.006104596990490041,0.009101446311816197,-0.0035961918277038762,0.01153408102298648
2.7605073364834616,-0.010269185967825889,0.00014379305748368765,-0.007107663452531554,0.012489825324624256
2.7629942800298433,-0.014436044783478263,0.0007606690286774409,-0.0010646325310030846,0.014495221584641234
2.7654812235762245,-0.00902837115000188,-0.008201543298983704,0.01453285936313975,0.018973159973396353
2.767968167122606,-0.008411379306364708,-0.012377638132836655,0.020531158107775838,0.025406410231071253
2.770455110668988,-0.02216188009628073,-0.011767619566498855,0.03129543355388442,0.040112715701998605
2.772942054215369,-0.031126264366843848,-0.011159894939444914,0.051614049640763326,0.061297615849340195
2.775428997761751,-0.02093932621091632,-0.0009776615559591306,0.05275654779250871,0.05676851714875441
2.777915941308132,-0.020331489529832658,0.009202270072470764,0.058664906681633155,0.0627664123313824
2.7804028848545137,-0.0340911615492262,0.009803089508202856,0.07412749242239158,0.08217781326193219
2.7828898284008954,-0.033487926178606964,0.01997840630910952,0.08956746188908404,0.09768780961639083
2.7853767719472766,-0.023310190495950733,0.010997796903378987,0.09540797267498569,0.09882812235207294
2.7878637154936583,-0.022711571466637603,0.0020148709955427613,0.11080260301219802,0.11312423267316168
2.7903506590400395,-0.017326862740550175,0.007394835042846992,0.12617451192587126,0.12757316025509682
2.792837602586421,-0.01194447117571118,0.02234928229409716,0.11758164919312364,0.12028135781451518
2.7953245461328025,-0.006564400236931278,0.027724596109765187,0.12333120846597367,0.12657934887491595
2.797811489679184,-0.010763459956955601,0.02352077320396173,0.13384635090211106,0.13632286855905076
2.800298433225566,0.004188766266450261,0.024103020323917868,0.12997343172532538,0.13225579120034014
2.802785376771947,0.009561855264039631,0.019894527687271957,0.13086603342655856,0.13271450566080265
2.8052723203183287,0.0005674005401847815,0.010895292224043285,0.1269473192774413,0.1274152707007638
2.80775926386471,0.010724222233601588,0.006682117576419344,0.10864045325009108,0.10937279241294881
2.8102462074110917,0.02566710735150801,0.016831807457912795,0.10467582657750363,0.10908317382519497
2.8127331509574733,0.02145403633192078,0.007825535770342729,0.1102650079467633,0.11260500283079818
2.8152200945038546,0.012450216246547852,0.003605316330167696,0.13019637337974643,0.13083998559945167
2.8177070380502363,0.0273860641990179,0.008959549743276618,0.14052787966850389,0.14345157722395555
2.8201939815966175,0.037531157519979264,-5.378323585691902e-05,0.13168269425592882,0.13692670537161983
2.822680925142999,0.0333086868918796,-0.009069475220011558,0.13239121183519487,0.1368179702174357
2.825167868689381,0.033872262989366964,-0.0037223187519526135,0.13786500454291506,0.14201389134352302
2.827654812235762,0.0392218832759485,0.0016224737734860106,0.13373883855855517,0.139381008347081
2.8301417557821438,0.03499233532408863,-0.0026119066486307574,0.13916630398507657,0.1435219347439316
2.832628699328525,0.035548826697787805,0.002728150967990839,0.14457057168272058,0.1489020217591492
2.8351156428749067,0.0408913550695616,0.008065837756915606,0.1547400231496372,0.16025490763934844
2.837602586421288,0.036654708220208,0.01340115156124444,0.16967463723845455,0.17410525844981586
2.8400895299676696,0.03720409392140123,0.02352249361308223,0.1750091835134473,0.1804595983158929
2.8425764735140513,0.042539510052653606,0.024064651931748227,0.18989725545149128,0.1960859123346829
2.8450634170604325,0.043084147921403304,0.010239221245435637,0.20955043059608514,0.21417859000570302
2.847550360606814,0.03883800554403838,0.005988216272212021,0.20044986723484648,0.20426551026355164
2.8500373041531954,0.03458948432535802,0.025676845157317274,0.19611437080352268,0.20078988828820196
2.852524247699577,0.03512698573803252,0.026209476269800636,0.2109091341181344,0.21541472704492232
2.855011191245959,0.030873701361438632,0.007586107928854613,0.22089212409151138,0.2231682436076495
2.85749813479234,0.03140643612361793,0.012902368403581832,0.22127492157478024,0.22386474992355046
2.8599850783387217,0.027148381738547278,0.013427836225276657,0.23599952799575696,0.23793511432937933
2.862472021885103,0.022887939948096125,0.00916250991374401,0.2554891221926052,0.2566758674705027
2.8649589654314846,0.023413512560857996,0.009683194695824238,0.26059007701315373,0.26181891655813583
2.867445908977866,0.009571484850357526,0.014989889223911312,0.2704559925157515,0.2710401335390498
2.8699328525242476,0.005303872039193358,0.0155057855757188,0.27551004948262126,0.27599700688747464
2.8724197960706292,0.015399076134737344,0.020807689175923905,0.2661754293394498,0.26743120733879533
2.8749067396170105,0.006338272647668175,0.030895598874050467,0.2663941373952934,0.26825463307932795
2.877393683163392,0.006851880318273995,0.026615900303626816,0.2618009530355785,0.26323961218480346
2.8798806267097734,0.0073630913896765016,0.031910609045993965,0.2619726728838856,0.2640117107675838
2.882367570256155,0.007871904810711094,0.04199132082539592,0.2669092875574339,0.27030687319124386
2.8848545138025368,0.01316672291538079,0.03291601814936218,0.2766107883054101,0.2788733674090804
2.887341457348918,0.018459141461677264,0.03820352343346789,0.28628876368632383,0.2894158000512023
2.8898284008952997,0.018960756271977464,0.03870022263391659,0.3198852228078568,0.32277511254920543
2.892315344441681,0.01467156655310986,0.029617711731669605,0.31993931895738115,0.3216420860650165
2.8948022879880626,0.010379974896119637,0.03968641001346018,0.3008162558495595,0.3036003537579431
2.897289231534444,0.010874383955715938,0.049752703626240624,0.30082325442093527,0.30510361214666015
2.8997761750808255,0.011366389809410404,0.059816592061318286,0.29601829306193217,0.3022152367608715
2.902263118627207,0.02622120187913879,0.0650896715525473,0.28640136738012956,0.2948727861434706
2.9047500621735884,0.026708399766983026,0.06078353839640682,0.2863376835572762,0.2939340847588916
2.90723700571997,0.03198159634084119,0.06605180555331769,0.2958272384250549,0.3047940591867828
2.9097239492663514,0.042040791249822185,0.0665292628036509,0.3005048194627076,0.31063920785764126
2.912210892812733,0.042520774244321324,0.0813695232318632,0.3147356346774721,0.3278529171582105
2.9146978363591147,0.04299835173826083,0.08184216678093614,0.3337312793990712,0.34629982004752285
2.917184779905496,0.04826192688698361,0.07273559669745477,0.33833813959764036,0.3494171966577657
2.9196717234518776,0.04873469294638444,0.07799182957040651,0.34292142508445345,0.3550392929779324
2.922158666998259,0.05399345651484577,0.06409204220595521,0.3426927329860874,0.35279086221446304
2.9246456105446406,0.059249814290808,0.05497825131468792,0.3520172743045187,0.3611776709874227
2.927132554091022,0.05013855639283926,0.060227263706670975,0.37089505067253725,0.3790835485010327
2.9296194976374035,0.05060169956250571,0.06547386965060253,0.375384047710698,0.3843963356762207
2.932106441183785,0.055850840679757874,0.056352859475106154,0.38463788150927947,0.3927356121713478
2.9345933847301664,0.056309173364241905,0.0568062501309905,0.3986565554618018,0.40660142925422377
2.937080328276548,0.05676510125630241,0.05725723538631655,0.40786326690320784,0.41575607297269834
2.9395672718229293,0.052430221415171285,0.05770581570895805,0.4074696170683918,0.4148618783621146
2.942054215369311,0.04809293759996913,0.06294039494604098,0.39747561108973883,0.40529160535856085
2.9445411589156927,0.04854165362882912,0.05859576372212816,0.3970348679556448,0.40426036416616085
2.947028102462074,0.04419956341771747,0.04946032600148742,0.3917821839846223,0.39735777951645873
2.9495150460084556,0.044643474222354596,0.04989929244718061,0.39129437266657874,0.3969814419565513
2.952001989554837,0.045084983395793254,0.04554745385834513,0.4003598447385084,0.40545681836641934
2.9544889331012185,0.045524091669409295,0.04598161769336562,0.4046133982210911,0.4097545046830393
2.9569758766476,0.04117239651202642,0.03683657486650116,0.40884344497871616,0.4125591617992544
2.9594628201939814,0.04160670541091527,0.0276891329507567,0.41304999411545573,0.41606261987529397
2.961949763740363,0.04682701926997368,0.02811609957606631,0.4220214586132247,0.4255412980183187
2.9644367072867444,0.037679725768857475,0.028540669147791853,0.4309694453683637,0.43355391172325386
2.966923650833126,0.03810684252678109,0.024174439448030327,0.4255287551891591,0.42791501079399247
2.9694105943795073,0.043319967297579365,0.019805814955671686,0.4152762060355375,0.41799906360181216
2.971897537925889,0.034165487930394756,0.025011603525833426,0.4193654230556412,0.42149759065870396
2.9743844814722706,0.025008615572538417,0.025426596467737372,0.4473732253021101,0.4487925415801835
2.976871425018652,0.025426158106744423,0.03062760174756818,0.44662718920612043,0.4483975754205597
2.9793583685650336,0.030629713510284984,0.026249410785104565,0.4362809415436466,0.43814183875829305
2.981845312111415,0.03583087981565325,0.0218688316565796,0.4498533195892076,0.4518075994179573
2.9843322556577965,0.03624125511030751,0.02227426917255304,0.4634023213086689,0.465350709716236
2.986819199204178,0.0366492441770393,0.03225412819796647,0.4625627518411033,0.4651320191895772
2.9893061427505594,0.03705484853277896,0.03265479705032304,0.45691143345722907,0.4595731232286379
2.991793086296941,0.032669666428338795,0.03305308402286844,0.4656019955959252,0.4679156246278486
2.9942800298433223,0.02349369948878044,0.03823739414214522,0.4838460516195475,0.4859228888355402
2.996766973389704,0.033468965994407074,0.038630922527113754,0.4924900054520158,0.4951352596313024
2.9992539169360852,0.04344185439613002,0.039022074310767874,0.4867454714981658,0.49023573005326876
3.001740860482467,0.0390471565183389,0.04898765799924343,0.47618927464121796,0.48029230303196385
3.0042278040288486,0.034650084160197436,0.04458565890907673,0.47997504691992177,0.483285169417029
3.00671474757523,0.04461584917351791,0.05454649893255459,0.47894919432290983,0.4841055931156319
3.0092016911216115,0.04979084022030977,0.0597165668108981,0.46832333330959486,0.47473354699634907
3.0116886346679927,0.04538665597564562,0.06009586461838001,0.481616307409201,0.4874686954537248
3.0141755782143744,0.050556911768026236,0.06047279780112769,0.5044629274525789,0.5105837891819931
3.016662521760756,0.055724803055682615,0.06084736853623385,0.5081327948118499,0.5147879107911145
3.0191494653071373,0.056101928668503165,0.05643117573149814,0.511779544561918,0.5179287655911469
3.021636408853519,0.0564766941280852,0.05201262498610504,0.5297684089544745,0.5353031825645518
3.0241233523999003,0.05684910168653623,0.047591718629421464,0.5285805875326428,0.5337548403162468
3.026610295946282,0.062007556966837574,0.0431684590410506,0.522581313534662,0.5280148503902018
3.029097239492663,0.06716365900164545,0.04353125197088126,0.5357126273288273,0.5416585142580117
3.031584183039045,0.06752900687365437,0.053468503218514485,0.5440325365671832,0.5508089037492894
3.0340711265854265,0.053526796395023,0.05382660203143841,0.5475410659876303,0.552778110964459
3.036558070131808,0.058675853310235615,0.04939395430789517,0.5510266441301113,0.5563389084228668
3.0390450136781895,0.06382256688958898,0.05453577263567855,0.5449124900527949,0.5513411760034649
3.0415319572245707,0.05939013309299723,0.06446365636998586,0.5387754365716919,0.5458587014552473
3.0440189007709524,0.05974376453065744,0.06481239827380314,0.5326155103362069,0.5398603951217341
3.046505844317334,0.06488346390029509,0.05558200111918188,0.5264327384671805,0.5333204016969241
3.0489927878637153,0.06523242730720902,0.04156087104637507,0.5202271485543388,0.5259456831912416
3.051479731410097,0.07036746418588369,0.046691027524471185,0.5235755752942826,0.5303423565132069
3.0539666749564782,0.0659233674169124,0.05660726350743284,0.5221128372457784,0.5292939518549421
3.05645361850286,0.05668854320954675,0.056944371996292986,0.5397809799911997,0.5457286494161112
3.0589405620492416,0.05223980114049387,0.04770235599984618,0.5622148230089774,0.5666480555001934
3.061427505595623,0.047788740872406255,0.057611638495310924,0.5702607829131718,0.5751523495327374
3.0639144491420045,0.04812376875517155,0.0579418026624543,0.5830725033337121,0.5879172507749859
3.0664013926883857,0.048456484544406986,0.06305806160987704,0.5862848051091252,0.5916538031063794
3.0688883362347674,0.04399848804181494,0.07296041853100599,0.570320912846439,0.5766498359075296
3.0713752797811487,0.04911499237616879,0.07807207002413818,0.5686996814810836,0.576130938511942
3.0738622233275303,0.04465238747961009,0.06402780941248842,0.5909979497899212,0.5961308352548804
3.076349166873912,0.03539907993113389,0.06913486658767898,0.5941201204667834,0.5991756355039248
3.0788361104202933,0.030931879675073493,0.08381643828290652,0.5828546298464339,0.5896621880704993
