Time (s),Acceleration x (m/s^2),Acceleration y (m/s^2),Acceleration z (m/s^2),Absolute acceleration (m/s^2)
0.0,0.19402285866844338,0.2500820993332131,-5.941038963854439,5.949464673071806
0.002486943546381497,0.6146350799120477,0.24158766716238178,-7.36587603841685,7.395422279742176
0.004973887092762994,1.0927081627935276,0.3001310520159788,-10.82099928295785,10.880170736674776
0.007460830639144491,1.5899349312170075,0.4113470776647601,-15.928125855900383,16.01256671446554
0.009947774185525988,2.0680082090844,0.5656589711951094,-22.18926283255972,22.292599962250932
0.012434717731907486,2.5125628368958735,0.758278363008297,-29.106417288128824,29.224501457438777
0.014921661278288981,2.904445251826864,0.9700516735384856,-36.12892386113244,36.25846027941203
0.01740860482467048,3.1909830678050994,1.1818253232129288,-42.715693996568696,42.85101629649058
0.019895548371051976,3.400906755196975,1.3935993457324716,-48.407041995691294,48.54636959306629
0.022382491917433474,3.495909137876767,1.562278144906755,-52.834261822627745,52.97283564284928
0.02486943546381497,3.46162505631146,1.692650157739405,-55.73878071763822,55.87181389999735
0.02735637901019647,3.3363617874815077,1.7895038212241654,-56.991312810374346,57.116927173589104
0.029843322556577963,3.12490778511411,1.8336855557425968,-56.577493909895914,56.693388225675086
0.032330266102959464,2.832051502924283,1.8204069916258416,-54.63618873121091,54.73981655434071
0.03481720964934096,2.4961002178559446,1.7592449691538719,-51.37329963548754,51.46398133254615
0.03730415319572246,2.117053980276118,1.6693531352344493,-47.09049704995372,47.1676114495659
0.03979109674210395,1.7332200670988303,1.5555199268008184,-42.151700644632605,42.215987034278726
0.04227804028848545,1.3685405452605657,1.4081685708109692,-36.944772105757735,36.9969191676039
0.04476498383486695,1.0373806750394743,1.241664310809399,-31.867149925789704,31.908198528253546
0.04725192738124844,0.7588941200152115,1.0799491969654438,-27.273176966870576,27.305098286211308
0.04973887092762994,0.552234543747516,0.9421768761115965,-23.46931205748116,23.494707248838363
0.05222581447401144,0.4174019964938682,0.8187705751412211,-20.647092345934553,20.66753570271365
0.05471275802039294,0.36397333513025854,0.7240955375312441,-18.959747753478805,18.97706051557256
0.05719970156677443,0.3967370131891532,0.6581517967789308,-18.469528537751323,18.4855091477635
0.059686645113155926,0.5013278708974576,0.6305161930027101,-19.118974872834844,19.135936885657504
0.062173588659537427,0.6825343617379214,0.6555539696211299,-20.802742899039952,20.824257880788842
0.06466053220591893,0.9068377126042915,0.6997463368286954,-23.329297496320443,23.357399710685474
0.06714747575230041,1.155084360323656,0.7583049247201321,-26.435277494212198,26.47136457446652
0.06963441929868192,1.4320627582959817,0.8599601866099755,-29.890840544858026,29.937479582362656
0.07212136284506342,1.7186193432898884,0.9664049293052788,-33.41347186321991,33.47159531436625
0.07460830639144492,1.9764469387618804,1.0728507828314473,-36.687137840338345,36.75599861546342
0.0770952499378264,2.2055455946989992,1.1792977805096423,-39.50593814291972,39.585026502171374
0.0795821934842079,2.3963385544146214,1.266592342354491,-41.707068066830026,41.79505020167194
0.0820691370305894,2.5296722545473656,1.3443113082764904,-43.132511310510424,43.22753690138146
0.0845560805769709,2.6055467449818894,1.4028779048781612,-43.72001963804128,43.82005314244834
0.0870430241233524,2.6191736722462444,1.437503762054888,-43.45044044259705,43.55303964646995
0.0895299676697339,2.5609762795107933,1.4481889129942016,-42.40996598958846,42.51189322848356
0.0920169112161154,2.454896633149626,1.4301449875344348,-40.70394215687505,40.80297463758064
0.09450385476249688,2.3057231862160696,1.392948825445259,-38.485598854665696,38.57976133990475
0.09699079830887838,2.1086675850822076,1.3222352498644674,-35.93210800889483,36.01820610473604
0.09947774185525989,1.9068255092815725,1.2419463104613233,-33.25416036784178,33.33193057611656
0.10196468540164137,1.6954086051018276,1.1664472502327228,-30.633716258945086,30.70276178716477
0.10445162894802287,1.4792053254274413,1.0957381021821715,-28.238370798741794,28.29830870830587
0.10693857249440437,1.2773693330589397,1.0154536893190813,-26.254872716088226,26.30553477780266
0.10942551604078588,1.1138426940712145,0.9495360611814907,-24.769414269130678,24.81262073047574
0.11191245958716736,0.9838370545702739,0.8884084440306756,-23.853822505049582,23.89062688620331
0.11439940313354886,0.892140867254678,0.8368592740535685,-23.546405646756934,23.57815657877482
0.11688634667993036,0.8435425847738616,0.8188306006823693,-23.808857462992158,23.837863606833945
0.11937329022631185,0.828465449766137,0.8199572467500917,-24.59808331810548,24.625685529796186
0.12186023377269335,0.8660631247404562,0.8306624383726775,-25.79437412223205,25.82227336584122
0.12434717731907485,0.9611240621925459,0.8557346115889242,-27.29717439767693,27.327491126804627
0.12683412086545634,1.0753410846819844,0.8903853957582231,-28.986775052331495,29.020376850341762
0.12932106441183785,1.2087142412764726,0.934614823520806,-30.709948169691515,30.74793345203135
0.13180800795821934,1.3516667743476491,0.9836345241564199,-32.327831042039,32.371024077538976
0.13429495150460083,1.4946219262106906,1.0278677235836438,-33.71113776710116,33.759905454724965
0.13678189505098234,1.637579745763895,1.0864680676013814,-34.77367807127159,34.82916546358939
0.13926883859736383,1.7661750718860678,1.1402819754038018,-35.448415292987754,35.510699291229265
0.14175578214374532,1.8804079533573836,1.1653674628218382,-35.701831592671255,35.7703060437832
0.14424272569012683,1.961124825616153,1.1808781755256317,-35.53392795270696,35.607590758084854
0.14672966923650832,2.0083257373203023,1.172448935898845,-34.95907056414114,35.03633290575761
0.14921661278288983,2.012433930424468,1.1688101961629869,-34.03472124658265,34.11419437611802
0.15170355632927132,1.9878146634211624,1.1508083752907945,-32.84707223822139,32.927282330549026
0.1541904998756528,1.939256388097569,1.118443505489935,-31.501469389167184,31.580915200329247
0.15667744342203432,1.847605539573582,1.0860808288820147,-30.112835354788576,30.189005795178694
0.1591643869684158,1.7463809894258022,1.0489319742597236,-28.74820875584888,28.820298602143566
0.1616513305147973,1.6307943826005737,1.0069969736877233,-27.48899342164963,27.555730666393778
0.1641382740611788,1.5056341706161134,0.9698526658222952,-26.450112003291743,26.51067659332382
0.1666252176075603,1.3852656115614979,0.9279222759887977,-25.64593068068639,25.70007317194686
0.1691121611539418,1.2696887534941017,0.895571046063814,-25.129122858823962,25.17711207988649
0.1715991047003233,1.1732688543604701,0.8584337979510541,-24.91405471462891,24.956433854090612
0.1740860482467048,1.0864291554328256,0.830875773424445,-24.99115040690068,25.028549329135522
0.1765729917930863,1.0235349145111963,0.8176854075649738,-25.33168047961404,25.365533092529855
0.1790599353394678,0.9893745826802443,0.8092859254397187,-25.87818505525843,25.909733065552206
0.18154687888584928,0.9791598043082667,0.8248309719840081,-26.597146271341813,26.62794190007686
0.1840338224322308,0.9928906270071605,0.8355901588757724,-27.397585423925214,27.428301620262385
0.18652076597861228,1.0401439049517478,0.8463519209802057,-28.20288901740804,28.234750925860677
0.18900770952499377,1.1017660723163019,0.8714814997475564,-28.960385571148898,28.994435688802753
0.19149465307137528,1.1777571764766996,0.9014021199702964,-29.598249989563275,29.635384934117386
0.19398159661775677,1.2633288614078793,0.9169601997434185,-30.092541208588273,30.13300270816971
0.19646854016413826,1.3536927710031996,0.946886190307545,-30.385799339217975,30.430673325756054
0.19895548371051977,1.4440605490734653,0.9624497030014185,-30.439718104007458,30.489146569749003
0.20144242725690126,1.5152786293850316,0.9732275756675148,-30.306970886858213,30.36043026005366
0.20392937080328274,1.5865006721822894,0.9792198394482894,-29.958828213467683,30.016782702362878
0.20641631434966426,1.648149917702328,0.9756381221058561,-29.433598254239772,29.495846726081876
0.20890325789604575,1.676284396134929,0.9672708579823002,-28.788742791062628,28.853721662541
0.21139020144242726,1.6804809608247404,0.9493296747178017,-28.057781587406847,28.124088442074367
0.21387714498880875,1.6751048683484586,0.9266030065312614,-27.298176421509613,27.365215244750786
0.21636408853519024,1.645790955271706,0.8990908842587473,-26.538658649832428,26.604837816061515
0.21885103208157175,1.6021160746715284,0.8763701453138084,-25.855843660167267,25.920251772066763
0.22133797562795324,1.5488686762135908,0.8632292237259311,-25.283251208532022,25.345353628280392
0.22382491917433472,1.4764719995106188,0.8309377302180452,-24.816093822472034,24.87386057053817
0.22631186272071624,1.408868107324604,0.8034377119715432,-24.50225646412757,24.55587492505074
0.22879880626709773,1.3269034324408822,0.7998828127819171,-24.336951657168413,24.386219493733744
0.2312857498134792,1.2449432307922152,0.7819658365347226,-24.30581511665828,24.35023619397925
0.23377269335986073,1.182141161536,0.7736288302127867,-24.432789782239624,24.47360161144753
0.23625963690624222,1.1289204638111783,0.7748718241299819,-24.655627331787272,24.693619558125086
0.2387465804526237,1.0900695866201346,0.7761180418915707,-24.964751877679298,25.000588937717364
0.24123352399900522,1.0608001722262355,0.7917327236357949,-25.326645513653943,25.361212721109343
0.2437204675453867,1.0554774760748071,0.8025622861895347,-25.69821352475248,25.732398203227895
0.24620741109176822,1.0453711236281773,0.8229719695520985,-26.036361193942007,26.070331564255053
0.2486943546381497,1.0496347734507216,0.8481734003711923,-26.312359012058415,26.346942290409828
0.2511812981845312,1.073056874043917,0.85901299526266,-26.50705427446843,26.542669057398466
0.2536682417309127,1.101272260525144,0.8746443973333295,-26.586929064450285,26.624098116024513
0.2561551852772942,1.1486461878299354,0.8902792330163785,-26.571137899660478,26.61085031449258
0.2586421288236757,1.200813490867351,0.8963407253520073,-26.445316472350633,26.487735710297194
0.26112907237005717,1.233832197800358,0.9024057105884304,-26.21904248919376,26.263565390269832
0.2636160159164387,1.276432773209022,0.9084742182594316,-25.925835671266988,25.973131526315882
0.2661029594628202,1.3286152616443423,0.8953926645431705,-25.55612010754978,25.60629261507222
0.26858990300920166,1.3568608843070729,0.8775262887850592,-25.124261901391208,25.176172463990017
0.2710768465555832,1.3659580888515586,0.8740287335753245,-24.682934380453837,24.73614798947897
0.2735637901019647,1.3750605327833254,0.8705348181859482,-24.24650364357155,24.301060908450495
0.27605073364834615,1.3793798568957296,0.8526793618123016,-23.81975898065467,23.874896204594254
0.27853767719472766,1.369339298550371,0.8204623935335296,-23.46973892247767,23.52396424378809
0.2810246207411092,1.354515708277815,0.8026143622729391,-23.206021157654618,23.25937059741755
0.28351156428749064,1.3205439198939475,0.7895584903130763,-23.014241355864655,23.065613888209985
0.28599850783387215,1.2770007837022783,0.7765064031779958,-22.88961199107765,22.9383528244257
0.28848545138025367,1.2382515532118552,0.7634581296327196,-22.841710744857977,22.88798560329183
0.2909723949266352,1.1899310618942636,0.7599905050030114,-22.851384876465353,22.89496259599707
0.29345933847301664,1.1559813696671821,0.7613151545732793,-22.909058449400938,22.950835556242154
0.29594628201939815,1.1172489064482622,0.753066896906359,-23.000367121430187,23.03979693032781
0.29843322556577967,1.0785221186386935,0.7448225670851694,-23.106158144566677,23.14330388727066
0.30092016911216113,1.049377855841152,0.7461590001106282,-23.216855575016968,23.252533838895328
0.30340711265854264,1.0346045642183752,0.7474994176198748,-23.34203707980526,23.376908628359036
0.30589405620492416,1.0246254798517436,0.7536322511279403,-23.443396290273125,23.477875725173547
0.3083809997513056,1.0098638387014296,0.7597691254256684,-23.482626835266892,23.516607688632806
0.31086794329768713,1.0142616998477993,0.7563332618995098,-23.488459987606316,23.522510907388618
0.31335488684406865,1.0282422990062567,0.757689898452891,-23.456108194342406,23.490857537186255
0.3158418303904501,1.0422288717686534,0.7590506596228932,-23.34247667342159,23.37805843465734
0.3183287739368316,1.0657982668837702,0.7604155731813069,-23.166719883396865,23.203686516271606
0.32081571748321314,1.0797969130534213,0.7761498767747586,-22.94320387692808,22.98170955657879
0.3233026610295946,1.0985900620957523,0.7631579681195255,-22.71023672068858,22.749596966068474
0.3257896045759761,1.1126009491007378,0.7358050846885382,-22.45345404222507,22.493040888703923
0.3282765481223576,1.1266180189919242,0.7323984804687012,-22.18722188638784,22.227876433224964
0.3307634916687391,1.1358529099241186,0.7337845695150909,-21.945059908675205,21.986683606737632
0.3332504352151206,1.149882469884209,0.7255981691145332,-21.688661712132692,21.73123947824652
0.3357373787615021,1.1495531268076102,0.7126277097460536,-21.441970140306985,21.48458503536588
0.3382243223078836,1.14444172842128,0.6996616217991525,-21.23371643738757,21.276042559605713
0.3407112658542651,1.1345483156804865,0.6914883355733226,-21.063901424949904,21.1057645973524
0.3431982094006466,1.1102961227680812,0.6833194746369542,-20.922949115222195,20.96352743845437
0.34568515294702806,1.086050400335966,0.6703666624674911,-20.844379147594452,20.88341540512203
0.3481720964934096,1.0713879955825023,0.6574183290915849,-20.80903872219791,20.846970130895183
0.3506590400397911,1.0567321422908595,0.6636281144049474,-20.82650545633618,20.863854260840203
0.3531459835861726,1.027717670789246,0.67463083496876,-20.85368452802578,20.889889630363417
0.35563292713255407,0.9987098311923953,0.6760613072514083,-20.87142312910711,20.90623791245833
0.3581198706789356,0.9744970668383625,0.6822847675499013,-20.87972206191026,20.91358291684926
0.3606068142253171,0.9407142076472105,0.698089645426919,-20.87379372263956,20.906638580815148
0.36309375777169856,0.9260917132843868,0.6947455471087995,-20.872792521281788,20.904874667720886
0.36558070131808007,0.9210528167147201,0.6914061119304109,-20.852777235108142,20.884556474099163
0.3680676448644616,0.9112323474439342,0.6880713658503317,-20.80896025182482,20.84026423435069
0.37055458841084304,0.9157839580804689,0.6895297380519776,-20.74134235959859,20.772996760111777
0.37304153195722456,0.9203424778504403,0.6957812543025386,-20.649924343723182,20.682130384268106
0.3755284755036061,0.9201195424797864,0.6876723269916125,-20.52034177664506,20.552467974238223
0.37801541904998753,0.9342688041545459,0.684356594974523,-20.362172244512823,20.39507932474669
0.38050236259636905,0.9532134949967619,0.6954108903687699,-20.184993330562612,20.219450240507147
0.38298930614275056,0.9625884436653998,0.696893221952049,-20.007959421745745,20.043220222731307
0.385476249689132,0.9815473019181945,0.6983804216462006,-19.826282885473695,19.862846305956978
0.38796319323551354,1.005301704767267,0.690295707993362,-19.663906506128754,19.701684160595377
0.39045013678189505,1.0146980771191063,0.6822159127180529,-19.506465838567035,19.544749685029423
0.3929370803282765,1.0241016669770682,0.6693526574845812,-19.330019628027785,19.368698356480394
0.395424023874658,1.0335125122376236,0.6612827738185112,-19.16808745660531,19.207316828853806
0.39791096742103954,1.0429306506506744,0.6532178831843853,-19.025458483471013,19.06521619209333
0.400397910967421,1.042779313178311,0.6403696069462639,-18.887768251501743,18.927367789841522
0.4028848545138025,1.02827013395514,0.6275263730079561,-18.788536333752038,18.827114127819087
0.40537179806018403,1.0281335702095515,0.6098998025313742,-18.73255188031707,18.77065625800255
0.4078587416065655,1.0232160458178055,0.6114319364986451,-18.681508408359733,18.71949722885219
0.410345685152947,1.0135175977878104,0.6081807825867265,-18.63061825522381,18.668075379031766
0.4128326286993285,0.9894614563366555,0.60014636497171,-18.608612578422232,18.64456145171505
0.41531957224571003,0.9654128681322123,0.5969055143675048,-18.56760807925825,18.60226835587461
0.4178065157920915,0.9701022896519269,0.6032466580645244,-18.512393892462278,18.547607193719855
0.420293459338473,0.965222530736932,0.6143814166090029,-18.45733595629767,18.492765333031063
0.4227804028848545,0.9411968209977228,0.6159446038026231,-18.397646592627417,18.432000416613086
0.425267346431236,0.9219672131339052,0.6175130499443413,-18.309384506902944,18.342979772396934
0.4277542899776175,0.897956936449252,0.6095099719472112,-18.2452228545592,18.27747209211793
0.430241233523999,0.8787428333745907,0.6063006032208398,-18.16685512479267,18.198198111732896
0.43272817707038047,0.8786901495063085,0.6030965637882157,-18.05991682023793,18.091335423290495
0.435215120616762,0.8642800970823733,0.5951094735666089,-17.96271587687871,17.993340352619686
0.4377020641631435,0.8498779213880346,0.5919161623281588,-17.836945774388674,17.866988884055704
0.44018900770952496,0.8402720609115413,0.574363039816717,-17.687395619128587,17.7166563951956
0.4426759512559065,0.8306741473436065,0.561603742231878,-17.552373337495183,17.58099053185473
0.445162894802288,0.8354494254987556,0.5536382923848917,-17.422302819465365,17.451106745261512
0.44764983834866945,0.8306559134710535,0.550466712979576,-17.273242741828057,17.301962826997364
0.45013678189505096,0.8258704524382736,0.542512219971361,-17.13392421465837,17.162393204523816
0.4526237254414325,0.8258814800988857,0.534563239168524,-16.999559521541812,17.028002290412214
0.45511066898781394,0.8211122240309245,0.5409850029115506,-16.884514556087673,16.913122770575654
0.45759761253419545,0.81156271829305,0.5378355168696869,-16.779213192036323,16.807435748285204
0.46008455608057697,0.8115982067443599,0.5299032065249976,-16.688444509811823,16.71656870337165
0.4625714996269584,0.8116419164814007,0.5219764972501753,-16.602632376590364,16.63065314100675
0.46505844317333994,0.7973286711189302,0.5188438143082283,-16.516989059571884,16.544360353529886
0.46754538671972146,0.7973889239925572,0.5205051795318592,-16.44588043593147,16.473425207010806
0.4700323302661029,0.8022459017129532,0.5173838080028443,-16.389307169567758,16.417084820090437
0.47251927381248443,0.7927460240872559,0.5094797213329856,-16.3424815177342,16.36962791277308
0.47500621735886595,0.7832545340014128,0.5063697476638129,-16.286250524389242,16.31293517824281
0.4774931609052474,0.7737714642165939,0.49847710174441184,-16.23019165007003,16.256270257897484
0.4799801044516289,0.7642968473296717,0.4953786114936327,-16.15515193203961,16.180806024016437
0.48246704799801043,0.7404655058118333,0.5018627013982422,-16.075497227442103,16.1003654134262
0.48495399154439195,0.7262194885315704,0.49398737591107444,-15.986439776770444,16.01054886658764
0.4874409350907734,0.7311356342307979,0.49090626925543823,-15.892768623779544,15.917149330512292
0.4899278786371549,0.7169067482822343,0.4734657889795235,-15.789696002196434,15.813052361288275
0.49241482218353644,0.7170516856967781,0.46560797240144014,-15.696376158953958,15.719643075696807
0.4949017657299179,0.7267820747558918,0.4721212434448825,-15.598444514338604,15.622502421814456
0.4973887092762994,0.7269443336127465,0.47385200931855387,-15.481536485224385,15.50583618300673
0.4998756528226809,0.7271153001746126,0.4755886937190237,-15.355229501666201,15.37979045091907
0.5023625963690624,0.7320834088602602,0.477331316908594,-15.233889393610493,15.258937622272018
0.5048495399154439,0.7418486905995564,0.48865670567597563,-15.146247197527853,15.17227501149273
0.5073364834618254,0.7516227728330587,0.4999880734141624,-15.049207896639547,15.076258925292965
0.5098234270082069,0.7614056861522456,0.5017486334014256,-14.942772100597209,14.97056873870901
0.5123103705545884,0.7664090576584996,0.5130920187229453,-14.836517222232938,14.865156896210438
0.5147973141009698,0.7618445142830321,0.5148646357861866,-14.744809074231437,14.773452111563637
0.5172842576473514,0.7620772960677522,0.5118549074847278,-14.648494642560005,14.6772324552215
0.5197712011937329,0.7718958362430144,0.5232164665573946,-14.561939732945547,14.591767111588107
0.5222581447401143,0.7625697446256843,0.5297957190645883,-14.48514493766414,14.51487581705385
0.5247450882864959,0.767617874025023,0.5411694908724294,-14.403745635533856,14.43433372038815
0.5272320318328774,0.7726750438751375,0.5286073811681558,-14.29858879854833,14.329204238785373
0.5297189753792588,0.7633760734377493,0.5304166355067732,-14.198405428393194,14.22880183099564
0.5322059189256404,0.7492977984034033,0.5418088694436509,-14.107984506634512,14.138254166662144
0.5346928624720219,0.7304402476489342,0.5292652784952399,-14.01296139803234,14.04196395925978
0.5371798060184033,0.7211686598386868,0.5071510912638586,-13.937278690377774,13.96513600931126
0.5396667495647849,0.7119062568616801,0.5089851495156092,-13.861783338041075,13.88938132933859
0.5421536931111663,0.6930762604328382,0.5108254550551683,-13.762533888527722,13.78943930626557
0.5446406366575478,0.6790439086942267,0.4983068162099573,-13.677838128956406,13.703746429168547
0.5471275802039294,0.6650208263319178,0.48579446111119573,-13.58375459972464,13.608697144967325
0.5496145237503108,0.6510070411772356,0.49244202109213653,-13.480283854268212,13.504975457343262
0.5521014672966923,0.6322141775658189,0.48473069084412757,-13.391368459055109,13.41504408547126
0.5545884108430739,0.6277958762591894,0.4674488915023547,-13.317008960376453,13.339991146142548
0.5570753543894553,0.6329637612413254,0.46453865736440925,-13.238052287660967,13.261314703228955
0.5595622979358368,0.6189874397183647,0.46642319936666254,-13.15449898003169,13.177311541702704
0.5620492414822184,0.6098089552433131,0.4731025349668996,-13.075926379659718,13.098684806375331
0.5645361850285998,0.6245819478720084,0.47021147154257914,-12.997546615157047,13.021037571973986
0.5670231285749813,0.6249992176394,0.4673268329531597,-12.909783408211743,12.933349374303127
0.5695100721213628,0.6302144042467731,0.4644486362977407,-12.817425686863837,12.841311614058583
0.5719970156677443,0.6306507272958525,0.46157689855552286,-12.725262375539119,12.74923825565396
0.5744839592141259,0.6263082128510348,0.44434642662470614,-12.62850558840335,12.651832243618845
0.5769709027605073,0.6267636934391261,0.43191085052545697,-12.541521049279083,12.564598280077458
0.5794578463068888,0.6320171947678361,0.42427018687630547,-12.459520865078211,12.482752545543534
0.5819447898532704,0.6277035324052112,0.42142445217525104,-12.377717139078365,12.400785937533133
0.5844317333996518,0.6138227317012646,0.39943164619804605,-12.296110374238461,12.31789975285529
0.5869186769460333,0.6143168344283545,0.3822338018027316,-12.200335859912805,12.221770859698564
0.5894056204924149,0.6100322522965778,0.3841961450857472,-12.114336108369994,12.135768841457793
0.5918925640387963,0.6105458167582207,0.38137667545991816,-12.033323208304045,12.054836448432413
0.5943795075851778,0.620645955765347,0.3689870054980666,-11.942932438111292,11.96473936339297
0.5968664511315593,0.6211790804883226,0.3613923609328742,-11.862317895768959,11.884067222498258
0.5993533946779408,0.6121452151984128,0.3538043540942546,-11.781903255666903,11.803098898652028
0.6018403382243223,0.612697997267567,0.3510114038310963,-11.701688995166068,11.722974587580826
0.6043272817707038,0.6084722406447745,0.33864831558926634,-11.616887184633578,11.63773985831401
0.6068142253170853,0.5994679690589864,0.3406571212552407,-11.532286697399813,11.55288040235916
0.6093011688634667,0.5904736093782903,0.35224943267160835,-11.462253209754634,11.48285623835464
0.6117881124098483,0.5862775882894065,0.3494832482775849,-11.373268361099958,11.393730432345432
0.6142750559562298,0.5773031223365612,0.356300599593276,-11.284486223672758,11.304859943607896
0.6167619995026112,0.5683386378431774,0.36312469477425324,-11.191118849416567,11.211423168045487
0.6192489430489928,0.5545957543101325,0.3555903385333279,-11.107531899860925,11.127051983611164
0.6217358865953743,0.5552281076577734,0.3384859487420089,-11.019360612914978,11.038530667914593
0.6242228301417557,0.551082107061684,0.3405419597507202,-10.917028626106479,10.936232181985838
0.6267097736881373,0.5469461781165836,0.3521815792246401,-10.824478396500595,10.84400823232856
0.6291967172345188,0.5380319395939792,0.3590396113858003,-10.736921957532868,10.756387912897097
0.6316836607809002,0.5291278167232615,0.3467508603333038,-10.635206128967232,10.654004965795462
0.6341706043272818,0.5154454279103041,0.3536225665666848,-10.5480617600573,10.566567077472321
0.6366575478736632,0.5161384079795076,0.35092432397800843,-10.475489276418658,10.494066052665827
0.6391444914200447,0.5120531650095949,0.3386561462580451,-10.388758680026273,10.40688201821352
0.6416314349664263,0.5031897201772254,0.3455484668961919,-10.302235599016678,10.32030338580765
0.6441183785128077,0.4991249011162401,0.3620244926960212,-10.235074061123074,10.25363001267846
0.6466053220591892,0.4854935186753472,0.3593538170564661,-10.163332460469896,10.181265433360918
0.6490922656055708,0.4718724001211251,0.36147846977643905,-10.09658801069557,10.114070382582351
0.6515792091519522,0.46783837253634475,0.3683984639297697,-10.025264308426959,10.042933566685718
0.6540661526983337,0.46381464953860785,0.3513833925448311,-9.934996543238292,9.952022439275332
0.6565530962447153,0.45022444456148836,0.33916368837010635,-9.854515530852332,9.870623607746337
0.6590400397910967,0.4462213907763065,0.3365277674288256,-9.788610066654194,9.80455259075297
0.6615269833374782,0.4374402979279667,0.3386872389798512,-9.694184909088037,9.709957987122774
0.6640139268838597,0.4286695888583024,0.3312769055176288,-9.614336072624166,9.629587744130252
0.6665008704302412,0.43906289618567496,0.31908518269401975,-9.549063938109061,9.564476654512612
0.6689878139766227,0.4255246091798889,0.31168888935732,-9.469638462724852,9.484317253839857
0.6714747575230042,0.4119967634105516,0.29472282763034796,-9.380848423152003,9.39451542211415
0.6739617010693857,0.4128445876219985,0.2777638161135316,-9.292270995646179,9.305584003575378
0.6764486446157671,0.4232796970925977,0.27038867328331584,-9.223060159357388,9.23672639194949
0.6789355881621487,0.4145716903143718,0.27738581417181907,-9.144485856485144,9.158080265851066
0.6814225317085302,0.41545100543825,0.27481323376524447,-9.066125252043097,9.079798948055275
0.6839094752549116,0.4259176605083873,0.2770361534882331,-8.99276710397531,9.007109140574071
0.6863964188012932,0.43160646342305076,0.27447777803978024,-8.914834956514838,8.929496317923263
0.6888833623476747,0.422940625215822,0.26713811863540604,-8.846694366745508,8.860826302636381
0.6913703058940561,0.4190737766571173,0.2645939930071415,-8.773980468077864,8.787967117919194
0.6938572494404377,0.4391595483322751,0.2620570088019556,-8.682328390170518,8.69737668837648
0.6963441929868192,0.43531392415714765,0.25952717686299875,-8.605257292132848,8.62016853848584
0.6988311365332006,0.4171137277061975,0.2570045079092833,-8.528402296118383,8.542463397835776
0.7013180800795822,0.41807779897028596,0.24970060921536774,-8.4469753271683,8.46100062746862
0.7038050236259636,0.41905254123165314,0.2471922978926102,-8.375341919851884,8.389461325906353
0.7062919671723452,0.42003797086858985,0.24469118096729625,-8.303925588383656,8.318141970922799
0.7087789107187267,0.4210341040741764,0.2469856719822081,-8.23751505318589,8.25196497147329
0.7112658542651081,0.417252553535966,0.24449897439507096,-8.166533820966835,8.180840671404603
0.7137527978114897,0.4230585450375435,0.2420195015004447,-8.095770604642809,8.110428697339888
0.7162397413578712,0.4192984809350906,0.23954726314848784,-8.020437306736902,8.034961648862643
0.7187266849042526,0.40597237668083175,0.23708226906528918,-7.930957422699668,7.944879307680387
0.7212136284506342,0.4070222641433584,0.23462452885288787,-7.851273267472113,7.865316758628991
0.7237005719970157,0.4128713517638921,0.22738564866898425,-7.7670199256815415,7.781308727473937
0.7261875155433971,0.40915444447818494,0.22494244450822043,-7.6829860914859385,7.697160628747718
0.7286744590897787,0.39108315367747637,0.22729492560064823,-7.608748858613781,7.622182640802478
0.7311614026361601,0.3778111071694644,0.23444310105238264,-7.529943300442987,7.543059784213426
0.7336483461825416,0.3741267226158347,0.24159857652533168,-7.460934906525248,7.4742150327750965
0.7361352897289232,0.3752416108526143,0.24876136087785827,-7.3921471460636,7.405844172694784
0.7386222332753046,0.36679057589021347,0.2607198661648167,-7.318791887835388,7.332613781771133
0.7411091768216861,0.35356203483534465,0.2726856976766663,-7.245657803513758,7.259402221107061
0.7435961203680677,0.3403444046098272,0.279870460580141,-7.172745157707951,7.186267103710898
0.7460830639144491,0.34150290859126464,0.28706256655892215,-7.104842614605271,7.118835419646023
0.7485700074608306,0.35224915669123213,0.284685217212135,-7.037162028011597,7.051721389120326
0.7510569510072121,0.3486411453553365,0.28231522729658876,-6.960126844673212,6.974569393857867
0.7535438945535936,0.33546729076641135,0.28474100812527636,-6.883314120879955,6.897363919033688
0.7560308380999751,0.3318812188836521,0.2823857609268101,-6.816300909185657,6.830215585615663
0.7585177816463566,0.32830613555987853,0.28482630008767496,-6.739933838488035,6.7539336010256985
0.7610047251927381,0.32474205310411697,0.28727422991010565,-6.678155163835257,6.692214900650175
0.7634916687391196,0.31640058032074725,0.2753643479324728,-6.611811506662235,6.625102735125751
0.7659786122855011,0.3128585357908422,0.27303867813247695,-6.536114694636417,6.549292013997821
0.7684655558318826,0.30453912463007393,0.26593201780222886,-6.455853358339587,6.468501101561886
0.770952499378264,0.3010191650513103,0.2636211807123865,-6.380604527949741,6.393138728882795
0.7734394429246456,0.29272186180221704,0.2661061738700501,-6.315156826602756,6.327535407149936
0.7759263864710271,0.2940124360481752,0.25423339087822017,-6.235568453793158,6.24767091575163
0.7784133300174085,0.2905256888489538,0.2471564517796354,-6.151416428540653,6.1632309355448704
0.7809002735637901,0.28705003436195,0.24966376653341982,-6.077066169470751,6.088962386702085
0.7833872171101716,0.28358548324074406,0.2473901316948659,-6.007729478215836,6.019504638007052
0.785874160656553,0.2849204492758468,0.24033555365771697,-5.962560169300668,5.974199914072035
0.7883611042029346,0.2958433460745139,0.21892323205270037,-5.917616423660762,5.929050076068556
0.790848047749316,0.2828353604983752,0.21188359295075365,-5.844168015207762,5.85484331883334
0.7933349912956975,0.274626922390132,0.20963983573812506,-5.775733957316746,5.7860583779401615
0.7958219348420791,0.2712180414877581,0.19782675635866998,-5.712314436422986,5.722170119117948
0.7983088783884605,0.25824351738558105,0.19080957055614478,-5.625179215345362,5.634335738242882
0.800795821934842,-0.7028236913249469,-1.4155268283131845,9.482950726085472,9.61374182179483
0.8032827654812236,-0.3614340149066618,-1.4225290167413658,8.396473967390989,8.523790144981122
0.805769709027605,0.013485675765653182,-1.290660002006146,6.174918779277434,6.308375942736964
0.8082566525739865,0.35968614635386587,-1.0390733920927278,3.0864355796870395,3.2764511633155857
0.8107435961203681,0.6723790021816564,-0.7108648117092757,-0.5577295798772788,1.1262702106383484
0.8132305396667495,0.9371990417503077,-0.32039946576335154,-4.427177030957127,4.536617057340579
0.815717483213131,1.1302042567388773,0.08443861747414694,-8.167565084821916,8.24582384949337
0.8182044267595125,1.246606251926245,0.4557654096113035,-11.482012888917925,11.55847607763312
0.820691370305894,1.2720398252694167,0.7792157053775015,-14.078427990348667,14.157238329279167
0.8231783138522755,1.211293387825579,1.0404242993813702,-15.755697595644396,15.836404930397801
0.825665257398657,1.0787321571116626,1.2202375827906096,-16.42763058736764,16.508170387425082
0.8281522009450385,0.8935097537842179,1.294713543332127,-16.09422710419536,16.17092418264373
0.8306391444914201,0.6699913949989724,1.2686405885343626,-14.798582911040173,14.86796534792773
0.8331260880378015,0.4273307010517069,1.156383932446205,-12.708292255500304,12.767949223680759
0.835613031584183,0.1846812920580374,0.962731982355844,-10.029256608097317,10.077050568522058
0.8380999751305646,-0.0388032120462819,0.7068383553925122,-7.000896258960936,7.036595382615966
0.840586918676946,-0.23354599814578603,0.4078566685657403,-3.9296691410758466,3.957674867099019
0.8430738622233275,-0.3756050433436,0.10409415204663741,-1.0693607472771411,1.1381771166618058
0.845560805769709,-0.455403534883012,-0.1805071740740214,1.3789158697438602,1.4633469155697831
0.8480477493160905,-0.47772987014729296,-0.4172168865044017,3.19489404763055,3.2572448073180644
0.850534692862472,-0.44258404337822344,-0.5964581753531006,4.273228807325729,4.337294943874239
0.8530216364088535,-0.3547544523164772,-0.7230194408085713,4.604343239784754,4.674246945014466
0.855508579955235,-0.2525483181232938,-0.7681702599358728,4.159506826283668,4.237376929084464
0.8579955235016165,-0.11681202229425824,-0.7462758398015119,3.0344875380233614,3.127089268959715
0.860482467047998,0.047666036895583686,-0.6429709676685547,1.3777257863199832,1.5211219736197965
0.8629694105943795,0.21215544439195333,-0.47262085084025385,-0.6575496106028975,0.8371092471345271
0.8654563541407609,0.36229099492415445,-0.2591675033785448,-2.898956217659432,2.932979664388569
0.8679432976871425,0.4932842896849391,-0.026552939463312608,-5.107073949702741,5.130910131426633
0.870430241233524,0.5907701230495246,0.20606922992808618,-7.09515515453804,7.122689136328977
0.8729171847799054,0.6451716925368239,0.429122200341419,-8.695605789686645,8.730060276155521
0.875404128326287,0.6612774054502847,0.6186639572440975,-9.764773825710826,9.806673277225016
0.8778910718726685,0.6390872655969282,0.7555408893066375,-10.259563699344637,10.30717817200094
0.8803780154190499,0.5833896799282289,0.83017619172321,-10.156033457054363,10.206593535982433
0.8828649589654315,0.4989730552200795,0.8473582695320849,-9.463759965004826,9.514711914819504
0.885351902511813,0.3906257980730603,0.8022987210142927,-8.288088152229292,8.335986862452756
0.8878388460581944,0.2870783315142795,0.7045743542953744,-6.767881767471179,6.810511185485608
0.890325789604576,0.17875385183359105,0.5685503807049566,-5.037216152627409,5.072351431361551
0.8928127331509574,0.06565236178700284,0.42774562473789013,-3.230166646074645,3.2590264057696343
0.8952996766973389,-0.028284119442099076,0.26300647424976287,-1.499962195956524,1.523108330424538
0.8977866202437205,-0.09347878280516031,0.09348654354304209,-0.014196956869399813,0.13296454505886537
0.9002735637901019,-0.14429683602878907,-0.05687214987490341,1.1409377765377453,1.1514317297392003
0.9027605073364834,-0.17594987373164683,-0.1976464118540937,1.903192729713421,1.9215007230336925
0.905247450882865,-0.16449587742414684,-0.3096826284376677,2.2151070349160573,2.2426906608313617
0.9077343944292464,-0.13866526531283885,-0.3738271857835427,2.0718922644108453,2.109908143962818
0.9102213379756279,-0.0936696325344798,-0.39486848676576036,1.5118556238227168,1.5653761685883052
0.9127082815220094,-0.03908578435883725,-0.3680181277320851,0.6020347421688506,0.7066900817591041
0.9151952250683909,0.029874683733481233,-0.3124297217459615,-0.5426487148664094,0.6268751514493138
0.9176821686147724,0.10363496612947265,-0.24725688198475515,-1.812061481461539,1.8317868283427707
0.9201691121611539,0.17261825704501788,-0.14376918853637033,-3.0864934817039593,3.094658083672362
0.9226560557075354,0.2272477505251873,-0.01154344816465791,-4.251023039557425,4.257108370027986
0.9251429992539169,0.27231185040548994,0.1111131123314042,-5.209882088829433,5.218177004194948
0.9276299428002984,0.2982337503903567,0.2289888959226758,-5.876879366537982,5.888895513860613
0.9301168863466799,0.3002250473347068,0.32771869218599514,-6.223284446121281,6.239134869322051
0.9326038298930613,0.2878625478849121,0.3785720806247541,-6.220366897601098,6.238521139458842
0.9350907734394429,0.27072305851819856,0.4054910771534601,-5.872915110831843,5.893118519689004
0.9375777169858244,0.24401817558205124,0.4036872776527187,-5.224024698828148,5.245278099597731
0.9400646605322058,0.1981710919351799,0.37316068121162616,-4.345521691131175,4.366014136918553
0.9425516040785874,0.15712382351037396,0.31869969012802146,-3.323597323855113,3.342537443251621
0.9450385476249689,0.10651115951015844,0.23551589994778777,-2.2492312330536635,2.264034784620704
0.9475254911713503,0.046333098930603334,0.13797451938700123,-1.199037841446419,1.2078391735976586
0.9500124347177319,-0.004256746118043275,0.05001756369149213,-0.26399677834752566,0.26872695351047043
0.9524993782641133,-0.030893167012519207,-0.04272017856596522,0.4792775402480718,0.4821683959064649
0.9549863218104948,-0.0575181818583832,-0.12108509568071923,0.9829011216182231,0.9920002805033191
0.9574732653568764,-0.06497817904435454,-0.18507718933947714,1.2181435896657113,1.2338352948466766
0.9599602089032578,-0.06284996704661183,-0.22033125137780507,1.1802165882305662,1.2022508780724876
0.9624471524496394,-0.05113354786592639,-0.23642409034239753,0.9026389910434123,0.9344881691939478
0.9649340959960209,-0.029828923667920226,-0.238144111568932,0.43808328843664235,0.49951911892299466
0.9674210395424023,-0.003724500102988637,-0.21112610722088032,-0.18472004254647167,0.280552310932614
0.9699079830887839,0.036756526975331605,-0.1601584828517204,-0.8891564883550043,0.9042129410091717
0.9723949266351654,0.06767213830759677,-0.09002964412346648,-1.5842463221799168,1.588244711769793
0.9748818701815468,0.08423392775231231,-0.024681610087595285,-2.2412590570878024,2.242977195033245
0.9773688137279284,0.11517231224723656,0.040674020018304446,-2.7979453796221527,2.8006101807930674
0.9798557572743098,0.14133367536446906,0.11561405016926019,-3.2016327796944344,3.2068355543124563
0.9823427008206913,0.14835280383428096,0.18098486431099703,-3.4235907605531715,3.431579486367787
0.9848296443670729,0.15538330746738505,0.23199805624302083,-3.4494540321514906,3.4607369432342328
0.9873165879134543,0.14805997267096682,0.26386521965796694,-3.2600688978741887,3.2740793864136988
0.9898035314598358,0.1263827956522049,0.27179794814188263,-2.8841656910693656,2.8996997205215296
0.9922904750062174,0.11908219237961959,0.2701614484557324,-2.3887819684162874,2.4069580531044634
0.9947774185525988,0.10221614213816826,0.2541673139732046,-1.7978596534885245,1.818611694905716
0.9972643620989803,0.07099623733433913,0.20945033132160829,-1.1688594898872289,1.1895975849445048
0.9997513056453619,0.049364490137188466,0.16474091690559023,-0.5305117980856711,0.557690945324999
1.0022382491917432,0.02774408931471195,0.11525066378245441,0.040569071436811655,0.12529285514922306
1.0047251927381249,0.0013466267967344736,0.06097956822489703,0.5012875946322062,0.5049847261816615
1.0072121362845063,-0.015462692363708452,0.001927626401029947,0.8277018639135978,0.8278485284910039
1.0096990798308878,-0.017895469911830886,-0.052328358984719436,1.0150235881467076,1.0165290893484633
1.0121860233772693,-0.02510532435160573,-0.09221158533193607,1.0536760760394817,1.0580011942328742
1.0146729669236507,-0.037092261062523724,-0.11772205678455006,0.9436594460942089,0.9516971517700074
1.0171599104700322,-0.02991426897884908,-0.1336481809102259,0.699339029918935,0.7126231672610066
1.0196468540164139,-0.022724967073561086,-0.13520155873912643,0.35902217885918297,0.38430822334004133
1.0221337975627953,-0.02031276451416164,-0.11759379140423487,-0.024618542651847264,0.12184818759969845
1.0246207411091768,-0.0035240540216290306,-0.09040169010200305,-0.41327577702368856,0.42306235049290253
1.0271076846555582,0.00848754496598736,-0.05841366281077054,-0.8069493901199696,0.8091053779561169
1.0295946282019397,0.01572202613773932,-0.026418117610800707,-1.1338131948997958,1.1342298973192588
1.0320815717483214,0.022967786349298414,0.0055849406363552845,-1.3651366311146784,1.3653412512565613
1.0345685152947028,0.03501322230308457,0.032807103647527036,-1.491342748716077,1.4921144144916665
1.0370554588410843,0.03270471394716756,0.05524836635888297,-1.4741241746617142,1.4755216239085658
1.0395424023874658,0.03519586763976923,0.07769712692621988,-1.3517879859716224,1.3544764123633606
1.0420293459338472,0.0424866763059758,0.08578817012372397,-1.138699240011027,1.1427163633196105
1.0445162894802287,0.03063511611788361,0.07952149058647384,-0.8587997977419608,0.8630175377165192
1.0470032330266104,0.01400638965911627,0.06847388949043731,-0.5120895004903794,0.5168370236406423
1.0494901765729918,0.006965699362800226,0.05743376459186633,-0.13687541312022766,0.14860025908335364
1.0519771201193733,-6.376908955052496e-05,0.03682430358696731,0.23811220916091536,0.24094285121715775
1.0544640636657547,-0.011870426845679294,0.006645500713806651,0.5985083241118581,0.598662913286284
1.0569510072121362,-0.03324268520243456,-0.018737439927067,0.9107942792062946,0.9115933231487615
1.0594379507585177,-0.045026939003736,-0.04890133093479765,1.1366630215839741,1.1386051071550887
1.0619248943048993,-0.05680000316353684,-0.07426937172508241,1.285691534564414,1.289086848116299
1.0644118378512808,-0.0541966761419127,-0.08526476181109377,1.3339379811918324,1.3377585346308487
1.0668987813976623,-0.04679377314770594,-0.09625271740471941,1.2909793507096623,1.2954080155580068
1.0693857249440437,-0.058533319497420244,-0.09286803489279505,1.18075784526944,1.1858497841470341
1.0718726684904252,-0.06068490413036953,-0.08947593068051907,1.00327365335853,1.0090820696473746
1.0743596120368066,-0.04846013273318528,-0.08607641130831523,0.7728921763524372,0.779178958465283
1.0768465555831883,-0.04101262773933445,-0.08266948341243419,0.5422860451065681,0.550082206437444
1.0793334991295698,-0.04313080176613049,-0.05531313712306618,0.33060907014154317,0.3379677003194835
1.0818204426759512,-0.0404494542939301,-0.03752620250929262,0.15222666155476894,0.1619176664714365
1.0843073862223327,-0.03775699822814049,-0.024520283172527524,0.03586944229181199,0.05756259282195662
1.0867943297687142,-0.03505344329716209,0.0028582271522772373,-0.023250785066984747,0.042160554499110825
1.0892812733150956,-0.027550396051892356,0.01587890143289883,-0.029922215074487113,0.0436635178186058
1.0917682168614773,-0.020036269826163355,0.03369534574644062,0.03500897717456297,0.052559080246215015
1.0942551604078588,-0.02687628473624204,0.05630755279529476,0.17154300615046836,0.18253733355716054
1.0967421039542402,-0.02412843447720303,0.05977349858717851,0.32700765263608034,0.3333002510743601
1.0992290475006217,-0.021369536127111677,0.058458385599538865,0.5349219600055122,0.5385309120350762
1.1017159910470031,-0.03296481022464304,0.05236220625646171,0.7761325379246831,0.7785950139723479
1.1042029345933846,-0.034972250885760725,0.051061759530579565,1.0171207889034228,1.0190019925583544
1.1066898781397663,-0.036968675607894186,0.04019182770123786,1.2483101348474612,1.2495040050968442
1.1091768216861477,-0.04374249870692831,0.01975240291733682,1.4409703871652333,1.4417694754367831
1.1116637652325292,-0.06487053795730685,0.004108687197698302,1.5759481666789998,1.577288081507072
1.1141507087789106,-0.08119919134934539,0.002837479150147537,1.6819741301770357,1.6839353712504856
1.116637652325292,-0.08794006697151091,-0.017580052590618234,1.7542601139575442,1.7565508990776155
1.1191245958716736,-0.09466998300991036,-0.028413496315811138,1.7688643437789988,1.7716237747187447
1.1216115394180552,-0.09660054782589328,-0.03923966696875336,1.7305754680525993,1.7337136060865286
1.1240984829644367,-0.09852017655709172,-0.05005857294139959,1.6633357511909228,1.6670026715946322
1.1265854265108182,-0.1004288811559585,-0.060870222714600075,1.5671454437143666,1.5715393682432082
1.1290723700571996,-0.10232667370955362,-0.05730941489680674,1.4659468154435107,1.4706308792138312
1.131559313603581,-0.10900196975932902,-0.04895296478620992,1.3501633156445418,1.3554404454217222
1.1340462571499625,-0.11087797501934898,-0.05016609108912906,1.2485256228230863,1.2544428216883103
1.1365332006963442,-0.10795470197732371,-0.05137199599777764,1.1706108048696384,1.1767000280994944
1.1390201442427257,-0.10023216325344703,-0.04299388179145991,1.1307843356500964,1.136031766357611
1.1415070877891071,-0.10207558156080432,-0.03460856411745894,1.1290464817136758,1.1341794985500657
1.1439940313354886,-0.1086965664626467,-0.026216052068794404,1.1606091089225083,1.1659827308587127
1.14648097488187,-0.11051832433279152,-0.0034511448635470288,1.2350492957218817,1.23998910208006
1.1489679184282517,-0.1123292716363331,-0.009409481649175433,1.352367316527661,1.3570570225393928
1.1514548619746332,-0.10934101832754206,-0.015360651853709495,1.4838330284339278,1.4879354368337614
1.1539418055210147,-0.10634198113056897,-0.006939454951011559,1.6150815010847523,1.6185935339460518
1.1564287490673961,-0.10812057689827809,-0.012876320382274375,1.7604782266240013,1.7638422393152375
1.1589156926137776,-0.10988841597107918,-0.023594451110342085,1.910446683160611,1.9137499030142917
1.161402636160159,-0.10206870549668978,-0.0295170501818367,2.0601987546794733,2.062936786640846
1.1638895797065407,-0.10860347599208914,-0.045009337328343335,2.190581117748815,2.1937333905654874
1.1663765232529222,-0.11033912821796871,-0.060494515762909984,2.272863644829319,2.276344318779588
1.1688634667993036,-0.10727567634224378,-0.07597259542187018,2.311835034145675,2.315569288769644
1.171350410345685,-0.11377834461918829,-0.08665518300351938,2.317072389753367,2.321482089485731
1.1738373538920666,-0.11548193750606894,-0.09733069192867738,2.2981528182070567,2.303110009815968
1.176324297438448,-0.10759806622509005,-0.10799913237937675,2.2694418318695178,2.2745565248393698
1.1788112409848297,-0.09970355208314974,-0.11387211129847952,2.226151332298701,2.2312905257551856
1.1812981845312112,-0.0965868131900326,-0.11016123570961511,2.177858433478507,2.182780764668942
1.1837851280775926,-0.09824786445785033,-0.10644332267773349,2.1101982352448436,2.1151641581313863
1.186272071623974,-0.1046867209207939,-0.10271838270716449,2.0423246631179346,2.0475840410744826
1.1887590151703555,-0.10632659109394677,-0.10377482970217367,1.9886032417282937,1.9941457851084141
1.191245958716737,-0.10316749025397243,-0.09045906104470136,1.9681879014458676,1.9729647711422222
1.1937329022631187,-0.0904210304776118,-0.09150150739866714,1.9762905584465962,1.9804728879775204
1.1962198458095001,-0.08245243724268553,-0.09253696962364666,2.017699937943063,2.0215030385161006
1.1987067893558816,-0.08883853282595378,-0.0935654586182384,2.0780511542510007,2.0820526841665234
1.201193732902263,-0.08563731638068667,-0.0897985820384295,2.138190920738672,2.1417884930175264
1.2036806764486445,-0.08721401374077492,-0.08602475425814404,2.222061583018313,2.2254357373925227
1.206167619995026,-0.09835704421703317,-0.09182079304854085,2.3200866658094688,2.323985220058439
1.2086545635414077,-0.09991281063570062,-0.08803309633544432,2.422689696169585,2.426346586888569
1.2111415070877891,-0.11103494250191814,-0.07945007872239085,2.5250826068024868,2.528771093761126
1.2136284506341706,-0.11735824619448071,-0.09001376816992135,2.6129005260858422,2.6170832229086
1.216115394180552,-0.12367114148869035,-0.09099375619051031,2.6861437946608993,2.6905283682760213
1.2186023377269335,-0.12518524163391004,-0.0967552642544196,2.744812755459809,2.7493690164142666
1.221089281273315,-0.12190056331392368,-0.11208670726587133,2.803272963654769,2.808159982273045
1.2235762248196966,-0.13297073660729591,-0.11783448360171711,2.847159556763412,2.8526976222496483
1.226063168366078,-0.1344537618227314,-0.11399860499385994,2.8668960778791517,2.872310327483382
1.2285501119124596,-0.13592646262349461,-0.11973269652885721,2.8672712822999706,2.8729873874003564
1.231037055458841,-0.14696566278464218,-0.1206715601240913,2.8530739275556067,2.859404023141551
1.2335239990052225,-0.14841776627056524,-0.11681520773049892,2.8290927733956766,2.8353905456888127
1.236010942551604,-0.15464800039847,-0.122528861332174,2.809693388418385,2.816612551063527
1.2384978860979856,-0.15607957599404404,-0.11865891974285026,2.780510923496106,2.7874148899936277
1.240984829644367,-0.15271251063305918,-0.10041699180862595,2.7702761615681215,2.7762987401395316
1.2434717731907485,-0.1684888386017238,-0.09653350968881913,2.769412661183347,2.776212112780439
1.24595871673713,-0.16988975445078403,-0.10222008237119251,2.7683439830508565,2.7754350798390517
1.2484456602835114,-0.1569152760808737,-0.08874630231218594,2.7718588999888363,2.7777149010452717
1.250932603829893,-0.1630842447419265,-0.07526579524119681,2.784746186951616,2.7905326976328193
1.2534195473762746,-0.17881987190758752,-0.0761437836367489,2.826159830978586,2.832834942705359
1.255906490922656,-0.1849685625168107,-0.08180347344484051,2.88652340129934,2.89360027018866
1.2583934344690375,-0.1767419315748312,-0.07309126403948074,2.9610488725638,2.9672193159534133
1.260880378015419,-0.1780820141135116,-0.04521876482385068,3.040159818189527,3.0457067587962396
1.2633673215618004,-0.17462361870637483,-0.03649321515177739,3.119068216990234,3.1241657614795124
1.2658542651081819,-0.18073197395238566,-0.037337821241393954,3.178620839882444,3.183973712680234
1.2683412086545636,-0.19161869527223446,-0.04296419269817431,3.209241266474934,3.215243871415927
1.270828152200945,-0.17855338158742612,-0.04379553587390239,3.244448708298762,3.2496533322525796
1.2733150957473265,-0.1702664717650016,-0.04940867046783293,3.28903195899046,3.2938067817322443
1.275802039293708,-0.1859115981325657,-0.05022680296378956,3.3190493942798467,3.3246315187890496
1.2782889828400894,-0.18718155327456582,-0.060615156512573876,3.3201361985403697,3.3259608398090648
1.280775926386471,-0.18365316307856994,-0.06620853440812358,3.32581159133941,3.33153640163586
1.2832628699328525,-0.1801148502112342,-0.07179535329022801,3.331287567660458,3.3369256495267936
1.285749813479234,-0.18614344075832284,-0.0821640298628763,3.3317761244534045,3.33798329112331
1.2882367570256155,-0.17779693766161897,-0.0829493676126054,3.327277663942618,3.333057005453196
1.290723700571997,-0.16465216720268855,-0.0933049933315222,3.3273693969350244,3.332747104357738
1.2932106441183784,-0.17065116572104294,-0.10365411395283708,3.3320517295266248,3.3380285684731144
1.29569758766476,-0.18142874309009016,-0.10441993647233216,3.3221714564495803,3.3287599940519086
1.2981845312111415,-0.17304290263841726,-0.10039087790889845,3.3360362141849675,3.342029293240025
1.300671474757523,-0.18380089095386704,-0.10593216198380784,3.368858011223935,3.375530875321049
1.3031584183039044,-0.18497230823450633,-0.10667859255780954,3.401483647977283,3.4081792917011513
1.305645361850286,-0.16698036805364502,-0.10263018351353148,3.438701943325678,3.4442831551594515
1.3081323053966674,-0.17770912392173333,-0.10336375543475951,3.480513314685444,3.486579632299435
1.310619248943049,-0.1884281763170082,-0.0993025156841556,3.5221297779962866,3.5285640620937473
1.3131061924894305,-0.18956073909113907,-0.09523488164503746,3.5683401576698586,3.574640462665591
1.315593136035812,-0.18110683282799872,-0.11031448072096461,3.6191448766165344,3.625352204613151
1.3180800795821934,-0.17743168816337113,-0.1158109071712703,3.660179149592402,3.6663068034870316
1.3205670231285749,-0.1881121325030955,-0.11172417523564704,3.6818665964681934,3.688361438351077
1.3230539666749563,-0.18441776678027316,-0.12199631581342985,3.7273032754200415,3.7338562801389723
1.325540910221338,-0.1855022252202877,-0.12747372997880957,3.753393986628052,3.7601365728191327
1.3280278537677195,-0.1913655288558197,-0.13773323878510713,3.7745043718733156,3.7818612433550856
1.330514797314101,-0.19243089216687198,-0.15756326002218657,3.7954232680411417,3.803563278395281
1.3330017408604824,-0.1982751430020291,-0.15823338829415023,3.801785900468067,3.8102397392423106
1.3354886844068639,-0.19932149601535604,-0.1684740581048807,3.803169512812275,3.812113706359358
1.3379756279532453,-0.20035837590797617,-0.16913167081075242,3.804362947119321,3.8133877896539876
1.340462571499627,-0.20617420746652432,-0.16499464442490286,3.805366643809739,3.8145178372021213
1.3429495150460085,-0.21198060892191567,-0.16085139701526163,3.810969448307259,3.8202483016699325
1.34543645859239,-0.2082007952690499,-0.16149034670413798,3.821171804385763,3.830245509345587
1.3479234021387714,-0.21398840150838738,-0.16212310502718452,3.835974157477211,3.8453572882109106
1.3504103456851528,-0.2149782394812798,-0.16753809021423693,3.8458001480185713,3.855445944845132
1.3528972892315343,-0.20638192775217284,-0.17294691390765005,3.8362850147597394,3.845723189414836
1.355384232777916,-0.2073531015689346,-0.17834959112282567,3.8409480312745146,3.850673404008123
1.3578711763242974,-0.2083149763388087,-0.16459252364624266,3.864578052823214,3.8736867909744768
1.360358119870679,-0.19969076754967902,-0.15561774319909105,3.892810322980841,3.9010339008202886
1.3628450634170604,-0.20542251401164807,-0.16579047491343912,3.9352221035074564,3.9440661625749307
1.3653320069634418,-0.21593343137205095,-0.17116871740993655,3.9822370444529716,3.991758742060623
1.3678189505098233,-0.21206992871640856,-0.1813292926020904,4.019490394105609,4.029163312069718
1.370305894056205,-0.20819723845062948,-0.17711860253179434,4.032617402299801,4.041870879035162
1.3727928376025864,-0.20431538309727487,-0.17769027585328656,4.064714160247489,4.073723090051588
1.3752797811489679,-0.20042438525588618,-0.1734675213483663,4.087050710877246,4.095637243268762
1.3777667246953493,-0.20610107424299645,-0.15966195116816628,4.099627518548412,4.107908881936691
1.3802536682417308,-0.20219185952902702,-0.15542719411399775,4.121598662398024,4.1294811653052905
1.3827406117881123,-0.20306197390173036,-0.1511864591134926,4.143387803125249,4.151114789758435
1.385227555334494,-0.20392303694214886,-0.13736295514206853,4.150630199580503,4.157906232722277
1.3877144988808754,-0.19998666830525147,-0.13789871446470237,4.1912103552373985,4.198244271692639
1.3902014424272569,-0.19604129435994855,-0.1336401395105229,4.212456305289675,4.219132612274406
1.3926883859736383,-0.20166374486816896,-0.12937564935677015,4.219156926209064,4.2259545066906075
1.3951753295200198,-0.20727723638268764,-0.11552845316588156,4.225677902529745,4.232335574141249
1.3976622730664012,-0.21288179216838965,-0.10646377674758645,4.217654500273393,4.22436535788189
1.400149216612783,-0.21847743556103494,-0.10697003931629778,4.219029213421144,4.226036261422953
1.4026361601591644,-0.2288525932869604,-0.10747045017039225,4.234590924057388,4.242131975931819
1.4051231037055458,-0.22964207886090798,-0.10796502529336172,4.264340112318302,4.271883486776884
1.4076100472519273,-0.22563431914791404,-0.10366537739246251,4.2891236464184885,4.296305274385596
1.4100969907983087,-0.23119454772207448,-0.09935992585924058,4.30415360588072,4.311503400993576
1.4125839343446904,-0.23674598162374788,-0.10941389676911939,4.309430474882913,4.31731526280752
1.4150708778910719,-0.24228864460113092,-0.10030848303724316,4.3097431422457255,4.317713692593101
1.4175578214374533,-0.24303415714871807,-0.09598571746492679,4.3146689014201,4.322574069739
1.4200447649838348,-0.24377094646762076,-0.09644561629395376,4.3337850471546,4.341706906987716
1.4225317085302163,-0.2397106331837155,-0.10168819580771205,4.3479384555611045,4.355728468370709
1.4250186520765977,-0.25479525790953034,-0.10213666569016633,4.36191802062585,4.370547029902781
1.4275055956229794,-0.2555060214780147,-0.10257944562700816,4.375724234275161,4.384377771599935
1.4299925391693609,-0.24184294802787065,-0.11259335866461839,4.398934396324011,4.4070158950347205
1.4324794827157423,-0.2521132883232456,-0.10823640464716178,4.431549001182386,4.440034096639429
1.4349664262621238,-0.25758664670626275,-0.10387381002085982,4.463991737842911,4.4726237137165255
1.4374533698085052,-0.25826304750265666,-0.10429399463045641,4.457955876587236,4.466648367245849
1.4399403133548867,-0.2541425150992922,-0.09992016839849605,4.451749142020535,4.460116913435606
1.4424272569012684,-0.2356482673029317,-0.10511755788741306,4.454948840012293,4.462415150340225
1.4449142004476498,-0.2267223452224451,-0.10552096977568581,4.462767067644888,4.469768181566168
1.4474011439940313,-0.227364773424445,-0.1154956307011803,4.470415923162185,4.477683832850129
1.4498880875404128,-0.2279987698936261,-0.12067634741698807,4.477895909277517,4.485320277775404
1.4523750310867942,-0.2382011659540308,-0.13063994331445983,4.509149546442618,4.517326224929381
1.4548619746331757,-0.24839517970594405,-0.13580962853998502,4.530658516389982,4.539494576783014
1.4573489181795574,-0.24421562598622526,-0.14097382323677143,4.547211728526818,4.555946597016441
1.4598358617259388,-0.2304509329692721,-0.1652861575444291,4.558809690039929,4.567622240989744
1.4623228052723203,-0.22625473884609149,-0.1752278251142103,4.551087699242798,4.560076232229421
1.4648097488187017,-0.22683866526120683,-0.1803756495148301,4.5479882820867275,4.557212807077761
1.4672966923650832,-0.23220273723392537,-0.19030645434925297,4.559088755625157,4.568963223688024
1.4697836359114647,-0.2327701731967991,-0.20023185329336002,4.574812824681067,4.585104920224806
1.4722705794578463,-0.22854099827627,-0.21015186337678626,4.580795791795667,4.591305356835543
1.4747575230042278,-0.22909204429206975,-0.20570129170126528,4.596191783778663,4.606492711319533
1.4772444665506093,-0.22005812651443024,-0.19645696200272278,4.611424508531944,4.620850237224039
1.4797314100969907,-0.22059288350723255,-0.19678410136962698,4.645648094881125,4.655043654390204
1.4822183536433722,-0.2115427273227189,-0.19231751700039235,4.660555832797709,4.669316547788667
1.4847052971897536,-0.20727289330558007,-0.18784562940610305,4.67530185307438,4.683662610622906
1.4871922407361353,-0.21257181020954385,-0.17858005248823172,4.6850982708675115,4.693316888654357
1.4896791842825168,-0.21786269687646126,-0.16930920681949013,4.689945605606862,4.698054868321064
1.4921661278288982,-0.2087803688763376,-0.1552447063621747,4.6994211843037235,4.706617642082712
1.4946530713752797,-0.21405527170985528,-0.14117497174901406,4.699160318296575,4.7061510525107755
1.4971400149216612,-0.21932222104215354,-0.1271000203218322,4.713105546403008,4.719917429716697
1.4996269584680426,-0.2197928392256689,-0.1178082727717693,4.731680585102918,4.738247444018541
1.5021139020144243,-0.22504395861985127,-0.11329974649825614,4.740520748448253,4.747211663949296
1.5046008455608058,-0.21592199170775622,-0.11357445892892626,4.74441496465249,4.750683616180153
1.5070877891071872,-0.2259457875407624,-0.10426721755827772,4.757728969437916,4.764232162499382
1.5095747326535687,-0.22638495205047732,-0.09974324983008787,4.761309676140728,4.767732028387595
1.5120616761999501,-0.22681631777470723,-0.10000257325420048,4.7599460155427415,4.7663961467284235
1.5145486197463316,-0.23681671729435966,-0.10504520536706385,4.777580532539021,4.784599502325824
1.5170355632927133,-0.25159777327192245,-0.1100827604110255,4.7806949330008495,4.7885763746728625
1.5195225068390947,-0.24721749513055036,-0.1151152559745583,4.77407815016997,4.781860537069963
1.5220094503854762,-0.2524063288581668,-0.12493111299185777,4.772095924724691,4.7803991729368205
1.5244963939318577,-0.26716430056155976,-0.1060115258596368,4.774748788166359,4.783392226987637
1.5269833374782391,-0.27712622642673,-0.10624054544454076,4.78682567608862,4.796017728504675
1.5294702810246208,-0.27750372931986445,-0.11604138279369147,4.798750314884229,4.808167895041581
1.5319572245710023,-0.2778736421070605,-0.12104884565772922,4.805734835014346,4.815283365336175
1.5344441681173837,-0.2782359910521769,-0.11168614513104735,4.817356577637242,4.82667726887098
1.5369311116637652,-0.2833792057771823,-0.11668371889357676,4.8192508680338895,4.828985172224817
1.5394180552101466,-0.2885149093006365,-0.11688797144478036,4.816206645478887,4.826256323768168
1.541904998756528,-0.2936431279980383,-0.10751051726731342,4.846531673189513,4.856609316917791
1.5443919423029098,-0.2891870816403057,-0.11249339078757004,4.871919261946692,4.88179078065475
1.5468788858492912,-0.2847236033150692,-0.1174713998909156,4.882793143130015,4.8924979242381434
1.5493658293956727,-0.28504112282452204,-0.11765615912442673,4.883942258744992,4.893667683878433
1.5518527729420541,-0.2757744567239048,-0.1178360896964965,4.875367148129981,4.884582041903011
1.5543397164884356,-0.2665004382037392,-0.1275880161561278,4.866645157905362,4.8756062472674255
1.556826660034817,-0.27637270712830175,-0.13254674647067866,4.862565232000793,4.872216246094617
1.5593136035811987,-0.2766608701913044,-0.13750070190827923,4.867916314963815,4.8777102137797375
1.5618005471275802,-0.28173016400124484,-0.13766149711557407,4.892275755268391,4.902314212561571
1.5642874906739617,-0.28200380859646357,-0.14739436003920892,4.9117020787407295,4.921998431098926
1.5667744342203431,-0.2822702340070582,-0.1666993086832549,4.916619021750673,4.927535667000536
1.5692613777667246,-0.2825294669730621,-0.17642274778850897,4.92618074116099,4.937428944322214
1.571748321313106,-0.2779931309438686,-0.18614150203523927,4.93559937779227,4.946925313535202
1.5742352648594877,-0.2782380593589077,-0.1862787828396666,4.9400870730128545,4.951421663680114
1.5767222084058692,-0.2832642790455082,-0.1864114149160887,4.934855968727215,4.946492828204324
1.5792091519522506,-0.2834950102183302,-0.21048143295618038,4.943848627286229,4.95644137501473
1.581696095498632,-0.2693534731194141,-0.22018162850361467,4.957488788311556,4.969680706971704
1.5841830390450136,-0.2695701145801129,-0.21551201968024225,4.96141178860594,4.973401292216362
1.586669982591395,-0.26499134825489706,-0.21562623790445778,4.974771788704173,4.986488688326656
1.5891569261377767,-0.2604056044254736,-0.21573589800800796,4.973627319736585,4.985110006021497
1.5916438696841582,-0.2558129100783461,-0.21105261483717497,4.95797892990192,4.969058112011143
1.5941308132305396,-0.24642488890424386,-0.20157640657270903,4.937403974494916,4.947657655994038
1.596617756776921,-0.25139518121943627,-0.1873072914091405,4.926268212574562,4.936233590580773
1.5991047003233025,-0.2515702008011031,-0.17303369087471188,4.9245721936713975,4.934028730640951
1.601591643869684,-0.2469499747305242,-0.1635440265106931,4.9131628544558135,4.922082910011892
1.6040785874160657,-0.2375345301112629,-0.16362671987099642,4.91119435857039,4.919657140909775
1.6065655309624471,-0.24247750734985912,-0.16370498256087496,4.9138788534544915,4.922580629031188
1.6090524745088286,-0.2330485136708918,-0.16377883283810313,4.921216890254795,4.929453397359498
1.61153941805521,-0.23318959284298257,-0.16863669229229172,4.9427858271342835,4.951156173371741
1.6140263616015915,-0.242900772053238,-0.16870177256326624,4.945067392737505,4.9539027636648
1.616513305147973,-0.24302846522700516,-0.1735508985828842,4.94242734926524,4.951441290379454
1.6190002486943547,-0.24314950623044124,-0.1736072820121648,4.963596669221073,4.972580121571727
1.6214871922407361,-0.2480523256277689,-0.1880245544440342,4.975057082275151,4.98478446487101
1.6239741357871176,-0.24816014404010223,-0.19286071759828038,4.981597544979558,4.991502059864234
1.626461079333499,-0.24826139206676423,-0.1929041931258646,5.0071606274758835,5.017021356926952
1.6289480228798805,-0.24835609700348787,-0.18815499936636515,5.027804866999681,5.037450231548798
1.631434966426262,-0.25323268948249045,-0.17861315466792282,5.00522359111154,5.014807339376306
1.6339219099726436,-0.2581027935109869,-0.17385548402750395,4.987301387412534,4.997000891558015
1.636408853519025,-0.25338962979095364,-0.16909360248896732,4.983615617205015,4.992917340687508
1.6388957970654066,-0.248670032320145,-0.1595391251036391,4.970224818801865,4.9789983196268475
1.641382740611788,-0.24394402846967195,-0.15476887689088326,4.966283160640471,4.974678936970826
1.6438696841581695,-0.2440000489443948,-0.14999447291586376,4.9670027947873345,4.975253875855519
1.646356627704551,-0.2536265244620679,-0.14521593157042822,4.962807470208347,4.971405441829136
1.6488435712509326,-0.2488814658309222,-0.1356448679321316,4.972851356000011,4.980922818424475
1.651330514797314,-0.2584953203944368,-0.13085810704512335,4.98276979821446,4.991186085174888
1.6538174583436955,-0.2633145023042363,-0.1356440706385338,4.968621336450096,4.97744229761132
1.656304401890077,-0.2585506356836155,-0.13084916384487233,4.963925350325098,4.972376174274373
1.6587913454364585,-0.2633573612676265,-0.13083861504341332,4.983047606341563,4.99171706830292
1.6612782889828401,-0.2729463031994164,-0.13561244265671935,4.987681434632494,4.996984742063077
1.6637652325292216,-0.26337547235000974,-0.13559385847059513,4.992192601997873,5.000973836097608
1.666252176075603,-0.268163719442766,-0.13557128423529408,5.006158472050139,5.015168392069599
1.6687391196219845,-0.26336905536535565,-0.1451215450245389,5.015214391922181,5.024221225135068
1.671226063168366,-0.26335671757547474,-0.14987944931329444,5.009784112178504,5.01893987418207
1.6737130067147474,-0.28728034685812837,-0.14984501553991825,5.013810206726405,5.024268734397769
1.6761999502611291,-0.27767913087978907,-0.14022985882455563,5.017716426320933,5.0273500224276235
1.6786868938075106,-0.27286032371912167,-0.13061080425004423,5.011926521796447,5.021047639520419
1.681173837353892,-0.2728239528977027,-0.1353530802209293,5.00601785733724,5.015273487416151
1.6836607809002735,-0.2632048359810628,-0.14009149522093756,4.999990990545098,5.0088733581763885
1.686147724446655,-0.26315661378128574,-0.13524926105481505,4.989058075749039,4.99782395140019
1.6886346679930364,-1.8193335862939866,-2.3043383102307886,18.66326476340887,18.89278701979445
1.691121611539418,-1.2542420310571678,-2.232450799866477,17.01446429678435,17.206073199682844
1.6936085550857995,-0.6460490166272588,-2.036061015985421,14.369559967979448,14.527462870923408
1.696095498632181,-0.03306179710985069,-1.7295341869932943,11.035010147228729,11.169773074501007
1.6985824421785625,0.5320471634267592,-1.3272355412947552,7.360368834644794,7.497976910353673
1.701069385724944,1.0205474175145832,-0.8483187106134134,3.6904016270047455,3.9217631028367537
1.7035563292713254,1.4037085176848942,-0.3502445532336744,0.3507205077789042,1.4886482876313234
1.706043272817707,1.6623768231093736,0.133468089163701,-2.376158169481242,2.90300500847461
1.7085302163640885,1.7773986929599461,0.598030794822074,-4.2556020844729,4.650476969802274
1.71101715991047,1.7583509063312746,0.9764058988235726,-5.177477403278501,5.5544071376262085
1.7135041034568514,1.5956566290380234,1.2590165760971677,-5.132206761773515,5.520035241035533
1.715991047003233,1.3180462534591864,1.4506512115360612,-4.1628852324335615,4.601222481276282
1.7184779905496144,0.9446733653354469,1.5130025601544048,-2.4083759542276324,2.9969750167643774
1.720964934095996,0.5138451636915191,1.4556474101735177,-0.08415651934667778,1.545971718610202
1.7234518776423775,0.0542920409149813,1.307316163100415,2.5511998500272908,2.867166519543219
1.725938821188759,-0.4148324172436333,1.0680088005248782,5.243908334916593,5.367616170834359
1.7284257647351404,-0.8647978183886758,0.7329369007214814,7.749760922855782,7.832232512416337
1.7309127082815219,-1.2381433501978039,0.3739264950952017,9.848491617843536,9.93305628324473
1.7333996518279033,-1.5300806368669424,-0.004234031427812646,11.367718456935009,11.470230494566277
1.735886595374285,-1.731032899265621,-0.39675629391507305,12.216462333471815,12.344871096946974
1.7383735389206665,-1.8266349549369514,-0.7509678742248143,12.342051367191853,12.499071163775234
1.740860482467048,-1.8120984280578099,-1.0429267741304713,11.773216534100637,11.957425497488513
1.7433474260134294,-1.7017885560790083,-1.2630562053593108,10.615303263141573,10.824789080437654
1.7458343695598109,-1.5052821731232684,-1.406567782951606,9.016752612943888,9.249115364822224
1.7483213131061923,-1.236944516625348,-1.4638847186196542,7.135582448570652,7.388472581458714
1.750808256652574,-0.8919872107299587,-1.430218627388075,5.158541054790069,5.426943183799539
1.7532952001989555,-0.5278711227367886,-1.3103579309138644,3.277165119465174,3.568682817170426
1.755782143745337,-0.17332670001359352,-1.1234562608062284,1.659049313619744,2.011129220091155
1.7582690872917184,0.1668576266833238,-0.8886672486655369,0.44784629143196053,1.0090278723516646
1.7607560308380998,0.4591630066866439,-0.615567719442228,-0.2989825529418164,0.8241024516966506
1.7632429743844813,0.6940126059417531,-0.3185229013974902,-0.5096106156490938,0.9180486454992386
1.765729917930863,0.8618295904056914,-0.031051636063878174,-0.20797935951818403,0.8871132176823201
1.7682168614772444,0.9386719160866906,0.22769244499718955,0.55323933241662,1.1131139090369166
1.770703805023626,0.9341163622477753,0.45770932351605564,1.64954752702271,1.9501482628147226
1.7731907485700074,0.8577397081650475,0.6350569646323239,2.9612356941846727,3.1476867048365
1.7756776921163888,0.7047535231672205,0.7405817368170475,4.368594303474528,4.486619554372051
1.7781646356627703,0.49431139319860895,0.7886488317949061,5.723183404220314,5.798373824761581
1.780651579209152,0.250355307538253,0.7696814247007886,6.9196586753019895,6.9668331010742675
1.7831385227555334,-0.00796114784005214,0.7028331106034909,7.857464198578387,7.888839039629127
1.7856254663019149,-0.2758495969081035,0.5737386613420044,8.469562878800954,8.493454209542545
1.7881124098482963,-0.5341564536608573,0.406340075330486,8.6889176203617,8.71479918226686
1.7905993533946778,-0.7541513254362981,0.20063733439450182,8.529894183729347,8.56551775126466
1.7930862969410595,-0.9214690295165535,-0.019427563025564698,8.054742362197885,8.107302703362473
1.795573240487441,-1.0552632064086238,-0.23470102179598973,7.3209235453542485,7.400309896305297
1.7980601840338224,-1.1172266567581088,-0.435606253409913,6.400264332349796,6.511630497389245
1.8005471275802039,-1.1169362143955057,-0.612566469346207,5.378956531891904,5.527744346329525
1.8030340711265853,-1.0591803098123689,-0.7464280744287315,4.3671339688746675,4.555313040954333
1.8055210146729668,-0.9535357768015175,-0.8276142801070776,3.4462000478477792,3.6702139779669065
1.8080079582193485,-0.8047910458158318,-0.8657019110971231,2.6927697696072714,2.940771575354561
1.81049490176573,-0.6177345472883771,-0.8606909854587159,2.1930349411491825,2.435526061544953
1.8129818453121114,-0.4210967282331577,-0.7982163112751177,1.9661497225342455,2.1633807953145503
1.8154687888584928,-0.229242825682424,-0.6926431165355016,1.9929610468017245,2.122310178574258
1.8179557324048743,-0.03259606004561344,-0.5583366292128344,2.278257863124356,2.345903063969013
1.8204426759512558,0.1353247184068452,-0.3952968673026147,2.769368280354037,2.800709386020304
1.8229296194976374,0.28409628930961234,-0.21310065542404422,3.394466793576039,3.412993906181499
1.825416563044019,0.38977660907760314,-0.040478431460745146,4.115246720622224,4.133862586007126
1.8279035065904004,0.43321203746935816,0.12256978664326379,4.845517345619401,4.866388226262329
1.8303904501367818,0.4383445641496177,0.2712555776411403,5.518241565462881,5.542266280153198
1.8328773936831633,0.40517416220555513,0.3816369070227488,6.0903242931288135,6.11570624098279
1.8353643372295447,0.32891240142838707,0.4585021602181669,6.4947284244630366,6.519195111842123
1.8378512807759264,0.2047708516341752,0.49706291603527486,6.721877694616737,6.743340595399471
1.8403382243223079,0.0662683092267235,0.48774234998049115,6.73825382159337,6.7562081564284195
1.8428251678686893,-0.09138365592705383,0.4449056541808605,6.572587766005421,6.588262438271325
1.8453121114150708,-0.25381986065276246,0.3637644075015736,6.229668471300476,6.245439802619345
1.8477990549614522,-0.40667512174963694,0.25868380210865505,5.757380510236824,5.7775195632536205
1.8502859985078337,-0.5499494659507841,0.1296638202271838,5.232338874914604,5.262758518431004
1.8527729420542154,-0.6549125000401713,-0.013718749257034535,4.6736977170011755,4.719380143270093
1.8552598856005968,-0.7359294606567162,-0.1618871174376335,4.162860430731277,4.230509020862968
1.8577468291469783,-0.797788777770569,-0.30047609206728865,3.7333463765308554,3.829442254819461
1.8602337726933598,-0.8069716547607362,-0.40075527091666974,3.39473289761089,3.5122670007954127
1.8627207162397412,-0.768266521539696,-0.49145509157898415,3.170962546521264,3.2995098161087855
1.8652076597861227,-0.7008270179514745,-0.5677871683835938,3.1051314884632895,3.23347836521571
1.8676946033325044,-0.6142299771695121,-0.6010210990366285,3.1732982415155178,3.287601946091761
1.8701815468788858,-0.5036870223762067,-0.5959453044642271,3.365886533071084,3.4551474029239984
1.8726684904252673,-0.38835179332475434,-0.5765018188514754,3.6589548799077987,3.724395558438806
1.8751554339716487,-0.26822431645601613,-0.5283254497983303,4.018984991500491,4.0624269134039945
1.8776423775180302,-0.14809302149978953,-0.4418394082022168,4.4220353832938475,4.446521172417848
1.8801293210644117,-0.04711154811486312,-0.3505625348202246,4.8106457468121055,4.823632043399119
1.8826162646107933,0.039508480673817015,-0.2401296371828896,5.122567369572828,5.128344725007381
1.8851032081571748,0.11655544187385228,-0.12969434603943553,5.362589184883182,5.365423427862062
1.8875901517035563,0.16487569592448256,-0.028833485474388798,5.521134915387699,5.5236714347347196
1.8900770952499377,0.17010400661865843,0.062452927092457866,5.579051476380053,5.581993471625401
1.8925640387963192,0.14660555770505007,0.129799664304739,5.536339395717321,5.539800993445096
1.8950509823427006,0.1183223396071974,0.17799511211207353,5.407364410491985,5.411586856351955
1.8975379258890823,0.05652390625981574,0.1926740432077394,5.21128066038347,5.215147587575222
1.9000248694354638,-0.024424558484505254,0.18820165023204538,4.943300267728837,4.946941879296261
1.9025118129818452,-0.11494627405819086,0.16936631921010603,4.660884597280266,4.665377029262166
1.9049987565282267,-0.21025286317805592,0.1170144195911842,4.392764593112256,4.3993498850816035
1.9074857000746082,-0.2959791418842747,0.05987635405352343,4.148517585253847,4.159493597226194
1.9099726436209896,-0.37212513614131587,-0.021201507901526195,3.937720902963025,3.9553220514286105
1.9124595871673713,-0.4530560818377193,-0.1022771668634328,3.7938938913203675,3.822218111352328
1.9149465307137528,-0.5052531816216094,-0.16898543003563393,3.7314022813389505,3.7692439345689226
1.9174334742601342,-0.5335048646659042,-0.235691524516505,3.7310929799960117,3.776404740057217
1.9199204178065157,-0.5569647700664586,-0.2976070640960793,3.778601296787963,3.8310060662680696
1.9224073613528971,-0.5516909069978873,-0.35952046917762104,3.8978697669653535,3.9531008771399176
1.9248943048992788,-0.5176833011976035,-0.38791293357424506,4.0362264718378915,4.087737341896856
1.9273812484456603,-0.46930718832482454,-0.3971496842743738,4.198460331736086,4.243235353582696
1.9298681919920417,-0.41135099735858444,-0.40638435155863606,4.3749950561994195,4.413041992321056
1.9323551355384232,-0.35817996387874546,-0.3916749357965199,4.532312337328166,4.563283605579703
1.9348420790848047,-0.29542890350301654,-0.3482330506102045,4.6752010929406795,4.697451410498677
1.9373290226311861,-0.22788624508976385,-0.3000007295149336,4.784508223402066,4.799317818004201
1.9398159661775678,-0.16991722409708665,-0.2517663927157221,4.84108062821858,4.850599945208752
1.9423029097239493,-0.1119450593401482,-0.20831846038826995,4.859284029272975,4.865035411422676
1.9447898532703307,-0.07791179283470195,-0.15050333607728206,4.815176921012638,4.81815839115796
1.9472767968167122,-0.05824064331228335,-0.08310943989928754,4.708759813606781,4.709853302786825
1.9497637403630936,-0.057720039423016734,-0.025290401901839843,4.5687636362598525,4.569198219752531
1.952250683909475,-0.06677319981338686,0.013376954538324437,4.419130913962358,4.419655601725527
1.9547376274558568,-0.08061174640714364,0.037681016035770565,4.269438960843504,4.270366161466339
1.9572245710022382,-0.11838931768620431,0.04762176591536127,4.114899880164345,4.116878051012399
1.9597115145486197,-0.1609523255262637,0.047987590853102446,3.9746677908734727,3.9782147387710496
1.9621984580950012,-0.2083007950401971,0.03399007091541284,3.85832000435816,3.8640882239107284
1.9646854016413826,-0.26043475129642474,0.010417592840618717,3.775433831078332,3.784420087513308
1.967172345187764,-0.29341220271711344,-0.0323066665624161,3.7595285971613164,3.7710992713373934
1.9696592887341458,-0.33117519088245706,-0.06545230389064605,3.7962395945907286,3.8112197615302907
1.9721462322805272,-0.3689353374053305,-0.11296135223250614,3.8281064845200543,3.8475021516704926
1.9746331758269087,-0.397115860532593,-0.17483382804279035,3.8886485902349897,3.9127810739231514
1.9771201193732901,-0.3965631718243885,-0.2271277311423785,3.992231620779709,4.018303456616322
1.9796070629196716,-0.39600771599757795,-0.2554778679601859,4.100548847708112,4.127540660561373
1.982094006466053,-0.38108430783949543,-0.28382627145493,4.2088123648433005,4.235550038012462
1.9845809500124347,-0.3565813753716732,-0.3169613612710651,4.302657458388055,4.329027140827731
1.9870678935588162,-0.3320757498885919,-0.3213643304573952,4.3820846235202655,4.406383435908313
1.9895548371051976,-0.28362543939486223,-0.31140040523247503,4.432729144464731,4.452695955310435
1.992041780651579,-0.23517248505019772,-0.2966464084609557,4.42586109448685,4.442021118485346
1.9945287241979606,-0.18671691136444918,-0.2675255496924591,4.390211385691097,4.402316337540895
1.997015667744342,-0.1334703394785009,-0.22403784508323188,4.349722525850773,4.357532941865577
1.9995026112907237,-0.08022119712494274,-0.19491373067722284,4.270876181878437,4.276074153217085
2.001989554837105,-0.04612312194803153,-0.15621120596054938,4.17761485950728,4.1807888248059015
2.0044764983834864,-0.016810928300279526,-0.11271869030662351,4.084304256800698,4.08589395023599
2.006963441929868,-0.006649850406206581,-0.07401300637438846,4.010098474107192,4.010786944934851
2.0094503854762498,-0.01085150915891242,-0.03530576682687325,3.9502095941325086,3.950382271375617
2.011937329022631,-0.015050718760399318,-0.0013853909325622915,3.87111927861337,3.871148784623931
2.0144242725690127,-0.014459100002522096,0.018171298755112808,3.806346834717816,3.806417671228115
2.016911216115394,-0.03780709686825262,0.023364286358898312,3.7702579552737037,3.7705198999282996
2.0193981596617756,-0.08030633004700166,0.03334716931853565,3.7580647187628866,3.7590705727290556
2.0218851032081573,-0.11801480689530536,0.03375472186751338,3.7506139926357243,3.752622043005368
2.0243720467545385,-0.14614414799893072,0.005433314955135327,3.7718482731490566,3.7746823745267966
2.02685899030092,-0.1838479904930262,-0.022886647229888535,3.802614425594907,3.8071249456738654
2.0293459338473014,-0.2215495515383113,-0.041628373743592295,3.8381245241385233,3.8447388712474257
2.031832877393683,-0.24967204824267308,-0.07473389684750753,3.8783790451720987,3.887125583904094
2.0343198209400644,-0.28258071426249015,-0.10783802220384286,3.9233784639889286,3.935019627752581
2.036806764486446,-0.30112195995854896,-0.12657555543774768,3.9491812381762177,3.962666811374216
2.0392937080328277,-0.31966101888016,-0.16446533534027719,3.9749414540939574,3.9911641881780153
2.041780651579209,-0.31904430128051625,-0.20235376414168416,3.9910827770648005,4.00892479917311
2.0442675951255906,-0.3184254439210681,-0.21151043739398334,3.9928172746107338,4.0110748206550335
2.046754538671972,-0.3082276635869159,-0.2158773871349049,3.970568609807133,3.988360869337451
2.0492414822183536,-0.29323938696931634,-0.21066622544238012,3.9147604445976576,3.9313762138974604
2.0517284257647352,-0.26867223406386936,-0.20545377431717915,3.8637004729920728,3.878476165678631
2.0542153693111165,-0.244103034771803,-0.19066324244055366,3.8221775646156546,3.834707302918178
2.056702312857498,-0.224320215618458,-0.16629464509594438,3.7662501680242606,3.7765875862033798
2.0591892564038794,-0.20932379975302273,-0.14671320748912287,3.724649167144433,3.7334103225743225
2.061676199950261,-0.19432540694826966,-0.13670734814646046,3.6782214115416814,3.685887140858565
2.0641631434966428,-0.16974825360029466,-0.12191187227413502,3.636544169540347,3.6425445050430922
2.066650087043024,-0.16911118593138208,-0.09274998835954884,3.5996179016560257,3.6047815733370507
2.0691370305894057,-0.16368380694287293,-0.08752893805393169,3.567443067231129,3.572268710719787
2.071623974135787,-0.14867773618053465,-0.07272991316441368,3.563962141031449,3.567803365126803
2.0741109176821686,-0.15761181969524474,-0.04835292870071628,3.574810370077137,3.578609880027805
2.07659786122855,-0.16175566031617683,-0.04312841955467972,3.599988210161195,3.603878475686605
2.0790848047749315,-0.165897684056801,-0.05226799733604626,3.629919309243035,3.634084228074022
2.081571748321313,-0.17482631687244865,-0.056618063653551154,3.635873700802996,3.640514718332277
2.0840586918676944,-0.18375317801944197,-0.06096703667726455,3.6513706602828657,3.656499679853395
2.086545635414076,-0.19267829001578773,-0.07010333453687378,3.6716222353545227,3.677342687336379
2.0890325789604574,-0.20639007864093484,-0.07445016536059823,3.6822636658370813,3.68879457227257
2.091519522506839,-0.21531175965428556,-0.09794956047815528,3.6785069969734705,3.6861045830288197
2.0940064660532207,-0.21944335539652216,-0.11665951797529983,3.6699294827460696,3.6783348457815457
2.096493409599602,-0.23315009810967058,-0.1210032458577297,3.6517431659502417,3.66117862222276
2.0989803531459836,-0.2420668000540777,-0.1349227753321971,3.623948491470996,3.6345292899943273
2.101467296692365,-0.21267466014878672,-0.14405291100167705,3.5817574996378214,3.5909564935333367
2.1039542402387466,-0.20243454033849068,-0.15797047402926445,3.544324246142075,3.5536134814548523
2.106441183785128,-0.21134646266363055,-0.1479450589739928,3.516437575470011,3.525888297994231
2.1089281273315095,-0.20589162586172083,-0.1331302935563028,3.474155910937431,3.482796911989538
2.111415070877891,-0.19085845517182665,-0.14225661209539808,3.4366333044900053,3.4448675392713333
2.1139020144242724,-0.17582377909212837,-0.13222839906380734,3.4134470001754558,3.420529019584549
2.116388957970654,-0.16078761941878922,-0.11262247541535242,3.399809030818986,3.405471762702691
2.1188759015170353,-0.15053840120666268,-0.11695767866314366,3.386143024659627,3.391504900820162
2.121362845063417,-0.13549933948782023,-0.11171519979351041,3.3868146252678937,3.391364572380127
2.1238497886097987,-0.13003566583385312,-0.08731824635179297,3.3826706516978557,3.3862950976535995
2.12633673215618,-0.12935899847283078,-0.08207405904378318,3.3832883416470425,3.386755070030694
2.1288236757025616,-0.12389255225003559,-0.08640584532932527,3.393456528210171,3.3968165307332
2.131310619248943,-0.12321315522931481,-0.08116000598469819,3.3940220265938015,3.397227390858153
2.1337975627953245,-0.12732082877099832,-0.07591336166497609,3.38498526399514,3.3882294298619238
2.1362845063417057,-0.1362155941723185,-0.08024273298202722,3.3998654895589793,3.4035391772956367
2.1387714498880874,-0.15468587598751937,-0.0702061172622015,3.4003559013268863,3.4045964334733774
2.141258393434469,-0.1635780821057808,-0.06495714167120115,3.37209171263953,3.376681764343761
2.1437453369808503,-0.1676806369541438,-0.06928422337020468,3.3438037654140604,3.3487222520260778
2.146232280527232,-0.1909355781770008,-0.07839897283605479,3.334646093616856,3.341027890280129
2.1487192240736133,-0.2141893134718369,-0.0970898071423889,3.325465503337835,3.333770284009749
2.151206167619995,-0.2134998471515368,-0.11577993335795922,3.297108799349205,3.306041985887061
2.1536931111663766,-0.2175976199879454,-0.1296809618277579,3.2783068183048796,3.2880786899083256
2.156180054712758,-0.23127105608666548,-0.13879290617289364,3.2594831689711565,3.2706238397274627
2.1586669982591395,-0.24015496620720733,-0.13832737664986716,3.2166962488246513,3.2286132670432055
2.161153941805521,-0.2346725643643403,-0.14743800007231034,3.1738884872127606,3.185965678658884
2.1636408853519025,-0.22440067778885925,-0.15654798328744013,3.1550023121469657,3.1668442533405656
2.166127828898284,-0.2141277303258371,-0.15129212977751072,3.1313077137758825,3.1422647870253475
2.1686147724446654,-0.21821895239538164,-0.15082406622220113,3.1171703107880067,3.128437014963628
2.171101715991047,-0.198367137828395,-0.15514380597506428,3.0886484939629755,3.098897972047872
2.1735886595374283,-0.18330272687420968,-0.1403093457431046,3.084049895894716,3.0926768926854593
2.17607560308381,-0.17781414311447652,-0.13505111871167008,3.089009711300573,3.0970692066316596
2.178562546630191,-0.16753619678330434,-0.12500392813809658,3.0747979235804825,3.081894973897945
2.181049490176573,-0.15725731132958926,-0.11016778719534726,3.055780144657417,3.061806508547631
2.1835364337229546,-0.14697750681528376,-0.10011951565160171,3.0463219850913354,3.0515084698841592
2.186023377269336,-0.141485206555854,-0.09007072326858268,3.036847037474394,3.041475090787574
2.1885103208157175,-0.1264152205185527,-0.08959822972333598,3.032144102990271,3.03610054379742
2.1909972643620987,-0.125709585166006,-0.0843368380456262,3.037001981450084,3.040772375135284
2.1934842079084804,-0.12979151365136493,-0.06949815786002045,3.0179022447268107,3.02149131881741
2.195971151454862,-0.13387262238064696,-0.04508220206548641,2.989210496517818,2.99254635326814
2.1984580950012433,-0.14274133433288122,-0.049396210077470304,2.9796575490996764,2.9834835652310603
2.200945038547625,-0.15639766909904035,-0.04892137146063069,2.9748785834814173,2.9793885476623565
2.2034319820940063,-0.16047643624122887,-0.04844610229591195,2.9652971826047088,2.9700314969002894
2.205918925640388,-0.15497765521443058,-0.05275881861796705,2.9509137346612446,2.9554514775191456
2.208405869186769,-0.16863176532728724,-0.04270591981349803,2.9413054330898767,2.94644499670171
2.210892812733151,-0.17270836597632566,-0.05180624174616577,2.9364726632925304,2.942003359723847
2.2133797562795325,-0.1672074764114378,-0.05611778038931048,2.9172621959907907,2.922588966242211
2.2158666998259138,-0.17128272909511022,-0.0556405482711777,2.90282802706688,2.908409221313806
2.2183536433722955,-0.18014573981946969,-0.05995136451389138,2.8979589410374995,2.9041715992036985
2.2208405869186767,-0.17943131766707981,-0.05947343491149315,2.8787133010902153,2.8849129895186856
2.2233275304650584,-0.193081498213927,-0.06857198181267021,2.8690335022058013,2.8763406992951195
2.22581447401144,-0.18757747712303396,-0.07767021091755089,2.8545547113900165,2.861765289451034
2.2283014175578213,-0.17728448319119916,-0.07240292455886532,2.8352773041944603,2.8417370327222846
2.230788361104203,-0.1669909385051141,-0.06713534494405815,2.815990058073419,2.8217358372554853
2.233275304650584,-0.16627366840216912,-0.0666558875927068,2.791904942420425,2.797646001134933
2.235762248196966,-0.16555588486876155,-0.06138775801612928,2.7725991351673676,2.7782158253418254
2.238249191743347,-0.16962600978235548,-0.056119371639183235,2.7532846028601785,2.7590756552539095
2.240736135289729,-0.16411885166916834,-0.05563914383925628,2.738750117258017,2.7442271984260294
2.2432230788361105,-0.14903442894623403,-0.05515868330556417,2.7289960453699837,2.733619058501082
2.2457100223824917,-0.13873796992128257,-0.05946640532032399,2.7144459461325026,2.718639599530393
2.2481969659288734,-0.14759470283167425,-0.06856232179775068,2.685523377047666,2.690449924630408
2.2506839094752547,-0.1516626292817969,-0.06808123464334992,2.656593910782563,2.6617903400602803
2.2531708530216363,-0.150941767406996,-0.07238836563667084,2.6228695052842665,2.6282062199107643
2.255657796568018,-0.15022053859221612,-0.08627212986873634,2.598715730340161,2.604483161343997
2.2581447401143993,-0.1399221541906464,-0.09536732910133994,2.58892134765395,2.594453098637865
2.260631683660781,-0.14398864872670997,-0.0996739750091975,2.5791215042029387,2.58506003135291
2.263118627207162,-0.15284323341161127,-0.09919207921890383,2.5741049587984746,2.580545768144867
2.265605570753544,-0.15690911938539226,-0.10349845994952345,2.5786604688026973,2.5855023141207916
2.268092514299925,-0.15618632435746127,-0.11738153205157831,2.583211580165604,2.5905896355626736
2.2705794578463068,-0.16025167260648732,-0.12168769372574006,2.5925470473449934,2.600343955340276
2.2730664013926885,-0.15473997173811038,-0.12120535972589241,2.5827252034217407,2.5901939453387786
2.2755533449390697,-0.15880485252859078,-0.12072294475751111,2.54895799330105,2.5567518186540648
2.2780402884854514,-0.15329271912002412,-0.1250288634776049,2.5343413936324968,2.542049797686272
2.2805272320318326,-0.14778039550461547,-0.1293347238540412,2.5101453298004115,2.5178157384544084
2.2830141755782143,-0.15184470560271762,-0.12406373048579233,2.4955237589299433,2.5032154232557495
2.285501119124596,-0.15112045666116758,-0.1140042978841378,2.500053830041585,2.5072103073861065
2.287988062670977,-0.15518447245631994,-0.10394484051168229,2.4950054641275994,2.5019870136327893
2.290475006217359,-0.14488315677052782,-0.103462176102596,2.480379000634751,2.4867600482936676
2.29296194976374,-0.1345817365561086,-0.09819110574070633,2.4609631808611105,2.466595531216068
2.295448893310122,-0.12906863205244973,-0.08813164042194321,2.441546744634171,2.4465437670430243
2.2979358368565035,-0.12355545678592295,-0.07807219441366531,2.4125532203483546,2.416976263734371
2.3004227804028847,-0.11804222753074306,-0.0680127786139928,2.383559748205715,2.3874498484369693
2.3029097239492664,-0.11731736430887862,-0.05795340387206016,2.373720273573796,2.377324104568832
2.3053966674956476,-0.11659248042904419,-0.04789408098798642,2.368669917101413,2.3720212532073774
2.3078836110420293,-0.1206559957678685,-0.05220003067375467,2.3588322012797462,2.362492765345818
2.3103705545884106,-0.11514271684794475,-0.04692924702975221,2.344207453761256,2.3475026700175947
2.3128574981347922,-0.11920627336119449,-0.04165854734939778,2.3247960007177557,2.3282229307197357
2.315344441681174,-0.11848147168442064,-0.036387942236303594,2.305386570159417,2.308715915686488
2.317831385227555,-0.11296832808236174,-0.03590584556516374,2.2955562919334973,2.298614748567263
2.320318328773937,-0.12660887534824866,-0.03542386452078761,2.280940277801248,2.284726068567208
2.322805272320318,-0.12588430635842512,-0.0349420095589954,2.2759040579601564,2.279650649476553
2.3252922158666998,-0.12037144379884623,-0.034460291086271244,2.256505934558402,2.259976953165951
2.3277791594130814,-0.1292239169228243,-0.029190316139417583,2.2371114348187575,2.241030670708912
2.3302661029594627,-0.1332881283478457,-0.02392049834646226,2.232086084474978,2.236190109070884
2.3327530465058444,-0.12298728725863667,-0.023439251285994,2.2222765845285695,2.225800640100557
2.3352399900522256,-0.12226342600866291,-0.022958181846515213,2.207683247771212,2.211185371230264
2.3377269335986073,-0.1263281569560128,-0.022477300187346394,2.1883063855025204,2.1920649783012185
2.3402138771449885,-0.13039309238522145,-0.02199661641828632,2.1689347108494097,2.172962031330287
2.34270082069137,-0.1296698445072087,-0.021516140599585842,2.1495685321245617,2.1535835454379213
2.345187764237752,-0.12894683209986108,-0.02582428606223175,2.130208156145846,2.1342635656754063
2.347674707784133,-0.12822407054704044,-0.03013265944698329,2.1156422915557824,2.119738591254215
2.350161651330515,-0.13707838179947462,-0.02965286734497674,2.1010828388598073,2.1057585025471766
2.352648594876896,-0.12677936117158606,-0.029173322938325974,2.081741697066108,2.085802623091173
2.3551355384232777,-0.10690383046644647,-0.03827084267978842,2.0624075703255063,2.0655309420349477
2.3576224819696594,-0.1061822246944869,-0.047368629691186825,2.0430807579698147,2.046386433571725
2.3601094255160406,-0.11982615555000542,-0.06125509700556453,2.0285499611517936,2.0330089619458147
2.3625963690624223,-0.11910521805177826,-0.060776641004692156,2.014027072883553,2.0184610234946
2.3650833126088036,-0.11838463702737156,-0.06508688458308542,1.994723984676578,1.99929362522688
2.3675702561551852,-0.11766442726936743,-0.07418583730425521,1.9993714097833495,2.0042042037078507
2.3700571997015665,-0.1169446034962644,-0.07370829872099671,2.0040276234311554,2.008789602985431
2.372544143247948,-0.1018599703915064,-0.07801948825819416,1.979962496024724,1.9841154149344953
2.37503108679433,-0.08677575248626412,-0.0823310120096834,1.9463299296691714,1.950002210738259
2.377518030340711,-0.09084557755784234,-0.10100808930073724,1.9366490349273775,1.9414080038856196
2.3800049738870928,-0.09970425006715206,-0.10532030952399252,1.9317664843352018,1.9372028946603574
2.382491917433474,-0.10377497772118327,-0.10484448858475615,1.9221057555651706,1.9277583220840693
2.3849788609798557,-0.09826937147298143,-0.10915744233849445,1.8933019214651932,1.8989903586936319
2.3874658045262374,-1.0791753361465495,-2.450211596942375,20.759548378573562,20.93148358712956
2.3899527480726186,-0.6858100489528107,-2.339603641199099,18.96384557758903,19.11992467850749
2.3924396916190003,-0.2828684702310667,-2.0183063380801447,15.956688083914251,16.086313115599747
2.3949266351653815,0.12007257940194521,-1.5389921331242897,12.015803566915732,12.11455527738627
2.397413578711763,0.48949426280208935,-0.9447566651802293,7.4859573409417814,7.561198787237298
2.3999005222581444,0.796666146220312,-0.2978491863274084,2.7358567354317396,2.8650136410035882
2.402387465804526,1.0224346026223083,0.3203274381229204,-1.89930974491977,2.1806787226460096
2.404874409350908,1.157222811688864,0.8858311827532224,-6.065199983643545,6.237829138556195
2.407361352897289,1.2010307598158003,1.3268359889926997,-9.464932705620047,9.632648636259187
2.4098482964436707,1.1490700301530445,1.6193998315235398,-11.86866428372005,12.033619971903148
2.412335239990052,1.0157058192062005,1.739580685077784,-13.161472772007741,13.314734875293842
2.4148221835364336,0.8105149202349922,1.6873785410388882,-13.290685469217241,13.421866525127731
2.4173091270828153,0.552650933214151,1.4819470041213378,-12.289820935353731,12.39117785362092
2.4197960706291965,0.25647905487274814,1.1424396790897058,-10.297742604976378,10.36409439769306
2.4222830141755782,-0.05405871134539886,0.7119521873595902,-7.477255930749303,7.511268502409167
2.4247699577219595,-0.34544355528119475,0.2240033437560287,-4.082146029929369,4.1028557076221075
2.427256901268341,-0.6033102799824089,-0.2591576169243166,-0.4284472644423065,0.7840363657066164
2.429743844814723,-0.832447301703655,-0.6944350731163005,3.2396320520865256,3.4162002888873615
2.432230788361104,-0.9897590034218788,-1.0578870164859804,6.6347879746418545,6.7911088411949665
2.4347177319074857,-1.0608801879616478,-1.3016294220484672,9.488870169988953,9.63630442796708
2.437204675453867,-1.0601760779948775,-1.4208738946516655,11.63428477311317,11.768578424038655
2.4396916190002487,-1.0068002994394183,-1.4012552324531762,12.960898757340546,13.075246065273893
2.44217856254663,-0.8959644615371649,-1.2523502501624346,13.382521111095382,13.470820492989025
2.4446655060930116,-0.7228801734556615,-0.9933125690798368,12.8895752744242,12.947987347851209
2.4471524496393933,-0.5114894642098371,-0.6528726170965269,11.582617962237943,11.612273807713509
2.4496393931857745,-0.29052276606076743,-0.2837028386558149,9.576571097907063,9.585176303622687
2.452126336732156,-0.06476849459350781,0.10940835505195246,7.04860584646431,7.0497524442251125
2.4546132802785374,0.15140812804057802,0.4785769230032533,4.209412194683311,4.239234756087067
2.457100223824919,0.3340650731236666,0.7711304209036558,1.2888337411206878,1.5386143153419956
2.459587167371301,0.4784139252936684,0.9727036310711452,-1.4832859171701758,1.8371633977110626
2.462074110917682,0.570089462621924,1.0880849491542275,-3.915410411193676,4.1035800881732944
2.4645610544640637,0.6234568831759943,1.0885439476089327,-5.839945390056957,5.973155662621146
2.467047998010445,0.6193625618554245,0.9836574255032193,-7.146757344208264,7.240672099382107
2.4695349415568266,0.5482296802744984,0.7973673919154418,-7.7544431855130735,7.814585059833571
2.472021885103208,0.4531538566451851,0.539250646012654,-7.648637473818942,7.68100220563208
2.4745088286495895,0.31976986940967456,0.23803760029225085,-6.877224013632237,6.888768017738372
2.4769957721959712,0.15765451368598288,-0.06796452605795,-5.5168170308769255,5.519487682263775
2.4794827157423525,-0.004461802052769637,-0.354813723762077,-3.6871263828521172,3.704161666203516
2.481969659288734,-0.166579089181211,-0.6033563868150207,-1.574899574835226,1.6947259935691947
2.4844566028351154,-0.3143321490390866,-0.7944389091624273,0.671423112967025,1.0866217727144292
2.486943546381497,-0.4429325895328305,-0.9136960880209912,2.8746709789349154,3.048731384898602
2.4894304899278787,-0.547592018494989,-0.932397510597228,4.872038529919774,4.9905893012258735
2.49191743347426,-0.5995800270826527,-0.8649083939313207,6.510297077923191,6.594810898091357
2.4944043770206417,-0.6084734329416539,-0.7447475682954718,7.669736756702539,7.729796295905333
2.496891320567023,-0.5838490536440188,-0.5671266373503112,8.302473748331568,8.342276828418495
2.4993782641134046,-0.535283706688056,-0.3416224146683131,8.394143056640438,8.418127593247467
2.501865207659786,-0.4484121928968333,-0.10654213369478738,7.9591101038962275,7.972443688539531
2.5043521512061675,-0.3471765395822876,0.11417218213489377,7.030893924163436,7.040386083848534
2.506839094752549,-0.22678835406089948,0.31094371939525445,5.714839599828563,5.727784092119543
2.5093260382989304,-0.09682445353655617,0.45504205142848164,4.106715405155983,4.132983143241255
2.511812981845312,0.023561538219708855,0.5464671715475107,2.3358084361719698,2.398996158011629
2.5142999253916933,0.1391580141118498,0.5804306697937913,0.5553478040253044,0.8152765780792129
2.516786868938075,0.22123454387500363,0.5377789262966202,-1.0814373816130098,1.227867137487737
2.5192738124844567,0.27457952055981594,0.4568191610777603,-2.4883556590330356,2.5447969555311047
2.521760756030838,0.3183465472510961,0.342339770965558,-3.5744271646789354,3.604867625659247
2.5242476995772196,0.3285935972240822,0.18476394287596865,-4.2774024563916,4.293982212430396
2.526734643123601,0.3005322571083755,0.0032452836953869024,-4.554185706765352,4.564092201208774
2.5292215866699825,0.25331613020821203,-0.15912058303953902,-4.3856231064665785,4.395813741930391
2.5317085302163638,0.1917336099399204,-0.30233366362656877,-3.8243868974365647,3.8411069449609094
2.5341954737627455,0.1109962831520867,-0.41681715767448013,-2.903995709802765,2.935855548278606
2.536682417309127,0.006315736766320579,-0.48820586142314726,-1.720217418324844,1.7881646506871256
2.5391693608555084,-0.08400081234029805,-0.5117113777049123,-0.3783967058665745,0.6419413817142218
2.54165630440189,-0.16953018042098178,-0.49212211594438493,0.9921797266421226,1.120421915634814
2.5441432479482713,-0.25506078033595786,-0.4246496788773464,2.300532403371724,2.3532600133430863
2.546630191494653,-0.30707379831040976,-0.3188708791522994,3.455681847033171,3.4839216384836686
2.5491171350410347,-0.34472285702033734,-0.18436252936968067,4.3810137888381675,4.398420762998693
2.551604078587416,-0.36800796578807615,-0.049855055363165146,4.999913958541688,5.013686765469973
2.5540910221337976,-0.35777552058233886,0.08943994032388769,5.293228924287336,5.306060240042999
2.556577965680179,-0.33796754718232586,0.23352245187565002,5.260958866045632,5.276972900129637
2.5590649092265605,-0.2990072480528246,0.33450844032107296,4.922257575616314,4.942663337892472
2.561551852772942,-0.23610622890677113,0.39718630326036797,4.3058556499891765,4.33057686565773
2.5640387963193234,-0.15884130534602325,0.42634443834148295,3.4309068780653593,3.460942378362421
2.566525739865705,-0.09594290618161866,0.4219828399397798,2.417121517024812,2.4555551279730103
2.5690126834120863,-0.028257426949618247,0.36973629251729,1.3267489827593266,1.377594378413019
2.571499626958468,0.0394267202841892,0.29833521046642897,0.2507691096392417,0.3917186623403003
2.5739865705048492,0.08795591356482185,0.19341437834428055,-0.7342034793674808,0.7643298460721272
2.576473514051231,0.13169535425110357,0.08370421063825395,-1.5707077760129406,1.5784400460066308
2.5789604575976126,0.156279823851591,-0.026006894718554108,-2.1677639502454147,2.1735455564352892
2.581447401143994,0.16170931390721988,-0.13571894306597798,-2.5157950298934457,2.5246374326124243
2.5839343446903755,0.16234902599125267,-0.22627832641539092,-2.60043564089898,2.615305834831435
2.5864212882367568,0.1294685318654294,-0.28810824337162666,-2.4456276371980303,2.46594059143137
2.5889082317831384,0.09658664652674903,-0.31642029581274045,-2.056159260874918,2.082604544787895
2.59139517532952,0.058914958480813406,-0.3160028922103906,-1.4607607720430282,1.4957108120749383
2.5938821188759014,0.006876652983918652,-0.2964328443095976,-0.7360464654443151,0.7935263819400138
2.596369062422283,-0.04995147135547795,-0.25771015716787904,0.06052297603716994,0.26939321674174704
2.5988560059686643,-0.10678101917841853,-0.19983483579594719,0.8858520780570842,0.9143686629868881
2.601342949515046,-0.15882359505523225,-0.1275952884780942,1.6585381382895008,1.6710039641332033
2.603829893061427,-0.18692559352469773,-0.05056832677226808,2.330697276233744,2.338727886401174
2.606316836607809,-0.2054522322972694,0.03124604445079049,2.849657206654099,2.857224725233455
2.6088037801541906,-0.22876872901299328,0.1082710137262235,3.181899256183554,3.191949344881428
2.611290723700572,-0.22814467135879823,0.14698775303403666,3.2986931533651145,3.309838653268357
2.6137776672469535,-0.2083684701935964,0.16176146760371557,3.228769465177436,3.239527195600357
2.6162646107933347,-0.18380534294684836,0.1765341693516338,2.9529747239904793,2.963951490421381
2.6187515543397164,-0.15924370033737723,0.17694064367787288,2.53834672053609,2.5494843833878655
2.621238497886098,-0.12989514637351363,0.1390388693879845,1.9800971943403702,1.9892183025718146
2.6237254414324793,-0.08618288167354171,0.08198245521641745,1.3308987233748955,1.336203586261388
2.626212384978861,-0.02810691342663707,0.020136606623156972,0.672154304135578,0.6730430075980667
2.6286993285252422,0.010813928005305673,-0.03692187420615145,0.023017688561376204,0.044832798490695575
2.631186272071624,0.044944845532987054,-0.09398139500106462,-0.5446849362774877,0.5545576809980555
2.633673215618005,0.0742858321754798,-0.1462535568047989,-1.0213766278638978,1.0344654192802605
2.636160159164387,0.08447167106012038,-0.184161557294642,-1.3735384284658707,1.3884015114041652
2.6386471027107685,0.08986756530520618,-0.1933401907820338,-1.5437093651340774,1.5583629913047137
2.6411340462571498,0.09047350813706373,-0.19773147809546687,-1.5654081293868352,1.5804384849322153
2.6436209898035314,0.08628949285086779,-0.18297021345557107,-1.4242693809185223,1.438564299922137
2.6461079333499127,0.07252710949020891,-0.14905640099864037,-1.1538118140032676,1.1656584810411594
2.6485948768962944,0.03960954484697188,-0.09599004481578044,-0.773188914328335,0.7801308236359779
2.651081820442676,0.00669040570340218,-0.042924762234250124,-0.31591937891340827,0.3188923810854951
2.6535687639890573,-0.011865104410205718,0.010139442744951044,0.18926649717328559,0.18990891488839734
2.656055707535439,-0.03999900845781956,0.06320256616574005,0.694484804216053,0.69850098663821
2.65854265108182,-0.07771131273373233,0.11626460411686246,1.1470632278153143,1.1555563832645028
2.661029594628202,-0.09627160354237707,0.15017193945054785,1.527848275452783,1.5382263116495578
2.663516538174583,-0.11483350032345385,0.16971297166523325,1.822474856572292,1.8339585132674558
2.666003481720965,-0.13339700916768338,0.18446450362421896,2.0022126693012527,2.015112276837859
2.6684904252673465,-0.13280852281693756,0.18006132163370125,2.0431198137346573,2.0553342201589584
2.6709773688137277,-0.1322216605081198,0.15650342200518397,1.959561615180018,1.9702430338143002
2.6734643123601094,-0.13642483144986017,0.12815601105536034,1.7419613809960417,1.7519889128323218
2.6759512559064906,-0.12626442818201966,0.08544227854355402,1.4382032570408008,1.4462612825314844
2.6784381994528723,-0.10652885977896598,0.03315062423412263,1.0818061778700159,1.0875440075374656
2.680925142999254,-0.08200653524810708,1.1464536917138446e-05,0.6775586567783893,0.6825033372300606
2.6834120865456352,-0.05269746020977428,-0.023552010656773703,0.27334483560806433,0.2793727235650203
2.685899030092017,-0.03296685017854095,-0.06627022469315946,-0.10689316173383645,0.13001809072983778
2.688385973638398,-0.022814710641540503,-0.08504755107005435,-0.4535784226309474,0.4620465154516903
2.69087291718478,0.006489372902357515,-0.09903760640574877,-0.7475572291535411,0.7541169473649069
2.6933598607311615,0.016638168536151854,-0.10824039399379215,-0.9265802348133221,0.933029336672154
2.6958468042775428,0.012420074291759953,-0.09350230380310265,-1.0145893542088515,1.0189644236850641
2.6983337478239244,0.01777710154830514,-0.0787653556421053,-1.0211612932961494,1.0243487655652983
2.7008206913703057,0.013555631867919749,-0.06402955267448407,-0.9175655327839856,0.9198967581876742
2.7033076349166874,0.009332466800284878,-0.04929489802084008,-0.7325323945372268,0.7342484531505034
2.7057945784630686,0.009896004640294054,-0.020196184797841354,-0.4852153950892326,0.48573634455312215
2.7082815220094503,0.0008810304669786273,0.00411297067851546,-0.19955645560010105,0.19960078084556976
2.710768465555832,-0.01771246061446219,0.014055758775646687,0.10050250146712791,0.10301479707754654
2.713255409102213,-0.026730860152484492,0.02399738650519012,0.39580795566943117,0.3974347131476887
2.715742352648595,-0.04053938287280301,0.03393785096042157,0.6624179819468594,0.6645244932265998
2.718229296194976,-0.05434963015508709,0.03430034263644499,0.8763906539454318,0.8787439752999014
2.720716239741358,-0.05858479999405719,0.025084858711343472,1.0233608506611755,1.0253432886564757
2.7232031832877395,-0.06282170360119677,0.011079799725753237,1.098540256443231,1.1003908503035087
2.7256901268341207,-0.057483538842408866,-0.01729164369846803,1.1067173609970222,1.1083441141233414
2.7281770703805024,-0.04257031016003643,-0.03129905433496605,1.0383154427859314,1.039658992572627
2.7306640139268836,-0.032447231893339756,-0.05009604811856283,0.8885461823157605,0.8905485697043987
2.7331509574732653,-0.02232590503645182,-0.07368262766104028,0.686140082059719,0.6904460788965711
2.7356379010196465,-0.02178314048073904,-0.08769358557151818,0.4406740299384868,0.44984249557130457
2.7381248445660282,-0.006876925811814316,-0.09212892437847842,0.1904553325263194,0.21167962703922993
2.74061178811241,0.008027524885595994,-0.09177704988923097,-0.05493912478908669,0.10726497785740736
2.743098731658791,0.013353400910333435,-0.0818495612290917,-0.2859324578818576,0.2977163657907089
2.745585675205173,0.028254311546183408,-0.06713486412274383,-0.48815938056390884,0.4935635490332195
2.748072618751554,0.02878823625704019,-0.047632960933413404,-0.6520430112224105,0.6544140508867943
2.7505595622979357,0.029320381132055484,-0.0233438539832993,-0.7488528562148513,0.7497901176527091
2.7530465058443174,0.04421595232297637,0.005732454446337076,-0.7881656497094713,0.7894257424582506
2.7555334493906987,0.04953292948147786,0.015653945513442125,-0.7651929171583038,0.7669542082695614
2.7580203929370803,0.045271308923069575,0.03036263361980618,-0.6655693786142081,0.6677978576491853
2.7605073364834616,0.03621949034567262,0.05943532324684364,-0.5371789985321112,0.541669350798362
2.7629942800298433,0.031954276829458284,0.07414159235392637,-0.3848101127187107,0.3931880903270803
2.7654812235762245,0.02289885823511395,0.07926984218296651,-0.2132510582116982,0.22865712194592444
2.767968167122606,0.01863003776618477,0.07960847401608673,-0.032078576596896724,0.08782723107796578
2.770455110668988,-5.801234229330099e-06,0.08473429249584319,0.12997697603458036,0.15515770898514616
2.772942054215369,-0.018643452119575743,0.07549368238290644,0.27291566229280306,0.2837777882629037
2.775428997761751,-0.032494514822832166,0.0614634483996932,0.39673754357067814,0.40278322639013747
2.777915941308132,-0.04155899253636608,0.05700879862868513,0.4775006634459267,0.4826841996305906
2.7804028848545137,-0.05541369503241833,0.03339931130918794,0.5152050808877515,0.5192518338587053
2.7828898284008954,-0.05490501210077359,0.028942211204391555,0.4954856436978865,0.4993578226621614
2.7853767719472766,-0.044821350072379196,0.014907076632516336,0.43749602171734026,0.44003857032598626
2.7878637154936583,-0.049104728499190564,0.005659115833854145,0.3460246736267507,0.349537372410304
2.7903506590400395,-0.04860153699030001,-0.013166882834014348,0.2067064436297823,0.21275109879729537
2.792837602586421,-0.04810018169647923,-0.02241730773229378,0.0434834013004366,0.06860735641207497
2.7953245461328025,-0.0332354554275448,-0.012515353823901787,-0.13885599825704098,0.14332556586587453
2.797811489679184,-0.0279493774962849,-0.021768249236095105,-0.3115812845217132,0.31358877728872153
2.800298433225566,-0.02266514391394958,-0.01665717225277863,-0.4459619881538526,0.446848145362869
2.802785376771947,-0.012594353952929516,-0.006758931002126545,-0.5467864642334721,0.5469732519682523
2.8052723203183287,-0.0025254134672479944,-0.00643873689421115,-0.6188430690144191,0.6188817165768904
2.80775926386471,0.01233007838850908,-0.0013313813789355144,-0.6860737732019437,0.6861858536030855
2.8102462074110917,0.022395312557447755,0.008563134171026388,-0.7101713055036694,0.710575935739568
2.8127331509574733,0.013305076720818598,0.01845640510073876,-0.6959240256727313,0.6962958519654773
2.8152200945038546,0.013789788500942146,0.023560026793167488,-0.6672739079024961,0.6678320906461925
2.8177070380502363,0.02863784897666788,0.014297191348771943,-0.6050672976586888,0.6059133360229515
2.8201939815966175,0.03869564268318226,0.01460991414785795,-0.5140925581600335,0.5157537791520288
2.822680925142999,0.039174764174326415,0.01970979068639478,-0.39913805377299205,0.40153994068673604
2.825167868689381,0.0444404213427233,0.015231609857138562,-0.2841457632889721,0.2880030690514103
2.827654812235762,0.04491580553677943,0.005963773871386913,-0.16432724671773435,0.17045949724095152
2.8301417557821438,0.026235704841751972,-0.003305315022414046,-0.049259275166072314,0.05590808086339355
2.832628699328525,0.012342133962357171,-0.007787254538790478,0.017962555884640352,0.023143530800323248
2.8351156428749067,0.01760030101949217,-0.017058852316294892,0.04691508634780028,0.05293203534106216
2.837602586421288,0.01806818762813711,-0.007178092714530848,0.0663287682934488,0.06911938890434426
2.8400895299676696,0.008957388740932992,0.0027014100607272162,0.04268480950672604,0.04369811657266113
2.8425764735140513,0.00942151596830132,-0.0017855548394702936,-0.019228356781676226,0.021486806969606878
2.8450634170604325,0.009883761054816254,-0.0014853749855059384,-0.08589187853219471,0.08647143961578042
2.847550360606814,0.005555719121200231,0.008390352127548795,-0.17645934133789076,0.1767460414526452
2.8500373041531954,-0.003562611335866328,0.018264819079804706,-0.27177710533450217,0.2724134556139794
2.852524247699577,0.006470784837311783,0.018561218487359366,-0.3718451450403055,0.3723643401001123
2.855011191245959,0.016502292966876442,0.023644759603730137,-0.4766634360709432,0.47753474388450623
2.85749813479234,0.012166701754351417,0.03351544175721255,-0.567078341854133,0.5681981690112996
2.8599850783387217,0.012617623198315164,0.03380805435076617,-0.6430898401883578,0.6441014916204174
2.862472021885103,0.017855056070776865,0.029311000104049967,-0.6951211033168576,0.6959678771544241
2.8649589654314846,0.018302192557601904,0.029601085092362478,-0.737537321165922,0.7383579718562434
2.867445908977866,0.018747434859879286,0.034678308785567324,-0.7607616681377252,0.7617823620442697
2.8699328525242476,0.00961397527185115,0.03496586404795998,-0.7408521097469691,0.7417390974498266
2.8724197960706292,0.0004786194228952878,0.03046375041938365,-0.6969622424605575,0.6976278639660369
2.8749067396170105,0.000918172996094202,0.03553717743540563,-0.648245663810858,0.6492196659616114
2.877393683163392,0.006144231767082453,0.031032531424063592,-0.6042791657509046,0.6051066680769618
2.8798806267097734,-0.002996818396143519,0.026526618669786117,-0.5411207180488944,0.5417788053443054
2.882367570256155,-0.01213976833030117,0.022019438850758632,-0.47313551808876575,0.4738031744717847
2.8848545138025368,-0.006919408819210826,0.017510991679415167,-0.42905397426456027,0.4294669089466822
2.887341457348918,-0.011277757156491153,0.01300127690230335,-0.38493405949200543,0.38531863589056514
2.8898284008952997,-0.01084960402076951,0.013278697620251911,-0.3407757643293543,0.34120691562767774
2.892315344441681,-0.020000159960249286,0.013554850327305523,-0.3205210969733212,0.3214304185524643
2.8948022879880626,-0.014787408908541577,0.009041331551207676,-0.3145932434112684,0.31507034442877807
2.897289231534444,-0.009576561309866949,0.0236801577751371,-0.32778060062013026,0.3287743641795546
2.8997761750808255,-0.009156020916133878,0.028740908992261005,-0.35050635664046226,0.3518019025163011
2.902263118627207,-0.013525788107451087,0.029011988471220995,-0.3875589104941337,0.3888785819794938
2.9047500621735884,-0.013109056572027544,0.03885860615443493,-0.44851506553961507,0.45038605956721095
2.90723700571997,-0.007905826587618514,0.0439155520954575,-0.5142212062255709,0.5161535883261527
2.9097239492663514,-0.002704501701423778,0.0489712296619631,-0.570312121328902,0.5724171655346562
2.912210892812733,-0.0022934854099749824,0.04923723561373805,-0.6407298271927928,0.6426229663657491
2.9146978363591147,0.007692432121899517,0.04950197338378182,-0.7015323079568248,0.7033187029989092
2.917184779905496,0.008099637537439586,0.0593422497578584,-0.738354355396595,0.740779495442256
2.9196717234518776,-0.001071869188821073,0.05960445163218164,-0.7799263921617072,0.7822013914257044
2.922158666998259,0.008908331889363463,0.06465378917732023,-0.8070948086855836,0.8097292763876425
2.9246456105446406,0.009309820924118806,0.05533664935369309,-0.819859609665663,0.8217777053975521
2.927132554091022,0.014497807999803936,0.04601824239579244,-0.8134323974575715,0.8148620314529138
2.9296194976374035,0.014895486648427547,0.05585218189018404,-0.7734479687506131,0.7756049910288336
2.932106441183785,0.015291260411938956,0.05131964493160224,-0.7382135577275655,0.7401532175257236
2.9345933847301664,0.025261936201393387,0.04678584184937584,-0.7125175762948057,0.7144986892550765
2.937080328276548,0.025653901054552897,0.056615983004162374,-0.6819948240390126,0.684821460080544
2.9395672718229293,0.03562076862005226,0.047291245584684116,-0.6418569081447583,0.6445817183252895
2.942054215369311,0.040797329352500133,0.04754204997476785,-0.6064690500308707,0.6096961351718136
2.9445411589156927,0.0363951803950785,0.04779159002664146,-0.5806196654242743,0.5837189744308996
2.947028102462074,0.03199112889965161,0.038463059623305096,-0.5595203643557358,0.5617525054796244
2.9495150460084556,0.032373578745287235,0.04349847592054479,-0.5527479677570444,0.5554011900128861
2.952001989554837,0.032754127217748175,0.04374422622182461,-0.5555140875349185,0.5581955675453681
2.9544889331012185,0.02355596832958362,0.03441190782186965,-0.5917607564494904,0.5932283337110242
2.9569758766476,0.02393271606210501,0.0394435379674718,-0.623180765024042,0.6248862564350819
2.9594628201939814,0.024307564521420688,0.03010869741202926,-0.6737161478688147,0.6748265253026193
2.961949763740363,0.01989211118041423,0.025561000141970602,-0.7290017139500904,0.7297208779784509
2.9644367072867444,0.02505156683945864,0.02101204357191655,-0.7650954665078054,0.7657938102694329
2.966923650833126,0.011055512462147754,0.0116734251461037,-0.8059394428948874,0.8060997945813929
2.9694105943795073,0.011422772221951538,0.0023335489788625097,-0.8563220680885628,0.8564014300966251
2.971897537925889,0.016576540455126798,-0.007007584106467846,-0.91145496132666,0.9116326203331323
2.9743844814722706,0.016940011543311706,-0.01156156993704549,-0.9378193228219178,0.9380435577032962
2.976871425018652,0.00772478323363035,-0.006540004311002878,-0.9497803868827006,0.9498343156779749
2.9793583685650336,0.012872873240022509,-0.0015196929585155061,-0.9425497754242187,0.9426389019578955
2.981845312111415,0.013230669438355935,-0.0012890382607020356,-0.9400695311672891,0.9401635153857606
2.9843322556577965,0.008798173030262868,-0.0058480392497672895,-0.9423396811104894,0.9423988974989074
2.986819199204178,0.018728998542926756,-0.01040829160914658,-0.9302066398461246,0.9304533845037374
2.9893061427505594,0.033446340625727156,-0.0006045843533502016,-0.9132472427589402,0.9138596990951615
2.991793086296941,0.033796587331296424,0.009197873609411822,-0.8962499227795266,0.8969340746545892
2.9942800298433223,0.024568143357464156,0.014210680039566714,-0.8696379037393083,0.8701009255915765
2.996766973389704,0.02491462340642614,0.024010642686350447,-0.8238344103270681,0.8245607224823673
2.9992539169360852,0.030047625622022567,0.038597762686103376,-0.7875698946470315,0.7890874387824396
3.001740860482467,0.0351787481910778,0.0483952345621117,-0.7704211963707159,0.7727408769244049
3.0042278040288486,0.025942782702563894,0.043826252865106774,-0.7628115427324857,0.7645097894340291
3.00671474757523,0.026281747350498375,0.04883283541528716,-0.7599525651267243,0.76197327860049
3.0092016911216115,0.036195643769664554,0.063414983458431,-0.7666327024236868,0.7701021264614055
3.0116886346679927,0.041319263676015794,0.05884227834543543,-0.7732751843635164,0.7766107171704754
3.0141755782143744,0.032075802147705224,0.059056737977478235,-0.7942452581142998,0.7970834871084772
3.016662521760756,0.037195680867052494,0.06405836368087758,-0.8295429617051351,0.8328436335514383
3.0191494653071373,0.037525288354696706,0.0690587534881919,-0.8600147207013595,0.8635986211907031
3.021636408853519,0.023487819813125865,0.06448110213807112,-0.8904489780829223,0.8930895099492743
3.0241233523999003,0.023813697048330473,0.05032541103604782,-0.9256341776383561,0.9273070526936008
3.026610295946282,0.028926115344581338,0.05053369821532572,-0.9607819573197052,0.9625447232806014
3.029097239492663,0.02924827002670849,0.055529158492883646,-0.9958923591990008,0.9978679972087664
3.031584183039045,0.019991759780191076,0.06531179335213944,-1.0261770228231608,1.0284476568985839
3.0340711265854265,0.025098603252497576,0.07509320098186922,-1.0516359918501426,1.0546123401864607
3.036558070131808,0.030203592568488258,0.07050817295574197,-1.0483272941226183,1.0511297612854709
3.0390450136781895,0.025729923213005046,0.06113351747435969,-1.049769798108791,1.0518630922932446
3.0415319572245707,0.026042807311898675,0.05654604276355135,-1.0463867431713982,1.0482370433493313
3.0440189007709524,0.03114224706930513,0.051957347113278374,-1.0190245628053667,1.020823425021313
3.046505844317334,0.03145143808773532,0.05215583547905922,-1.001202127797427,1.0030529023129342
3.0489927878637153,0.03175878596941384,0.047564702880255716,-0.988131083135686,0.9897848548574797
3.051479731410097,0.03206429303480529,0.03339554768116271,-0.9702346712472831,0.9713386118049
3.0539666749564782,0.03236796164270339,0.028801984872128816,-0.9666665552361611,0.9676370540061102
3.05645361850286,0.04224660083063159,0.038572419506895717,-0.9774267856753891,0.9790994475455911
3.0589405620492416,0.04254659975211683,0.024399626780579275,-0.9737849939620542,0.9750193687323223
3.061427505595623,0.03326796087959938,0.01501402839671373,-0.9605296354768385,0.9612228455977584
3.0639144491420045,0.043141106644817295,0.015204029481150183,-0.9568143762982579,0.9579071292594222
3.0664013926883857,0.04343561967297238,0.015392825222550144,-0.953062463315371,0.9541759015535186
3.0688883362347674,0.03893990586843521,0.015580417473788799,-0.9684275640670048,0.9693353457511249
3.0713752797811487,0.03923077449264745,0.015766808111182584,-0.9981213302138308,0.9990164341656922
3.0738622233275303,0.034731421562333664,0.015951999034341302,-1.0565090274166558,1.0572001054340754
3.076349166873912,0.0398070597320892,0.0113475888457093,-1.0765530656053723,1.0773485382370231
3.0788361104202933,0.04488088509103072,0.016318789451978954,-1.0965607284666188,1.097600122062208
3.081323053966675,0.045164497084445254,0.016500392860815616,-1.1021668638689626,1.1032152512416589
3.083809997513056,0.045446301833877656,0.0023155944228974157,-1.107736740303702,1.1086710125851484
