Time (s),Acceleration x (m/s^2),Acceleration y (m/s^2),Acceleration z (m/s^2),Absolute acceleration (m/s^2)
0.0,-0.5284507505608511,0.3518724800757116,3.939700927811664,3.990528516199708
0.002486943546381497,-0.46942770657612454,0.25684098637057984,-2.492523056733372,2.549313800285992
0.004973887092762994,-0.5205382252350959,0.2288473456982909,-9.001359318867909,9.01930156602684
0.007460830639144491,-0.6674171542478233,0.2774684014583959,-15.021776516102788,15.039155696758025
0.009947774185525988,-0.8956993413159967,0.39791578708344977,-20.079722969076876,20.10362874703265
0.012434717731907486,-1.1766544241707282,0.5758243293585108,-23.820857081473708,23.856850617552137
0.014921661278288981,-1.5102824604540916,0.7968288550609566,-26.029700953297205,26.085651631743733
0.01740860482467048,-1.8582762812334839,1.0321989809987355,-26.63921718750683,26.723894136838087
0.019895548371051976,-2.2014823308441027,1.2675695339314343,-25.721232083371426,25.84637376621768
0.022382491917433474,-2.5159586502861186,1.493363743928845,-23.43855160326059,23.620454789447646
0.02486943546381497,-2.7825516838640345,1.6952164377295296,-20.092845405842265,20.355313535959095
0.02735637901019647,-2.9821078758651023,1.8491856354197072,-16.057609199592903,16.436522384750063
0.029843322556577963,-3.119415687159625,1.9552713736746266,-11.701550289666923,12.267033853202372
0.032330266102959464,-3.1753215619965642,2.0134736891562013,-7.398164384531809,8.298769763016654
0.03481720964934096,-3.16419076784603,2.01421581187158,-3.5161587893220343,5.141258715902374
0.03730415319572246,-3.0620813455933296,1.9862281983754646,-0.357203162669407,3.667293105612575
0.03979109674210395,-2.8977237726236424,1.891203658722434,1.863224096583611,3.9300201494754616
0.04227804028848545,-2.685483316336388,1.7578726494348877,3.034989462670712,4.417363233024263
0.04476498383486695,-2.430148437464275,1.6149656270178678,3.167669492868132,4.306723281174067
0.04725192738124844,-2.160449613314235,1.4433290147551394,2.3235131810158407,3.4856067877570496
0.04973887092762994,-1.8763869012427241,1.2764816724349424,0.6413839741245475,2.3583058888705213
0.05222581447401144,-1.6114791818185354,1.1192120399038896,-1.6871822442203062,2.587679398401709
0.05471275802039294,-1.3753033189777926,0.9667317503474107,-4.403611943892157,4.713579069954249
0.05719970156677443,-1.177436176624263,0.8477712601717686,-7.2541199980224835,7.397792170999839
0.059686645113155926,-1.037031425268731,0.7766958158001391,-9.999286489635958,10.08287760855464
0.062173588659537427,-0.9636659287464988,0.7343518403905636,-12.394903098363724,12.45397717460324
0.06466053220591893,-0.9525513408958282,0.7255277736789034,-14.26379915024257,14.313969079395223
0.06714747575230041,-1.003687718837944,0.7358584420952368,-15.500630021029796,15.550511494243496
0.06963441929868192,-1.097921506374231,0.7749206886458759,-16.02878150631492,16.08501695010091
0.07212136284506342,-1.2400411638678002,0.8475029529907032,-15.862619064678238,15.933569811392175
0.07460830639144492,-1.4108931350391283,0.948816868122069,-15.073968994443213,15.169555502161849
0.0770952499378264,-1.6056890735273157,1.0501320504030622,-13.758599610428819,13.891726961188835
0.0795821934842079,-1.8100638262872943,1.1514485360901643,-12.064951663865937,12.25419207609867
0.0820691370305894,-2.004863836908897,1.2575547647308971,-10.18934993907164,10.46058197098525
0.0845560805769709,-2.1805123555765684,1.3492971592411647,-8.265869977076525,8.654469564028371
0.0870430241233524,-2.317855825786885,1.4123105458263476,-6.4621061420255455,7.008986552832784
0.0895299676697339,-2.436047917550451,1.4609601705820807,-4.93128758796945,5.690898993295407
0.0920169112161154,-2.4919930576641116,1.4904576662903497,-3.778759435617147,4.7655551960621985
0.09450385476249688,-2.5048449160378548,1.4912262623796488,-3.0524059656897773,4.220803951664896
0.09699079830887838,-2.498545565849841,1.463265994885142,-2.776169442157311,4.011358135093792
0.09947774185525989,-2.4252110304201917,1.425730513088511,-2.959626918873898,4.083350038503483
0.10196468540164137,-2.31836018945976,1.373831449634369,-3.526164189767771,4.4380221623237714
0.10445162894802287,-2.1923583093423638,1.29799203381074,-4.432685871843635,5.112721615228118
0.10693857249440437,-2.0472054464238867,1.2221543181107863,-5.569058935450743,6.057980582972203
0.10942551604078588,-1.8876900603223203,1.1463183383882902,-6.796419930840038,7.146239806575531
0.11191245958716736,-1.7186006105962448,1.0656957271381355,-8.014212634643142,8.26540377687963
0.11439940313354886,-1.5543023633842488,1.0042285367377297,-9.136246033265508,9.321766054304302
0.11688634667993036,-1.4235257947240487,0.9523399962821788,-10.052387096318444,10.197247839049172
0.11937329022631185,-1.32148255734816,0.9196069481069615,-10.700386826418582,10.820825815221976
0.12186023377269335,-1.2481727072452034,0.8964526212246675,-11.04672664590126,11.153104141828734
0.12434717731907485,-1.2083847036587168,0.8685118412851782,-11.07704159017457,11.176553887533764
0.12683412086545634,-1.211695409085961,0.8693034670983488,-10.824850727635948,10.927089619743663
0.12932106441183785,-1.238951266034553,0.903615937508252,-10.323673126463722,10.436941545500616
0.13180800795821934,-1.2997291368650272,0.9331420614314874,-9.626181467893119,9.758248797240078
0.13429495150460083,-1.394029077227158,0.9722470842626811,-8.804202046210941,8.966747187889096
0.13678189505098234,-1.5122743360587902,1.0257194447096774,-7.943926365429972,8.151382713756668
0.13926883859736383,-1.625734548944027,1.064828758191223,-7.102815509401006,7.363889004356922
0.14175578214374532,-1.7296213679948873,1.1039402699612306,-6.343118965049667,6.666740762999514
0.14424272569012683,-1.838300058529812,1.147842418584591,-5.746239832332211,6.14134851101728
0.14672966923650832,-1.9421938691896972,1.1869584326161264,-5.32654356446462,5.792499779060508
0.14921661278288983,-2.0269376452179793,1.2069231372404727,-5.103184017722105,5.622066061115124
0.15170355632927132,-2.0829546351001054,1.2173133741932214,-5.085738241472958,5.6289684067025245
0.1541904998756528,-2.1006680872420653,1.2229175818383085,-5.269418074853052,5.803025131111749
0.15667744342203432,-2.1040200732114287,1.2141589885266597,-5.596762920198161,6.101216083929642
0.1591643869684158,-2.0834338412518245,1.1958260325173335,-6.043831002804415,6.503736592250589
0.1616513305147973,-2.029332639523983,1.182283958656487,-6.581892144360673,6.988368230190118
0.1641382740611788,-1.9560817327061621,1.1591675918141444,-7.110390116458996,7.465090278032592
0.1666252176075603,-1.8828347887117578,1.1121117568053558,-7.600594740198876,7.908912681648897
0.1691121611539418,-1.7808614421647353,1.0794237149129113,-8.018987433057159,8.284973294105063
0.1715991047003233,-1.674103764125063,1.0467382908397467,-8.33204961220322,8.56278781722306
0.1740860482467048,-1.5769270189235236,1.004478712551979,-8.520627904454848,8.723346616589055
0.1765729917930863,-1.4893312608402784,0.9717986278797559,-8.560780532991906,8.743538386243767
0.1790599353394678,-1.4113165440647013,0.9582748779540444,-8.476449753874732,8.646404198233597
0.18154687888584928,-1.3333061160536084,0.9447538839246765,-8.286789419515634,8.446368686228004
0.1840338224322308,-1.288818854053622,0.9360240834830764,-8.006164978673905,8.163079859291402
0.18652076597861228,-1.25870119869379,0.9368739142599947,-7.658518686411716,7.8176064053475764
0.18900770952499377,-1.2525300104298043,0.947303410504498,-7.282158007409436,7.449566458758396
0.19149465307137528,-1.2703053429804023,0.9625242030832697,-6.8962367927184225,7.0780089295768
0.19398159661775677,-1.3120272499668943,0.9921131327611594,-6.515120489717052,6.7195609208030715
0.19646854016413826,-1.363330574951141,1.016916620317689,-6.201058578629167,6.43007909475967
0.19895548371051977,-1.419426968036024,1.0369346997494746,-5.977993312753512,6.2310842183730895
0.20144242725690126,-1.4707396759034257,1.0569558083086092,-5.845924928419768,6.1200546601900125
0.20392937080328274,-1.5268455584147187,1.0721915765410404,-5.809642064905486,6.101867997455828
0.20641631434966426,-1.5877446686878107,1.0874304415671325,-5.8547797478296335,6.162944425661283
0.20890325789604575,-1.6486486564163907,1.0978840337997429,-5.947819389147718,6.268966998628841
0.21139020144242726,-1.69519236454855,1.0939755802638542,-6.103126433631303,6.427955506063066
0.21387714498880875,-1.722587442566971,1.085281921197462,-6.287182292456894,6.608616006725689
0.21636408853519024,-1.7260455398472434,1.0718030901290287,-6.476045183044871,6.787279004319432
0.21885103208157175,-1.724720322258375,1.0487507171971295,-6.674503742335926,6.973058042443703
0.22133797562795324,-1.709035035638304,1.0304900457513497,-6.863404590262794,7.147659271193069
0.22382491917433472,-1.6789897323553562,1.0122327057891192,-7.033171152987718,7.301309337320427
0.22631186272071624,-1.6345844646665797,0.9987671338769268,-7.150284839655427,7.402430374414088
0.22879880626709773,-1.5853960913573357,0.9805165565481009,-7.195592268950975,7.433131344537314
0.2312857498134792,-1.5218478578183912,0.9670578135443417,-7.188247285696512,7.410946009613541
0.23377269335986073,-1.4583050259277035,0.9583909378931952,-7.118673314362223,7.329439030041428
0.23625963690624222,-1.404344454127528,0.9401507525870914,-6.9772937789834835,7.179045567599529
0.2387465804526237,-1.3503893874624575,0.9267025004655116,-6.80720453967964,7.001454325150981
0.24123352399900522,-1.301228280820598,0.922834617651844,-6.6323478428446325,6.821499591646239
0.2437204675453867,-1.2664379922919389,0.9141819269121199,-6.433570304540817,6.620454716051052
0.24620741109176822,-1.2460185732064066,0.9007444608965629,-6.249179380220886,6.435537723826119
0.2486943546381497,-1.230393268132869,0.9016758654592656,-6.088752104957653,6.276925135465983
0.2511812981845312,-1.224350531479701,0.8930341564935,-5.961865513361305,6.151453862950249
0.2536682417309127,-1.2422556241734823,0.8891845763763999,-5.882885042895182,6.078008281877886
0.2561551852772942,-1.279320193736138,0.8997039640855253,-5.81829209734777,6.024836123178106
0.2586421288236757,-1.3068138709636459,0.8910735286357403,-5.796817323195352,6.008732445805527
0.26112907237005717,-1.329525109768811,0.896812125445781,-5.823249349831874,6.040044867065947
0.2636160159164387,-1.3666075738990409,0.8977661733298237,-5.835339159681636,6.060097645378949
0.2661029594628202,-1.4036961037322637,0.88435889766094,-5.871394204405764,6.101288660195877
0.26858990300920166,-1.4360023461587712,0.8805323469720472,-5.950568321889934,6.184391910747376
0.2710768465555832,-1.4731031579005736,0.8814981497912411,-6.044131316318044,6.2831994454098385
0.2735637901019647,-1.4958449756276457,0.8728911279224418,-6.104199378089692,6.345135235736649
0.27605073364834615,-1.504227849160096,0.8594997163666707,-6.145137940261087,6.384681784510444
0.27853767719472766,-1.5078286348266017,0.8509007533605129,-6.190889242017214,6.428428181989514
0.2810246207411092,-1.5114357855025364,0.847094270414587,-6.227088295464364,6.463639491507565
0.28351156428749064,-1.4863189306871623,0.8385034923129551,-6.22500490222737,6.454681874662364
0.28599850783387215,-1.4707853462292664,0.825128450393785,-6.175062476687442,6.401206377342105
0.28848545138025367,-1.4456814679981136,0.8117575792284522,-6.091626449298202,6.313228815126015
0.2909723949266352,-1.4062189416872177,0.8127561199412727,-5.998639056620457,6.214635528659285
0.29345933847301664,-1.3715514294540538,0.8089704903261123,-5.905677324716384,6.116584932911927
0.29594628201939815,-1.3321021733957155,0.8004007213692492,-5.82710668242653,6.0307801985741385
0.29843322556577967,-1.2926596254308256,0.7966236506081779,-5.7725041547249685,5.968867762335189
0.30092016911216113,-1.258012237337701,0.7976393088497895,-5.708351136152608,5.8994996355562686
0.30340711265854264,-1.2233716541128388,0.8034477268104343,-5.634647843938005,5.821634029978082
0.30589405620492416,-1.2031031338919016,0.804472128474736,-5.580124914672888,5.764757290608712
0.3083809997513056,-1.1828415147457159,0.795924141055971,-5.535205757823675,5.715864944937555
0.31086794329768713,-1.1769520545231424,0.7921690049564498,-5.49510218561014,5.675288177824742
0.31335488684406865,-1.1806463976470833,0.7979951538450942,-5.474179622962264,5.656621317208053
0.3158418303904501,-1.179559381754241,0.8038258113365742,-5.486803494234897,5.669436378900783
0.3183287739368316,-1.2024214742176935,0.8048726042720156,-5.494666786680275,5.68198912419012
0.32081571748321314,-1.2252907057397922,0.7915587560778308,-5.512134923490878,5.7018886338355985
0.3233026610295946,-1.2338019135153724,0.7878263133276826,-5.5392081173110235,5.729377281053327
0.3257896045759761,-1.2518971611527872,0.7984637092185121,-5.547156160271966,5.742450022724151
0.3282765481223576,-1.2795764955090037,0.7947405536090688,-5.555132877112918,5.755730174164769
0.3307634916687391,-1.2976863500090836,0.791022086144386,-5.548773268731802,5.7531374563416025
0.3332504352151206,-1.311015174528165,0.7825199330911907,-5.513712335423497,5.721199345533189
0.3357373787615021,-1.3147746121484554,0.7788109305795732,-5.48346911007908,5.6924170813048995
0.3382243223078836,-1.3185415157599734,0.7846835113212198,-5.458043801736631,5.669613927190957
0.3407112658542651,-1.3175275281378633,0.7761956880073353,-5.413494602217991,5.62532508764832
0.3431982094006466,-1.306944291902525,0.7677126997925072,-5.392917349210881,5.601878587311493
0.34568515294702806,-1.2867918528391238,0.7688113824113889,-5.367581829976006,5.572956030308065
0.3481720964934096,-1.266647063217109,0.7651265548969433,-5.303969427827646,5.50653294906108
0.3506590400397911,-1.2560867751487965,0.7710234561033831,-5.240387575254891,5.443702149773731
0.3531459835861726,-1.2311690173463972,0.7673485015416102,-5.191201687511644,5.390099798010755
0.35563292713255407,-1.2014706416056162,0.7588901232224721,-5.1420467592925885,5.3347999771796735
0.3581198706789356,-1.181356902882996,0.7552251563750236,-5.088134591291981,5.277791468778678
0.3606068142253171,-1.1516742327326521,0.7611420328054148,-5.062984210121872,5.2478090518221885
0.36309375777169856,-1.1267878857898883,0.7526987642948471,-5.047442205222488,5.226172517664825
0.36558070131808007,-1.1066979065673062,0.7394721857631559,-5.031931972022674,5.2049917138245085
0.3680676448644616,-1.086615936094684,0.7406159386667754,-5.011665308615951,5.181315984068798
0.37055458841084304,-1.0713304218791677,0.7369764377951411,-4.991430819077271,5.158029155049767
0.37304153195722456,-1.0656298112639002,0.7285537111139717,-4.98080551013911,5.145364995261696
0.3755284755036061,-1.0599373414663542,0.7201361898038681,-4.965424371266048,5.12810905563277
0.37801541904998753,-1.0638298628197864,0.7260891115801658,-4.950076004534081,5.114899004442466
0.38050236259636905,-1.0725190155303261,0.7224704874893493,-4.9491258179865,5.115281713281076
0.38298930614275056,-1.0764280363168837,0.7236455550336016,-4.948208799067924,5.115381757587809
0.385476249689132,-1.0755569683713724,0.7344027449672244,-4.94253674118333,5.111246386349884
0.38796319323551354,-1.0938478713189403,0.7355884713352596,-4.865072193889953,5.040488172440395
0.39045013678189505,-1.1073587714125779,0.727202761355856,-4.854679048831384,5.032193952135624
0.3929370803282765,-1.1160897113371129,0.7379760620604543,-4.839531450867014,5.021088485165124
0.395424023874658,-1.1152523302866442,0.7439663838480419,-4.824417997287405,5.007223058048876
0.39791096742103954,-1.1192118805654163,0.7355969469690922,-4.799762074725043,4.983116903701726
0.400397910967421,-1.104026387743394,0.7368097948063874,-4.779929085713507,4.960794795494601
0.4028848545138025,-1.0984263137415238,0.7332397440699057,-4.750554012160757,4.930714381452262
0.40537179806018403,-1.102411700385754,0.7248868213198401,-4.716425448549019,4.897493386681743
0.4078587416065655,-1.096828976046998,0.7213278596458661,-4.667966778689324,4.849047486955018
0.410345685152947,-1.0673129722420391,0.7177744820651648,-4.65306222552301,4.827561005560593
0.4128326286993285,-1.0473825535156944,0.7094383114829508,-4.638193154829461,4.807613615164565
0.41531957224571003,-1.0514029709557913,0.6963193740123785,-4.608994544949482,4.778403456525384
0.4178065157920915,-1.045855442270656,0.6927829056147659,-4.589408600063445,4.757776062276943
0.420293459338473,-1.035528411554103,0.6892521255366901,-4.560281893742845,4.726897347530559
0.4227804028848545,-1.0108451127613705,0.6905154628720969,-4.52640301543159,4.689023747494483
0.425267346431236,-0.9909591995913116,0.6869961366400301,-4.506925763802302,4.665441422570638
0.4277542899776175,-0.9806591156029612,0.6834825757061218,-4.477908306909528,4.6347064132907505
0.430241233523999,-0.975156497535243,0.6847632088212687,-4.4393508286710865,4.596484159318192
0.43272817707038047,-0.9696629819469862,0.6812612546603125,-4.41040712554476,4.566842914828104
0.435215120616762,-0.9689670118569509,0.6729767384232257,-4.371923766681569,4.528301246847532
0.4377020641631435,-0.9587034168213607,0.6694864918347387,-4.347842950368149,4.502339694563277
0.44018900770952496,-0.9580258494567511,0.6660021365424063,-4.338164857539429,4.492331989657095
0.4426759512559065,-0.9621459455956384,0.6673121007178053,-4.333312861736667,4.488722604269834
0.445162894802288,-0.9710637442078187,0.6638396024546085,-4.328498739065532,4.485482041787026
0.44764983834866945,-0.9704140741185461,0.6651614730104127,-4.304569054911989,4.462449776628374
0.45013678189505096,-0.964985377250156,0.666489333564199,-4.285466003783208,4.443042164963449
0.4526237254414325,-0.9739313053011924,0.6630348051769148,-4.2807665694610435,4.439945918875245
0.45511066898781394,-0.9780982832224208,0.6547979121114429,-4.256952105077364,4.416681761489133
0.45759761253419545,-0.9774863490600262,0.6417786785119441,-4.21881118955662,4.377867892926805
0.46008455608057697,-0.9864607506347611,0.6239771284035176,-4.171132401050604,4.331373659291908
0.4625714996269584,-0.9810795090179736,0.62054689897311,-4.12349272025606,4.2837819354916755
0.46505844317333994,-0.9757078716560733,0.6171228040457497,-4.0854691270916845,4.245456912336316
0.46754538671972146,-0.9655574725262607,0.5897628506857797,-4.0522733907345625,4.2072605203452405
0.4700323302661029,-0.9506283487375691,0.5767742890012166,-4.023905682898755,4.174707149338895
0.47251927381248443,-0.935708940530352,0.5781571424168686,-4.009942981153028,4.158059597313933
0.47500621735886595,-0.9255876879554644,0.5795462242755798,-3.9864434390354404,4.133317999718329
0.4774931609052474,-0.920264627553448,0.5713647511191644,-3.9725608391758076,4.117594477908279
0.4799801044516289,-0.9101629890337243,0.5631895526490351,-3.977872156769724,4.119350195652664
0.48246704799801043,-0.8952828085553547,0.5550206518040186,-3.9688587363338748,4.106265809734855
0.48495399154439195,-0.885200928726557,0.5468580714006779,-3.959885954789476,4.094304728450655
0.4874409350907734,-0.884705788643289,0.5434902374533277,-3.941377171655155,4.0758483754809145
0.4899278786371549,-0.8746438106075273,0.5449171725331121,-3.918120955607,4.051371168274051
0.49241482218353644,-0.8645918366502373,0.5319852858067742,-3.8901174711949125,4.020390693454188
0.4949017657299179,-0.8497614986481015,0.5190598095598056,-3.8669436888011663,3.9930904300859633
0.4973887092762994,-0.8445180415652502,0.5157175726336607,-3.8390229647161593,3.9645015652500897
0.4998756528226809,-0.8440730968903146,0.5028049838239146,-3.8111438643782716,3.9357451390607494
0.5023625963690624,-0.8436382959172313,0.5042640816846733,-3.788094952410619,3.913524141601049
0.5048495399154439,-0.8480020763854319,0.5105180814033012,-3.769876389298469,3.8976536818429333
0.5073364834618254,-0.8380108592372224,0.5072017947220246,-3.751699931386973,3.877469308187722
0.5098234270082069,-0.8376066951017331,0.4895268398986028,-3.728777334199254,3.852921217816224
0.5123103705545884,-0.8372128111694978,0.48143525498731377,-3.6915319491138856,3.8157716555448644
0.5147973141009698,-0.8464060477154778,0.487715464635575,-3.6495407399642534,3.778017626310505
0.5172842576473514,-0.8508212282158408,0.47963707012274726,-3.626745879716104,3.7559598184027987
0.5197712011937329,-0.8360931759491201,0.48114210912550814,-3.613570717262265,3.7401126796792834
0.5222581447401143,-0.8357407471989426,0.482653795951981,-3.6004386006627414,3.7275428100047066
0.5247450882864959,-0.8401871681677003,0.47459534478367504,-3.568196070501985,3.696373684625217
0.5272320318328774,-0.839855664858977,0.4952740028783733,-3.535996893089999,3.667959637682101
0.5297189753792588,-0.8299578663974811,0.5159593708823924,-3.5229948338977692,3.6560274523130682
0.5322059189256404,-0.8200706116692973,0.5222862592756647,-3.4908828177115367,3.623749659088699
0.5346928624720219,-0.8149823360402677,0.5238314950121334,-3.4636030116385985,3.5965457685752127
0.5371798060184033,-0.8051162647150043,0.5205950982773397,-3.4603091786209816,3.590678357595908
0.5396667495647849,-0.804837639299033,0.5269422990897632,-3.4426942409100754,3.574573463869199
0.5421536931111663,-0.7949928779546919,0.5332963107381041,-3.410758346470967,3.5425543226698615
0.5446406366575478,-0.7803704152445364,0.539657153023251,-3.398020465660263,3.527995310774106
0.5471275802039294,-0.7753354921700626,0.5364480389768254,-3.3661735181773356,3.4957182063803507
0.5496145237503108,-0.7703113329291853,0.5428226014234707,-3.329582859390632,3.460369625315073
0.5521014672966923,-0.750932758197161,0.5492040531369007,-3.307402247132716,3.435758245810397
0.5545884108430739,-0.7507186216497022,0.5412272034412617,-3.2804782118156943,3.4085249937229407
0.5570753543894553,-0.7505153402360986,0.5380456847734338,-3.248810896273195,3.3775048000819274
0.5595622979358368,-0.7359577340226565,0.5300827095187781,-3.2363424590789336,3.3610316835215364
0.5620492414822184,-0.7261994461142685,0.517338296573445,-3.2239194280606576,3.3449455940665374
0.5645361850285998,-0.721240506130676,0.5189660779848166,-3.197176733501573,3.3183509041429544
0.5670231285749813,-0.7115041368468012,0.5206008624278851,-3.184844934701191,3.3046180797185327
0.5695100721213628,-0.7017787707940212,0.5030890551269511,-3.1581937502471114,3.274107482143127
0.5719970156677443,-0.7160064535801979,0.49516109437888867,-3.1315885277399804,3.250337899054135
0.5744839592141259,-0.7158799874440891,0.49202859510765906,-3.1098178072684846,3.2288609584853187
0.5769709027605073,-0.7061878043019529,0.484114768786017,-3.0833049180874603,3.199974615868675
0.5794578463068888,-0.7156603524660308,0.47141963339628834,-3.061626801858541,3.179302578349826
0.5819447898532704,-0.7155672401989759,0.4778852233911435,-3.0399951894064703,3.1594274028051452
0.5844317333996518,-0.6963316888386017,0.47478113656844156,-3.0231986173191725,3.138474920766868
0.5869186769460333,-0.6866841460788773,0.4716841971570145,-3.0256024279462927,3.1381987110949865
0.5894056204924149,-0.6770478328446898,0.47817122925401767,-3.028053139514956,3.139450160166963
0.5918925640387963,-0.6626343731744196,0.4750886369029117,-3.0113972693705406,3.1198248411407445
0.5943795075851778,-0.6434437942197047,0.4815900505776929,-2.980423350576837,3.086887144324997
0.5968664511315593,-0.6338413328858437,0.4641566640968149,-2.9447083186334435,3.047704599518954
0.5993533946779408,-0.6290386125893861,0.45630731763086807,-2.9042523015135,3.0064243504698935
0.6018403382243223,-0.6194588532188554,0.4532536246555732,-2.878209039584249,2.97880099950284
0.6043272817707038,-0.6146788877361016,0.4358419885532121,-2.8617902557229282,2.9593296270887453
0.6068142253170853,-0.6051219356135993,0.4328028457765689,-2.8502076719170795,2.9457044375374837
0.6093011688634667,-0.6003648293967468,0.43934780940349727,-2.819519395982052,2.9160168124212236
0.6117881124098483,-0.6051959981021137,0.4315348790977396,-2.7984559713644845,2.8954862064361926
0.6142750559562298,-0.5956734506156898,0.40936407099162286,-2.787017520695791,2.8792138619860372
0.6167619995026112,-0.586162422177079,0.39198901436563993,-2.766050552431638,2.8545187740078393
0.6192489430489928,-0.5766629378558863,0.38419812840615375,-2.7355551874132953,2.8219515462089637
0.6217358865953743,-0.5767518291531093,0.37162621888497904,-2.7146851588665033,2.8000471836674925
0.6242228301417557,-0.5768523140790981,0.36863851136240955,-2.7034405858378943,2.78877104572488
0.6267097736881373,-0.5817528203955841,0.3608698113433726,-2.677879569873605,2.764001149696516
0.6291967172345188,-0.5914533723342753,0.35789694080077217,-2.647579034861989,2.736344652583238
0.6316836607809002,-0.5820119773154582,0.3597199149332133,-2.63648111375133,2.7238151593134328
0.6341706043272818,-0.5821590790728544,0.3519735388446028,-2.620643905384803,2.7075023627365975
0.6366575478736632,-0.5871062978878587,0.34423463410656696,-2.60485592762449,2.692297474652181
0.6391444914200447,-0.5968536571519064,0.3508684254771244,-2.598694100748885,2.689340805721628
0.6416314349664263,-0.5970359700850968,0.3527213143381074,-2.5877933275301075,2.679092865350733
0.6441183785128077,-0.5972300662985717,0.3402165085779023,-2.572153719795468,2.6624060139388197
0.6466053220591892,-0.5974359685522127,0.3516612491538824,-2.54698698514537,2.6396473387890835
0.6490922656055708,-0.5928652960748426,0.3583251304048396,-2.5218700402337095,2.6152848139730267
0.6515792091519522,-0.5883064745250579,0.35541976313686163,-2.4920145908451747,2.5850656542884187
0.6540661526983337,-0.5789711227098794,0.3620987746232749,-2.457420745175705,2.550537159567673
0.6565530962447153,-0.5792244725065325,0.3639969687608402,-2.427665417152024,2.5222121561148385
0.6590400397910967,-0.5747013356592339,0.3563259559525105,-2.3979603098293136,2.491478167596633
0.6615269833374782,-0.5654017336619193,0.34866255642769817,-2.3778823353123766,2.468920634462202
0.6640139268838597,-0.5656908977581664,0.36016039692191315,-2.362643194833037,2.455973242811951
0.6665008704302412,-0.5612036390583088,0.35730066751266243,-2.3426661853900868,2.4353024756008077
0.6689878139766227,-0.5567283817424932,0.3448717847053486,-2.308374603068959,2.399474181360833
0.6714747575230042,-0.552265146459055,0.3420273748316731,-2.269345356322324,2.3604889034666914
0.6739617010693857,-0.5430255503244608,0.3344022408464795,-2.254308965969493,2.3427783764237655
0.6764486446157671,-0.5385864202045068,0.33157320217147523,-2.2441119187114413,2.3315347786661254
0.6789355881621487,-0.534159372792397,0.3239634648123939,-2.2196007003333715,2.305841675179719
0.6814225317085302,-0.5345328312102652,0.31157304128084773,-2.190352215626067,2.2760592997970592
0.6839094752549116,-0.5349184117278877,0.30876715391462195,-2.185096981744735,2.2707099511324587
0.6863964188012932,-0.5257393270829653,0.3011806049948489,-2.175104675083521,2.2579176124112457
0.6888833623476747,-0.521360806402974,0.2983902132694327,-2.1507985844000608,2.233111811012929
0.6913703058940561,-0.5217828686426423,0.2956075873905415,-2.136120820775952,2.2187053361553737
0.6938572494404377,-0.49827511262299995,0.2880443358755391,-2.1358598810929053,2.2120454468549338
0.6963441929868192,-0.4891447834376175,0.29006568038823444,-2.1356506480323354,2.2100688696382873
0.6988311365332006,-0.4943918994057261,0.29688322917637855,-2.111551196715604,2.1888836100430957
0.7013180800795822,-0.48049765539253037,0.2893433803919887,-2.077926827906822,2.152295865058819
0.7038050236259636,-0.46661568257483876,0.2961765652554118,-2.063508051410958,2.1362388048317826
0.7062919671723452,-0.4575344019566989,0.3030175849694028,-2.0443529395891513,2.1167277404950706
0.7087789107187267,-0.4580422343303498,0.3002896439222642,-2.015673177163128,2.088759180904347
0.7112658542651081,-0.4537739869949943,0.30235796296911355,-1.996622464535255,2.0697421179777447
0.7137527978114897,-0.43515287035838535,0.304434149549091,-1.9872008879054768,2.056940820948706
0.7162397413578712,-0.4261209178587331,0.3017298109666333,-1.9730433225914208,2.040960525900813
0.7187266849042526,-0.4314665494413014,0.3038217643524379,-1.954149852950092,2.024147399663838
0.7212136284506342,-0.4320361682381376,0.30113321342130694,-1.9400973690573977,2.0103020331071577
0.7237005719970157,-0.41825298381030696,0.28408736175343385,-1.9069439368251757,1.9728346017262954
0.7261875155433971,-0.4092706254291889,0.28620304267724705,-1.8738432511260683,1.9392532470689916
0.7286744590897787,-0.40987751219372565,0.2883266528632027,-1.8503721992699926,1.917031327230905
0.7311614026361601,-0.42007365967110244,0.27130458884726805,-1.8317424576837613,1.8987755240576503
0.7336483461825416,-0.41591706661557,0.26386728023408335,-1.8323193151532227,1.897368446181133
0.7361352897289232,-0.41177295813257164,0.27080313989233407,-1.8377376396200944,1.9026746809954747
0.7386222332753046,-0.4172181557960074,0.2729585639547989,-1.819267088142885,1.8863483520182531
0.7411091768216861,-0.4130990610467553,0.2799103683418429,-1.8008497533813017,1.8687055634305991
0.7435961203680677,-0.40420409171619065,0.2868701588786622,-1.792062517111919,1.8593449118043395
0.7460830639144491,-0.40489847206533885,0.2842611379359714,-1.7689634369469793,1.8368393529312161
0.7485700074608306,-0.4056054095427856,0.2816601210316301,-1.7363409894985473,1.805194782798443
0.7510569510072121,-0.40632491802696147,0.28864392354946,-1.7085604570973647,1.7797736061556815
0.7535438945535936,-0.39748020454499794,0.286058940817441,-1.6856219111914168,1.7553180504157457
0.7560308380999751,-0.38864808919471144,0.27869358463122307,-1.6531602123460711,1.7209462917341167
0.7585177816463566,-0.3846169885431554,0.28091307329326787,-1.6303290434473734,1.6984743661683863
0.7610047251927381,-0.38538691562673905,0.28792901169104956,-1.6123400698585133,1.6825773953613639
0.7634916687391196,-0.3765926733107263,0.29016460125807875,-1.5944049560215952,1.6637742338432833
0.7659786122855011,-0.3725994841721769,0.28761984993492273,-1.566946962137573,1.6361168466323326
0.7684655558318826,-0.3686189572969546,0.29465997548960576,-1.5347545574477497,1.6056699500335885
0.770952499378264,-0.379016314842365,0.2873429689942655,-1.5121930169137716,1.5852277657011626
0.7734394429246456,-0.37506114887323616,0.2704572413096211,-1.5040508079366575,1.5735268722286997
0.7759263864710271,-0.35675347116675293,0.2727332197647607,-1.4959627837165268,1.561909439954084
0.7784133300174085,-0.3528237132126093,0.27501729835255295,-1.4783521998544824,1.5445531113603241
0.7809002735637901,-0.3441182730881652,0.2629442742531878,-1.4703727309545744,1.5328251841519729
0.7833872171101716,-0.34500237190391986,0.25566776775615896,-1.4720244374210534,1.5333781622461944
0.785874160656553,-0.3411108106396151,0.25318778573693024,-1.4593653621384686,1.5199368079598337
0.7883611042029346,-0.33723200334753156,0.2459275282976785,-1.4371839669955335,1.4965639071704937
0.790848047749316,-0.33336596055110057,0.23388700204865653,-1.4198455196043458,1.4770908208102849
0.7933349912956975,-0.3295126925653964,0.23143142342862166,-1.4073500766992968,1.46382149072126
0.7958219348420791,-0.32567220949732034,0.22419558882214563,-1.3901208874578863,1.4452550404108184
0.7983088783884605,-0.31226771460516456,0.21217950444254852,-1.3825232167434418,1.4331439957397343
0.800795821934842,-0.30366442754099227,0.20974838633202797,-1.3701919085822087,1.4190251359531458
0.8032827654812236,-0.2950739544680233,0.1977486271586617,-1.362703822687342,1.4082382136965421
0.805769709027605,-0.2769194980217735,0.18575703938060206,-1.3552706078969887,1.3956892586437537
0.8082566525739865,-0.2731430838727614,0.18813883864464742,-1.3383155088155352,1.3788008442158222
0.8107435961203681,-0.27416791424234443,0.18574041722387857,-1.3022617691345388,1.3437087716986582
0.8132305396667495,-0.26562878782480837,0.17377337722092845,-1.251897841594321,1.2915123094034233
0.815717483213131,-0.2523141163891509,0.17139133720874655,-1.2351078079065196,1.2722140939916868
0.8182044267595125,-0.24858911813868007,0.164229092386996,-1.2135844891063137,1.2496219654930267
0.820691370305894,-0.24487699446905534,0.15228664778532597,-1.1729627219203227,1.207889693858103
0.8231783138522755,-0.24117775321070817,0.14992921826352568,-1.165914988650167,1.200001349954239
0.825665257398657,-0.23270299866814165,0.14758000194917553,-1.1637109142435218,1.1958903103938743
0.8281522009450385,-0.22902954490142186,0.15002740680030335,-1.1519853327011322,1.1840747282108146
0.8306391444914201,-0.2253689958045486,0.14769463068366795,-1.149891900358865,1.181040334075707
0.8331260880378015,-0.2169329550666439,0.1405816779764839,-1.147853852724456,1.1766017093269103
0.835613031584183,0.8305736876949834,-2.040458151175602,11.99829588321698,12.198869874648704
0.8380999751305646,0.8246186749033223,-2.18641833410053,4.865502091345505,5.397548674312973
0.840586918676946,0.7276710675448574,-2.1791413716934063,-2.185944349803851,3.171200876766887
0.8430738622233275,0.5636728760286335,-2.02820406673664,-8.729875583256096,8.980092791649115
0.845560805769709,0.36614291760789125,-1.7479716254622564,-14.416738204258284,14.526933808951425
0.8480477493160905,0.13508118649701192,-1.3480208509111835,-18.935286033718512,18.983689428563988
0.850534692862472,-0.11993551624605092,-0.876235772815702,-22.093982974653912,22.11167694549457
0.8530216364088535,-0.3653883727590223,-0.35655840443535824,-23.77311897898646,23.778600222632264
0.855508579955235,-0.5869121782584086,0.15833882091975715,-23.972694080748077,23.980400300585732
0.8579955235016165,-0.7701417277586281,0.6588790996940985,-22.774111169519024,22.796652813745702
0.860482467047998,-0.9055002193925237,1.1115436116022654,-20.32581078046774,20.37631084694166
0.8629694105943795,-0.9786224477710703,1.478025132910481,-16.85763630431368,16.950579988817818
0.8654563541407609,-0.9895084172649518,1.7295932463978616,-12.63773835744399,12.793867691086788
0.8679432976871425,-0.9477349386845209,1.8806131645986421,-7.972574781915945,8.246020618583678
0.870430241233524,-0.858090419319207,1.9119312766774512,-3.168603418895862,3.7989272170842425
0.8729171847799054,-0.7301516695784174,1.8235475849529528,1.467717891341767,2.452069139265983
0.875404128326287,-0.5639186930309483,1.6250388982573911,5.677815342614272,5.932650569351389
0.8778910718726685,-0.37375670300689423,1.3451356385775006,9.231845549548666,9.336811886823863
0.8803780154190499,-0.18360771927758324,0.9886262111717765,11.962214370823988,12.004401952348235
0.8828649589654315,-0.017413761415367046,0.5986062477348715,13.768365312488879,13.781382951542303
0.885351902511813,0.12482516780764816,0.194229363233688,14.573683898078286,14.575512640355628
0.8878388460581944,0.23832066249737877,-0.20056242417051617,14.39732371841678,14.400692770733245
0.890325789604576,0.3182843169577331,-0.5570386931219065,13.320687608375074,13.336128200192643
0.8928127331509574,0.35992772569026454,-0.8608342323511,11.453908823626595,11.491849758992641
0.8952996766973389,0.3536740800735088,-1.0736418141124386,8.9550046539274,9.026067828893591
0.8977866202437205,0.3091001849641913,-1.2098266473087653,6.044241633075808,6.171878187382685
0.9002735637901019,0.2214176354546816,-1.2598119243661938,2.917944279145461,3.185992886097412
0.9027605073364834,0.10020323679450632,-1.2044440311948164,-0.25150490551604854,1.234496184863911
0.905247450882865,-0.030600995610016113,-1.0628765803915954,-3.2534161911244954,3.4227708013754405
0.9077343944292464,-0.15662985279770847,-0.8590515879979388,-5.915407073585387,5.979510296659187
0.9102213379756279,-0.2778833355732134,-0.6025458602182232,-8.069883451253094,8.097116744784156
0.9127082815220094,-0.38957304122614894,-0.3077246067007433,-9.645019288018698,9.65778746164317
0.9151952250683909,-0.4869105668517491,0.011046962782739644,-10.597718966826095,10.6089043371747
0.9176821686147724,-0.5603191060309736,0.30588481509510723,-10.880098466432184,10.898810286446363
0.9201691121611539,-0.5810682388699628,0.5815773534998168,-10.506523007892369,10.538638348083637
0.9226560557075354,-0.5826767884457197,0.8285477711767202,-9.577549071163496,9.630963080578187
0.9251429992539169,-0.5507795444393211,1.0180656479019419,-8.169791118738413,8.251381865713636
0.9276299428002984,-0.4901649096207004,1.1357657732904403,-6.374228822209808,6.4931516698974265
0.9301168863466799,-0.41040968988810933,1.176859743475878,-4.348879498795387,4.5239571024061425
0.9326038298930613,-0.3163022876278769,1.146135961110906,-2.2230300449326084,2.5210191112292906
0.9350907734394429,-0.20784270171487224,1.0579596353674128,-0.111602146242479,1.0839429033712127
0.9375777169858244,-0.10897294743473207,0.9171191686555518,1.8513288992280437,2.068913088050096
0.9400646605322058,-0.010116216640547682,0.7236145599442874,3.541264600925814,3.6144536714381537
0.9425516040785874,0.07436228240294995,0.5013878246835839,4.891167308992683,4.917360790540372
0.9450385476249689,0.1300973416205477,0.2648041715624454,5.833999374420472,5.841454893116275
0.9475254911713503,0.17145417304798583,0.02822880914988657,6.3410303756115685,6.343410724803351
0.9500124347177319,0.18885597230811577,-0.1891846507846311,6.402683505096336,6.408261345856741
0.9524993782641133,0.18230274185262263,-0.3826478065520176,6.047689182812217,6.0625240688553115
0.9549863218104948,0.15179448432099102,-0.5377954499417412,5.32393144282123,5.353177702945127
0.9574732653568764,0.1069080091806715,-0.6402623728622754,4.3128131432687535,4.3613899662013615
0.9599602089032578,0.04285491612508957,-0.6948369806219596,3.095737143139935,3.1730463962715922
0.9624471524496394,-0.03078798500493929,-0.6919424686865694,1.7349526889763869,1.8680987963646687
0.9649340959960209,-0.1044438841825634,-0.6363672426009175,0.32622785139845334,0.7227007703238506
0.9674210395424023,-0.1829011811563317,-0.5472649179885356,-1.0394577014599715,1.1888751177705028
0.9699079830887839,-0.24221785556782505,-0.41984709398887343,-2.2615474939920057,2.3129068592289443
0.9723949266351654,-0.28718230679581536,-0.25411377317896644,-3.292157486282834,3.3144152427757034
0.9748818701815468,-0.3130061273942972,-0.07400697485426688,-4.102557250870624,4.1151459105096855
0.9773688137279284,-0.32926611969447156,0.10610808821374418,-4.620920729583488,4.633851906681678
0.9798557572743098,-0.3215970692427284,0.27186620313726806,-4.837671106588506,4.8559651607970835
0.9823427008206913,-0.29957577800423857,0.4280557701937391,-4.767173581831056,4.79571906479841
0.9848296443670729,-0.2584138378009345,0.5555231729432903,-4.433370161075812,4.4755060822616874
0.9873165879134543,-0.2076880502338584,0.6399031981509622,-3.860202849268049,3.9183895246275524
0.9898035314598358,-0.15218681340237789,0.6907726490682653,-3.0811904571759525,3.161338689901244
0.9922904750062174,-0.07754491194376206,0.6937663122303048,-2.1777358279554475,2.286888332585306
0.9947774185525988,-0.002915953557091844,0.6536725873389697,-1.226453400628568,1.389778506862496
0.9972643620989803,0.0477580509181435,0.5896450839428939,-0.2800155968039437,0.6545004896094359
0.9997513056453619,0.09363072070466305,0.48731858823463803,0.6232703726804782,0.7966881923060851
1.0022382491917432,0.12991365860250292,0.35626990289483373,1.4498857011142388,1.498657515477005
1.0047251927381249,0.16139527423075473,0.21565263713142047,2.1136391460697066,2.1307334263684967
1.0072121362845063,0.1689219607848353,0.06546678675821704,2.604953919047544,2.611245957271164
1.0096990798308878,0.1668589348797514,-0.07034563592200316,2.904676425709445,2.91031536963173
1.0121860233772693,0.15520620334646407,-0.20614984528123959,2.988864669196346,2.9999831224586724
1.0146729669236507,0.13396377319231706,-0.3275806358815694,2.871883880009145,2.8936088861124403
1.0171599104700322,0.09834324828021235,-0.4106959957560683,2.596829709365995,2.630944152744077
1.0196468540164139,0.05792144260934806,-0.4554959296506671,2.168490582715892,2.216570062680127
1.0221337975627953,0.027063573674053154,-0.47634565238321747,1.6155969429003463,1.6845744564943839
1.0246207411091768,-0.013383964099175305,-0.4684567656009362,1.0195516700738239,1.1221035957890082
1.0271076846555582,-0.05863275950852265,-0.436617677701979,0.3995084020131525,0.5947098117977844
1.0295946282019397,-0.07516398125701185,-0.3664631839132211,-0.22059081939949188,0.43428700054866826
1.0320815717483214,-0.08213123439836945,-0.2915121127742859,-0.7689199182963051,0.8264155687731956
1.0345685152947028,-0.08432291385317503,-0.20697606637162247,-1.2454788678335689,1.2653722993930874
1.0370554588410843,-0.07695060772971218,-0.09370143693964961,-1.6311140271083344,1.6356143569754136
1.0395424023874658,-0.06001430728543855,0.00042773669419693405,-1.8635761245586178,1.8645422687787336
1.0420293459338472,-0.038302406927526955,0.08019985211765635,-1.976383954254902,1.978381314431669
1.0445162894802287,-0.02139170421340808,0.15998011345115914,-1.969537486253885,1.9761399625199305
1.0470032330266104,0.00508302007057182,0.2254033047857198,-1.8190946732412954,1.8330133434092117
1.0494901765729918,0.03633337202575354,0.257315806784737,-1.5681511136202992,1.589537496724323
1.0519771201193733,0.06757095792192858,0.274871226567293,-1.2358603884273958,1.2678607672899296
1.0544640636657547,0.0987957875170431,0.2876463645052798,-0.8461644812569897,0.8991637047752359
1.0569510072121362,0.12043106409573207,0.25733398766129056,-0.42779377826348153,0.5135483805113559
1.0594379507585177,0.1324767977500086,0.203087702835842,9.814179733425021e-05,0.24247623928345707
1.0619248943048993,0.1349329987380774,0.1584263266849124,0.3992040876441134,0.45018853686771454
1.0644118378512808,0.12301127416346752,0.08504262595470102,0.755158885350296,0.76982398242981
1.0668987813976623,0.11586524789633146,0.011667013770998658,1.0535973617404881,1.0600133374382268
1.0693857249440437,0.09912972072913523,-0.061700516766678426,1.275365941067637,1.2806997848584387
1.0718726684904252,0.07759310689953913,-0.1254831660221698,1.4252530649323845,1.4328688056805572
1.0743596120368066,0.0656206274491743,-0.18446934442398044,1.484105159077913,1.4969646385204676
1.0768465555831883,0.03927027701996588,-0.23387065586327038,1.4614990699107437,1.4806137814032092
1.0793334991295698,0.003330470337937985,-0.2641103010138224,1.390953661178159,1.4158098144451494
1.0818204426759512,-0.023045167748333872,-0.28955349725357005,1.2437385542000712,1.2772070696374982
1.0843073862223327,-0.04943343215108176,-0.29583504214076184,1.024642194272948,1.0676392942642865
1.0867943297687142,-0.05668069770019424,-0.2781665399761093,0.7959138672688972,0.8450255674031366
1.0892812733150956,-0.07351737226879762,-0.23654799848209773,0.5431884066644876,0.5970036890555203
1.0917682168614773,-0.08557823368790529,-0.19013303876355092,0.2856194699054946,0.35362789496828356
1.0942551604078588,-0.08328646295013165,-0.13413326542444493,0.03757231184193266,0.1622961688436165
1.0967421039542402,-0.07621885417121999,-0.0781254931300337,-0.1626457953525282,0.1958738398915004
1.0992290475006217,-0.0691637979890738,-0.01732132668459574,-0.32461161198775024,0.3323497524411198
1.1017159910470031,-0.04775607160341455,0.03870241904706884,-0.43874828437522595,0.4430333809740407
1.1042029345933846,-0.02157246865919149,0.08994573574158071,-0.48590215147121185,0.4946276453924695
1.1066898781397663,0.004598620674691745,0.13162021165641935,-0.48043837476204665,0.49816268364118477
1.1091768216861477,0.025968806384474408,0.163725838270953,-0.43193371170417016,0.4626524184840081
1.1116637652325292,0.03296129529059921,0.19583941360707824,-0.33559970908606473,0.38995728951751835
1.1141507087789106,0.05909492425025742,0.20401891234686564,-0.22016673623385685,0.3059237133849065
1.116637652325292,0.08042769043020348,0.19305272899695503,-0.07605793520925452,0.22253714087631207
1.1191245958716736,0.09217120443115001,0.18209446792802497,0.09672674598480491,0.22585391199863758
1.1216115394180552,0.09432548032621879,0.15677891017205292,0.28382215008127787,0.3376861498348251
1.1240984829644367,0.10125574230095252,0.11710604662582869,0.45649791054641575,0.48203412103137583
1.1265854265108182,0.09859679476988659,0.07744107805134703,0.6291192914209258,0.6414900867095435
1.1290723700571996,0.10071386221968315,0.02820718851370252,0.7921095408330032,0.7989846382789372
1.131559313603581,0.09803015268507409,-0.021018824735710595,0.9071614876754062,0.9126848670544426
1.1340462571499625,0.09054568099042715,-0.06544856786036801,0.9838519947278321,0.9901751273946077
1.1365332006963442,0.08304886542881584,-0.10508205043820595,1.0317579254511688,1.0404151902508012
1.1390201442427257,0.07553972112076035,-0.1447076854612548,1.0413025307036285,1.0540196981785195
1.1415070877891071,0.07759506997454824,-0.16517186941333284,1.007697465339625,1.0240883374893763
1.1439940313354886,0.06527291080278919,-0.19041662875404164,0.9405195948477694,0.9618191897042477
1.14648097488187,0.05293846912647404,-0.1869231501917974,0.8493457853872677,0.8712812454920595
1.1489679184282517,0.064533777252468,-0.17384505705062026,0.7533297104258612,0.7758172238857013
1.1514548619746332,0.05696322114788144,-0.1607591661056733,0.6524714308153232,0.6743940139716018
1.1539418055210147,0.04938043008786508,-0.1285118743016027,0.5419826047496148,0.559194843112265
1.1564287490673961,0.056150630170603955,-0.09146840191618688,0.43144010104347785,0.4445896114464028
1.1589156926137776,0.06290862771511907,-0.05920556599747551,0.3352091924891951,0.3461618078519627
1.161402636160159,0.06965443914343683,-0.022146570402381993,0.25328994257246684,0.2636247455785173
1.1638895797065407,0.08117648433932334,0.01492017096148679,0.19047081875105576,0.20758459939723356
1.1663765232529222,0.08789797336639005,0.028052630815943225,0.14675188581142073,0.17334681943093877
1.1688634667993036,0.10418413302995488,0.045981218317322714,0.13649841914716987,0.17776508218102086
1.171350410345685,0.11566977035295367,0.07349432593188165,0.16449888815483327,0.21410463778690791
1.1738373538920666,0.10798969249717016,0.08186152279559122,0.20681134294979486,0.24725293562007336
1.176324297438448,0.10987433664539936,0.07587120119892132,0.268224254207313,0.2996215272134214
1.1788112409848297,0.11653531687579766,0.06988855998569177,0.3439492865972511,0.36981887816466885
1.1812981845312112,0.10881903744248078,0.05433678131129582,0.43877491206254327,0.45532130651735614
1.1837851280775926,0.10587912929830823,0.02442745056498996,0.5479127965351633,0.5585834968642165
1.186272071623974,0.0981388036098545,-0.0006858303484365003,0.6522093966130207,0.6595519632049934
1.1887590151703555,0.09517488495987814,-0.0257914762113729,0.7516647827993648,0.7581051409092964
1.191245958716737,0.09219898810447757,-0.05088949857109526,0.8606442361796596,0.8670633746973613
1.1937329022631187,0.08442272793336969,-0.07119150573934752,0.9360521986140959,0.94254397563797
1.1962198458095001,0.09578813939110065,-0.09148591275285778,0.9778887424613067,0.9868188448305942
1.1987067893558816,0.09277641771077072,-0.11177273141198496,1.0053075539740188,1.0157479437575858
1.201193732902263,0.08496438813992091,-0.11768676363967945,1.0087319000930801,1.0191217630162592
1.2036806764486445,0.09629408601800404,-0.11401642472323115,0.9737966450461641,0.9851660783907839
1.206167619995026,0.10761191693196215,-0.11512693667323459,0.9292322835480977,0.9425004896558659
1.2086545635414077,0.10934109323900743,-0.11622990830128455,0.8894041009541791,0.9036063971932348
1.2111415070877891,0.11105844070657045,-0.10774854518049937,0.8447353666167885,0.8587907578996696
1.2136284506341706,0.1319175918710116,-0.09925966624664673,0.7856493504840003,0.8028073456965712
1.216115394180552,0.14318814619319986,-0.08118647723522665,0.7217229363780309,0.7402554195615445
1.2186023377269335,0.1496585265031547,-0.06789420056385698,0.6673214120313897,0.6872591679860433
1.221089281273315,0.1513287524368735,-0.06417125208965668,0.6224448558027671,0.643782524944707
1.2235762248196966,0.16735245703722135,-0.06044083778850817,0.6014585565960235,0.6272259043211974
1.226063168366078,0.18336445022981968,-0.04233776039525505,0.5995741906150833,0.6284140495048645
1.2285501119124596,0.19457634870518326,-0.033804049286085824,0.6024266280016928,0.6339720114871532
1.231037055458841,0.20577657591804366,-0.03483971731403779,0.5908623361527976,0.6266387359420242
1.2335239990052225,0.22175355544604647,-0.04544477741013475,0.5888234129207852,0.6308350646171319
1.236010942551604,0.2329305010281354,-0.051254032622019885,0.610675150087113,0.6555972339044417
1.2384978860979856,0.2297306265248107,-0.05705589935570954,0.6564176300391011,0.6977934088545987
1.240984829644367,0.22651916251901116,-0.07242719741422432,0.7068973224466646,0.7458287031187905
1.2434717731907485,0.23287293639355888,-0.08779113339559563,0.7477491008609682,0.7880772839295828
1.24595871673713,0.23921516236953666,-0.11751293057523249,0.8077034692739513,0.8505398738666166
1.2484456602835114,0.2359690547868607,-0.13286218242113934,0.8580300923888853,0.899749628385359
1.250932603829893,0.23749984470515317,-0.15778091899970592,0.8939406520626694,0.938312785826557
1.2534195473762746,0.23901915002024787,-0.17790394388934416,0.9106468307013671,0.9581532328360788
1.255906490922656,0.2357385887447535,-0.1980196740238065,0.9368791344994278,0.9861678286094409
1.2583934344690375,0.2372349889683053,-0.21812812309018392,0.9486956336711057,1.0019399799490283
1.260880378015419,0.2339315656146892,-0.24301770816909585,0.9556732222131092,1.0134559149414868
1.2633673215618004,0.2354051470036539,-0.26311163645300084,0.9673887946594419,1.0297982309682978
1.2658542651081819,0.23686735160803518,-0.25925630856607507,0.9694772294768708,1.0311188458481697
1.2683412086545636,0.2431066046546283,-0.260182158407523,0.9667270189447628,1.0302216780567797
1.270828152200945,0.2349693148813108,-0.26110079670582875,0.9495614459099073,1.0124480947360832
1.2733150957473265,0.2316091177004136,-0.26201223758081404,0.9371342136663632,1.000256832252668
1.275802039293708,0.2234492287136539,-0.2437628819416382,0.9150802027883778,0.9729962373824672
1.2782889828400894,0.22485488023487932,-0.2255063573301097,0.897764714291478,0.952572473142383
1.280775926386471,0.23582609472687477,-0.2168194847171181,0.8995530497076025,0.9548928343774363
1.2832628699328525,0.23242087816004459,-0.20333706854126143,0.906080091160204,0.9572599227192808
1.285749813479234,0.21463925321484673,-0.18027071995058863,0.9125575279237648,0.954635419027842
1.2882367570256155,0.21121166260139745,-0.15719726012246715,0.9141970497801459,0.9513556594857571
1.290723700571997,0.21256132257441485,-0.1293283003412684,0.8966335403749532,0.9305158950007618
1.2932106441183784,0.2091114494950178,-0.11581746856043651,0.8790207070973359,0.9109438445039054
1.29569758766476,0.20565046979096469,-0.11187637619890634,0.8613586445535226,0.8926069425137391
1.2981845312111415,0.20217840667470988,-0.10792823142191965,0.8484358511653696,0.87884469891221
1.300671474757523,0.18911847682238836,-0.09439624246088663,0.9264436822923248,0.9502496226390814
1.3031584183039044,0.17125910697468505,-0.08564563421451155,0.9373649244471594,0.9567224560788783
1.305645361850286,0.16775393393613292,-0.07688801836553738,0.9530257240038651,0.9707271399998657
1.3081323053966674,0.15944936805097787,-0.08727702326311038,0.9542725647336763,0.9714306498998857
1.310619248943049,0.14634543304622738,-0.1024474540785909,0.9650475607708007,0.9814424390509843
1.3131061924894305,0.1428073627106411,-0.11282251936760046,0.9853508101249666,1.0020175062017376
1.315593136035812,0.1344699710112125,-0.11361383106959,0.9864519913581109,1.0020368291477355
1.3180800795821934,0.1356984919362222,-0.10960980782769614,1.0018700266672305,1.0169424472505741
1.3205670231285749,0.136916142971097,-0.11996407830861511,1.0172398055141798,1.0333993575636884
1.3230539666749563,0.1285461416992708,-0.11594623803809112,1.022984621146053,1.037528397569092
1.325540910221338,0.13931893236398463,-0.12149831912703402,1.0430465905140043,1.0593006166563974
1.3280278537677195,0.15008092610195412,-0.11746672386482837,1.0630606044654947,1.0800095204958606
1.330514797314101,0.15125534078643033,-0.0942746612423142,1.0734499576240832,1.0881455331856664
1.3330017408604824,0.15241900766710392,-0.0902293735138544,1.0837915583472526,1.0981698573935152
1.3354886844068639,0.15836035476785304,-0.08617726315000196,1.0892971054811955,1.1041162559513087
1.3379756279532453,0.1690794068860363,-0.06775313600111899,1.0899667016389856,1.105081781567631
1.340462571499627,0.17499938227147072,-0.06368742785942993,1.1001656598381366,1.115816002461799
1.3429495150460085,0.1665434992663657,-0.045249734732018876,1.115105680255363,1.128381563913103
1.34543645859239,0.18201900950772776,-0.026805282566928934,1.1108448502234918,1.1259776748513797
1.3479234021387714,0.19748392155948125,-0.03708450733085478,1.1161136940330874,1.1340568495303345
1.3504103456851528,0.18899624407582105,-0.03299179524306606,1.1309123164840607,1.1470704888556205
1.3528972892315343,0.19007482564426048,-0.02889237242339826,1.13608720952322,1.1522401469182564
1.355384232777916,0.2007196916989885,-0.034363061727739286,1.141215285444332,1.1592417963388095
1.3578711763242974,0.20656565780141334,-0.039827072786647655,1.1415082470022266,1.160731081984014
1.360358119870679,0.21240115288164996,-0.04528442192678117,1.151331410651908,1.1716351589844036
1.3628450634170604,0.2230146059565602,-0.060311932170447946,1.1419544633814045,1.1650892841618636
1.3653320069634418,0.2288292361681129,-0.07054440999297151,1.1325311257946336,1.1575690407056498
1.3678189505098233,0.2298450693842402,-0.07119346856442954,1.127849908944265,1.1532314091248417
1.370305894056205,0.23563893819813264,-0.08141273771014479,1.1135457110083173,1.1411125244959952
1.3727928376025864,0.23663406200565995,-0.0964138307071134,1.1087722538105211,1.1378344417677737
1.3752797811489679,0.2376188702468529,-0.11140836088511952,1.1087412429734869,1.139377766257922
1.3777667246953493,0.238593389123948,-0.11203113498566619,1.10866438451718,1.1395676803229748
1.3802536682417308,0.23955764492099518,-0.11743578304432845,1.1276954014573874,1.1588252443088503
1.3827406117881123,0.24530006732346554,-0.13241072518719355,1.1418923873182916,1.1754245817528925
1.385227555334494,0.24145547281598645,-0.12822555834916205,1.1416786459730979,1.1739559914399313
1.3877144988808754,0.2471775012050692,-0.1240339127188026,1.1366310949612881,1.1697911671059986
1.3902014424272569,0.24331256581372207,-0.12941261189416675,1.1363266522042679,1.1692676722247504
1.3926883859736383,0.2346490966448067,-0.13478486624171016,1.140765429361661,1.1724218198032286
1.3951753295200198,0.23555233041939716,-0.13536228949740892,1.145159135148532,1.1769440490516627
1.3976622730664012,0.23644548733388815,-0.1311448987663133,1.1542962852932348,1.1855401162317314
1.400149216612783,0.2325401909811654,-0.13170951784241414,1.1490233792921511,1.1796936312754227
1.4026361601591644,0.2190480650295895,-0.12747935728631887,1.1437057402503328,1.1714503240039253
1.4051231037055458,0.21033434650354266,-0.12324283766699073,1.133555078354993,1.159472487823527
1.4076100472519273,0.20639906254053875,-0.11899997628005377,1.1377251207552277,1.1624026917423083
1.4100969907983087,0.20245383703114472,-0.11953919378797373,1.1514275783558006,1.175186216383776
1.4125839343446904,0.18892189061827702,-0.12007210425867232,1.1459321458140526,1.167591227179225
1.4150708778910719,0.180168460618379,-0.1205987251260181,1.1547577613024664,1.174934131767352
1.4175578214374533,0.19055878441914342,-0.12590747718938244,1.1683277334586855,1.1904432098593387
1.4200447649838348,0.19136246959601555,-0.13120997465225237,1.1914305812261787,1.213813199013374
1.4225317085302163,0.1873679470364793,-0.14129463840303957,1.2336432272105498,1.255765318226527
1.4250186520765977,0.19294045433779627,-0.1465846794130723,1.2470817545123793,1.2704038686954566
1.4275055956229794,0.1889264059234984,-0.15186851865801954,1.2556882963725613,1.2788707250780187
1.4299925391693609,0.19447944284736385,-0.1571461738362041,1.2786165830442435,1.3028344254268522
1.4324794827157423,0.19523438298804063,-0.16241766268846813,1.301501521867877,1.3260475756466303
1.4349664262621238,0.19597965757177782,-0.16768300299772543,1.2956128105493594,1.3210367786461876
1.4374533698085052,0.20629210121079078,-0.17773061590883232,1.2848925836413692,1.3134281687058067
1.4399403133548867,0.21659493530099905,-0.1734069060062704,1.2837061693761882,1.3133487161996231
1.4424272569012684,0.2220997846228916,-0.16428869783713562,1.2872652830220304,1.316575481862071
1.4449142004476498,0.23238348398145037,-0.16474121930913554,1.2859932368408842,1.3171637552587423
1.4474011439940313,0.242657658283586,-0.1699760850885852,1.2751017467260706,1.3090680169989608
1.4498880875404128,0.24813393249837024,-0.17999331320152256,1.2785329488007466,1.314767866364059
1.4523750310867942,0.25360073829696794,-0.18521611507233304,1.277133349610132,1.3151760096784197
1.4548619746331757,0.2686349107316278,-0.1904329121248649,1.2613262626418784,1.3036001496295846
1.4573489181795574,0.2788712683131137,-0.1956437225007419,1.2598422282448762,1.3050854724934788
1.4598358617259388,0.28909824289281755,-0.196060161058921,1.2487393505402622,1.2966754977194104
1.4623228052723203,0.28973905641988656,-0.19647064933619207,1.2519597671449088,1.2999818058016064
1.4648097488187017,0.29994735082333474,-0.20166360890610768,1.2407731794417938,1.292344654976013
1.4672966923650832,0.3101463481676002,-0.20685065473792008,1.2247565156628841,1.2802368817159944
1.4697836359114647,0.3155476738940469,-0.21682020847739203,1.2374287209251413,1.2953035075512438
1.4722705794578463,0.32093976014058256,-0.22199548184479534,1.2404826908212119,1.3004159449290185
1.4747575230042278,0.33589944242064174,-0.22237649323603392,1.2482837577445007,1.3116752951897757
1.4772444665506093,0.3412731363803361,-0.22275166440189587,1.2656204477220463,1.3296167776095635
1.4797314100969907,0.34184927432117584,-0.232697820447612,1.2781276737708573,1.343361288877228
1.4822183536433722,0.35199309523845645,-0.23784976991053952,1.2810171558167411,1.3496209118263018
1.4847052971897536,0.3573394182580663,-0.2334191280019211,1.303019437292809,1.371143903141118
1.4871922407361353,0.3578882725186134,-0.22898271992675312,1.3201926253708098,1.38687622725133
1.4896791842825168,0.36321649385042315,-0.24369417756303458,1.3229600374424706,1.3933902304282535
1.4921661278288982,0.37811251481392055,-0.2488230996175913,1.3256870077570735,1.4008312001444414
1.4946530713752797,0.37863434809737767,-0.24436950475063357,1.3235852575356262,1.3981982543176221
1.4971400149216612,0.3791472330006061,-0.23512181497376172,1.3214433148896951,1.3947212361741819
1.4996269584680426,0.3748627955905222,-0.23065685564953142,1.3144729015371226,1.3862047862604907
1.5021139020144243,0.3753578719426521,-0.22618624220976757,1.3074625460802576,1.3789532470671229
1.5046008455608058,0.3758440882185749,-0.22170999343638664,1.2860471640810562,1.3580616363329543
1.5070877891071872,0.36674466730586625,-0.21243972482033424,1.278957301222123,1.347354469331811
1.5095747326535687,0.3576364454189806,-0.20316385852209473,1.2718278735380508,1.3366845253872843
1.5120616761999501,0.3437310488563805,-0.19388241341031565,1.2694474105764826,1.3293750984568098
1.5145486197463316,0.3441821205623665,-0.18938381170201257,1.2813928454341443,1.3402593721289189
1.5170355632927133,0.33504767364201593,-0.1992448789621286,1.2980874981522916,1.3553547942383337
1.5195225068390947,0.3115393345245736,-0.18994681089998355,1.3195314956355801,1.3690507353277157
1.5220094503854762,0.2975991496033988,-0.18543164309540616,1.3313597550474885,1.376760307920677
1.5244963939318577,0.2932271487118526,-0.19048779787330172,1.3431492103698055,1.3879184281496282
1.5269833374782391,0.2888465550835625,-0.1859616809829161,1.3548999891574702,1.3977725350701904
1.5294702810246208,0.2653037853517468,-0.18143011812084442,1.3522470092152474,1.38991904807974
1.5319572245710023,0.25611769271261164,-0.18646993500872577,1.3399788018369438,1.376920658046411
1.5344441681173837,0.25171150051841473,-0.18192753747095125,1.3516143184430245,1.3868372558464377
1.5369311116637652,0.2329316255190088,-0.15822613799673535,1.3536348641714273,1.3826134667406824
1.5394180552101466,0.2189317110642668,-0.14409617566155264,1.3460405676011078,1.3713205356800156
1.541904998756528,0.2097117872596862,-0.14911447628297747,1.333619960827182,1.3582180828826764
1.5443919423029098,0.21006028756727557,-0.13018542917806641,1.3355267860986046,1.3581993103996157
1.5468788858492912,0.21040043552363952,-0.11125107017075475,1.3278191559714365,1.3489806725255087
1.5493658293956727,0.20594385802056436,-0.10188822514610463,1.310497199790257,1.3304875022855054
1.5518527729420541,0.19190218198404152,-0.09730851004990182,1.3122914670055295,1.3298136290299827
1.5543397164884356,0.1874290509751686,-0.102300347489789,1.3379904906471918,1.3549219768342002
1.556826660034817,0.19731289862698287,-0.09771014349266105,1.3492871740404784,1.3671340571195199
1.5593136035811987,0.19761173868286674,-0.09311472402767995,1.3701236638498404,1.387429135248834
1.5618005471275802,0.18832560151933175,-0.09330251176367055,1.3909232836697214,1.4067122918150634
1.5642874906739617,0.17903132418440693,-0.08869671942808077,1.4068977605841724,1.4210139449749553
1.5667744342203431,0.1840941470766858,-0.08887417304874567,1.4132588218435487,1.4279670063210865
1.5692613777667246,0.18436048738216293,-0.09383489203159723,1.4291602114631825,1.4440542532397662
1.571748321313106,0.18940718223764264,-0.10357889580087232,1.4546020603376366,1.4705341962283736
1.5742352648594877,0.20402266548789827,-0.10374099383776292,1.4512772729565135,1.469215152670067
1.5767222084058692,0.21384175772407854,-0.10868641556281355,1.443127997128121,1.4629283818319467
1.5792091519522506,0.2188644895252524,-0.10404997049175879,1.4445195741718688,1.4647064078852672
1.581696095498632,0.21909089149681193,-0.09940848475854613,1.436298522313793,1.4563091398393555
1.5841830390450136,0.2240978009104544,-0.09955038119305026,1.4184649732070937,1.439504422703864
1.586669982591395,0.23867365174259525,-0.09968727600034599,1.4149610752495452,1.438407977419433
1.5891569261377767,0.2484532647127855,-0.0950307854009238,1.411421750416542,1.4362699023753347
1.5916438696841582,0.24864826720494104,-0.09515773559121765,1.3982703241410306,1.4233906191907866
1.5941308132305396,0.26320070654794914,-0.10964495278226005,1.380295331951226,1.4094367069876919
1.596617756776921,0.2729570002103371,-0.1001852299961481,1.3718621161474367,1.4023367177656478
1.5991047003233025,0.2683403723230705,-0.09550900675313967,1.3586055992366948,1.388141815545787
1.601591643869684,0.2685044669601625,-0.10519310930561243,1.359679527093924,1.38992397469117
1.6040785874160657,0.27823771825522303,-0.11966075063767079,1.365507225795044,1.3986940004166462
1.6065655309624471,0.278386543760197,-0.1341235470662947,1.3856656348172294,1.419703294754868
1.6090524745088286,0.2785277809681659,-0.13900471160031191,1.3866360638719826,1.4211472859097052
1.61153941805521,1.9785446394611506,-1.3409819006196844,6.257378436066368,6.698332347702555
1.6140263616015915,1.959517179425103,-1.412891120125101,3.064415516415764,3.9021290792386876
1.616513305147973,1.8303489473914623,-1.3794507003469534,-0.018448094018317818,2.292030068755129
1.6190002486943547,1.5910399742833718,-1.2598142742605452,-2.7900993223891177,3.4501006411689605
1.6214871922407361,1.275109114282345,-1.0731354748513837,-5.07815551566812,5.344640908613128
1.6239741357871176,0.9017100116243968,-0.8529331450756494,-6.743752843969504,6.857024013052534
1.626461079333499,0.5043615205212431,-0.5896304980160143,-7.71985352711489,7.758748813286928
1.6289480228798805,0.12137089851924121,-0.3119579733266735,-7.992092221354447,7.999099120948791
1.631434966426262,-0.24247342006386952,-0.04385760735005695,-7.584410809409301,7.588412493733099
1.6339219099726436,-0.5488641776551825,0.2003053702038562,-6.568635207114795,6.594569175540857
1.636408853519025,-0.7786477299506805,0.39180051965637386,-5.045321750142051,5.120065575460611
1.6388957970654066,-0.9414008525564826,0.5306278212432938,-3.1581224039616806,3.3378943315024494
1.641382740611788,-1.0131814978253946,0.6119988518731088,-1.093784763846581,1.611658913000091
1.6438696841581695,-0.9844128280606554,0.6311251884477125,0.999250801570426,1.5381449164440513
1.646356627704551,-0.8742484254774741,0.5736416012221714,2.982120730372877,3.160129593327185
1.6488435712509326,-0.692265065641169,0.4730668936488458,4.706384654074782,4.780489485302143
1.651330514797314,-0.44803952410837933,0.3389778525731093,6.0762746407837955,6.1021929590869695
1.6538174583436955,-0.17509059302924956,0.1761628615149755,7.034329985236598,7.038713547996053
1.656304401890077,0.12658175869571453,-0.0058012926898856065,7.518301578913494,7.519369337126919
1.6587913454364585,0.43303554557128987,-0.1973378232100753,7.542554766481031,7.557552143754169
1.6612782889828401,0.705963572147575,-0.36492792661653306,7.135820102625106,7.179936315445464
1.6637652325292216,0.9310006595817866,-0.513360026046151,6.34119335204859,6.429699360977079
1.666252176075603,1.1081468389972342,-0.6282689313577725,5.2592311193507175,5.411305132187243
1.6687391196219845,1.2230369315606453,-0.7096546623738682,3.9617595892593105,4.206538733790329
1.671226063168366,1.26130575844259,-0.7383636256380228,2.573277383073666,2.9593630311579244
1.6737130067147474,1.2325301574184597,-0.7191842442973788,1.2039179121763084,1.867023006138523
1.6761999502611291,1.1414985629459495,-0.676058554781914,-0.055339025288873245,1.327831520344882
1.6786868938075106,1.0025762161254814,-0.6041981736009849,-1.1230904377788473,1.6222042514904025
1.681173837353892,0.8205515514182343,-0.49402631394444274,-1.9275101403549302,2.1523620022141925
1.6836607809002735,0.6050014066066147,-0.3742734155651384,-2.4350791746063996,2.536871671605909
1.686147724446655,0.3750794261139188,-0.24493949829414063,-2.6649510186145795,2.7023404421599837
1.6886346679930364,0.15951606100375693,-0.1156013886028684,-2.602760327189774,2.610205044734625
1.691121611539418,-0.051265464223656854,-0.0006243162824075554,-2.2437185617567357,2.2443042400629647
1.6936085550857995,-0.2237462951867758,0.09041489219748611,-1.6452864268807632,1.6628904605592516
1.696095498632181,-0.33877278746705375,0.16709302364969325,-0.869713030426583,0.9482024232063452
1.6985824421785625,-0.42028692653139943,0.21504484828728865,0.02554092307962641,0.47279776452503697
1.701069385724944,-0.44913506796713143,0.21990513632546893,0.9494959058851187,1.0731370152747342
1.7035563292713254,-0.40616356736536674,0.20082748122410798,1.8446912134923128,1.8995226226095656
1.706043272817707,-0.33446802348565086,0.15781186316467988,2.644089334773451,2.6698280568517174
1.7085302163640885,-0.23404840520968806,0.0956466656522088,3.314171581850534,3.323802072112185
1.71101715991047,-0.08575106814345312,0.009543465554671116,3.792688846929048,3.793670124436563
1.7135041034568514,0.08169359889790861,-0.08134414365447018,4.055699248779572,4.057337441026929
1.715991047003233,0.2587088203737983,-0.18180458509898356,4.12714493937569,4.139240088653542
1.7184779905496144,0.43571782073640375,-0.25831905533547994,4.011814457407189,4.043665910324199
1.720964934095996,0.5839902111488845,-0.3252527841186752,3.6905543249571,3.750603306903334
1.7234518776423775,0.713102829328499,-0.39218259787756304,3.230402323866512,3.3313393716816764
1.725938821188759,0.81347889970241,-0.43037809647293024,2.6840310260050604,2.837427668636239
1.7284257647351404,0.8755416466882588,-0.4398392996813185,2.0801709866281506,2.2993788548734795
1.7309127082815219,0.9040795046545994,-0.4397198405540732,1.4571295676164482,1.7702937230119478
1.7333996518279033,0.889515697998463,-0.4252313355341695,0.8819445507543318,1.3228325881649297
1.735886595374285,0.8222734511057368,-0.3867969977371222,0.383346491243719,0.9862555846233068
1.7383735389206665,0.7215064082724972,-0.3435704601928071,-0.005145652416455704,0.7991486945707712
1.740860482467048,0.6015798104622283,-0.2907633393216713,-0.25958972839332173,0.7168182579542589
1.7433474260134294,0.47685889862564923,-0.24274086481721557,-0.39435081144439366,0.6647030157427667
1.7458343695598109,0.3425553004188776,-0.1995030564034459,-0.3998519597561243,0.5630516788716621
1.7483213131061923,0.20824585344508173,-0.14668472383452924,-0.252151021586986,0.3584171890002532
1.750808256652574,0.08829579861330183,-0.09865109677725847,-0.013497104996481823,0.13308027198425326
1.7532952001989555,-0.01729483314328406,-0.06976740488885458,0.2969563118006473,0.305531754743468
1.755782143745337,-0.08937239762585347,-0.06003366785564035,0.6887861704714471,0.6971498084101554
1.7582690872917184,-0.13751367057341302,-0.05029629207244257,1.0997433628351665,1.1094481469139557
1.7607560308380998,-0.16171862110097557,-0.04534370052502101,1.4915207972674747,1.5009474515350318
1.7632429743844813,-0.14283360505941367,-0.05475271950849825,1.8497533986978603,1.8560675997985985
1.765729917930863,-0.09522380155943677,-0.05936975538482514,2.150499285365031,2.153425066398502
1.7682168614772444,-0.03325438972993511,-0.08313684438713764,2.37460497877543,2.376292573433672
1.770703805023626,0.0574398712033678,-0.12126560281473164,2.5029170003805064,2.5065111601633916
1.7731907485700074,0.15291699543301418,-0.14502563035304128,2.5593775014571065,2.5680399599531896
1.7756776921163888,0.24838861041303795,-0.1687821565576737,2.529621406659773,2.5473846939923597
1.7781646356627703,0.33906634357718257,-0.20211200765095816,2.413648850541799,2.4457138063774444
1.780651579209152,0.42016182233842253,-0.23064999324037583,2.240190387513712,2.290892478629533
1.7831385227555334,0.4868866740883631,-0.23045411627914136,2.0092461519972655,2.0802013922768743
1.7856254663019149,0.5392409295171177,-0.2350432195502754,1.7687003115479687,1.8639546365705701
1.7881124098482963,0.562859409331502,-0.23962891926001362,1.5089761938059034,1.6282634575189854
1.7905993533946778,0.5721073541373424,-0.2202692183187338,1.2444391429386759,1.3872469620347787
1.7930862969410595,0.5478311812748978,-0.2152713627859444,1.018184922959378,1.176078781440496
1.795573240487441,0.504396131302747,-0.20548175886214848,0.8302136679196401,0.992921419297037
1.7980601840338224,0.4513790414347426,-0.1765352160525775,0.6853139151102692,0.8393824419161046
1.8005471275802039,0.38399153889892707,-0.14279696376844564,0.6026394116997214,0.7287075787592985
1.8030340711265853,0.31181046085884806,-0.12820903804535622,0.5965555014504442,0.685231192553516
1.8055210146729668,0.234835837811592,-0.11361784501958816,0.6574855114353788,0.7073500428889569
1.8080079582193485,0.16264450686839527,-0.09423500077147917,0.7471223487153651,0.7704059156930376
1.81049490176573,0.0904480951527461,-0.08442573464546133,0.8654661468211025,0.8742655282467404
1.8129818453121114,0.027823439721603282,-0.06982485604659416,1.0220938458292164,1.0248538842204906
1.8154687888584928,-0.0012874124349904204,-0.05043238432307762,1.1834867558364,1.1845615155235523
1.8179557324048743,-0.001672834277218982,-0.05497875872688063,1.3496450100821455,1.3507653813765372
1.8204426759512558,-0.011640022036336517,-0.0738871919290438,1.506203531743461,1.5080596428127904
1.8229296194976374,-0.0024585254885596264,-0.07363887998032581,1.6531624538545273,1.6548035617035204
1.825416563044019,0.030660088958468945,-0.09254106871710333,1.7761566993823088,1.778830096219114
1.8279035065904004,0.07813904490590462,-0.12101697075331863,1.832090771263882,1.8377451977081596
1.8303904501367818,0.13518996924439008,-0.13033618540198955,1.86884883541161,1.8782597846487508
1.8328773936831633,0.20181289215358433,-0.14444074847961197,1.8768542177814425,1.8931913078357228
1.8353643372295447,0.26843103714082983,-0.16811908250118224,1.8321650342534994,1.8593407327175586
1.8378512807759264,0.3254676276811834,-0.18221759335956023,1.749146627153312,1.7884759856592918
1.8403382243223079,0.372922693857655,-0.18673630020799603,1.6421643386871718,1.6942979362158526
1.8428251678686893,0.4107962657200981,-0.20082883545982932,1.5399487209008207,1.606402146439615
1.8453121114150708,0.4342999699643827,-0.21491841158505265,1.4281346958337053,1.5081031453429623
1.8477990549614522,0.4577990465335551,-0.21463983771159967,1.311510798680665,1.4055998015067765
1.8502859985078337,0.4525631054532704,-0.21914674618753205,1.2044423711493746,1.305189674415952
1.8527729420542154,0.43295738659696464,-0.20449713945575398,1.1117179481767963,1.2104494929375968
1.8552598856005968,0.4085587264822836,-0.18984464981934712,1.0429144678881208,1.136059774563037
1.8577468291469783,0.37457875162997506,-0.18955450623813963,1.0076088682742483,1.0915657485615637
1.8602337726933598,0.3310174918447097,-0.1892615177268695,0.9962244739084856,1.0667031941518126
1.8627207162397412,0.28745178353490064,-0.17460049327676286,1.0039730125460018,1.0588086087818602
1.8652076597861227,0.24388165643108672,-0.16951346841775194,1.0356430184420233,1.0773901521576534
1.8676946033325044,0.20030714022596596,-0.15963525209317897,1.0912346223888925,1.1208922183852408
1.8701815468788858,0.16630507121473603,-0.14975426650327917,1.151594341752947,1.1731382037104907
1.8726684904252673,0.13708707569296086,-0.1446589338236257,1.207145500394443,1.2234865477722203
1.8751554339716487,0.11265318323742701,-0.12998406292361198,1.2914070519076546,1.3028118705417426
1.8776423775180302,0.10258023002603267,-0.1153064792489813,1.3708603032516145,1.379520300242116
1.8801293210644117,0.09250303559512629,-0.11020300821997919,1.4311401745137609,1.4383545160085964
1.8826162646107933,0.10157524268283902,-0.12425047523108468,1.4866120055485261,1.4952494659963063
1.8851032081571748,0.12022007406457691,-0.12393007576791293,1.5372759260924322,1.5469417580604896
1.8875901517035563,0.15322596243541875,-0.12360703849287713,1.5591900491216162,1.571569440021378
1.8900770952499377,0.1862277271674908,-0.12806978540116587,1.5619313106934651,1.5781989911361862
1.8925640387963192,0.2240138008720065,-0.12295312517984769,1.5359230334212377,1.5570353941277348
1.8950509823427006,0.26179580947702374,-0.12262228641072204,1.5003189596752016,1.5279169649379518
1.8975379258890823,0.2899969755473029,-0.1366540943278638,1.4551192183775452,1.4900149418763657
1.9000248694354638,0.313405731565108,-0.14110655089547608,1.4099007449223286,1.4511906566044364
1.9025118129818452,0.34159891328922626,-0.14076807797169621,1.364663667892204,1.4137936185317959
1.9049987565282267,0.3506345331919826,-0.14521550070674794,1.3146197123769188,1.3683044638099533
1.9074857000746082,0.35487783026356573,-0.1448720309411331,1.2693458132524853,1.325958134098961
1.9099726436209896,0.35911723680845703,-0.13973768712723444,1.2192652919372158,1.2787101560163485
1.9124595871673713,0.3633527817653474,-0.14417769764936716,1.1835318895928566,1.2464189448974716
1.9149465307137528,0.3532192840661001,-0.14382687094070912,1.1621457339195835,1.2231241712550083
1.9174334742601342,0.3287167725572202,-0.14826203200647425,1.13595333915414,1.1918164017291275
1.9199204178065157,0.3089988893197568,-0.15269479586116397,1.1288968492319675,1.1803406756058987
1.9224073613528971,0.28927725978609675,-0.14754837416892475,1.1409763913010043,1.1862878998183823
1.9248943048992788,0.27434031598175607,-0.13761118852455567,1.1578268823604319,1.1978157361199542
1.9273812484456603,0.24503447328279082,-0.13246006381261655,1.1746600458603993,1.2072339396086298
1.9298681919920417,0.2205133735794318,-0.1320950182462446,1.210629621661118,1.237618407513479
1.9323551355384232,0.21035385207263235,-0.14130447332784168,1.2465821228669363,1.2720780975693635
1.9348420790848047,0.20497913063299644,-0.14572323724726122,1.2873060789886246,1.3116434907664307
1.9373290226311861,0.19960083440197507,-0.15013973144406112,1.313648002738427,1.337181179627771
1.9398159661775678,0.1942189917914805,-0.15934237732599676,1.3256080199110336,1.349202591324539
1.9423029097239493,0.20798724444442862,-0.16854278962817304,1.3279746594209065,1.354688917003201
1.9447898532703307,0.2169636040703049,-0.17295258305340244,1.330324853300457,1.3589518081171614
1.9472767968167122,0.22593650224946693,-0.18214858223291763,1.3230819200967368,1.3545372554289723
1.9497637403630936,0.24927117715150882,-0.1865539984839355,1.325399598072794,1.3614780970255698
1.952250683909475,0.2821792536130314,-0.18138044641098316,1.322912802041845,1.3647792053354495
1.9547376274558568,0.2959303398169354,-0.19056996050722042,1.3108332532483526,1.3572676573519131
1.9572245710022382,0.30967807709674683,-0.19975734866982586,1.313103092647541,1.3638340227837382
1.9597115145486197,0.32821089677218745,-0.20894262872320457,1.2866268144974278,1.344168134811105
1.9621984580950012,0.34195202014880555,-0.21333741513750049,1.250558156005523,1.3139024843318219
1.9646854016413826,0.3461130717988525,-0.2129417256689825,1.233627660803732,1.298836264700447
1.967172345187764,0.35027088620156205,-0.20296717471920278,1.221470242423182,1.2868080357455303
1.9696592887341458,0.3496370878209013,-0.21214419989725108,1.1949324108550687,1.2629785117894257
1.9721462322805272,0.3250580911052353,-0.21174239893359914,1.1875331123927104,1.2492927995983378
1.9746331758269087,0.31005274697130575,-0.19697338612518234,1.1753304532627187,1.2313946950969135
1.9771201193732901,0.29504427639766245,-0.18699079233517013,1.1679013627092676,1.2190202108543233
1.9796070629196716,0.27524430362744035,-0.18658303843025603,1.1652459631096441,1.211763513005959
1.982094006466053,0.26501806612890516,-0.1765965286397959,1.1625759732929222,1.205406073893904
1.9845809500124347,0.24042357475141218,-0.16181968375872025,1.1742567251399052,1.209490786192402
1.9870678935588162,0.21103766352971776,-0.15182932786606207,1.2002883403393163,1.228120979457176
1.9895548371051976,0.19601397308207336,-0.1514138816841073,1.2167289237455812,1.2416830976900461
1.992041780651579,0.1857757240473943,-0.13663134597662197,1.2235785965803476,1.2451206071534797
1.9945287241979606,0.17074613700679975,-0.13621215799394593,1.2352026897902721,1.2543658478104527
1.997015667744342,0.15571364244420383,-0.13579112506652935,1.2516013241235946,1.2685392554580288
1.9995026112907237,0.1502550741053723,-0.11621465116722085,1.2488326034879176,1.2631964629362846
2.001989554837105,0.1591588623569532,-0.1014247701141775,1.2316850514721196,1.2460604293048356
2.0044764983834864,0.15369461426427933,-0.09620990240659655,1.2336776113447883,1.2469317657788315
2.006963441929868,0.14822756671604087,-0.08620485522450627,1.2452335962480046,1.256984247245595
2.0094503854762498,0.16191135986146044,-0.08098645231136858,1.2567763190786323,1.2697483254987993
2.011937329022631,0.17080400390684658,-0.08055471073168707,1.2347870758852455,1.2491445840834081
2.0144242725690127,0.17490552559964812,-0.08012124419111633,1.2079964056322403,1.223219797369399
2.016911216115394,0.18858116158751248,-0.08926287631750673,1.1859812337530418,1.2041935900878051
2.0193981596617756,0.18788892189453277,-0.09361441409820692,1.1735300821095436,1.1921571872507721
2.0218851032081573,0.19677084968656278,-0.0931758744423643,1.1562778590297,1.1765963616069777
2.0243720467545385,0.21043856814589268,-0.09752408086040187,1.1581666991498185,1.1811627492985655
2.02685899030092,0.20495008711159146,-0.08750543690133616,1.1696199136084093,1.1906605234086185
2.0293459338473014,0.2090358528838625,-0.09185037927757689,1.1810608132869227,1.2029285617385124
2.031832877393683,0.20833068181750225,-0.1057705214194069,1.1685474988473992,1.1916762703227715
2.0343198209400644,0.20762300348565843,-0.10532386343575384,1.175175717176332,1.198014354682925
2.036806764486446,0.2069128440779685,-0.09529882531709877,1.181791971734837,1.2035476956100106
2.0392937080328277,0.201411826400263,-0.0900606336540486,1.1788195723619346,1.199288633203714
2.041780651579209,0.18633157319457805,-0.10397451499651567,1.1806238452340843,1.1997511487276193
2.0442675951255906,0.18561412706074643,-0.10831006597072435,1.1728396963403735,1.1923659789959145
2.046754538671972,0.18010590065141507,-0.10306730308371037,1.1794092579655011,1.197525449495392
2.0492414822183536,0.17938372647644008,-0.1169766627231339,1.1811790322431186,1.200435740536413
2.0517284257647352,0.17387082369948303,-0.1260961447117892,1.1637839243575883,1.1834375030555107
2.0542153693111165,0.17314402470022272,-0.1256373621121072,1.1559544691051613,1.1755825512026263
2.056702312857498,0.18678016179282553,-0.12996554122597548,1.1529023777676244,1.175143294840147
2.0591892564038794,0.18604884066316574,-0.14386910167268363,1.1402625547125478,1.1642642239662777
2.061676199950261,0.1853152968138615,-0.14819444642781043,1.1228235173138454,1.1476218907890745
2.0641631434966428,0.19415636236087486,-0.14294159170586163,1.1197389926301646,1.145401415793183
2.066650087043024,0.1982068527519848,-0.14247576363978043,1.1214322875207792,1.1476914547022963
2.0691370305894057,0.2022551966493391,-0.1515853816792121,1.1279035152067998,1.1558769969708502
2.071623974135787,0.2110898226479282,-0.14632844530908473,1.110422368707411,1.1397406564907147
2.0741109176821686,0.22471075595501055,-0.13628177721349788,1.0929309772839098,1.1240844130887608
2.07659786122855,0.22875281174922257,-0.14538740999430644,1.0754294533134683,1.1090598978063055
2.0790848047749315,0.2327928217428183,-0.1401265363662656,1.072283118850386,1.10617314694423
2.081571748321313,0.23683081093922292,-0.13486438220374053,1.0787036823826686,1.112600048976835
2.0840586918676944,0.2360784009530889,-0.12960096337647853,1.075537642151117,1.1087428199490912
2.086545635414076,0.23532401997097824,-0.12912469903069557,1.0867271259918727,1.1193866305444355
2.0890325789604574,0.2345676927901728,-0.13822400826860148,1.107483841530538,1.1404597047743428
2.091519522506839,0.22423263749811273,-0.13774529354667608,1.1090774795012734,1.139871438869541
2.0940064660532207,0.2330492986752704,-0.13726537719895227,1.1106617635503255,1.1431199903786677
2.096493409599602,0.2179220710277292,-0.1415726781946649,1.1218136103910883,1.1515201382133589
2.0989803531459836,0.1980045923556698,-0.1458788088177907,1.1138027098810745,1.140632684957983
2.101467296692365,0.18766209706876158,-0.140606977987201,1.096205978145763,1.1210062138353414
2.1039542402387466,0.17731780290469612,-0.14012241117837831,1.0833887343352675,1.1067100085505523
2.106441183785128,0.1765485408117301,-0.13484831722014956,1.0753510873419643,1.0980589314637907
2.1089281273315095,0.1709891250656551,-0.12478471153671666,1.0625163391196661,1.083397192178509
2.111415070877891,0.1654279831523796,-0.12429681946782534,1.0592498079247097,1.0792711765484222
2.1139020144242724,0.16465354248643993,-0.10465423642486371,1.0559747951117249,1.0738463885334133
2.116388957970654,0.16387742377015624,-0.1041642042579034,1.0526914083747343,1.0704509296255513
2.1188759015170353,0.15831124763402893,-0.09409631828680798,1.0398229484648223,1.0560058391868161
2.121362845063417,0.1623202479177619,-0.08402740034795553,1.046099942392189,1.061948000782647
2.1238497886097987,0.1711160451075503,-0.07874586891130697,1.0619456903001012,1.0785222584215888
2.12633673215618,0.17033345297647817,-0.07825173908024041,1.068206685385686,1.0845286269041707
2.1288236757025616,0.17912610846711896,-0.07775662259142369,1.0696714371411122,1.0873496395028286
2.131310619248943,0.18312882520694518,-0.08204893777561306,1.0663400514306591,1.0850572796386941
2.1337975627953245,0.18713003003155315,-0.07676348963564461,1.0486358271693952,1.0679641283788015
2.1362845063417057,0.19591814970320398,-0.0858423096900447,1.0500776928456013,1.071641723958147
2.1387714498880874,0.19512799762936572,-0.09492020284789948,1.046723736793215,1.0689786534509862
2.141258393434469,0.20391321038594556,-0.08005516733059714,1.0481508702767712,1.0707986150757693
2.1437453369808503,0.2126970045530236,-0.0795544444763876,1.0399939876466782,1.0644982009017274
2.146232280527232,0.20711419331621528,-0.08862964569337439,1.0270415962210429,1.05145895951151
2.1487192240736133,0.20631841302897258,-0.08812717238126222,1.023659009644092,1.047955845487888
2.151206167619995,0.20552128336863662,-0.1019890557749843,1.0154811213227237,1.041077649927334
2.1536931111663766,0.19993442393780692,-0.10627329385863504,1.0072964376286873,1.0324310631332003
2.156180054712758,0.19913466422508652,-0.09619149784973091,0.98952825465547,1.0139396360317083
2.1586669982591395,0.19833362368301677,-0.10526250548032179,0.9669650781392445,0.9926922401651311
2.161153941805521,0.19753132500913995,-0.10954431459063585,0.9683374300985843,0.9943319162879815
2.1636408853519025,0.2110930007864384,-0.1186137462148884,0.9840686056694974,1.0134201973695127
2.166127828898284,0.21028825363940168,-0.12289400805772921,0.9950050930264123,1.0243823612224596
2.1686147724446654,0.20469391267915832,-0.12238511441599842,0.9867817833422325,1.0151925935774928
2.171101715991047,0.20867521026110808,-0.1218754828583033,0.9881291973499682,1.017250356281557
2.1735886595374283,0.20786695874255817,-0.11657672426396459,0.9846822255762486,1.0131129702766573
2.17607560308381,0.20226918036536173,-0.1208540627447805,0.976440968184221,1.0044677646177271
2.178562546630191,0.21103551057605796,-0.12513070576210117,0.9729823316523909,1.0034382382370837
2.181049490176573,0.2054355515413266,-0.12461826404859533,0.9743064154925385,1.003497119498354
2.1835364337229546,0.19983453523375733,-0.1336819615690783,0.9852017222098333,1.0141139688251364
2.186023377269336,0.1990208869082472,-0.13316819899696908,0.9913031407004596,1.0198161596152695
2.1885103208157175,0.19820622510183816,-0.1326537968782473,0.9830339628523834,1.0115525243983117
2.1909972643620987,0.20696737823510913,-0.1321387690688507,0.9795479001461107,1.0098565435868605
2.1934842079084804,0.20136235140890962,-0.14598833933613298,0.9856334537710953,1.0165297324622558
2.195971151454862,0.19096797288856115,-0.15026050483532494,0.9773487046640206,1.0071035083301874
2.1984580950012433,0.19493787750214353,-0.14495527927350071,0.9642705566721226,0.9943995753916353
2.200945038547625,0.1941184734372275,-0.1348610796282177,0.9703411232711403,0.99871486823777
2.2034319820940063,0.18372137876414496,-0.12955472614743702,0.9716184844005671,0.9972865442343994
2.205918925640388,0.18768863139679126,-0.1290362323884766,0.9633143329472347,0.9898746767577142
2.208405869186769,0.1772898326471608,-0.12851720853823645,0.9597939747446258,0.9844556016431651
2.210892812733151,0.1668902136314543,-0.12320926473341576,0.9466922953690133,0.969153841468501
2.2133797562795325,0.16606660206681112,-0.11311241438073472,0.9192209867012586,0.9409249475920443
2.2158666998259138,0.16045380898992045,-0.10301507415683986,0.8965337568870648,0.9165862248370024
2.2183536433722955,0.15484025863969508,-0.10249406400822147,0.8882075070940871,0.9074101137362433
2.2208405869186767,0.14443756853526102,-0.09718418722924804,0.8894539281909566,0.9063306614178465
2.2233275304650584,0.13403416275707336,-0.09666226366520547,0.8906963073872234,0.9058966066809758
2.22581447401144,0.1236300619858477,-0.10092830647002282,0.8919347381936458,0.9061007076865677
2.2283014175578213,0.11801369014305674,-0.10040552210619147,0.8979577171012245,0.9112280513857335
2.230788361104203,0.12197347107049006,-0.099882326946243,0.9039769336196226,0.9176210020468775
2.233275304650584,0.1115674086082552,-0.09457033067110743,0.905204076917169,0.9169434306293207
2.235762248196966,0.10116073307902917,-0.08446954623097103,0.9112160457811722,0.9206971707606297
2.238249191743347,0.10511867472543768,-0.07436838984519811,0.9172245286954226,0.9262188883977371
2.240736135289729,0.09949923714743747,-0.0786320843225683,0.9232296171208532,0.931899151629054
2.2432230788361105,0.10345605374751143,-0.06374181921745015,0.9340198054949322,0.9418912737842671
2.2457100223824917,0.11220074124617874,-0.04885122055629054,0.9400183779498459,0.9479504201009095
2.2481969659288734,0.10657970632251457,-0.04353710767346808,0.917283408311933,0.9244801591752637
2.2506839094752547,0.11053498545777374,-0.033434283250309615,0.8801801966245293,0.8877235002164847
2.2531708530216363,0.11448979181029906,-0.028119566518118866,0.8526508492255669,0.8607625068130076
2.255657796568018,0.11365574177790594,-0.027592970015933194,0.8442722621454557,0.8523348240343059
2.2581447401143993,0.10803285499778581,-0.03185450623107533,0.8502561211065451,0.8576836705950197
2.260631683660781,0.11198636098701653,-0.03132738095847598,0.8466604982023167,0.8546088866031215
2.263118627207162,0.11593947257998083,-0.03558841322246353,0.8526390950608782,0.8612211811631494
2.265605570753544,0.10552699920950426,-0.044637615354841564,0.8634035963601168,0.8709731537047012
2.268092514299925,0.09511417014895251,-0.058474999635446334,0.8693772831084434,0.8765174791928042
2.2705794578463068,0.09906621459026244,-0.06752377165146184,0.865771839284923,0.8740334388969802
2.2730664013926885,0.10301794172197509,-0.07178394357861162,0.8573757551591115,0.866521099804838
2.2755533449390697,0.10218096729164627,-0.07604393086078565,0.8585543272905944,0.8679511290428865
2.2780402884854514,0.10613211692607116,-0.08509214888966943,0.8549424319660197,0.8656969804855756
2.2805272320318326,0.11487140952964114,-0.08935180304376189,0.851328558401768,0.8636778912215655
2.2830141755782143,0.12361046060456382,-0.09361130861017797,0.8333475821810072,0.8476501730062426
2.285501119124596,0.12277248225079251,-0.09308227418304948,0.8153647984563843,0.8297934361797096
2.287988062670977,0.12672270308781264,-0.0925531149447183,0.8165339053480327,0.8314760015459028
2.290475006217359,0.1258843350514497,-0.08723543938443745,0.8272781807009828,0.8413358877165941
2.29296194976374,0.12983420327659767,-0.07712925925925873,0.8284440953659971,0.8420958746610364
2.295448893310122,0.13378392285496277,-0.06702298959398467,0.824820136441355,0.8382830528095587
2.2979358368565035,0.14252191543655512,-0.05212823872018424,0.825983193991215,0.839808362906504
2.3004227804028847,0.1464713926280532,-0.051598631518335214,0.8079913344827467,0.822779608541787
2.3029097239492664,0.14563237259430784,-0.06543417953496755,0.7995750605513585,0.8153592442933179
2.3053966674956476,0.14958168005826733,-0.06490447434199842,0.8103112611956806,0.826554057408951
2.3078836110420293,0.15353092969936144,-0.05958633402106184,0.8018927918553356,0.8186295421043418
2.3103705545884106,0.16705694607530486,-0.05905657660097008,0.7743197341761885,0.7943341571445337
2.3128574981347922,0.16142932709860913,-0.0633152134170536,0.785053009291298,0.8039754170961196
2.315344441681174,0.15580170380215036,-0.06757385243143066,0.7862086649299389,0.8043410105490051
2.317831385227555,0.1645393038156694,-0.08619771483454253,0.7729983783469816,0.7950029694723822
2.320318328773937,0.15891172480322796,-0.09524479520136042,0.77894105300226,0.8006707633885202
2.322805272320318,0.15328419422877765,-0.09950350797573071,0.770517945513415,0.7918932356435784
2.3252922158666998,0.15723353615298707,-0.11333907418908984,0.7620943453430886,0.7863561037043736
2.3277791594130814,0.165971364592571,-0.12717469821825533,0.7680355415955233,0.7959890017365524
2.3302661029594627,0.15076727687962493,-0.12185677774631687,0.7691879997741058,0.7932402064046568
2.3327530465058444,0.1451401134271897,-0.11175053364543519,0.7607633949842221,0.7825054488267903
2.3352399900522256,0.1538782946432939,-0.10643278341431106,0.7523386119330233,0.7752547026319506
2.3377269335986073,0.1578282242512144,-0.09632673121722224,0.7534905349682148,0.7758457152062987
2.3402138771449885,0.16177832249257185,-0.08622079112617875,0.7450656281559578,0.7672868047284318
2.34270082069137,0.17051700952572413,-0.0713265705193531,0.7366407751243731,0.7594755833965205
2.345187764237752,0.16967909214449095,-0.06600929000291744,0.7234276491805129,0.7459864504644245
2.347674707784133,0.1688413936609311,-0.06548055684852949,0.7054263265914074,0.7283003650876512
2.350161651330515,0.17279233398343852,-0.06016357495424973,0.6922136899041558,0.7159864795688858
2.352648594876896,0.16237831633546573,-0.04526995148514601,0.6837898146645038,0.7042617388175539
2.3551355384232777,0.15196456709924777,-0.03995331015452841,0.6849431793775711,0.7027351247958374
2.3576224819696594,0.15112790925327857,-0.049002064661435085,0.695673858867055,0.7135845886840115
2.3601094255160406,0.1502915524113515,-0.06762782201091255,0.7016167176344279,0.7207129050462897
2.3625963690624223,0.1446671094241026,-0.07188857587341468,0.6979834264603575,0.7164338095759959
2.3650833126088036,0.14383140301961722,-0.06657273978788103,0.6991392690451566,0.7168787343048002
2.3675702561551852,0.13820764256122597,-0.07083393720080089,0.6955075121258396,0.7126356001107252
2.3700571997015665,0.132584247289682,-0.07509537158339485,0.6870882287181725,0.7037813094319112
2.372544143247948,0.13174963636220238,-0.06499184303316463,0.6786698947962275,0.6943880272910403
2.37503108679433,0.13091542221184171,-0.05488857151607274,0.6798293892922587,0.6944923337240413
2.377518030340711,0.1252932171881047,-0.054362373624349924,0.6857783808153499,0.6992464841049557
2.3800049738870928,0.12445984351787753,-0.05862485593586353,0.6821517309716114,0.6958865643548243
2.382491917433474,0.1379921233444859,-0.05331081833443063,0.6689495109656587,0.6851111717654299
2.3849788609798557,0.1323712488448805,-0.047997077252000864,0.6605370016005221,0.6753776702178537
2.3874658045262374,0.11238563867494267,-0.03789523910615333,0.6521258700353627,0.6628233032239181
2.3899527480726186,0.10197732468825216,-0.03737052354228654,0.6485045897072812,0.6575364124151657
2.3924396916190003,0.10593472537356396,-0.041634536871118843,0.6736152469718899,0.6831640371487987
2.3949266351653815,0.10510424253452022,-0.04589888534994291,0.7083042979391898,0.7175295031942944
2.397413578711763,0.09469748785215593,-0.059740385143554064,0.7190529883953971,0.7277181651868808
2.3999005222581444,0.08429128288489196,-0.06879383576177833,0.7106497903263573,0.7189302724882957
2.402387465804526,0.07867404578731185,-0.06827084330164412,0.702248385315924,0.70993190392071
2.404874409350908,0.06826898466953979,-0.06295982044739912,0.6938488413037653,0.7000362903715467
2.407361352897289,0.057864517519131575,-0.06722598647051692,0.6710860159056615,0.676922503975743
2.4098482964436707,0.05703746556046485,-0.07149254398751737,0.648325186296308,0.6547442275495912
2.412335239990052,0.05142263333288122,-0.07575950220216665,0.6447200326077507,0.6511894577145326
2.4148221835364336,0.050596841893830624,-0.07523846694455294,0.6459054113669005,0.6522381986290291
2.4173091270828153,0.04977170225639105,-0.06992944731172202,0.6375161787377213,0.643268395072514
2.4197960706291965,0.04415882535023352,-0.06462085566769415,0.619552400482215,0.6244766078779992
2.4222830141755782,0.043335031982575045,-0.054524297682535305,0.6063793519604221,0.6103660725487993
2.4247699577219595,0.04251193291633837,-0.039639782293319215,0.5979970982086122,0.6008153678514437
2.427256901268341,0.04647794547173867,-0.03433252834476841,0.5896173005799383,0.5924419659856918
2.429743844814723,0.05044468024506521,-0.033814141347081605,0.5860284267054361,0.5891666817012957
2.432230788361104,0.054412151069645476,-0.02850782343689806,0.59680734717376,0.599960321872802
2.4347177319074857,0.058380371695575084,-0.023201986658558216,0.6075889156094103,0.6108280366483161
2.437204675453867,0.06713775911005604,-0.027473446323509787,0.6183731952352698,0.6226135860521257
2.4396916190002487,0.06153071361556273,-0.03174540440876239,0.6243718455914671,0.6281990138375029
2.44217856254663,0.06071286199394266,-0.026441062838165497,0.6255849291760907,0.6290800307017874
2.4446655060930116,0.05989581434239377,-0.025925640083995116,0.622012508124957,0.6254272201091051
2.4471524496393933,0.05907958399538171,-0.03977595124510769,0.6088662408914214,0.6130176366465901
2.4496393931857745,0.06305258752468335,-0.04883839144540403,0.6100882054886689,0.6152791527013708
2.452126336732156,0.0766032414191199,-0.04832456571666954,0.6208900596460918,0.6274613824092667
2.4546132802785374,0.08057794548304098,-0.0525996923189167,0.6029646374890927,0.6105946994469126
2.457100223824919,0.07976511603949887,-0.05687537617791616,0.599407629226743,0.60736050919318
2.459587167371301,0.07895316932873864,-0.0707284321274213,0.5910654815425271,0.6004952268997275
2.462074110917682,0.08771892482855481,-0.07021685170606995,0.5779382540398288,0.5887594088583176
2.4645610544640637,0.08212037869186217,-0.06012904632148697,0.5648144092811318,0.5739116445408824
2.467047998010445,0.0813111568717304,-0.05961863728937322,0.5564824094678826,0.5655427111998184
2.4695349415568266,0.08529127195739561,-0.05432042263043213,0.557730716440668,0.5668234835010632
2.472021885103208,0.08448392981493336,-0.034657603632907374,0.5589825817184462,0.5663922762107281
2.4745088286495895,0.09804275614982472,-0.0341490114150953,0.5506612564596693,0.5603627007392837
2.4769957721959712,0.10202574670232584,-0.03842944383947566,0.5423436047437296,0.5531931495873763
2.4794827157423525,0.09643291373191554,-0.04271050535649623,0.5436064902899069,0.5537431809096569
2.481969659288734,0.09562947937672694,-0.037415397043669696,0.525719549895074,0.5356546969864807
2.4844566028351154,0.09003864909111903,-0.027332529886873846,0.5126248565198601,0.5211892833147835
2.486943546381497,0.08444883820824445,-0.026827121460081926,0.5043224661638543,0.5120473128512132
2.4894304899278787,0.07407165533855709,-0.035899179323844344,0.4864472245064704,0.49336220308285467
2.49191743347426,0.06848391897145067,-0.03539509770502347,0.47336439678999653,0.47960057573734594
2.4944043770206417,0.06289723755344845,-0.030103287379654287,0.479439247897961,0.484483501089438
2.496891320567023,2.5951653825351624,-2.1987472664933043,8.094291095089744,8.779915787561393
2.4993782641134046,2.4602939563401156,-2.28922489395956,2.2297917699149092,4.033059422313056
2.501865207659786,2.1099454704898233,-2.250416328444451,-3.4192251776849663,4.605143250267544
2.5043521512061675,1.5680619530257442,-2.067956367233693,-8.450533815313548,8.840066944829493
2.506839094752549,0.9016810617906157,-1.7562102274827383,-12.533734260736637,12.688254317244361
2.5093260382989304,0.20657087446759675,-1.348696739576207,-15.42940629516314,15.489616943060334
2.511812981845312,-0.5029033877868334,-0.874146330526377,-16.993897766565112,17.023795256202035
2.5142999253916933,-1.1213968408115393,-0.36607783061386456,-17.179324589677453,17.219777501760742
2.516786868938075,-1.6010254403703277,0.14198992993263015,-16.038359149317913,16.118697459888775
2.5192738124844567,-1.9130587555893745,0.6117497176160267,-13.743383913667468,13.889371221109839
2.521760756030838,-2.0000359357539326,1.024047912272,-10.53860740106975,10.775484389335723
2.5242476995772196,-1.890687389995912,1.3693077004289709,-6.716122163424116,7.1102742070317
2.526734643123601,-1.6233203341685334,1.5948566387841785,-2.5775975596251373,3.4384219905335165
2.5292215866699825,-1.2075115642840075,1.7150599305705545,1.5561434377931462,2.611723021745407
2.5317085302163638,-0.6911451029976922,1.715552359150959,5.354701049303756,5.665123544795899
2.5341954737627455,-0.11731656972471749,1.6059107245412072,8.583443561434427,8.733167569963292
2.536682417309127,0.4469363994368307,1.4148654400899292,11.026892873634662,11.126273536333597
2.5391693608555084,0.9489413782704442,1.1184744826734665,12.536608531490382,12.622124558869752
2.54165630440189,1.3408143437992015,0.7741986856649037,13.088648566560266,13.17990470406911
2.5441432479482713,1.5890364829270485,0.3964032526057726,12.683013026652505,12.788314662886066
2.546630191494653,1.6792425957593378,0.013818597049428227,11.401104815668134,11.524115483059344
2.5491171350410347,1.6114326922821434,-0.3591900773602834,9.381787677000103,9.525947346576126
2.551604078587416,1.3999719923629992,-0.7082575669285212,6.826174596855575,7.004156622125801
2.5540910221337976,1.068802522430101,-0.9854998446676198,3.954532174369259,4.213297223542924
2.556577965680179,0.6514431154728376,-1.190916916741916,0.9727617983661627,1.670008009453727
2.5590649092265605,0.2005662176823403,-1.3149319826243886,-1.8845047227575042,2.306649296425281
2.561551852772942,-0.24073253147030915,-1.3575450483779081,-4.401789194236927,4.612659625485546
2.5640387963193234,-0.6341458959132994,-1.3043909100537983,-6.406709051538052,6.568827713876675
2.566525739865705,-0.9413666396543617,-1.174623186894943,-7.7891309736419725,7.9332510426680765
2.5690126834120863,-1.138452736740886,-0.9873954980937698,-8.505959286361243,8.638423923649714
2.571499626958468,-1.2110389679398401,-0.7427078495110278,-8.504521509216222,8.622361418562518
2.5739865705048492,-1.154336920737547,-0.454925456918013,-7.85185524508249,7.949281834710562
2.576473514051231,-0.987500199300649,-0.15277874599691676,-6.6389401137852415,6.713719075391374
2.5789604575976126,-0.7201056012334981,0.1445786642611928,-4.9711209454560255,5.025086916804427
2.581447401143994,-0.37609513417989016,0.41799315491512523,-3.015991813737572,3.067959003644237
2.5839343446903755,-0.008141225783727224,0.6530995103940698,-0.9219931793369316,1.129901178324042
2.5864212882367568,0.3502373095142076,0.8403209184974565,1.1624344966935336,1.4765024138630145
2.5889082317831384,0.6607332538748162,0.9509269537933092,3.064908736355081,3.276354081355116
2.59139517532952,0.9089814059826921,0.9849176108212854,4.6609310945077365,4.8498029407675185
2.5938821188759014,1.0806165644446897,0.9710233040925913,5.845156738948928,6.0229955768971974
2.596369062422283,1.1373315111884974,0.8900904149648938,6.5601248703358515,6.7172183400239165
2.5988560059686643,1.0934914645877711,0.7516957447672317,6.77710510890471,6.905789146286599
2.601342949515046,0.9730384495794593,0.5702044981983647,6.510462704432204,6.6074247343369965
2.603829893061427,0.7520304578201893,0.3551934766860607,5.812870132915682,5.872067046408169
2.606316836607809,0.4687747240535952,0.11145107838700374,4.770518693253386,4.794790890900785
2.6088037801541906,0.17594369290733242,-0.11792707193048502,3.464811280682463,3.4712793301767606
2.611290723700572,-0.10730901430990547,-0.32815257601153736,1.9867275967404492,2.0165033799488787
2.6137776672469535,-0.37619498632703163,-0.5192254388726725,0.4847081824686583,0.8037784186342559
2.6162646107933347,-0.5924069887071038,-0.6719920522001914,-0.9502672612734795,1.305958355514234
2.6187515543397164,-0.7367914003710033,-0.7816640175927303,-2.2224306306463646,2.468412062864519
2.621238497886098,-0.7949830036359614,-0.8338761299595188,-3.2264370155069324,3.4259660230684714
2.6237254414324793,-0.7765585974968731,-0.8286283941221837,-3.9000371359320836,4.062014024168448
2.626212384978861,-0.6767297710635614,-0.7802860248148054,-4.204923728938417,4.329918362943394
2.6286993285252422,-0.5194385334435038,-0.6888490267621579,-4.155461968401119,4.24407746660275
2.631186272071624,-0.31905008717913164,-0.5638942112813572,-3.7803822384926997,3.835499903370708
2.633673215618005,-0.08992963488832295,-0.4149983896413376,-3.117991730361375,3.1467734956996782
2.636160159164387,0.13440400745450615,-0.23737316310201706,-2.2544816686931,2.270924492415834
2.6386471027107685,0.3347972337607432,-0.06453735943783556,-1.2616780685469156,1.3069375681911242
2.6411340462571498,0.5016732445074239,0.10829742018714494,-0.21140694531527693,0.5550651060923693
2.6436209898035314,0.5967248201748896,0.26676596137538455,0.8292940885968498,1.0559229491506317
2.6461079333499127,0.6343171776922597,0.3869262431363891,1.7790222104913607,1.9279497464832118
2.6485948768962944,0.6288155339141525,0.4879318744100454,2.5707398072994945,2.691131666528281
2.651081820442676,0.5371242657770976,0.5506292376211994,3.1469860722621483,3.2396321354780135
2.6535687639890573,0.39755060658875985,0.5798067318436173,3.4886074248523613,3.5587363060256783
2.656055707535439,0.23403657962185337,0.5706759495576903,3.5812386875337783,3.6339667991181934
2.65854265108182,0.05137059479399314,0.5184484832909511,3.3961494724800367,3.435878200295029
2.661029594628202,-0.13129372808995166,0.4422779422195293,2.995589054622272,3.0309077197074896
2.663516538174583,-0.30437957593925224,0.34216432228523086,2.4274414986028976,2.47026224899976
2.666003481720965,-0.43915652245527825,0.22768442611730588,1.710860448815323,1.7809385515598084
2.6684904252673465,-0.5260477546938274,0.10362665307139851,0.9416140024514679,1.0835597136558142
2.6709773688137277,-0.5602648631040127,-0.030009000770535366,0.18673983645570935,0.5913281859303758
2.6734643123601094,-0.5513846481687462,-0.1588573293192148,-0.5058779858345268,0.7649661547196733
2.6759512559064906,-0.4898302971623013,-0.2589763197982293,-1.1122974180071257,1.2426616596401698
2.6784381994528723,-0.39475541735341,-0.3351543793068217,-1.5894228006927218,1.6716534140964454
2.680925142999254,-0.25179479284079387,-0.3969683182184647,-1.8893700715251684,1.9469729660542168
2.6834120865456352,-0.08489043435800481,-0.42526452693864814,-2.0312928149446927,2.0770668751303547
2.685899030092017,0.06286203400838908,-0.42004300910823966,-1.986460582510376,2.031357529015471
2.688385973638398,0.19146261798272524,-0.39088057496290896,-1.7644501526647476,1.8173414371567014
2.69087291718478,0.3009113232177637,-0.3282004214113954,-1.4227223373738287,1.4907722798327494
2.6933598607311615,0.38163134865421744,-0.2607329718793516,-0.9804307223606905,1.0839135437152638
2.6958468042775428,0.40968068320059503,-0.1693246165439204,-0.45672889366770164,0.636482812231701
2.6983337478239244,0.39942454225687074,-0.058763762138370534,0.08613393246231205,0.4128101246568304
2.7008206913703057,0.3556513345114916,0.04221916804761028,0.6098505560702279,0.7072397264220975
2.7033076349166874,0.2687842586212901,0.13841257401161844,1.066536970239543,1.1085594829393965
2.7057945784630686,0.16755373973502352,0.22981645247598292,1.4322511843396146,1.4602168717591462
2.7082815220094503,0.056748186329652506,0.3020655902468463,1.7069932240255774,1.7344422285945749
2.710768465555832,-0.0588439931880822,0.3599483874564089,1.8620326947164774,1.897416984576636
2.713255409102213,-0.160069180520367,0.38909963100019374,1.8830044114783835,1.9294367776747707
2.715742352648595,-0.24692737072050897,0.38473091445887064,1.77469680234557,1.8326319169999452
2.718229296194976,-0.3050533489503797,0.35641904141838676,1.565840311641546,1.63460942134601
2.720716239741358,-0.3296587070818757,0.32810602546987244,1.2755885767376594,1.3577387982259834
2.7232031832877395,-0.32074344037638924,0.2806382503657492,0.9278836380146966,1.0210789527789808
2.7256901268341207,-0.27830754416434056,0.21401571318372703,0.5466675355437047,0.6496947044926205
2.7281770703805024,-0.2119278204855326,0.13781521768593308,0.15588230908607414,0.29699449423781515
2.7306640139268836,-0.12639266812811156,0.052036761037674406,-0.21095319526431666,0.25136463881791304
2.7331509574732653,-0.026490485948568288,-0.03374285291158152,-0.5107433250809841,0.5125417739884074
2.7356379010196465,0.06862511716735897,-0.10994682026878655,-0.7530648647674045,0.7641363756166827
2.7381248445660282,0.15416574222692514,-0.16699833709760803,-0.923552582431876,0.9511071933206752
2.74061178811241,0.23013139348980588,-0.21447421269968547,-0.9838992298863474,1.0329653144000805
2.743098731658791,0.27258005854657386,-0.24758604637267556,-0.9580468024114204,1.0263782997932358
2.745585675205173,0.29108854816251184,-0.2567570340509211,-0.8555720856304454,0.939500032525819
2.748072618751554,0.29044526971538276,-0.24677558158687374,-0.6812634621493867,0.780625740817807
2.7505595622979357,0.2562850172346855,-0.23679530475121435,-0.4494861215169834,0.5690270642487788
2.7530465058443174,0.21733821456587782,-0.20287418938921942,-0.1793936569033594,0.34724043596357934
2.7555334493906987,0.14966284896445048,-0.14022383458502974,0.09070672493920107,0.22425298681418177
2.7580203929370803,0.07720094082251372,-0.0823630659428991,0.35602664020141717,0.37349515181392245
2.7605073364834616,0.004740897184777548,-0.03408028910307648,0.5830472848530714,0.5840617078580007
2.7629942800298433,-0.06771727829035779,0.018989703617481535,0.7621918711675377,0.7654297401436698
2.7654812235762245,-0.13059677536970937,0.08163531330314422,0.9126140310430486,0.9255183476148441
2.767968167122606,-0.1743207838856019,0.1347029244784359,0.991218152917261,1.015404372764979
2.770455110668988,-0.18931249373578585,0.17340413167049462,0.9980042548153119,1.0304953691280354
2.772942054215369,-0.19472551480504008,0.20252733608857687,0.9377607577880074,0.9789436075823578
2.775428997761751,-0.1857714404415366,0.21249572902236746,0.8296412925533208,0.8763390538176509
2.777915941308132,-0.14329665409725512,0.2176745184043436,0.6736458762550637,0.7222983411537672
2.7804028848545137,-0.07687795921058382,0.2084868956065158,0.4841397357059396,0.5326990613296061
2.7828898284008954,-0.010457369245159054,0.1849328586824659,0.2994301140290023,0.35209077235766895
2.7853767719472766,0.041599908911862604,0.14701240572662266,0.11951702749462356,0.1939781423773178
2.7878637154936583,0.09844749155167581,0.11387914815530209,-0.05081110459614813,0.1588777433364259
2.7903506590400395,0.1457201716595714,0.061591067542572375,-0.19718905659007113,0.2528069462424064
2.792837602586421,0.16905274215738675,0.009301775385706534,-0.3387704263638316,0.37872252961104685
2.7953245461328025,0.17802201250527505,-0.042988730059011715,-0.42288276227621857,0.4608358693492507
2.797811489679184,0.18220479210035934,-0.09049204717486647,-0.44952604949539143,0.493417739893051
2.800298433225566,0.1576590670347634,-0.12363137098485177,-0.43306548343547746,0.47716539087937826
2.802785376771947,0.11875004990051691,-0.15198350975337238,-0.36871264651348845,0.41611245750074505
2.8052723203183287,0.07026614658664909,-0.1659716584238886,-0.27562113803124433,0.32931889482043186
2.80775926386471,0.012207359599722245,-0.17038422186125057,-0.16815615425259267,0.23970042741030426
2.8102462074110917,-0.04106109865468899,-0.1556443949299613,-0.027164068480647785,0.16324545357303274
2.8127331509574733,-0.07996241915308122,-0.14569419569743225,0.10904790585732194,0.1987768419826668
2.8152200945038546,-0.12365021285523026,-0.12616841562948267,0.2261145716557742,0.2869418821933666
2.8177070380502363,-0.15775926754007707,-0.09706705611386024,0.34797795809319076,0.39420636625516253
2.8201939815966175,-0.17750117768819396,-0.06317852181980221,0.445907657546746,0.48407833328796807
2.822680925142999,-0.18287594116129136,-0.029291217377876766,0.5151152787182998,0.5473986989755618
2.825167868689381,-0.16909515256136587,0.014171662580867661,0.5412356233932325,0.5672124881117468
2.827654812235762,-0.1457356165117376,0.0432681002215487,0.5290571063631369,0.5504656394455277
2.8301417557821438,-0.12237413769585204,0.062786497669447,0.492944948786171,0.5117736769317074
2.832628699328525,-0.09422231089613725,0.09666887036918848,0.42811075826608835,0.4488892243218013
2.8351156428749067,-0.05170332763442326,0.12097320060021888,0.34413135209541323,0.368421140608069
2.837602586421288,-0.013970799413863366,0.12612268064074383,0.25537195061571083,0.2851612648477042
2.8400895299676696,0.01418687216408554,0.11690571276756812,0.16183256393729906,0.200144926915506
2.8425764735140513,0.03755809207958488,0.12205271589657274,0.0635132019011273,0.14262328896124027
2.8450634170604325,0.046566055293073116,0.11762167245756938,-0.034797722599885006,0.13120265559588276
2.847550360606814,0.036422360026762135,0.09882417819883349,-0.1091581836591029,0.15168492201385184
2.8500373041531954,0.016703814405476913,0.07044863554633807,-0.17872178551915496,0.19283024732958315
2.852524247699577,0.0065640331365816595,0.051648656923910075,-0.22912330944599724,0.23496417008673495
2.855011191245959,-0.013150595692920097,0.023270628229643986,-0.24120913364986762,0.24268561239060024
2.85749813479234,-0.0424400707723776,0.009256565281076767,-0.22455605652646504,0.22871874897061722
2.8599850783387217,-0.07172758420793607,-0.014335549270926506,-0.1839524734137985,0.19796178112014443
2.862472021885103,-0.10101313480350205,-0.037928909496986574,-0.12897518323185153,0.1681572284148105
2.8649589654314846,-0.13029672141991067,-0.04715830611124927,-0.06441258184095844,0.1528074675775967
2.867445908977866,-0.15957834297468554,-0.051600546393401725,0.004946934638832445,0.1677865790132359
2.8699328525242476,-0.16970438516055197,-0.060832437587269084,0.059949759867810926,0.1899845717781793
2.8724197960706292,-0.1558864436873958,-0.05091196365878181,0.11017270717046657,0.19756172902251617
2.8749067396170105,-0.14685493756326928,-0.03620433510081078,0.17476939625505494,0.2311308469983181
2.877393683163392,-0.13303305928946718,-0.026286359050502917,0.23458622001170149,0.2709602593655115
2.8798806267097734,-0.10484400142279798,-0.011581229328507803,0.2608927644350878,0.28140970850645036
2.882367570256155,-0.07665297317690273,0.007911053638999022,0.27763105178958725,0.28812716634210417
2.8848545138025368,-0.0532483771798265,0.022613682820168624,0.2943778941258657,0.30000852133390415
2.887341457348918,-0.029841809473802383,0.0468918678194874,0.2967680866412721,0.3019282664955247
2.8898284008952997,-0.0016448661555988897,0.08074560831516342,0.2560712143214712,0.268505168760172
2.892315344441681,0.03134245330338875,0.10023288741832959,0.20101770174609612,0.22679748127916477
2.8948022879880626,0.04517813277609889,0.11014210819629122,0.14597276328514042,0.18836240415793695
2.897289231534444,0.044650576003528564,0.12483848039117396,0.07657119313897454,0.15310606696845996
2.8997761750808255,0.03933658999338274,0.13474519717755307,0.011966608503437115,0.14087879611140808
2.902263118627207,0.02444777173908358,0.13986225840448574,-0.03347577699160631,0.14587588050874356
2.9047500621735884,0.009560928141861491,0.14497806727505447,-0.059755959921947266,0.157101324259019
2.90723700571997,-0.005323940590540366,0.12615060710401416,-0.08602755038823773,0.15278435601174528
2.9097239492663514,-0.024995237623320732,0.10253349112232968,-0.11229054545253092,0.1541007634750913
2.912210892812733,-0.039876156213142167,0.09806873591449605,-0.13375653909817764,0.17058252123158577
2.9146978363591147,-0.04996669630941958,0.08402592157467348,-0.14563712554909358,0.17540581112025164
2.917184779905496,-0.06963206787440629,0.05561664483150741,-0.13356709262811606,0.1605677560779489
2.9196717234518776,-0.07014185103921755,0.031994519047946035,-0.10712324499815651,0.1319807491085432
2.922158666998259,-0.06586125586918001,0.02273635097893756,-0.08067079087990159,0.10659466769821015
2.9246456105446406,-0.07115549248079106,0.013476930810315757,-0.03984451880860895,0.08265783358726228
2.927132554091022,-0.06208254447897521,-0.0053605479194880346,0.0009903625232272617,0.06232141382308713
2.9296194976374035,-0.04343081544120525,-0.014622471718023444,0.027468644188713753,0.05342825865212702
2.932106441183785,-0.02956551563601506,-0.014308840342121432,0.05395553694955879,0.06316694225839159
2.9345933847301664,-0.006121435460249625,-0.00920805683710757,0.06129742809300609,0.06228671586804571
2.937080328276548,0.007747811397117443,-0.004108524216651421,0.07343633455792009,0.07395812183923334
2.9395672718229293,0.021619031119293586,0.0009897578573894172,0.09516065977176069,0.09759053896433835
2.942054215369311,0.025915416558788373,0.01566359639511994,0.11210519365165261,0.11612291552970615
2.9445411589156927,0.025425370479850717,0.025547781836268157,0.09553951592572218,0.10211237791821587
2.947028102462074,0.029725698918082466,0.03064231461251188,0.0694056426185945,0.08148442702922264
2.9495150460084556,0.024451191258829386,0.045312405147337476,0.05764558952891363,0.07729222992221345
2.952001989554837,0.019178653440532878,0.059981247293374285,0.026740532386748228,0.0684151068623569
2.9544889331012185,0.00911968139249536,0.06986043825409105,-0.004155916778202595,0.07057564074113419
2.9569758766476,-0.010514129003943273,0.07494997858365915,-0.020678549479297814,0.07845794164372588
2.9594628201939814,-0.03014597195421692,0.07524986886647245,-0.037192577373446056,0.08918862147810956
2.961949763740363,-0.035410638390904914,0.08033691635760531,-0.06806321233813328,0.11108795756015195
2.9644367072867444,-0.0598269524969291,0.07584591174047484,-0.09413684322822569,0.13488369740553988
2.966923650833126,-0.0794528986584202,0.07135366232979745,-0.09625985911701918,0.14377088964852489
2.9694105943795073,-0.0703464613082238,0.07164857214955367,-0.10316268249832916,0.14396069453121674
2.971897537925889,-0.07560327141001677,0.06236543197189137,-0.12442212280103249,0.15838613069095564
2.9743844814722706,-0.0808581201299462,0.04350424255915053,-0.12173095646611287,0.15247649154459478
2.976871425018652,-0.07174579868012099,0.03421861798402004,-0.09987759003152341,0.12764758687687683
2.9793583685650336,-0.062631518240228,0.02014334910592508,-0.07322723688890065,0.09844130135599771
2.981845312111415,-0.05830368339479597,0.020432050055257722,-0.056145110641871554,0.08348090569614805
2.9843322556577965,-0.058762295453248126,0.020719511748830133,-0.029477601862769376,0.06892919951388293
2.986819199204178,-0.0448537424887116,0.011428928452212883,-0.0028015212556180558,0.0463716200078791
2.9893061427505594,-0.026154832540908335,-0.00265129557978927,0.014306320266822325,0.029929507731856514
2.991793086296941,-0.017030777014306442,0.007209260537298423,0.012269111584169323,0.022193510363853548
2.9942800298433223,-0.017481577396652292,0.01706858119248711,-0.004124748669585898,0.02477812672069702
2.996766973389704,-0.027507235219639048,0.017349860763524294,-0.010933248784660066,0.034310371419288097
2.9992539169360852,-0.04231934873834464,0.031995116897983955,-0.07040563702126512,0.08815650008549245
3.001740860482467,-0.03797590297004577,0.041850737388097414,-0.0771970456319444,0.09567150715138929
3.0042278040288486,-0.038418916178332374,0.037339916694045794,-0.07919151332143137,0.09561160118507822
3.00671474757523,-0.07237880999005103,0.047193075865654244,-0.062023835831469754,0.10636181061117012
3.0092016911216115,-0.08239474630911015,0.047468199456301985,-0.05442443898660265,0.10956342335821898
3.0116886346679927,-0.08762034020685305,0.03337688532744254,-0.06118173220868428,0.1119577815436742
3.0141755782143744,-0.1072092067968049,0.0336495546093829,-0.04877689855485201,0.12249609128474363
3.016662521760756,-0.12200773467191928,0.02913259525580436,-0.036363557802364,0.13060208176808605
3.0191494653071373,-0.11286231246682543,0.015037605207664395,-0.04309532992404641,0.12174250944926067
3.021636408853519,-0.11808016870132476,0.015306602353970522,-0.03545339856375307,0.12423430196960991
3.0241233523999003,-0.12808449873326289,0.025151184687870476,-0.037379787402464615,0.13577727870747758
3.026610295946282,-0.13329849796140086,0.025417740267423827,-0.05366290703217658,0.14592552439587747
3.029097239492663,-0.12414536182516189,0.01610627045762847,-0.06993755495478915,0.14339715619149773
3.031584183039045,-0.11020189908562783,0.02594719657088085,-0.07183852886226205,0.13408389090812098
3.0340711265854265,-0.0962565152237222,0.026210100101188516,-0.07373104655736462,0.1240506078049328
3.036558070131808,-0.09188601908058136,0.02647178913025705,-0.07561511606975735,0.1219075137162457
3.0390450136781895,-0.08751360625573806,0.041097475085138946,-0.0822791489361201,0.1269546851751057
3.0415319572245707,-0.08313927902874646,0.04135673953494656,-0.08414634691780165,0.12531211961335664
3.0440189007709524,-0.06918623307766991,0.046403197276625896,-0.07642831528094796,0.11305431854491499
3.046505844317334,-0.06001968072102315,0.046660043209795,-0.08306707939695279,0.11260400252980865
3.0489927878637153,-0.06042802767532657,0.05170408553969974,-0.08490903493665236,0.11633745400386013
3.051479731410097,-0.060834469734540764,0.05195851921456507,-0.08674259435359488,0.11800338173986961
3.0539666749564782,-0.06602741269168771,0.05700015248791512,-0.08856776696105051,0.12430963741750264
3.05645361850286,-0.07600685905734639,0.0572521803559245,-0.09038456225120761,0.13124109064090045
3.0589405620492416,-0.09077281137971227,0.05750300779943407,-0.07303937661280813,0.12992709389402282
3.061427505595623,-0.09596006228340165,0.057752636502541144,-0.07005104313470767,0.13210166244483695
3.0639144491420045,-0.09635701771139354,0.06278947149306191,-0.09578478180008432,0.1496726996385834
3.0664013926883857,-0.10154048696382989,0.058248304540803986,-0.10714497292279823,0.15869272414750818
3.0688883362347674,-0.10672206941651569,0.05849434736053283,-0.11370843351347837,0.16655568626068398
3.0713752797811487,-0.10711336448160219,0.06831600504930613,-0.1250519807549466,0.1782648234711518
3.0738622233275303,-0.11229118156827023,0.07813647276600033,-0.1268104153995484,0.1865355174976502
3.076349166873912,-0.11267871684028924,0.06880213905145816,-0.12856055497115193,0.1842770844715122
