Time (s),Acceleration x (m/s^2),Acceleration y (m/s^2),Acceleration z (m/s^2),Absolute acceleration (m/s^2)
0.0,-0.6629397093809615,0.006286308322963841,4.859300723806111,4.904317699775275
0.002486943546381497,-0.14628325672092568,0.6278553803649194,2.0969585643058024,2.193817765965421
0.004973887092762994,0.23150912840955296,1.292519996865801,0.5412972365717561,1.4202841677478282
0.007460830639144491,0.4464953902921577,1.9667613864443285,0.21147078474132552,2.027863007591902
0.009947774185525988,0.48909868317865957,2.5979071644378458,1.064384009706406,2.8497811279189973
0.012434717731907486,0.35931896797148377,3.152438559463706,2.9611736458616407,4.3399917457160235
0.014921661278288981,0.07630981886519916,3.5728947835353186,5.667208361094927,6.699899322432642
0.01740860482467048,-0.33119838329324763,3.849699081865694,8.947856823184173,9.746487424616992
0.019895548371051976,-0.8057448377224242,3.992428312944419,12.515815263264376,13.161851704136392
0.022382491917433474,-1.313810760228987,3.9915057219740246,16.035895879138472,16.57733914983991
0.02486943546381497,-1.783570140042767,3.8517197641110226,19.23994851495535,19.702601007070825
0.02735637901019647,-2.215023016183087,3.5826472978241504,21.941225871161336,22.341868349628843
0.029843322556577963,-2.5411317811688536,3.2082303915338466,23.914673421482888,24.262351448913765
0.032330266102959464,-2.7235892474239494,2.75241111365017,25.045369915846898,25.342933128366123
0.03481720964934096,-2.781549067198243,2.2678619524935493,25.32373897705086,25.576785740718165
0.03730415319572246,-2.7006460694808085,1.778524976449877,24.754569437667538,24.96488230152031
0.03979109674210395,-2.485668696522501,1.3083422538912592,23.42884138984023,23.596629360832022
0.04227804028848545,-2.1653474071554206,0.8956210631358104,21.50936097531242,21.63662349001572
0.04476498383486695,-1.8019314834326783,0.5690918758449484,19.16851114225427,19.26142886820354
0.04725192738124844,-1.3906325609009924,0.34311995370195714,16.59782845189391,16.65951678592646
0.04973887092762994,-0.9793347116076401,0.21291694509052828,14.022368288468922,14.05813794641115
0.05222581447401144,-0.6207104108964938,0.19284811165613258,11.638455616052969,11.656591308577287
0.05471275802039294,-0.32912490752435203,0.27333669842207264,9.608896575226058,9.618416166336756
0.05719970156677443,-0.13330866018353726,0.4495943537102256,8.062978483065256,8.076603760253523
0.059686645113155926,-0.0524153208994842,0.688102305897724,7.09168142981499,7.12517913116783
0.062173588659537427,-0.08644492838927154,0.9792837999392652,6.723736262276175,6.795226178069079
0.06466053220591893,-0.2210323113810917,1.3039852741237907,6.954355003718771,7.079003206352888
0.06714747575230041,-0.4513891052149687,1.647841570034299,7.7356540472318525,7.922087950956769
0.06963441929868192,-0.7439965252794254,1.9725455126248483,8.962288945753414,9.206904462205422
0.07212136284506342,-1.060547383612199,2.249366733461611,10.514550041943874,10.804636691672348
0.07460830639144492,-1.377099702180657,2.4639400740420667,12.234420451575271,12.555813317509136
0.0770952499378264,-1.6697115029200227,2.635419199075129,13.973460096725132,14.317505297104198
0.0795821934842079,-1.9048640010919193,2.7350737400347143,15.597594109087604,15.949735960758966
0.0820691370305894,-2.0729804285257174,2.7581153449633087,16.982324426643867,17.32927554876307
0.0845560805769709,-2.1501188070552075,2.7141208718302274,18.031883406934234,18.361325719909964
0.0870430241233524,-2.136279175080271,2.6078787752492443,18.679233827048957,18.98100357688832
0.0895299676697339,-2.041038377605112,2.4537543164384217,18.905222496900315,19.172745905623504
0.0920169112161154,-1.8739732595967977,2.2469591432971083,18.719426645932202,18.94670248675919
0.09450385476249688,-1.64944906930478,2.0066469202876838,18.141000309829828,18.326025382940415
0.09699079830887838,-1.386619458260022,1.771124925114072,17.227404750432388,17.37363149884347
0.09947774185525989,-1.1237916912351462,1.5403932088769348,16.088773665684982,16.201368987492444
0.10196468540164137,-0.9040614362826674,1.3288170325959878,14.806510333184196,14.893482804011326
0.10445162894802287,-0.7034867149294891,1.1459732539276424,13.505113659973738,13.571891659809587
0.10693857249440437,-0.5460095818635884,0.9966503271639171,12.299505746011995,12.351893779267408
0.10942551604078588,-0.4651488983706977,0.9000019165125777,11.256724657600504,11.302221771156898
0.11191245958716736,-0.4561162991303709,0.8464512662132365,10.419866443976527,10.464135823598355
0.11439940313354886,-0.5189118220979849,0.8503636370596876,9.832027153905644,9.882365392429302
0.11688634667993036,-0.6391702952226793,0.9069506765160075,9.550668045633747,9.614902927945629
0.11937329022631185,-0.8121033530481123,1.011424031996711,9.566212730432788,9.653751417579945
0.12186023377269335,-1.013769016789786,1.1398417375844194,9.840354399154382,9.957888406037668
0.12434717731907485,-1.2154369042951747,1.2826270372709567,10.349151452103726,10.498921600033109
0.12683412086545634,-1.4075302466444883,1.4397799816359527,11.049508675788545,11.231462494575897
0.12932106441183785,-1.575683871548322,1.6017238145645243,11.86002362962905,12.070975906552048
0.13180800795821934,-1.7007442033468383,1.7540933765664863,12.694505469191208,12.927484036975555
0.13429495150460083,-1.777922876290245,1.887311911415925,13.476340156138988,13.723509026811358
0.13678189505098234,-1.7976431212567423,1.9918026628298033,14.162432474827128,14.414343281714073
0.13926883859736383,-1.7551165723923607,2.0675656811075074,14.70489880572982,14.952903093216854
0.14175578214374532,-1.6647084770711091,2.1050242098485423,15.055855528752424,15.29317386745949
0.14424272569012683,-1.5312072759723208,2.09460149259208,15.200937846464846,15.420780218485927
0.14672966923650832,-1.373766619681426,2.055451192737779,15.149722977452303,15.350121192506082
0.14921661278288983,-1.2019633520876152,1.982784957021282,14.90221133306447,15.081513674060263
0.15170355632927132,-1.030162720343994,1.8813912387553484,14.48713374396936,14.645064436160997
0.1541904998756528,-0.887095181507436,1.7656352978288026,13.93800944354318,14.077375931411776
0.15667744342203432,-0.7727607726549919,1.645093990744533,13.307511277822652,13.431059148835404
0.1591643869684158,-0.6967363374456292,1.519767367298153,12.638735285574677,12.748833828764573
0.1616513305147973,-0.6638103161585139,1.3896554772175522,11.979565908248661,12.078153245892883
0.1641382740611788,-0.6691943423719419,1.2787003867634403,11.406618006569659,11.49755757083959
0.1666252176075603,-0.7128884529235084,1.196478952165795,10.93904560076426,11.027351925321298
0.1691121611539418,-0.7901042812687246,1.133414416302516,10.581637500434965,10.671454690199134
0.1715991047003233,-0.9056302674411951,1.0895068286202654,10.37748974107523,10.473752175654981
0.1740860482467048,-1.025947624848739,1.0695446418131247,10.321814324295447,10.427672089924702
0.1765729917930863,-1.1462679867570165,1.0831047118215704,10.400246444377114,10.51913362487676
0.1790599353394678,-1.257014583046565,1.13497549119081,10.598421294905084,10.732883534814542
0.18154687888584928,-1.3486106435324199,1.1868498025072893,10.897185665439073,11.044275374537314
0.1840338224322308,-1.406690994642993,1.262669711444516,11.267809538184931,11.425263504331983
0.18652076597861228,-1.436044076020937,1.3576468636761345,11.657620878025597,11.823939788856451
0.18900770952499377,-1.4127279073192658,1.4382624848749028,12.037889665715944,12.205539181841495
0.19149465307137528,-1.365472944645927,1.5045166238757506,12.370309074632479,12.536053335719865
0.19398159661775677,-1.299067627438077,1.5659861360732061,12.645302697327615,12.807949468438427
0.19646854016413826,-1.2039351851019657,1.622671070139153,12.805410092396635,12.963836197910194
0.19895548371051977,-1.1040176702153395,1.6697830713421387,12.874573674118,13.029262366372885
0.20144242725690126,-1.0041035220032803,1.6881685749057587,12.843217032757819,12.992550202740002
0.20392937080328274,-0.9089811796187237,1.6778276292498506,12.70176375780399,12.844304375770536
0.20641631434966426,-0.833015888782374,1.6627022993098208,12.47894466452074,12.616756887063518
0.20890325789604575,-0.7762076851804209,1.6332158266919103,12.208278970698458,12.34147348307682
0.21139020144242726,-0.7433450077450765,1.5845798562347124,11.884978666762962,12.013166652916086
0.21387714498880875,-0.7392162953335513,1.531159645969136,11.542562968892598,11.667118345314824
0.21636408853519024,-0.7590331800867216,1.4538016305939963,11.204974285807268,11.324359553422543
0.21885103208157175,-0.8075841007096767,1.3812362779203524,10.900943428721506,11.017739031731914
0.22133797562795324,-0.8800806891897606,1.318252039065863,10.640047594735169,10.757459889593624
0.22382491917433472,-0.9430041575146347,1.2600605584147522,10.427075576786548,10.545184423990928
0.22631186272071624,-1.0298733640778206,1.2162386902184235,10.281181376925947,10.403968771717363
0.22879880626709773,-1.1119579240295754,1.1867864819929375,10.207153786386069,10.335903492079867
0.2312857498134792,-1.1796810657215147,1.1669155778383729,10.21935840217594,10.353193977451967
0.23377269335986073,-1.2330428240653015,1.1470492184378855,10.29864199719045,10.435427327224927
0.23625963690624222,-1.2433128139694603,1.1559178709395728,10.416274536804318,10.55370778938929
0.2387465804526237,-1.2344330867840108,1.179156372510224,10.557891195466109,10.695012916863604
0.24123352399900522,-1.2255572904560421,1.2023995602172013,10.728280760011,10.864794680076686
0.2437204675453867,-1.1927434429665382,1.2352242876290642,10.903501596450178,11.03787855637486
0.24620741109176822,-1.1407799821343922,1.2680537949318347,11.040458456604,11.171439581650986
0.2486943546381497,-1.0744553456938701,1.3056765321702601,11.158305334539865,11.285699953275875
0.2511812981845312,-0.9985579712939388,1.3528809492859588,11.228312190197673,11.353519257283937
0.2536682417309127,-0.9178762964976108,1.3761482695540013,11.24090259586683,11.361961631920533
0.2561551852772942,-0.851563968742223,1.399420555988253,11.220018946139861,11.338975449180579
0.2586421288236757,-0.7996210220965934,1.4179094515748412,11.151296408100459,11.26948413074699
0.26112907237005717,-0.7668358938619326,1.4364034058337536,11.044312164480287,11.163696664586201
0.2636160159164387,-0.7484202146102616,1.4357488515757486,10.889489783768965,11.009200485650492
0.2661029594628202,-0.7443740181446994,1.415945834784278,10.720348463370954,10.839043613807991
0.26858990300920166,-0.7594857414988272,1.4009364179349078,10.536888576473423,10.656709731978836
0.2710768465555832,-0.7937554182954205,1.3763554368303677,10.334322091961042,10.45574555222916
0.2735637901019647,-0.832817872105197,1.3422029371231077,10.136591397651062,10.258926819870256
0.27605073364834615,-0.8718847330477417,1.2984789643534833,9.96285047704415,10.084870858693684
0.27853767719472766,-0.9157444377908788,1.2691255805504462,9.83225331263769,9.956026959506852
0.2810246207411092,-0.9500318096281777,1.2302008144259866,9.735223465996963,9.858525772954986
0.28351156428749064,-0.9795352850408315,1.1864931144992672,9.662184497670099,9.783918670574208
0.28599850783387215,-0.9946780904548462,1.1523677358145183,9.641867193743717,9.761298012250652
0.28848545138025367,-1.0002486621623086,1.1326131266589272,9.650329902750132,9.767915699510871
0.2909723949266352,-0.9962470330395218,1.1176525252414746,9.673207778824638,9.78839129021374
0.29345933847301664,-0.9730964292260883,1.1122743796139645,9.72486639497998,9.836518558734543
0.29594628201939815,-0.926008480085244,1.106901927748305,9.771787289974627,9.877780642601474
0.29843322556577967,-0.8837136381251309,1.1111120207778584,9.82354763139205,9.925603648300378
0.30092016911216113,-0.8366351291935165,1.1249047030747295,9.884936182430906,9.98385357770896
0.30340711265854264,-0.7991381956412611,1.1291264056083163,9.932011285296923,10.027880955956755
0.30589405620492416,-0.7616460631186048,1.1285655758272952,9.955196491079093,10.047870528644363
0.3083809997513056,-0.7193703604964582,1.1423758710181733,9.954492156422855,10.045617474228724
0.31086794329768713,-0.6962531364673773,1.1561921251013547,9.92989863688298,10.021199309411898
0.31335488684406865,-0.6875060197012423,1.1604375751928195,9.881416286917107,9.973047063380154
0.3158418303904501,-0.6739754288056157,1.1694774748845718,9.804257056559022,9.896735667581684
0.3183287739368316,-0.689180218809546,1.1689466577204037,9.717574911334172,9.811863626242744
0.32081571748321314,-0.7235436147567529,1.1588451670779045,9.635735412331432,9.732103288609974
0.3233026610295946,-0.7483352283066201,1.1583266594879846,9.539585296274968,9.638745452023873
0.3257896045759761,-0.7731318975773925,1.15781437143096,9.41954810540076,9.5218776278475
0.3282765481223576,-0.8075104605831129,1.147731539257647,9.304354607372296,9.40958954949088
0.3307634916687391,-0.851470948592447,1.1328666091495163,9.194005148790001,9.302586748125485
0.3332504352151206,-0.8810713761671952,1.1180080271569863,9.074134865146052,9.18510491336641
0.3357373787615021,-0.9011001776851854,1.1079442391986476,8.978262923982342,9.091134533134667
0.3382243223078836,-0.9115573840975422,1.1026752877401929,8.911178071759423,9.02529358421662
0.3407112658542651,-0.9172314295687747,1.0830476018327155,8.8824574570927,8.995129575513968
0.3431982094006466,-0.9133339415153032,1.0682148369557039,8.872947807504255,8.983566364273754
0.34568515294702806,-0.9046533538861785,1.0486002285319176,8.873072655979414,8.980499901913271
0.3481720964934096,-0.8816128905609939,1.033780625129762,8.887620744281174,8.990870156101357
0.3506590400397911,-0.8585777919118572,1.023756068540678,8.897438796381863,8.99720231227459
0.3531459835861726,-0.8355480882403745,1.013738197098715,8.888161938379199,8.984721942434934
0.35563292713255407,-0.8077354064177622,1.0085154556407394,8.878944118412388,8.972468365446437
0.3581198706789356,-0.7942933898062,1.0032994822244587,8.879362476773602,8.971097470992985
0.3606068142253171,-0.7808568584145805,0.9980903180886376,8.87505213594136,8.96506955533936
0.36309375777169856,-0.7530606321401944,1.00246481097269,8.866013427137357,8.954229732539691
0.36558070131808007,-0.7540003706119669,1.0068461951940977,8.84266987371933,8.931688883701854
0.3680676448644616,-0.7597340868618485,1.0255997215305113,8.809810207777053,8.901786706532349
0.37055458841084304,-0.7606850037696283,1.0347834140549867,8.767434756845553,8.861000541953867
0.37304153195722456,-0.7712183607030699,1.0439741199399755,8.68681342729809,8.783244687680991
0.3755284755036061,-0.786545783634613,1.0531718795738183,8.596676964106342,8.696590142284219
0.37801541904998753,-0.8066673017424568,1.0671651365209982,8.506602497709999,8.611146243001121
0.38050236259636905,-0.8220061374491392,1.0763771242402043,8.40222514069113,8.510679709544576
0.38298930614275056,-0.8325623197023173,1.085596286005531,8.307487230932892,8.419383790069803
0.385476249689132,-0.8383358773336695,1.0804574516636185,8.236754298411183,8.349509968882927
0.38796319323551354,-0.8441152423787426,1.0705374675157964,8.194815065189394,8.307440939568954
0.39045013678189505,-0.8451120401155503,1.0749899863564865,8.14815102549135,8.262093134631849
0.3929370803282765,-0.8509031056656773,1.0698730309491038,8.101550898821179,8.216069094388994
0.395424023874658,-0.8279696441500752,1.0551866405097812,8.074168613356651,8.184812238216463
0.39791096742103954,-0.7954652970948599,1.040507660745783,8.037274062780044,8.14329144702495
0.400397910967421,-0.777332109227741,1.0258361305736112,8.014809575999728,8.117496998112387
0.4028848545138025,-0.763993301915076,1.0111720887589952,8.016352270660786,8.115913903300395
0.40537179806018403,-0.7410836930833073,1.0060923805568807,7.998806826577601,8.095822229228668
0.4078587416065655,-0.7133917138200913,0.9866550278279946,7.976538762096152,8.068927221415983
0.410345685152947,-0.7000710050535476,0.9720136821632166,7.968701997565746,8.058233152275845
0.4128326286993285,-0.6915447876690256,0.9765335916798401,7.9561432254514,8.045624094681997
0.41531957224571003,-0.6782362824305516,0.9666959711381484,7.934074346852515,8.021473760899745
0.4178065157920915,-0.6745107265819723,0.9568660683470551,7.892918858216921,7.979268481222098
0.420293459338473,-0.6707913406434134,0.9566207276400667,7.842253867937766,7.928810123115425
0.4227804028848545,-0.6718665549733676,0.9563831799137454,7.806021693028576,7.893037952939694
0.425267346431236,-0.668159589846411,0.9609418658693045,7.7602806159546045,7.848044453584911
0.4277542899776175,-0.6692472786949861,0.9607200160901457,7.709819337753295,7.798217045591355
0.430241233523999,-0.6799180515074394,0.946140861002216,7.645061348146961,7.733332664676615
0.43272817707038047,-0.6858067248666848,0.9363580507953049,7.589948958741467,7.678178329490807
0.435215120616762,-0.6869133251920027,0.9409484288599739,7.530117253217119,7.619704699612611
0.4377020641631435,-0.692814685418335,0.9455468218260492,7.4799317338086695,7.571223792956765
0.44018900770952496,-0.6891456217537143,0.9453648628042526,7.4250274814572546,7.516626205433038
0.4426759512559065,-0.6806945635616953,0.9451909913856416,7.370193189009214,7.46166728971326
0.445162894802288,-0.6722499400797275,0.9306600337191822,7.310640741289989,7.40023757243701
0.44764983834866945,-0.6542349704578446,0.9209256390346428,7.270312441662432,7.357551931763234
0.45013678189505096,-0.6458032936411083,0.9111994397983003,7.225266558897638,7.311075376460767
0.4526237254414325,-0.632589725205181,0.9014814716342823,7.170714973655219,7.254790957535458
0.45511066898781394,-0.6098058872387747,0.891771770003724,7.1305999851198525,7.211974504785626
0.45759761253419545,-0.606182224944859,0.882070370204241,7.100133471153514,7.180348204371832
0.46008455608057697,-0.5977767468746813,0.877165710689721,7.064950501572757,7.14424819787128
0.4625714996269584,-0.5845894780524179,0.8674810197885603,7.034628161386938,7.111980142444239
0.46505844317333994,-0.5761972500138894,0.8530163323047149,7.009166727552165,7.08435306494012
0.46754538671972146,-0.5630232808843469,0.8385600861968823,6.983778072287728,7.056439215067837
0.4700323302661029,-0.5546444019406321,0.8432659292186282,6.953674066392637,7.026543308171276
0.47251927381248443,-0.5558490410092815,0.8384034757538283,6.89491296596059,6.967905951770482
0.47500621735886595,-0.55227201250526,0.819184356620871,6.845802268821562,6.916724375723773
0.4774931609052474,-0.558278550634759,0.804762219072165,6.801553841491273,6.87171389305823
0.4799801044516289,-0.5690802761917503,0.809502306871791,6.781321565651906,6.8531356707974815
0.48246704799801043,-0.5751004065186056,0.8094626370528373,6.7563752883438415,6.828951403788558
0.48495399154439195,-0.5763389654667196,0.8046432430809947,6.7219268717668,6.794403448510527
0.4874409350907734,-0.5871611867165115,0.799832561572841,6.677976579995083,6.751285921119128
0.4899278786371549,-0.5979902872146222,0.7950306256547592,6.643678288935055,6.717747188321323
0.49241482218353644,-0.5896726771345453,0.7998142749234205,6.604667049798287,6.679000193084405
0.4949017657299179,-0.5765735897591445,0.7998183322031498,6.560943122301312,6.634615371143143
0.4973887092762994,-0.5634814515975453,0.795042830107983,6.536448781302919,6.608688759398267
0.4998756528226809,-0.5599730923457819,0.7902762044006018,6.512030670316491,6.5836653768653655
0.5023625963690624,-0.5516833249646377,0.7903068906715911,6.482900641350516,6.554154422815347
0.5048495399154439,-0.5434005755621724,0.7807697110577605,6.4490589482647565,6.518837844694424
0.5073364834618254,-0.5399132701121958,0.7712415041245371,6.386563826845226,6.455580323355559
0.5098234270082069,-0.5364330278133669,0.7617223016233587,6.333722754566683,6.401876692801507
0.5123103705545884,-0.5185946610889236,0.7474237318115775,6.295324384183342,6.3607147208060235
0.5147973141009698,-0.5199170154301657,0.7379226327333017,6.257003753686753,6.321782935887943
0.5172842576473514,-0.526034902989942,0.7332190356174313,6.223549512865336,6.288631918982201
0.5197712011937329,-0.5273715391058291,0.7237361648772616,6.185385100059243,6.249872287706764
0.5222581447401143,-0.5335037522608135,0.7190508580319666,6.13772235543872,6.202684588350846
0.5247450882864959,-0.5348547575205405,0.7191631457843404,6.104503537602814,6.169945598018029
0.5272320318328774,-0.531424576454942,0.7097078487001047,6.066575273771873,6.131022171164211
0.5297189753792588,-0.5375784404583063,0.7002618037700299,6.019149399628526,6.08354474533666
0.5322059189256404,-0.5485279675068497,0.6956134444876934,5.986168169275901,6.0513610325398055
0.5346928624720219,-0.5546963721194204,0.6909743975287976,5.958055012070879,6.023583087344745
0.5371798060184033,-0.5608720786385151,0.6863446927117489,5.930021759183958,5.995898980987345
0.5396667495647849,-0.5574783013081775,0.6865127629973051,5.887703433635719,5.95374953727762
0.5421536931111663,-0.5540918675159618,0.6771134278866611,5.840677073536456,5.905845330620007
0.5446406366575478,-0.5650780078317746,0.6677235233039172,5.803308118802432,5.868863005750496
0.5471275802039294,-0.5664947261248473,0.667919884994177,5.7612315879112055,5.827419897093719
0.5496145237503108,-0.563130446047898,0.6777025418825879,5.724024514422654,5.791446561633088
0.5521014672966923,-0.5501967844744239,0.6683411027927628,5.691687123734404,5.757143271259823
0.5545884108430739,-0.5468473747406842,0.6589892095714565,5.664219639720123,5.728585598259273
0.5570753543894553,-0.5339286234814373,0.6640121005648074,5.627257074766272,5.691398249127918
0.5595622979358368,-0.5305941637547437,0.6738329973367767,5.58558805301205,5.651050784841825
0.5620492414822184,-0.5320556118777107,0.6692983146297768,5.548789600386254,5.614277285408289
0.5645361850285998,-0.538312987348179,0.6599848869268656,5.502496724683221,5.5680185998673855
0.5670231285749813,-0.5206358896023499,0.6650463551701982,5.451498045443527,5.51653689587424
0.5695100721213628,-0.5125431611005411,0.6605407302372992,5.410158987311276,5.474379856776321
0.5719970156677443,-0.5044580142801351,0.665621652706397,5.383268166750807,5.447669797984791
0.5744839592141259,-0.5011688713991551,0.6659239397311401,5.356460585404074,5.420912739950156
0.5769709027605073,-0.4978873479345326,0.6518708116028251,5.324948050010566,5.387754550976162
0.5794578463068888,-0.4994018658631921,0.6521927149923035,5.29351917240539,5.356874348884816
0.5819447898532704,-0.5152892503415762,0.6477360631840929,5.257385756236149,5.32214148712166
0.5844317333996518,-0.5168190998226746,0.6385008825604894,5.211759603601743,5.276099271688038
0.5869186769460333,-0.49920302921993337,0.6340640059606844,5.16142932169121,5.2241356673473796
0.5894056204924149,-0.4959598798680404,0.6344254593992624,5.1351255327429115,5.197882848141237
0.5918925640387963,-0.4975128630774662,0.6300084620659552,5.113694824238146,5.1763215188628156
0.5943795075851778,-0.48470838337650995,0.6208130396066491,5.0779837821026135,5.138703176712806
0.5968664511315593,-0.4767000717142834,0.6116276208028351,5.047146217267298,5.106370163176279
0.5993533946779408,-0.4782763489371383,0.6024522309307514,5.035547535784066,5.093960732244318
0.6018403382243223,-0.47028361914791106,0.5980752984017803,5.01924591558197,5.076582542033915
0.6043272817707038,-0.4527218995886049,0.6128620580825399,4.97908793634853,5.0370500988669695
0.6068142253170853,-0.43037961067933306,0.6085053081306051,4.929438999450178,4.98546629400019
0.6093011688634667,-0.41762197933850254,0.6041586863614814,4.8942413113292815,4.949041710215706
0.6117881124098483,-0.4144490223811433,0.6046106204437123,4.839976237018398,4.895170269705518
0.6142750559562298,-0.4064955465187911,0.6098611345393006,4.790585979826447,4.846326780446288
0.6167619995026112,-0.4033383749218795,0.6103334459831999,4.760435934853056,4.816320073438915
0.6192489430489928,-0.40018912065713397,0.6156043852049982,4.73516107570605,4.7917502547876625
0.6217358865953743,-0.3874709933280954,0.6065203625256028,4.700396374422134,4.7551789448463015
0.6242228301417557,-0.38433762231721,0.592658208000812,4.656142011426659,4.70941796722392
0.6267097736881373,-0.38121221694198454,0.5979599614601971,4.60718656889188,4.661442582552426
0.6291967172345188,-0.3733063896970833,0.5936952260225608,4.558318627415552,4.611951906843159
0.6316836607809002,-0.3797737695354915,0.5750756212207668,4.51911516934021,4.571361066456077
0.6341706043272818,-0.3718839520637442,0.5660431863218884,4.48957636879121,4.540374272435307
0.6366575478736632,-0.3640021626277843,0.5618095404833048,4.4505487850351795,4.500612405234856
0.6391444914200447,-0.3752820297503868,0.5575863026744208,4.421186202322815,4.471982392898404
0.6416314349664263,-0.36741634196702405,0.5437966883562098,4.396700386723975,4.445411555438974
0.6441183785128077,-0.3643471308336098,0.5300175260826321,4.357937892767435,4.405143594358725
0.6466053220591892,-0.3612860078404968,0.5258256442192497,4.324052499963549,4.370863783054893
0.6490922656055708,-0.3534445843342907,0.5264326609821532,4.280679162998795,4.32738587570788
0.6515792091519522,-0.3456112781584171,0.5174733877581459,4.24218325489911,4.287580276889821
0.6540661526983337,-0.33778610369213047,0.5085246523468117,4.227718550427684,4.271568905627336
0.6565530962447153,-0.3443342851317135,0.5091632823588332,4.213343192881149,4.257942485405071
0.6590400397910967,-0.3413138199669927,0.5050240886143187,4.175115323971829,4.219375833253726
0.6615269833374782,-0.3335131254656704,0.491318688384879,4.136977117030295,4.179378509449271
0.6640139268838597,-0.3305090220717225,0.48720071535446063,4.118082340481404,4.159952273007168
0.6665008704302412,-0.32272471680380005,0.48788178641612445,4.080123921320385,4.1218431670411135
0.6689878139766227,-0.32452543313800897,0.48378511495320087,4.042255624799904,4.084017058048381
0.6714747575230042,-0.32633437780475627,0.47969912412045046,4.018842811265603,4.060505253965369
0.6739617010693857,-0.32815156403091217,0.4708354302424165,3.990732016233851,4.031787627931485
0.6764486446157671,-0.32040019825853844,0.47155926273521986,3.9483465802742552,3.9892938151105017
0.6789355881621487,-0.32702231002768267,0.4675054309033637,3.9060518589703026,3.9474987073012877
0.6814225317085302,-0.3384411054919886,0.46346235714278583,3.883001609637872,3.9251804084430684
0.6839094752549116,-0.32113777405930966,0.46421846365954256,3.8456771514812784,3.8868831993456343
0.6863964188012932,-0.31820795811826363,0.45540855918850154,3.7892902220384252,3.8298007320522514
0.6888833623476747,-0.324863266710104,0.44660946887609443,3.7473597838212847,3.7878359929052436
0.6913703058940561,-0.32195009877090613,0.43782121103808125,3.7294627811517733,3.7688502112620195
0.6938572494404377,-0.3142568696940701,0.4338322071204428,3.706868930200743,3.745376487053406
0.6963441929868192,-0.31614880136938955,0.4346424750587117,3.6795783654723504,3.718623548221121
0.6988311365332006,-0.32283750226118685,0.44025203259824996,3.657168026522842,3.6976916960847497
0.7013180800795822,-0.31995777404895,0.4267188806926563,3.6348496413590485,3.6737710728353714
0.7038050236259636,-0.3027212249086,0.41798505330842284,3.607834936399427,3.64456095752337
0.7062919671723452,-0.29506988279376156,0.42362737426085495,3.5665472331538925,3.6037182956319933
0.7087789107187267,-0.30179216223265815,0.4292806505734226,3.5157750615052343,3.5547200549753475
0.7112658542651081,-0.30852286432814424,0.4205796890793141,3.4746721597093426,3.513605021930963
0.7137527978114897,-0.31526199999991766,0.426254926304237,3.443238651153269,3.4838162695007844
0.7162397413578712,-0.3028559667423704,0.42715276538047675,3.4023210443555207,3.4423784961023802
0.7187266849042526,-0.2952467917886831,0.40890801257033926,3.371073072810125,3.4085935652452366
0.7212136284506342,-0.3163765022280577,0.40982791046927636,3.359071661783892,3.39873732970956
0.7237005719970157,-0.31836107520106904,0.401182054998082,3.3375865083949368,3.3766528569688017
0.7261875155433971,-0.3107773275481539,0.3733936551685364,3.3066177280974856,3.3421140269007386
0.7286744590897787,-0.3223556892471584,0.36476995300529547,3.290107451362041,3.3259250368150997
0.7311614026361601,-0.3243657502883923,0.35136894717873,3.2689021771915225,3.3036941022208937
0.7336483461825416,-0.31201911712000036,0.32840224945026275,3.2382136129655743,3.2697448478570763
0.7361352897289232,-0.30925781596833335,0.32460029463333884,3.212407077761453,3.243542042469225
0.7386222332753046,-0.3208702596348846,0.3303862907887747,3.1819058724718428,3.215064199348144
0.7411091768216861,-0.3229144408557385,0.3266066391466782,3.1371332964070815,3.1705758076844375
0.7435961203680677,-0.3201787721453834,0.31326135402836464,3.0924546638974144,3.1247276633846157
0.7460830639144491,-0.30787485923429053,0.3238692728073467,3.062235287692169,3.0946668951608403
0.7485700074608306,-0.3003679209908609,0.32969998950313917,3.032110059038641,3.0647372450443533
0.7510569510072121,-0.2928695628590095,0.33075351786725404,3.0020790775657202,3.034410858533932
0.7535438945535936,-0.29495660010043384,0.3461834847426415,2.97214244132379,3.006737948769314
0.7560308380999751,-0.28747542791188796,0.3472594835793803,2.9375118434652867,2.971902942743549
0.7585177816463566,-0.27521445794870975,0.35313514084100284,2.9173409921674818,2.9514955344945966
0.7610047251927381,-0.2629621017233511,0.35423366287956837,2.88768796414906,2.9211936486907506
0.7634916687391196,-0.2602951739257864,0.35534346581855747,2.853341254475782,2.8871402582421295
0.7659786122855011,-0.25284847250173653,0.3564645622717104,2.828666163280257,2.862228432094244
0.7684655558318826,-0.25498721517620904,0.3575969646634256,2.7945091658801635,2.828811684652773
0.770952499378264,-0.2571346029301657,0.35395228190854233,2.770023962584043,2.8043596729346474
0.7734394429246456,-0.25929064324281864,0.3503189293733784,2.7599990421689684,2.794199295455535
0.7759263864710271,-0.25666694013080443,0.3419085155945809,2.7357040686004614,2.7689088287896584
0.7784133300174085,-0.25405190410923645,0.33829785888079833,2.682773914236801,2.7159277763251195
0.7809002735637901,-0.251445542230885,0.3251217607502914,2.639515886392741,2.6713242286440653
0.7833872171101716,-0.24884786140661097,0.31674544245448466,2.6059300642548386,2.6368777812461386
0.785874160656553,-0.24625886840548972,0.3227457217359011,2.5676513154843112,2.5995464044858854
0.7883611042029346,-0.24846697317525057,0.3191805929064109,2.539044926101165,2.5710622754820682
0.790848047749316,-0.2506837788814697,0.30605006669111035,2.515322567282433,2.5462436289161756
0.7933349912956975,-0.24333248522801576,0.2977193635878277,2.486907505324509,2.5164571241850626
0.7958219348420791,-0.25035511501968616,0.2894000906250742,2.458588214925821,2.4881893229098258
0.7983088783884605,-0.2430212543967213,0.2906690646043679,2.42078795926642,2.4502575739982544
0.800795821934842,-0.23569611924119627,0.2823726822175705,2.4022372265328933,2.4302326400632004
0.8032827654812236,-0.24274492529435382,0.2788761632110952,2.3933592767949197,2.421748467736442
0.805769709027605,-0.23543725827394013,0.29454472714387414,2.3893657718896186,2.4189369753570436
0.8082566525739865,-0.22334993031966854,0.3054363668250164,2.3758915654622026,2.405834012642498
0.8107435961203681,-0.21127135011056147,0.30676268815771746,2.35293671956918,2.382236372932011
0.8132305396667495,-0.2087783295057321,0.3033121034988038,2.32050129471905,2.3495346096180114
0.815717483213131,-0.20150566362266925,0.2998730250182753,2.2929505598349547,2.3212390297970296
0.8182044267595125,-0.19424176072021282,0.3108106713401062,2.251130959053259,2.2807726168635534
0.820691370305894,-0.1917750289174695,0.3121830343392933,2.2141961615299914,2.2443040236072593
0.8231783138522755,0.3948681355247685,-0.6680557517173333,-12.709788104572976,12.73345722869481
0.825665257398657,0.7133519370710395,-0.26922284181155387,-16.414446884117382,16.432145886529455
0.8281522009450385,0.9504241008329132,0.14877522900612128,-18.17970576061171,18.20514052630818
0.8306391444914201,1.067777396006313,0.5428428385854103,-17.962469054451425,18.002364329358258
0.8331260880378015,1.0702002218088373,0.8986147845123171,-15.911177220378448,15.97242616461237
0.835613031584183,0.9720577842373873,1.1777838475860514,-12.298769200993906,12.393215683867016
0.8380999751305646,0.7877152894273467,1.3564080183815794,-7.527470830077169,7.689158288602863
0.840586918676946,0.5363263469727609,1.4344873038905233,-2.114429622623649,2.6107876980920213
0.8430738622233275,0.241832969926034,1.416810114240139,3.408841694886129,3.6994642566121025
0.845560805769709,-0.0766112318427925,1.293799649412244,8.515618797767614,8.613683899619074
0.8480477493160905,-0.3854874383649727,1.0941863357669308,12.736638199658024,12.789362647587417
0.850534692862472,-0.651276829534321,0.8371237928395816,15.71755809236388,15.753303467528951
0.8530216364088535,-0.8500373917479059,0.5369772366614818,17.23811195914251,17.267408955485887
0.855508579955235,-0.9769807245469215,0.2368423030022595,17.255204204588,17.284462900381346
0.8579955235016165,-1.0416836372966254,-0.034550582512815176,15.807142088227003,15.841465826758617
0.860482467047998,-1.0058389060224253,-0.28198981768370945,13.118980597567651,13.160504628679789
0.8629694105943795,-0.8933885497773324,-0.4958985905322828,9.530696398297987,9.585313367308101
0.8654563541407609,-0.7378513941186845,-0.6236044593802443,5.396631364560094,5.4824207505914355
0.8679432976871425,-0.5344390379052777,-0.6698958225753688,1.142953418797629,1.4285405195101177
0.870430241233524,-0.29751669314136664,-0.6443494819678588,-2.842476744608942,2.929740002330014
0.8729171847799054,-0.05581478165647469,-0.5613306429100613,-6.200528852700918,6.226135674212196
0.875404128326287,0.17630148481615757,-0.4208393009749607,-8.672629103741919,8.68462339435999
0.8778910718726685,0.3605248780768551,-0.2420290651981376,-10.05287613401288,10.062249988045357
0.8803780154190499,0.49685539662341044,-0.039265141475854026,-10.279020680895949,10.291096792605515
0.8828649589654315,0.5805046357679555,0.16351045747420034,-9.384581549668226,9.403940246738323
0.885351902511813,0.6018957876367652,0.35672092871478744,-7.513210823460482,7.545718338098882
0.8878388460581944,0.5610288511309486,0.5212126624878319,-4.904328653293572,4.963754179132494
0.890325789604576,0.4674806319262065,0.6521972588162663,-1.840450821552417,2.007774547150786
0.8928127331509574,0.33561633915227435,0.7257327042621315,1.3815416779385128,1.596240487214493
0.8952996766973389,0.1702243754317384,0.74181900180968,4.450402639917828,4.515014443700552
0.8977866202437205,-0.009541646518651081,0.7100329609047344,7.069251067611809,7.104825719573995
0.9002735637901019,-0.1845281138491699,0.6399513908143586,9.032185625862093,9.05670831966205
0.9027605073364834,-0.3451582202179985,0.5363626973068456,10.181189011245598,10.20114840705469
0.905247450882865,-0.467489949189917,0.39926688265202737,10.434858371999187,10.452953177923346
0.9077343944292464,-0.5706769140803143,0.2478175622231391,9.812347324624,9.83205195793158
0.9102213379756279,-0.6212002915491963,0.10595675453620279,8.428577550568026,8.452102469917882
0.9127082815220094,-0.6142716780467765,-0.026315538671560557,6.45114316634583,6.480375788078687
0.9151952250683909,-0.5690446864934009,-0.15378771916011003,4.109887530182563,4.151943885524101
0.9176821686147724,-0.4855193163970474,-0.24772936562380243,1.6202887888917843,1.7095129729239944
0.9201691121611539,-0.3828491804160533,-0.2889868635738875,-0.7830212988800938,0.9182642630329166
0.9226560557075354,-0.2706110844375307,-0.2919254219397138,-2.8606225726113017,2.88818495147531
0.9251429992539169,-0.14401662425735634,-0.27091024982621503,-4.468862939627764,4.47938267227772
0.9276299428002984,-0.022219412142909234,-0.2163645399120253,-5.483243921976053,5.48755603381821
0.9301168863466799,0.08520374640880962,-0.14265350165225454,-5.827151076341688,5.829519651433198
0.9326038298930613,0.16388764270998624,-0.049777134715633053,-5.500584413968077,5.503250477468935
0.9350907734394429,0.2186206814832139,0.05747615773453418,-4.589735207294076,4.595298443426162
0.9375777169858244,0.24461446093939426,0.15995276240014622,-3.1999483434665486,3.213267888233786
0.9400646605322058,0.2322921760977245,0.24807587245020501,-1.4796643409384975,1.5181922985620449
0.9425516040785874,0.18644223206666044,0.3218454875211463,0.3795806505336561,0.5314383256740864
0.9450385476249689,0.11664143740299593,0.38126160707659373,2.2006156897373508,2.236442499119586
0.9475254911713503,0.04204340743189855,0.39759381048583764,3.806269834045654,3.827210281106993
0.9500124347177319,-0.05171706563624967,0.3804189035085841,5.062467769304364,5.077004344322566
0.9524993782641133,-0.14548636622173372,0.3632557083343628,5.849499389912211,5.862573164147056
0.9549863218104948,-0.22489928193830083,0.33173901377823833,6.1290574453089715,6.142147476915241
0.9574732653568764,-0.28995581023414896,0.2715036084842799,5.915507120057191,5.9288289795503335
0.9599602089032578,-0.34544435175155547,0.19212629752752397,5.237578807282649,5.252473329475841
0.9624471524496394,-0.38178809704595995,0.12233749909402203,4.1718869319199285,4.191105962327227
0.9649340959960209,-0.38941023654720597,0.042983597996883116,2.8477183540365996,2.8745413105296347
0.9674210395424023,-0.3683107672004942,-0.03157019787808135,1.3991483356327254,1.4471577535755054
0.9699079830887839,-0.3328548957869865,-0.08217027749382222,-0.0445362659961841,0.3457279496101816
0.9723949266351654,-0.2734658123616594,-0.11839344990381484,-1.3444717882937942,1.3771001957115039
0.9748818701815468,-0.1949319168160854,-0.13066291104858774,-2.3953133933237067,2.406781564819129
0.9773688137279284,-0.11640681887878623,-0.12855547031779846,-3.115658261124371,3.120481286042691
0.9798557572743098,-0.03789051487335726,-0.12643634058890463,-3.4145267664637258,3.417076949416871
0.9823427008206913,0.026251789039018925,-0.09557510502362643,-3.3062841585230833,3.307769443904566
0.9848296443670729,0.08559690342173254,-0.045548573512872004,-2.8531797210498864,2.854826793876426
0.9873165879134543,0.12099121903899379,-0.005087169395060709,-2.093520722549421,2.0970202121393218
0.9898035314598358,0.12764633673830933,0.040174313708350784,-1.1230752727262052,1.1310197305854957
0.9922904750062174,0.1295042774110679,0.08544746872920195,-0.0567650959183954,0.16521169418238954
0.9947774185525988,0.12656504546878705,0.12594388843431048,1.0144300987889423,1.0300237856949777
0.9972643620989803,0.09967503216307627,0.15687516542589597,1.9851653910052462,1.9938471754899183
0.9997513056453619,0.0631994521087279,0.183029698782621,2.7596726656395383,2.7664575295603826
1.0022382491917432,0.026715116720902155,0.19004227413813224,3.290067839466202,3.2956601996733226
1.0047251927381249,-0.024143179066513865,0.1874896935643222,3.5284668279264775,3.533527052969288
1.0072121362845063,-0.07501022027777537,0.1657951456889295,3.470081175014334,3.4748493384129615
1.0096990798308878,-0.11152079181752128,0.1345354322584824,3.134064439999314,3.138932395514245
1.0121860233772693,-0.13367488843205944,0.09849895153716659,2.553935390789661,2.5593274506360424
1.0146729669236507,-0.14147250474878104,0.057685698307269995,1.8063084238580185,1.8127581834016169
1.0171599104700322,-0.1444904419171401,0.026460877150869866,0.9725863376827846,0.9836167190894101
1.0196468540164139,-0.12836348436682277,-0.004752324112216488,0.1006531061895668,0.16318951096460615
1.0221337975627953,-0.10266843301122297,-0.03595391118181723,-0.6993580548391147,0.7077677442032805
1.0246207411091768,-0.08177049196657271,-0.062355486597228005,-1.3556211574854453,1.3595158486341419
1.0271076846555582,-0.05130444531008693,-0.0648034430961868,-1.8394058450140118,1.8412619300407553
1.0295946282019397,-0.0064818836428497395,-0.07202820677844457,-2.112404955343477,2.113642536652533
1.0320815717483214,0.03354358594889417,-0.06966457401938664,-2.155464940964814,2.1568512783129163
1.0345685152947028,0.06398356645585934,-0.06250095463363214,-1.9590090622967296,1.9610499158020527
1.0370554588410843,0.08962646762506343,-0.045748951952695904,-1.556556210923647,1.559805471226684
1.0395424023874658,0.11047229599849384,-0.028985379426090585,-1.0438745228731108,1.0501039471915234
1.0420293459338472,0.1360978648736862,-0.021787050659917373,-0.44011768232258497,0.46119505493081536
1.0445162894802287,0.1425611644205344,-0.00021195617421376767,0.2020418020373569,0.24727438261344611
1.0470032330266104,0.12986220152466654,0.026163090113155985,0.7724705804059386,0.7837470869239579
1.0494901765729918,0.1267314031073798,0.03339606416819185,1.2568033681252437,1.2636181590047082
1.0519771201193733,0.10443835635963283,0.04542897500534426,1.635886475959298,1.6398462501941056
1.0544640636657547,0.07255987514792073,0.043108201602021,1.8426821802141617,1.844614016483031
1.0569510072121362,0.05024958009201519,0.05037575266470595,1.8484599825082668,1.8498289228170322
1.0594379507585177,0.03271907532239304,0.05765481350443746,1.6819502230577523,1.683256120812934
1.0619248943048993,0.015179965081412172,0.04100335931854859,1.3814600474774785,1.3821517896351891
1.0644118378512808,-0.0023677429567549035,0.03394020499583883,0.9613545835432848,0.9619564330163562
1.0668987813976623,-0.010347234366212321,0.02210013207018946,0.45994097439899484,0.46058786461178713
1.0693857249440437,-0.01833530789159543,0.0054831318851138455,-0.06053162143919799,0.06348484421346191
1.0718726684904252,-0.02154355220627191,-0.025487611007291466,-0.5521792566405228,0.5531868350029705
1.0743596120368066,-0.010395152553371756,-0.04687008896306866,-0.96232958177489,0.9635263817846653
1.0768465555831883,0.0055330926522652035,-0.053875907769312725,-1.281405878511091,1.2825499031363445
1.0793334991295698,0.016664385104935286,-0.07044709328429866,-1.475889413128284,1.4776637149457528
1.0818204426759512,0.022998733248307257,-0.09179525159323987,-1.521838259753947,1.5247776883195185
1.0843073862223327,0.03890135559532659,-0.10355518228902216,-1.433617720281232,1.4378792575005814
1.0867943297687142,0.05958385748563211,-0.11530370171388649,-1.235169904442813,1.241970157670087
1.0892812733150956,0.07546944104608988,-0.11267560975579505,-0.9504369231658369,0.960063422114702
1.0917682168614773,0.08176971183101484,-0.11482452969166923,-0.6033608885675275,0.6196090059423253
1.0942551604078588,0.08327308214207735,-0.10259685838218902,-0.2274607205913899,0.26305683981088657
1.0967421039542402,0.08476796438727213,-0.09035781607596372,0.10543743307536424,0.162687415020036
1.0992290475006217,0.08146596443988496,-0.0828958165261997,0.40012187669376686,0.4166604564493827
1.1017159910470031,0.063790284958396,-0.07542246699018396,0.6230736867900539,0.6308554257134585
1.1042029345933846,0.05089454862825593,-0.06314937486938277,0.7407739387226631,0.7452007292784646
1.1066898781397663,0.033201958317725544,-0.05086495434954985,0.7627993365695396,0.7652139841168897
1.1091768216861477,0.020289330280577222,-0.05293442640019075,0.6843613732889153,0.6867053222973022
1.1116637652325292,-0.002208535727105221,-0.04541578557093029,0.5246135572863562,0.5265803411614676
1.1141507087789106,-0.015138016603630566,-0.03788584979564469,0.3027093958176561,0.30544635450062313
1.116637652325292,-0.0232875057458386,-0.04949824379038947,0.013860378391948203,0.05643132243145894
1.1191245958716736,-0.04102220308859361,-0.05631096252941692,-0.29404957009877464,0.30219016417233935
1.1216115394180552,-0.044400081902077004,-0.05832401772902296,-0.5922901391797453,0.5968087359334886
1.1240984829644367,-0.04778634191720876,-0.06990263120638218,-0.8617078261481907,0.8658581234639104
1.1265854265108182,-0.051180972802632896,-0.08625841163682102,-1.0783607261077783,1.0830151712542286
1.1290723700571996,-0.04500715748545392,-0.09302616119390361,-1.2135185319639898,1.2179108088490846
1.131559313603581,-0.03405328875322422,-0.09020589215045272,-1.2863349709429013,1.2899435595886528
1.1340462571499625,-0.02789616261374428,-0.08258602023738248,-1.2680797381802726,1.2710723303614828
1.1365332006963442,-0.01695896169393185,-0.1036853812447096,-1.1587529498419045,1.1635061939813265
1.1390201442427257,-0.006030078482429535,-0.10561995465383367,-1.0110271597204328,1.0165470251591648
1.1415070877891071,0.009678901271518714,-0.09796655992603265,-0.8488445027854077,0.8545338600094035
1.1439940313354886,0.020591181956078897,-0.09509041997848389,-0.64347467857697,0.6507886344396064
1.14648097488187,0.02191837137764352,-0.08741474126183713,-0.4380134375292357,0.4471884652469246
1.1489679184282517,0.028025690721336982,-0.07972794032215624,-0.26119132119994504,0.27452302285708974
1.1514548619746332,0.03891315130838868,-0.08160683715974537,-0.10822004898450821,0.14101591476913555
1.1539418055210147,0.035427151275394864,-0.06910942866608671,-0.012618567915811951,0.07867925034142483
1.1564287490673961,0.022356105456682984,-0.05181253510765238,0.02082459382485169,0.06014979595511603
1.1589156926137776,0.02364204206356979,-0.053658186844104616,0.006474520271918749,0.05899208913984935
1.161402636160159,0.03449656948079294,-0.060281187804288816,-0.07482252884300422,0.10208940068146798
1.1638895797065407,0.030977682906698,-0.05252793872786077,-0.20870147160200148,0.21742839150880652
1.1663765232529222,0.03702741083717087,-0.049552067047536674,-0.3664320171771962,0.3716165493012081
1.1688634667993036,0.047857361940199517,-0.060930393685394435,-0.5575911023494804,0.562948201334582
1.171350410345685,0.04431393501636438,-0.06272091645075273,-0.743871631737921,0.7478252755166104
1.1738373538920666,0.040762352201521024,-0.06928885984428712,-0.8965433176387094,0.9001402312185285
1.176324297438448,0.041991029083542575,-0.08063423853401908,-1.0395483099030791,1.043516083043191
1.1788112409848297,0.047999978022186474,-0.08718026067505891,-1.1441563228855642,1.14847641984523
1.1812981845312112,0.04921240482833544,-0.10329215115121748,-1.1912138786031328,1.196696132631485
1.1837851280775926,0.05999353200573743,-0.12418152169161978,-1.2046631299725128,1.212531868004854
1.186272071623974,0.07555496886774404,-0.1306947741904434,-1.1749274076802436,1.1845860418895346
1.1887590151703555,0.09589672813842398,-0.12762032726883854,-1.1020068500605795,1.113508970767771
1.191245958716737,0.10186520935054899,-0.12932340631341566,-1.0146320163717952,1.0279003808459413
1.1937329022631187,0.10303723204826887,-0.1358040268740992,-0.9271682569084394,0.9427090651532019
1.1962198458095001,0.11377801918509323,-0.12790859134323807,-0.8300389063557656,0.8475084845907859
1.1987067893558816,0.12929918052187817,-0.1200023254784548,-0.7376093169878519,0.7584104038785014
1.201193732902263,0.13523551926700128,-0.1264504551598744,-0.6450912287798118,0.6711341570283861
1.2036806764486445,0.1363754519977738,-0.12331097982704353,-0.5764268026059689,0.6050386106820318
1.206167619995026,0.14708420201936062,-0.12494912560334281,-0.5411929903520427,0.574574537617965
1.2086545635414077,0.15299657280183016,-0.12657650545164723,-0.539389938230423,0.5747791475738104
1.2111415070877891,0.13974736790157027,-0.12819313577530034,-0.5758061967361208,0.6062306352330256
1.2136284506341706,0.1360670208436341,-0.1250106297768987,-0.645653510680809,0.6715730396412086
1.216115394180552,0.14195554531660515,-0.11224060077801434,-0.7345668191877692,0.7565300662635829
1.2186023377269335,0.1382593418127568,-0.11861348546079009,-0.837757868968124,0.8573348538054814
1.221089281273315,0.12976682751040491,-0.1297640907423463,-0.9552268109954749,0.972695434970725
1.2235762248196966,0.1260548229921976,-0.14090403029762788,-1.0534549739383419,1.0702855442680432
1.226063168366078,0.13191174560402819,-0.13766811127755263,-1.1372309139597956,1.1531033644720938
1.2285501119124596,0.1233955928530096,-0.12963315755060512,-1.216131591470175,1.2292303590636973
1.231037055458841,0.1196599922116991,-0.1407412030616122,-1.2662151445595136,1.279620018711494
1.2335239990052225,0.12070495795357195,-0.14705024866708571,-1.2826933255158988,1.29672496306297
1.236010942551604,0.12174210111349404,-0.1485603119393062,-1.2847199041406707,1.2989982823553872
1.2384978860979856,0.12755983944819416,-0.15484821720478914,-1.2627182312198855,1.2785565354987736
1.240984829644367,0.12858138083423565,-0.16112557894211887,-1.2262652717223226,1.2434714071175474
1.2434717731907485,0.12959514318942578,-0.16739241506259583,-1.1801495881928243,1.1989863102931864
1.24595871673713,0.13538954451140894,-0.1784371469096282,-1.110006130786223,1.1323796865642093
1.2484456602835114,0.14117619623657807,-0.17510617933626627,-1.0445654804262325,1.0685082757394346
1.250932603829893,0.13258990323960174,-0.16697633722802552,-0.9886162023159866,1.0113472079938017
1.2534195473762746,0.1383611003563947,-0.1684128489007244,-0.9421584592141201,0.9670414903381424
1.255906490922656,0.1345477859773988,-0.1842041361389355,-0.9195576247108601,0.9474283591100651
1.2583934344690375,0.12593837849242495,-0.1808313942734996,-0.9208138633009941,0.9468149973355413
1.260880378015419,0.1316865063292455,-0.18223665858717242,-0.9363505336990077,0.9629661767895259
1.2633673215618004,0.12785016810937277,-0.17884314122807599,-0.9709562054354794,0.9955332679140287
1.2658542651081819,0.12400618577258771,-0.18022766773252474,-1.0150542389300359,1.0383615238904056
1.2683412086545636,0.11536617137334082,-0.19117866042285359,-1.0638563987674114,1.0870368305153169
1.270828152200945,0.10193014036153392,-0.19254252512555592,-1.1173628536922386,1.1384033223366445
1.2733150957473265,0.11242852818360549,-0.19389608769410627,-1.189938983244506,1.2108635970321269
1.275802039293708,0.11813093051643442,-0.19523936744584924,-1.2432777312699645,1.264046219256687
1.2782889828400894,0.10467215307155298,-0.19657238380200992,-1.2869560756414895,1.3060830380694723
1.280775926386471,0.09599422819623438,-0.1931067529667687,-1.3257625917304292,1.3431870902894145
1.2832628699328525,0.0825203650683356,-0.19441930120789586,-1.3596974524013703,1.3760035019577366
1.285749813479234,0.07861578953956139,-0.1957216449342618,-1.369607218046026,1.385752985342076
1.2882367570256155,0.08906892089280893,-0.20180220729678444,-1.379434079742035,1.3969594782571966
1.290723700571997,0.0995145652010695,-0.20308420158624552,-1.3700245994821145,1.3885653548923107
1.2932106441183784,0.09079912528788003,-0.19477924451392292,-1.3365905500125645,1.3537568960597572
1.29569758766476,0.08686463392998067,-0.19125256617191067,-1.2839205115077235,1.3009899648211682
1.2981845312111415,0.0972879140130789,-0.19729259011062217,-1.2503218881663134,1.2695251586137823
1.300671474757523,0.09333856192981937,-0.20332253001786027,-1.2405832617217634,1.260594688081859
1.3031584183039044,0.0798049973839855,-0.2093424063197622,-1.2307627947573287,1.2509876648672746
1.305645361850286,0.0854176567494006,-0.2057754328989252,-1.2304374738648498,1.2504463530916516
1.3081323053966674,0.09581134658507384,-0.2069868403359747,-1.244395883077006,1.2651262703879471
1.310619248943049,0.09183247019722052,-0.20818824602613173,-1.2630613972214224,1.2833937983007757
1.3131061924894305,0.08784625420128556,-0.19980286413953152,-1.2960110051575935,1.3142612656489396
1.315593136035812,0.07906431199802277,-0.20098432886278017,-1.319302873248171,1.3368642179522283
1.3180800795821934,0.08942867697614376,-0.19257904791396507,-1.3473023951583798,1.363931054694723
1.3205670231285749,0.08542054274621214,-0.1985290589873392,-1.3800097553273183,1.3968311928017718
1.3230539666749563,0.08140513618703882,-0.2044691733073858,-1.3934831223220367,1.4107549933376131
1.325540910221338,0.07738247428113909,-0.20561100883131722,-1.4068762953166374,1.4239258564273525
1.3280278537677195,0.07335257407519213,-0.20195458692814006,-1.4345546708838697,1.450556224025632
1.330514797314101,0.08368066264049223,-0.19828833237802668,-1.4477880164273529,1.463697665697346
1.3330017408604824,0.08921314386935053,-0.19461226673107213,-1.4657301332622072,1.4812824656202837
1.3354886844068639,0.08995003499804566,-0.20050321826760076,-1.4883812101253948,1.5045169244598577
1.3379756279532453,0.0906797566454084,-0.19680759543504234,-1.4726458065688632,1.4885031808803943
1.340462571499627,0.09619072949202567,-0.1931022266910567,-1.4424661293214633,1.4585093968270815
1.3429495150460085,0.10169456763913631,-0.18938713394040896,-1.4457264024007905,1.4616203686964018
1.34543645859239,0.10719128856908744,-0.17608553253433756,-1.4345427841001026,1.4492788160070085
1.3479234021387714,0.11268090982453849,-0.16277425119181022,-1.4089154665923882,1.4227562111244454
1.3504103456851528,0.1037982390470441,-0.16381852203794978,-1.4023634659641289,1.4157096712472124
1.3528972892315343,0.10927371382032125,-0.16485315736122663,-1.400521765764685,1.4144180868486806
1.355384232777916,0.11474214190414345,-0.16108977617532938,-1.3938137535244284,1.4077757117633563
1.3578711763242974,0.12499194439791739,-0.166893610859161,-1.3918164307103869,1.4073483720477251
1.360358119870679,0.12565792917770902,-0.16311107063277275,-1.404106799439658,1.4191233352886845
1.3628450634170604,0.13110532409887832,-0.15931898472080253,-1.440261862474122,1.45496576502575
1.3653320069634418,0.14133414711278902,-0.16988258575027837,-1.466762993332317,1.4833169292806168
1.3678189505098233,0.14676760958663781,-0.1756482831874937,-1.4931871960497531,1.510629356611811
1.370305894056205,0.14740572958422304,-0.18619290650143938,-1.5147462653298653,1.5332489999593952
1.3727928376025864,0.14803692854515027,-0.19193967196005302,-1.536228803140263,1.5552346142891045
1.3752797811489679,0.16302643460466104,-0.19288860255146334,-1.5720002187074105,1.5921583837640998
1.3777667246953493,0.1636438460697195,-0.19382812466305044,-1.6029070986285294,1.6228554516963658
1.3802536682417308,0.1594659878638327,-0.2043350680808138,-1.6193728367490863,1.6399849407033473
1.3827406117881123,0.16006968496407736,-0.21004424606687255,-1.6309744407981253,1.6522162436821208
1.385227555334494,0.1606665524396782,-0.20616727860102468,-1.580251272617291,1.601721814937654
1.3877144988808754,0.16125660873277525,-0.21185780234104845,-1.5725484075305811,1.5949281853110944
1.3902014424272569,0.17141667897825574,-0.22232743741895566,-1.579135628479607,1.6038960379011158
1.3926883859736383,0.18635837840170932,-0.22321099740129746,-1.5904363322683093,1.6167994067170077
1.3951753295200198,0.19171651563925973,-0.22887371585103633,-1.5968739162764116,1.6245444606597517
1.3976622730664012,0.19227951265895793,-0.22973880980347872,-1.617602198375982,1.6451103926208404
1.400149216612783,0.2024125981196766,-0.22580630300783255,-1.6334677704417526,1.661377832832608
1.4026361601591644,0.20296217748781664,-0.22186462260626927,-1.6348940315489617,1.6623164712681022
1.4051231037055458,0.19871667288057615,-0.22270219581298312,-1.6266695912883353,1.6538254271000945
1.4076100472519273,0.20882971642484555,-0.2283190465932492,-1.6279482697608199,1.657092334939903
1.4100969907983087,0.19978250377235174,-0.23392679566279284,-1.6435186776503805,1.6720611347460557
1.4125839343446904,0.20030547378667796,-0.23473706380747794,-1.6590158128984207,1.6874706632711778
1.4150708778910719,0.2008218388162213,-0.24032668184361006,-1.6552862706594116,1.6846539593593193
1.4175578214374533,0.19654321457652502,-0.2459072706954446,-1.6514838731784227,1.681219380195625
1.4200447649838348,0.19704642679042328,-0.24669045135548684,-1.6571856365826925,1.6869936891395982
1.4225317085302163,0.2023314945860003,-0.24267624820418465,-1.6771801741966623,1.7066819070530426
1.4250186520765977,0.20761003381642396,-0.24822989564991849,-1.6779488732945058,1.7088687569927445
1.4275055956229794,0.19372845041884457,-0.24419780492525467,-1.673857154860464,1.7026335646020745
1.4299925391693609,0.19420558689828216,-0.24494521057068974,-1.6936356503413759,1.7222414703726308
1.4324794827157423,0.19946465592090934,-0.24089533059027746,-1.7085541518367453,1.7369438675502515
1.4349664262621238,0.18556366023544224,-0.24641339965412712,-1.6994592585778197,1.7272276072061121
1.4374533698085052,0.18123303915703903,-0.24713423257433842,-1.6902932001644846,1.717850938211607
1.4399403133548867,0.18168440880119807,-0.2478462575075011,-1.700209803356893,1.7277587699655297
1.4424272569012684,0.17734098200515436,-0.2629147093134465,-1.6956904588670838,1.7250913310792526
1.4449142004476498,0.1729911816086549,-0.26839759635149285,-1.6767353811193502,1.7068698711205461
1.4474011439940313,0.1734234304925404,-0.26429494364389283,-1.676863608244954,1.70639944448415
1.4498880875404128,0.16906094161733554,-0.26497198623457674,-1.686498548951894,1.7155375574689353
1.4523750310867942,0.1646921379446462,-0.26564034594634167,-1.6960636124024653,1.7246217182359065
1.4548619746331757,0.16510544247574765,-0.271088451302103,-1.7055590148486406,1.73484302134111
1.4573489181795574,0.16072406829017127,-0.26695111760239776,-1.71498497298618,1.7430629887887932
1.4598358617259388,0.15154803514679727,-0.26280517680757454,-1.7243417039493973,1.7508248570010727
1.4623228052723203,0.14236576616305818,-0.2634390576152956,-1.733629425305928,1.759300751076686
1.4648097488187017,0.1427540878144704,-0.2688527854599161,-1.73327154841086,1.759798514139581
1.4672966923650832,0.14313621333260318,-0.2742579825118554,-1.7376335016437192,1.7649576772753737
1.4697836359114647,0.13872375930616,-0.2748662709972991,-1.741927100520412,1.7689278594265634
1.4722705794578463,0.12951674568050842,-0.2611008698772581,-1.7653061775708387,1.7892048938654554
1.4747575230042278,0.12509199907752855,-0.26169222472976506,-1.7838289358492911,1.807256622920619
1.4772444665506093,0.12066113619356489,-0.25748674798362803,-1.7927071920933297,1.815119172880353
1.4797314100969907,0.11622417708021682,-0.2580612720428128,-1.7919411667576135,1.8141545757148054
1.4822183536433722,0.12135794846417514,-0.2634158227233221,-1.7958962906493152,1.8191644054577387
1.4847052971897536,0.12169726050456564,-0.26397361925257856,-1.7997843816807606,1.8231061722833422
1.4871922407361353,0.12203053667529107,-0.25015788090943536,-1.7844520481845585,1.8060286624338011
1.4896791842825168,0.12235779716300099,-0.25069905358605604,-1.7786299320724677,1.8003738170890058
1.4921661278288982,0.12267906218693603,-0.25602035666230094,-1.772741449064604,1.7953297247459115
1.4946530713752797,0.13257115863908409,-0.25175660624729534,-1.7763636285280278,1.7990064595907724
1.4971400149216612,0.12809209020089984,-0.2570614417413162,-1.799073500190321,1.8218544473939768
1.4996269584680426,0.12360708714752566,-0.2575696793508029,-1.8073524642516094,1.8297933713264831
1.5021139020144243,0.11432776650357568,-0.2484929419705586,-1.81077755114503,1.8313205399748214
1.5046008455608058,0.10504255196454482,-0.24419646582376053,-1.8045605816878343,1.8240352914967337
1.5070877891071872,0.11490507721665588,-0.24468027721915764,-1.7887017803574903,1.8090123476317856
1.5095747326535687,0.12476174941295715,-0.24515599919108277,-1.796720195208426,1.8176551977549988
1.5120616761999501,0.13461258901661222,-0.25041206145978157,-1.8046740347809624,1.826930519056182
1.5145486197463316,0.134880809878553,-0.25566008714954647,-1.8221403311821227,1.8449255539330858
1.5170355632927133,0.1255664325182746,-0.25132329610842774,-1.8156004869555176,1.8372086044799822
1.5195225068390947,0.1306114940843065,-0.2469785215091833,-1.7994199381621758,1.8209804684096327
1.5220094503854762,0.13565080518968986,-0.2378373866064849,-1.7975409278129462,1.8182742231520088
1.5244963939318577,0.14068438643495396,-0.23347672465818503,-1.8051752793008813,1.825639960819961
1.5269833374782391,0.1457122584467192,-0.24347336896377048,-1.8079580096774173,1.8300883881422068
1.5294702810246208,0.15073444187723672,-0.248673732941878,-1.8011009429285334,1.824424321269957
1.5319572245710023,0.15575095740392741,-0.23950103669220013,-1.818123129891541,1.8404322380233105
1.5344441681173837,0.16555022904924332,-0.23510892027611208,-1.830294378523483,1.852744071583099
1.5369311116637652,0.17055547089894918,-0.2402858138332733,-1.818461303700726,1.8421802175791664
1.5394180552101466,0.16597830038292727,-0.24545493758101333,-1.8161429570967176,1.840155472560108
1.541904998756528,0.17097235155596324,-0.2458279150949818,-1.8377047773722683,1.8619403206368832
1.5443919423029098,0.18553764521448068,-0.250981579949177,-1.8496281702486375,1.8757772627481235
1.5468788858492912,0.18094378225546282,-0.2513391524731543,-1.837548154986873,1.8634632391862462
1.5493658293956727,0.17634439680099467,-0.25168906299361105,-1.8301953809843496,1.8558178421628986
1.5518527729420541,0.19568152631500157,-0.24724293523222984,-1.8371468846056924,1.8640088530850971
1.5543397164884356,0.2054363684387286,-0.257154409547264,-1.8440376858574528,1.8731811120896464
1.556826660034817,0.20082054075592282,-0.26226989976888593,-1.8460796116252975,1.8753997766803994
1.5593136035811987,0.1961992741517503,-0.2530126264017043,-1.8672149089502668,1.8944659037582374
1.5618005471275802,0.20593779953109237,-0.2533246332257395,-1.8835017918987838,1.9115864477340787
1.5642874906739617,0.215670927896236,-0.2536291408114475,-1.8997288946827062,1.9286813016931421
1.5667744342203431,0.21103347026828356,-0.2587145797222572,-1.9063196417715016,1.9353353549031664
1.5692613777667246,0.2063906576085891,-0.2590041705921009,-1.9176394744498282,1.9460270856029782
1.571748321313106,0.2017425109354969,-0.25449794072638277,-1.9193234142891402,1.946605150304255
1.5742352648594877,0.2114542612457705,-0.2547727241013886,-1.9113716930255684,1.9398360225659448
1.5767222084058692,0.21637231631102072,-0.2502517414418244,-1.9033613492346557,1.9318973417655585
1.5792091519522506,0.2212851005210159,-0.24572342346240728,-1.900081018365519,1.9286407060164497
1.581696095498632,0.21661582832073423,-0.2507646042266609,-1.9063193360562192,1.9349053503553748
1.5841830390450136,0.21194132745211058,-0.25101010122445233,-1.9029229215273276,1.9310724591462052
1.586669982591395,0.2072616190317198,-0.25603674857453385,-1.8851036041394913,1.9136686739569022
1.5891569261377767,0.20736512751127267,-0.2658445737817656,-1.881592036669824,1.9115601549457635
1.5916438696841582,0.2122518740365491,-0.2660683944162212,-1.892388452142967,1.922752532788166
1.5941308132305396,0.21234507312665096,-0.2758618513157338,-1.8935510671465288,1.9252859099324091
1.596617756776921,0.21243314927512136,-0.27607135878062383,-1.889868518349667,1.9217039976799475
1.5991047003233025,0.21730452698857083,-0.27627375105749197,-1.895706249216989,1.9280172785256484
1.601591643869684,0.21259401750499352,-0.2812574590964534,-1.8919108801209106,1.9244814244092316
1.6040785874160657,0.2030900453558271,-0.28144570390993673,-1.8784826448602612,1.9102759742542945
1.6065655309624471,0.2031578417248966,-0.28162691649398,-1.8793637939757897,1.9111763651885452
1.6090524745088286,0.2127974278464172,-0.2818011245464067,-1.8849777549016,1.9177684311635612
1.61153941805521,0.2080668083639361,-0.2867567591068729,-1.876171148561923,1.909329571952521
1.6140263616015915,0.20333121449396419,-0.2917054445953604,-1.876886225889761,1.9102715917190618
1.616513305147973,0.20337907082242013,-0.29185880545222265,-1.877546414697111,1.9109487560137675
1.6190002486943547,0.18905678534326198,-0.30158207941886594,-1.8829403528733213,1.9162877109634773
1.6214871922407361,0.18430639594243559,-0.29693327769342925,-1.8787030651381524,1.9109326063329763
1.6239741357871176,0.18912792391306676,-0.2874892347349012,-1.8887768028807645,1.9198690691796167
1.626461079333499,0.17957937395504298,-0.29240359166098484,-1.8987965910300133,1.9295536027987221
1.6289480228798805,0.17002597733864222,-0.287734359724102,-1.8991858579325225,1.9283689526920649
1.631434966426262,0.17004456202129925,-0.27826997011551224,-1.904310048629215,1.9320315967010755
1.6339219099726436,0.16048153604561732,-0.27837566068349284,-1.9093809949677993,1.9362290969347493
1.636408853519025,0.15091372738269537,-0.2688978460499678,-1.904822125559022,1.9296187019051307
1.6388957970654066,0.15091796400983148,-0.2594133607740088,-1.8906336757329232,1.9143059367364255
1.641382740611788,0.1413406539882277,-0.25471063610908784,-1.8859694941748,1.9083332050705577
1.6438696841581695,0.13175862530632132,-0.2500012966822003,-1.8860414130377308,1.9070954866966554
1.646356627704551,0.1365371092777996,-0.2404969671339301,-1.9100032811410426,1.9299206479490563
1.6488435712509326,0.14131091729900336,-0.23577448207883123,-1.9482785274422465,1.9675740398368635
1.651330514797314,0.13650326409068847,-0.23583386950331064,-1.943406547751172,1.9624168173337806
1.6538174583436955,0.12690257433824004,-0.23588675408538862,-1.919329594373778,1.9379300596166067
1.656304401890077,0.12208567605063347,-0.2359331638347677,-1.9047783229825619,1.9232134124423332
1.6587913454364585,0.11726418727876975,-0.24554993341258857,-1.880599356088542,1.9001840956964446
1.6612782889828401,0.11243812939631426,-0.25037188088869966,-1.8659465428023037,1.8860235715064
1.6637652325292216,0.11718433041959542,-0.2503990343036029,-1.8560317156653738,1.876508879070871
1.666252176075603,0.11713760176501242,-0.2647850349882188,-1.8604319172081603,1.8828274618423755
1.6687391196219845,0.10750956149080926,-0.2695878943992738,-1.8647821733829364,1.887233025565568
1.671226063168366,0.10266544093729624,-0.2504424306421984,-1.8786595267624122,1.8980577497336566
1.6737130067147474,0.1169704714451879,-0.250444301673697,-1.892487406652421,1.912567129218983
1.6761999502611291,0.11690585115207741,-0.26959353557465526,-1.8823240324077073,1.905122414816656
1.6786868938075106,0.11683681139828006,-0.2647945305495929,-1.8673232532712163,1.8896198337533652
1.681173837353892,0.11676337356236766,-0.25998933129330926,-1.8714273218070705,1.8930051131991144
1.6836607809002735,0.12147396234201646,-0.26954317586534815,-1.8659060540523864,1.8891836463753318
1.686147724446655,0.1309685991129821,-0.2695140757675807,-1.8747017025597028,1.8984986396020194
1.6886346679930364,0.13567049860838742,-0.2599020591077341,-1.8882376966269074,1.910862936864907
1.691121611539418,0.1355796821995734,-0.2598607672785431,-1.8921490622146706,1.9147160474168978
1.6936085550857995,0.1498497845363269,-0.2598134217540915,-1.9055896485045345,1.929048957527203
1.696095498632181,0.1545388103824218,-0.259760050651781,-1.9094060780898268,1.9331810827947296
1.6985824421785625,0.15443518441991178,-0.2597006820911747,-1.8892333768540723,1.9132426460553493
1.701069385724944,0.16390413796748637,-0.27400055415440683,-1.8594369905681898,1.8866496208923036
1.7035563292713254,0.16858048241757861,-0.2787176783622165,-1.8583243815658292,1.8866564155685024
1.706043272817707,0.17804104575941138,-0.2786404861577978,-1.8475885590124523,1.8769450226085655
1.7085302163640885,0.18270904269579336,-0.2785574089843972,-1.8368065652290984,1.866771325698901
1.71101715991047,0.1873728978849203,-0.278468474964479,-1.8499206524458884,1.8801222605875014
1.7135041034568514,0.8911395174243621,-1.489839752258576,-16.4005815201024,16.492205017051223
1.715991047003233,1.3267514519366133,-1.0875133100022725,-20.407132811913684,20.47911190012233
1.7184779905496144,1.6618028389515191,-0.6420854653759958,-22.52700796645193,22.59734387800883
1.720964934095996,1.8723516831793368,-0.18707506973727428,-22.70274637925138,22.780592421353603
1.7234518776423775,1.9200907793618918,0.23921062223896206,-21.006174335422067,21.09510205078248
1.725938821188759,1.805020148795677,0.612829565842528,-17.715019462769014,17.817282968528453
1.7284257647351404,1.570235442651743,0.9050513130468678,-13.188412245461413,13.312361728139907
1.7309127082815219,1.2396786988113067,1.1062990291112986,-7.905193250590637,8.077919357562495
1.7333996518279033,0.8277151485058059,1.2022074759800137,-2.382510271718031,2.7940598378005705
1.735886595374285,0.3774404428794829,1.192776625563654,2.876854107646029,3.1371112385587963
1.7383735389206665,-0.048896153652122076,1.092371659740032,7.422789740616201,7.50289772089706
1.740860482467048,-0.44171781320706505,0.8962041471122779,10.886589336855229,10.932343019185579
1.7433474260134294,-0.7531404813512816,0.6377928828531974,12.995313672537778,13.032734854730819
1.7458343695598109,-0.9687989269037965,0.3315030488619799,13.64361764016081,13.68198698811989
1.7483213131061923,-1.0791163220151785,-0.01308857627435378,12.88896184522699,12.934063584001187
1.750808256652574,-1.0697274355272746,-0.35767479403829494,10.865421346482895,10.923810190643934
1.7532952001989555,-0.954997456215826,-0.6878904225046099,7.826781285807531,7.9147784978873075
1.755782143745337,-0.7540799761891169,-0.9606398598168444,4.0986528550092185,4.276730150083534
1.7582690872917184,-0.47176337760729536,-1.1854999406315592,0.04016606927256028,1.276551646745905
1.7607560308380998,-0.13198965592476875,-1.3433170796729632,-3.941665022880623,4.166370746634622
1.7632429743844813,0.20778037014843476,-1.4101492883338058,-7.521229229234079,7.655101750877804
1.765729917930863,0.5140278984900661,-1.3907849979171054,-10.411222583990574,10.516276112971395
1.7682168614772444,0.7963297568465464,-1.3187430596356606,-12.353071541127255,12.448759007996927
1.770703805023626,1.0115903364263583,-1.1748698881662532,-13.251008267360422,13.341396267427381
1.7731907485700074,1.1550212549856271,-0.9687423180944705,-13.095456189016554,13.181938726029172
1.7756776921163888,1.2026805169840156,-0.7338792005939134,-11.943876378747085,12.02668707740373
1.7781646356627703,1.159356546787498,-0.47506896690230027,-9.949497975446526,10.028075991400701
1.780651579209152,1.0394145753867405,-0.2162536615239925,-7.332587764325762,7.409047956869276
1.7831385227555334,0.8572198337561616,0.018624671051501895,-4.385238580230222,4.468275968121966
1.7856254663019149,0.6271375528535461,0.2295660029517963,-1.3564476279467126,1.511936581762827
1.7881124098482963,0.3635329636197142,0.4022050963594883,1.4616922580339526,1.5589962836299749
1.7905993533946778,0.09992491025942263,0.52217671347359,3.8153954699663117,3.8522585712830706
1.7930862969410595,-0.14932137632150133,0.5846924231506283,5.527490853416685,5.560334273919277
1.795573240487441,-0.36026385859453336,0.5801753909441758,6.506998513907202,6.54273820292828
1.7980601840338224,-0.5185373056902339,0.5277792023475039,6.691668977076768,6.732448701816798
1.8005471275802039,-0.6049880834374557,0.4322922329112484,6.0910788185668565,6.13629597800909
1.8030340711265853,-0.6196161709653767,0.2937144548844408,4.820149487267505,4.868678820782395
1.8055210146729668,-0.5767867573834476,0.1120458405354503,3.0464748687988994,3.102619274113
1.8080079582193485,-0.4764998218598683,-0.07440641128533265,0.9520140589501,1.0672015567415056
1.81049490176573,-0.32833215022361706,-0.2608539249493558,-1.2716970396336453,1.339051952556332
1.8129818453121114,-0.13707212500358967,-0.44729672812797583,-3.428334120772125,3.460106642012262
1.8154687888584928,0.05897304800838632,-0.6241580418308019,-5.311996071422952,5.3488646780776135
1.8179557324048743,0.2358613729603043,-0.7531306671239903,-6.769454214841993,6.815302396508857
1.8204426759512558,0.412746483861653,-0.839003034934602,-7.700152310581122,7.756715242853603
1.8229296194976374,0.5561095781768566,-0.8913519794876099,-8.056206554483934,8.124421841755044
1.825416563044019,0.6515854666293657,-0.8910239150631982,-7.8232519654005195,7.900744177081058
1.8279035065904004,0.6943857665611212,-0.852384079160454,-7.068326418387158,7.153318710086858
1.8303904501367818,0.6845104986115765,-0.7706440959734371,-5.896775014819951,5.986184303942957
1.8328773936831633,0.6363248933581709,-0.6601692029532993,-4.409154452508961,4.503484843153674
1.8353643372295447,0.5450405680737289,-0.5305362342061373,-2.7634822688567535,2.866247052669646
1.8378512807759264,0.42023434996841363,-0.39611042713337064,-1.1273528076543435,1.2666588855344156
1.8403382243223079,0.27627146954873144,-0.2521034058296068,0.36037000748671844,0.5193732707922891
1.8428251678686893,0.1370939639374763,-0.09851519768375017,1.5608222532159761,1.569925509461183
1.8453121114150708,0.0027018536314111774,0.02634694337907284,2.392600846289774,2.3927474315324235
1.8477990549614522,-0.1269048408977429,0.13205979666381884,2.812609930295613,2.818566878492626
1.8502859985078337,-0.2325724859221383,0.1994697215807495,2.8112724723339078,2.8279199148380965
1.8527729420542154,-0.2951474477395324,0.23815349748974368,2.412530263021928,2.4421571149847034
1.8552598856005968,-0.3194181092750432,0.23853429049753005,1.6690555131772218,1.7160049074356643
1.8577468291469783,-0.3101728534799636,0.21976568666126495,0.6718276604610107,0.7719174576534173
1.8602337726933598,-0.25304645005079285,0.16748244882489738,-0.5073274704613624,0.591154834905727
1.8627207162397412,-0.17198089527325922,0.07210774318204738,-1.7295464081524266,1.7395711347682106
1.8652076597861227,-0.06697616885871416,-0.023262827520302398,-2.8751192941625554,2.8759933800349784
1.8676946033325044,0.05717934613399511,-0.12820609702854435,-3.8482782863506575,3.8508378374241565
1.8701815468788858,0.16696684669626438,-0.23314528577697935,-4.572409155556252,4.58139281638132
1.8726684904252673,0.2671747563541429,-0.34765722745020256,-4.990051285599356,5.009277366162014
1.8751554339716487,0.3625914986054082,-0.4430115291388459,-5.077262883236626,5.109435408663383
1.8776423775180302,0.4388518836379397,-0.5144198145031194,-4.87713980140023,4.92379034522473
1.8801293210644117,0.4815907216108133,-0.5714589171319364,-4.413624279429353,4.476446603845455
1.8826162646107933,0.4955964359351729,-0.5997636539799287,-3.7250237663084835,3.805408562494971
1.8851032081571748,0.48565744999269633,-0.5993340519295103,-2.897529743907725,2.998456783307977
1.8875901517035563,0.4469853804947082,-0.5845353477905468,-2.017333693774285,2.1473501659556167
1.8900770952499377,0.3700034408021638,-0.5457907617373965,-1.151473483849383,1.3269066605498532
1.8925640387963192,0.28344207080824496,-0.4831003205507449,-0.390928998348123,0.6830452466489796
1.8950509823427006,0.2064549037348451,-0.40604085761714614,0.2259923153699468,0.5084931975325738
1.8975379258890823,0.11988834621046263,-0.32418920628802184,0.6466178003188947,0.7332028619147523
1.9000248694354638,0.04289603139498466,-0.23754539323872592,0.8278516064909205,0.8623260205560181
1.9025118129818452,-0.014945214223891501,-0.16047465506952685,0.7744819174227118,0.7910737732744284
1.9049987565282267,-0.053635370830731666,-0.09297701838358341,0.510450530276346,0.521614055419382
1.9074857000746082,-0.07317441864219976,-0.039840913067562767,0.05969924256092618,0.10249777295155883
1.9099726436209896,-0.06877393458691372,0.0037220376694984125,-0.5107345179808433,0.5153575996335968
1.9124595871673713,-0.040433898946386604,0.03771180733574475,-1.1625437431749415,1.1638578243891042
1.9149465307137528,0.0022689013244009404,0.038186352875597684,-1.8239026012485944,1.8243037149281225
1.9174334742601342,0.0641228891982607,0.014722454513884209,-2.4373504700299655,2.4382382593465595
1.9199204178065157,0.1307628743333844,-0.023103107485950236,-2.940638323664592,2.9436349015263996
1.9224073613528971,0.1974004729949227,-0.07529035946211371,-3.300247555853983,3.307003101735277
1.9248943048992788,0.2592473014140414,-0.12268571443216603,-3.4922363665713307,3.50399426195585
1.9273812484456603,0.30672657246743795,-0.17965440861613047,-3.487874552098094,3.5059414980809813
1.9298681919920417,0.3398383056379869,-0.2557732748736634,-3.325469554825146,3.3525598879345093
1.9323551355384232,0.3729477303347062,-0.33188872610197473,-3.0241752034845337,3.065106164139526
1.9348420790848047,0.3869012526894723,-0.3936355784778054,-2.617510536388451,2.675070645063565
1.9373290226311861,0.38648729540045446,-0.45059066473824316,-2.1437829947857203,2.22445721590406
1.9398159661775678,0.3621290711693736,-0.48360039765688123,-1.6460884228593695,1.753457699709786
1.9423029097239493,0.3186150026230958,-0.49745320656698855,-1.1723110677227346,1.3127408168124859
1.9447898532703307,0.2703103189930997,-0.4921491174391832,-0.751181562816079,0.9378444234867129
1.9472767968167122,0.21242663619331198,-0.47726496284206155,-0.4353725577858114,0.6800413109466217
1.9497637403630936,0.15932918338238844,-0.4384355586996511,-0.24403787863824355,0.5264655867384193
1.952250683909475,0.11580638304153756,-0.3996029474550862,-0.18196614101779396,0.45409834886824174
1.9547376274558568,0.07706985097431773,-0.3559787515859183,-0.23958075020434855,0.43595821976234245
1.9572245710022382,0.03354279962668061,-0.3027745935256245,-0.40730511107127754,0.5086207107424829
1.9597115145486197,0.004378861328898531,-0.23999049898355818,-0.6755626280827194,0.716937569451445
1.9621984580950012,0.008731668373470836,-0.18199170358523764,-0.9964694787283523,1.0129899526864004
1.9646854016413826,0.013082416491425386,-0.14314344291110004,-1.3460838566843183,1.3537366598034593
1.967172345187764,0.03179633457863307,-0.10429212925389297,-1.6908871485689634,1.6943987736989858
1.9696592887341458,0.06008503821121003,-0.07980299810276081,-2.002149143900672,2.0046395997149276
1.9721462322805272,0.0787949329655594,-0.07925288158040722,-2.2559280350949376,2.258694525655727
1.9746331758269087,0.10707965094160887,-0.08827659516148856,-2.4234936108216196,2.4274637156077725
1.9771201193732901,0.1401508075984903,-0.09729735759416736,-2.500057675923733,2.505872584073359
1.9796070629196716,0.1732200183558381,-0.11110359754038646,-2.4951972447742357,2.5036690025789254
1.982094006466053,0.1919220919530118,-0.1392721469349416,-2.4041241213516376,2.415790473355724
1.9845809500124347,0.20104545037063748,-0.17222622438355462,-2.222050109198232,2.2377640253762285
1.9870678935588162,0.2101669188695129,-0.2051774517641305,-1.9824942379800845,2.004133559452504
1.9895548371051976,0.21449811270910202,-0.23812585422643373,-1.7237639402421738,1.7533041619998682
1.992041780651579,0.20446224378793354,-0.2662830535511378,-1.4650130348042385,1.5029885780968661
1.9945287241979606,0.18963613724493855,-0.29443747811042664,-1.2253953400395954,1.2744602906548186
1.997015667744342,0.16523140821703308,-0.31780074958645077,-1.0096994639115113,1.0713504291884552
1.9995026112907237,0.13124807512015735,-0.3220076829709746,-0.8562328371740247,0.924148081516248
2.001989554837105,0.10683976960997876,-0.33100031976821453,-0.7602072602442185,0.8359970254642026
2.0044764983834864,0.07764130005824077,-0.33999028151013766,-0.7407765496842398,0.8187621507850514
2.006963441929868,0.048441088075980354,-0.32503557639677805,-0.7883641016753611,0.8541151103615775
2.0094503854762498,0.03360436187268534,-0.30528984245998947,-0.8790281019764805,0.9311399170428091
2.011937329022631,0.023554333013892537,-0.28554150771938813,-1.0175571558044965,1.057124081914383
2.0144242725690127,0.018291019663160157,-0.2657905968226748,-1.203951464589709,1.2330767745146192
2.016911216115394,0.017814439941230997,-0.2412487310453293,-1.4142692126921599,1.4348085971551408
2.0193981596617756,0.022124611925819826,-0.21191593493093963,-1.605414970719531,1.6194922321953
2.0218851032081573,0.04079836029203743,-0.18258063629086863,-1.7630237287281272,1.772922125477971
2.0243720467545385,0.059470493069968766,-0.16281966620402732,-1.8775188796184903,1.8855036798088323
2.02685899030092,0.07814102820701074,-0.14784464573524403,-1.953689025774258,1.9608326978588964
2.0293459338473014,0.10638679024731768,-0.14244400253659073,-1.9771691558172506,1.9851464212276309
2.031832877393683,0.12026578044879155,-0.13704095424551355,-1.9335942578866359,1.9421716801610633
2.0343198209400644,0.1389316299079022,-0.131635525086097,-1.8612717561599812,1.871085903835636
2.036806764486446,0.15759595307508667,-0.13580454586878687,-1.7649902510854396,1.777208469913115
2.0392937080328277,0.17147036435612306,-0.13997123406821999,-1.6399615359810529,1.6548316747380492
2.041780651579209,0.17097807479163052,-0.14413561374482597,-1.4861858069933387,1.5029161088089684
2.0442675951255906,0.17048431197872138,-0.17223972550547462,-1.3371820830171597,1.3589655429094474
2.046754538671972,0.16041228686771747,-0.19555317337818368,-1.2025273658496758,1.2288389687073602
2.0492414822183536,0.15033882364473983,-0.2092875779368799,-1.087010253469293,1.1171366717286413
2.0517284257647352,0.1354755364893495,-0.21344296301983023,-1.0002077466743398,1.031662278052814
2.0542153693111165,0.12061084617591156,-0.22717296569032763,-0.9516968457604857,0.9858404631512474
2.056702312857498,0.10574477011247163,-0.23611239971297682,-0.9414777438780284,0.9763766506436041
2.0591892564038794,0.08130051902025692,-0.2546264987174842,-0.9647622303500825,1.0011046845121412
2.061676199950261,0.06643172349599225,-0.268350076354646,-1.0311273039517292,1.0675431861620186
2.0641631434966428,0.07071520744921767,-0.2724947528585764,-1.1262079463454544,1.1608610465131857
2.066650087043024,0.07978577814116161,-0.2574837450855165,-1.2260623320399322,1.25534556653698
2.0691370305894057,0.07448983946582677,-0.24725909307605232,-1.3259022483100527,1.3508155193682403
2.071623974135787,0.08355782847323223,-0.24660922353143766,-1.416151078593174,1.4398895434131573
2.0741109176821686,0.09262455228330646,-0.23638054649301266,-1.4872322058074854,1.5087460702308446
2.07659786122855,0.10647843124977263,-0.21657308522476626,-1.543934222310945,1.5626818103465876
2.0790848047749315,0.12033107903810036,-0.1967636695724515,-1.5814689132977335,1.5981988092766195
2.081571748321313,0.12939410926595774,-0.1817407260024031,-1.5902596601166277,1.6058325920203709
2.0840586918676944,0.14803274878428985,-0.1619274709606593,-1.584671860190923,1.5997872061762803
2.086545635414076,0.16188180447402478,-0.1516891374352114,-1.5455520871727675,1.5613925090122927
2.0890325789604574,0.1757296964490313,-0.14144894175263323,-1.4776889307849963,1.4948087855981829
2.091519522506839,0.18957644145438868,-0.1264185034997145,-1.4050245934989345,1.423381527742461
2.0940064660532207,0.19863365286622026,-0.1305398621247802,-1.3419244706106408,1.3628122645757863
2.096493409599602,0.1837477340509175,-0.13465942713275902,-1.2644467303172338,1.2848042360198353
2.0989803531459836,0.17364912152901602,-0.14835402788964114,-1.1773799601993176,1.199327522271471
2.101467296692365,0.1683378318500528,-0.16204688041911863,-1.1190315705395175,1.1431659866133543
2.1039542402387466,0.16302547819397484,-0.17573800732420564,-1.075036534555137,1.1014375626366548
2.106441183785128,0.15292367369127935,-0.18463902782609543,-1.0406066315602942,1.0678667436618974
2.1089281273315095,0.15718604802442937,-0.1935383677248521,-1.0301072536048537,1.0598516440542387
2.111415070877891,0.15187060094332616,-0.21201285607885811,-1.0531153888710652,1.0849267960791902
2.1139020144242724,0.13697734874952272,-0.21612049864212146,-1.0856892017500055,1.1154335062209364
2.116388957970654,0.13165992097576873,-0.22980333430932953,-1.1326172760038773,1.1631705812792352
2.1188759015170353,0.12634152718273317,-0.23869617535001764,-1.1938997915221243,1.2240648503303098
2.121362845063417,0.12102218352135252,-0.23801064061148036,-1.2455949110385394,1.2738925058079547
2.1238497886097987,0.13006711605300636,-0.23732355883885026,-1.2829144100123084,1.3111480883849516
2.12633673215618,0.1343227275462341,-0.2462117587139523,-1.3298004832670216,1.3590556098120787
2.1288236757025616,0.13378903400004227,-0.2455216489332228,-1.357522888543798,1.3860190397804246
2.131310619248943,0.1380428580031272,-0.23525325141060893,-1.361293399624552,1.3883514118573528
2.1337975627953245,0.14708421545248906,-0.22498339463673922,-1.3411121930492094,1.3677840504417371
2.1362845063417057,0.16091312219391762,-0.21950050371777818,-1.3065562514344045,1.3346020913324226
2.1387714498880874,0.165164384060917,-0.2044393904142825,-1.2528373468703755,1.280107868825275
2.141258393434469,0.16462642011675682,-0.18937688302380673,-1.2134744774428228,1.239147194416145
2.1437453369808503,0.16887605269340084,-0.18867821309945,-1.1788910107860726,1.205778837342866
2.146232280527232,0.15397128082887357,-0.1927665955277793,-1.1299335073237398,1.156553434409488
2.1487192240736133,0.13906573339212935,-0.18727684180988247,-1.0953325601109754,1.1198952231889543
2.151206167619995,0.13373623255948497,-0.1817857799830449,-1.0607231317470518,1.0844653115367602
2.1536931111663766,0.11404077721292694,-0.17629343137837328,-1.0308937975379528,1.052058313315717
2.156180054712758,0.10392139938530531,-0.18037662390184073,-1.0106331322136644,1.0318501401019569
2.1586669982591395,0.09380130781487983,-0.18445857211223293,-0.9951529032861206,1.0164413170922662
2.161153941805521,0.07889211450771172,-0.19811610378344957,-0.984453281008717,1.0072845768692482
2.1636408853519025,0.06398223805784631,-0.19740722338088768,-0.988111241695222,1.0096668582232042
2.166127828898284,0.04907169368625608,-0.2014855651862546,-1.0204921643980747,1.041349471454002
2.1686147724446654,0.04852570652197119,-0.21513955345363556,-1.038500587742952,1.0616606060300735
2.171101715991047,0.043190678398836835,-0.22400399908899704,-1.0708670995758585,1.0948970596647096
2.1735886595374283,0.037855027699146615,-0.2280789228921951,-1.1032266572742913,1.1271921111817513
2.17607560308381,0.042095576072277985,-0.23694115223648504,-1.130791024269353,1.156114824624329
2.178562546630191,0.036758725192391206,-0.23622549782616042,-1.1583487700444461,1.182761836873539
2.181049490176573,0.03620969992237966,-0.2211435769385659,-1.157169640251178,1.1786675529209638
2.1835364337229546,0.04044851511063474,-0.21563742670517394,-1.1464074131534119,1.1672127223020585
2.186023377269336,0.04468678223156175,-0.2053418576270447,-1.154792673063497,1.1737581968877036
2.1885103208157175,0.05850132266672414,-0.18546848677778272,-1.139229953895729,1.155710107334301
2.1909972643620987,0.06752694114222924,-0.18474775440492897,-1.0997194188526347,1.1171725116289186
2.1934842079084804,0.0717636522911409,-0.17923766416417664,-1.0745684571034122,1.0917754032065394
2.195971151454862,0.0712114706924224,-0.15936142960357857,-1.0781424406187483,1.0921805075475506
2.1984580950012433,0.07544721751146366,-0.15384949076495769,-1.062557497607095,1.0762854566330955
2.200945038547625,0.0748941005781174,-0.14354825441811236,-1.023025385560425,1.0357587398371053
2.2034319820940063,0.06476373098814558,-0.1332461438653656,-1.0026418945733813,1.013528314582377
2.205918925640388,0.07378654302501086,-0.11815477569920851,-0.9918303776155959,1.001565026802158
2.208405869186769,0.06844372775352547,-0.12700458968496653,-0.9714373804134038,0.9820923040805796
2.210892812733151,0.04873529942600818,-0.13106518567470715,-0.9414630613706159,0.9517908952240614
2.2133797562795325,0.04818009548219149,-0.13991339001334424,-0.949791611489351,0.9612498028926911
2.2158666998259138,0.05241292010381815,-0.14397241569474328,-0.9629043647205133,0.9750179415131829
2.2183536433722955,0.04706857741767678,-0.13366547564282527,-0.9424942510877656,0.9530883084438896
2.2208405869186767,0.04651229141738866,-0.13772300927392145,-0.9508106697333769,0.9618585915898414
2.2233275304650584,0.04116726943988258,-0.15135663269194932,-0.9591233561047119,0.9718647984974801
2.22581447401144,0.045398735368435084,-0.16498955861014508,-0.9434904483594906,0.958883113715648
2.2283014175578213,0.04962989642946147,-0.16425659635092948,-0.9230657139273202,0.9388789422990297
2.230788361104203,0.049072363114308626,-0.16352297508796054,-0.9170029196259133,0.9327605345455443
2.233275304650584,0.0580913591401111,-0.167577117283499,-0.9109370084179744,0.928042525722438
2.235762248196966,0.07668689820752417,-0.17163063868827555,-0.9192333425743211,0.9382579040933232
2.238249191743347,0.0857053806803334,-0.16131834834136116,-0.9179500571886052,0.9359494266688287
2.240736135289729,0.08993522346819116,-0.15100547513253915,-0.9070873033404716,0.9239579935374584
2.2432230788361105,0.09416484342497822,-0.14548044123968396,-0.9105872480946999,0.9269308026563916
2.2457100223824917,0.10318265734872933,-0.14474326544894334,-0.9236616379768812,0.940610490660456
2.2481969659288734,0.10262346870031891,-0.14400556315461843,-0.9223686056132188,0.9391661318256944
2.2506839094752547,0.10206409748618583,-0.13369054635904076,-0.9067082996124896,0.922176871737532
2.2531708530216363,0.11586976697703033,-0.14252865355527122,-0.8958344812449415,0.9144723275042188
2.255657796568018,0.11052166718429945,-0.15136628996135304,-0.8801704912383652,0.8999038205834258
2.2581447401143993,0.10517342458668999,-0.1458382640436433,-0.864504879660128,0.8830056259473821
2.260631683660781,0.10461345564569491,-0.1450982074385596,-0.8632030025960713,0.8815423351120978
2.263118627207162,0.10405337012587079,-0.15393454174936227,-0.8571113922669795,0.8770193189046509
2.265605570753544,0.8169652757822619,-1.0917207226866563,-19.32946700995751,19.377501936194285
2.268092514299925,1.0223063389072198,-0.4589102351854799,-21.880380546796744,21.90905661426729
2.2705794578463068,1.1653980812053442,0.14995859702449543,-22.6356419413356,22.666118467105253
2.2730664013926885,1.2318753055746727,0.701366932708126,-21.623981756499283,21.67039499751204
2.2755533449390697,1.2217380248175629,1.1378539141014654,-19.03693626747723,19.1100051748583
2.2780402884854514,1.1493514616406508,1.425900700114934,-15.11871418535596,15.229238989767259
2.2805272320318326,1.0242924353734824,1.5607188696539938,-10.233234303599344,10.402120105806302
2.2830141755782143,0.8369841520076519,1.527943195056221,-4.844971884773696,5.148679970854487
2.285501119124596,0.6257338506809582,1.34193886865437,0.615116632429471,1.6033437718046506
2.287988062670977,0.40490675387292985,1.036224696135848,5.701709599982875,5.809234326720745
2.290475006217359,0.16971447072468193,0.644319483261063,10.031734613658818,10.053837573631453
2.29296194976374,-0.05590096975761094,0.19974203586406203,13.298733722981613,13.300351139503023
2.295448893310122,-0.25757434526545764,-0.24962363018671807,15.296805447834215,15.301010208773048
2.2979358368565035,-0.42094043354745103,-0.6558934989493106,15.949335198379625,15.968364988339612
2.3004227804028847,-0.5412108190498286,-0.9951255710093898,15.232380821936994,15.274443019542392
2.3029097239492664,-0.6231738929167263,-1.238589443558924,13.270440669387147,13.342677582488193
2.3053966674956476,-0.6572528363884386,-1.3671315203563992,10.307723175252963,10.418742099818946
2.3078836110420293,-0.6482360407234654,-1.3855402216880988,6.588436774688734,6.7636847061700935
2.3103705545884106,-0.5865466872765961,-1.2698735478442975,2.4621347765329453,2.83173506911977
2.3128574981347922,-0.4769731674208566,-1.0584387422053052,-1.721629509744167,2.0764884161156725
2.315344441681174,-0.36261109914918077,-0.794331451397766,-5.646821597276231,5.713934145172759
2.317831385227555,-0.21473005070705597,-0.4967053053722603,-8.992618595245377,9.00888530033625
2.320318328773937,-0.062060430241196785,-0.18471393400527258,-11.52438887196077,11.526036161950502
2.322805272320318,0.08582096732552613,0.12248903290111324,-13.103268861502354,13.104122391767826
2.3252922158666998,0.24327936361432145,0.3626543357363814,-13.628702223875937,13.635696803723302
2.3277791594130814,0.3720075436656071,0.5501471680896892,-13.08153547489587,13.098382415400016
2.3302661029594627,0.457640309063624,0.6706023037025246,-11.576690422708548,11.605124008188918
2.3327530465058444,0.5241196878977852,0.7000777097506599,-9.28176131134504,9.322869906188405
2.3352399900522256,0.5618688849576694,0.6481501767265936,-6.421803224043314,6.47883878050746
2.3377269335986073,0.5660995082956038,0.5243964951975921,-3.2362364533644694,3.3269635885523425
2.3402138771449885,0.5463883758672559,0.3527586657665527,-0.012365324432073166,0.6504858451992376
2.34270082069137,0.493158692289419,0.1380250758300905,3.015178274788987,3.058358456116288
2.345187764237752,0.4159872754025017,-0.08149706389819089,5.6165508602953,5.6325243675464645
2.347674707784133,0.3244509429892583,-0.286654155910985,7.590639368643885,7.602976064957333
2.350161651330515,0.23291491609508447,-0.47744621590724723,8.827310400117023,8.843280677850155
2.352648594876896,0.12222559246550341,-0.6251428395890257,9.259526185519352,9.281409798390627
2.3551355384232777,0.0067481930305283155,-0.7153788325442276,8.887286602779596,8.916034744891208
2.3576224819696594,-0.08478685137661468,-0.7481542102465739,7.791994386911364,7.82828845011055
2.3601094255160406,-0.1715331431834829,-0.7282573914149466,6.083782693491441,6.129616163267231
2.3625963690624223,-0.23433705831295515,-0.6461115847320649,3.901515098656816,3.961589845235225
2.3650833126088036,-0.27319858602682767,-0.5304472253679382,1.4654580356317748,1.5822701983243388
2.3675702561551852,-0.2976945222853079,-0.38126432849530456,-1.0184872716823765,1.1275197733790145
2.3700571997015665,-0.2934596465047522,-0.20335131253214733,-3.36836161534106,3.387230475202164
2.372544143247948,-0.2700707547608536,-0.03022701574270803,-5.387840576802408,5.3946897933149325
2.37503108679433,-0.25146985314799575,0.11416653032462953,-6.928483770084885,6.9339857539526495
2.377518030340711,-0.19934970465425528,0.229829310798483,-7.899311648410379,7.905168330627738
2.3800049738870928,-0.1280755088489034,0.31197290756259743,-8.242863487602184,8.24975932414184
2.382491917433474,-0.061589271999592854,0.3510204992558692,-7.978293015967786,7.986248686208289
2.3849788609798557,0.00010901616982073037,0.3469720712333131,-7.12475396117399,7.133197644630697
2.3874658045262374,0.06180776919809905,0.31419281888637673,-5.787591310011498,5.796442917815513
2.3899527480726186,0.12350699724583425,0.23831751776022614,-4.110457275194796,4.119212088354023
2.3924396916190003,0.17562990377536508,0.12892296007706117,-2.2130620521936235,2.223760472621687
2.3949266351653815,0.20859969219124747,0.024316358056564624,-0.28215348232236614,0.35173243301983975
2.397413578711763,0.2367815824418661,-0.08986751252935976,1.529039416986489,1.549872003195835
2.3999005222581444,0.23623356785542227,-0.20884026255207688,3.1055948555055064,3.121560500837168
2.402387465804526,0.22610927158520516,-0.29908308288537455,4.3134374303652585,4.329701901845098
2.404874409350908,0.21598551008619188,-0.3653843908899339,5.080740982501155,5.0984394107354065
2.407361352897289,0.19149708315411812,-0.4125326038507944,5.369198176731123,5.388426796673521
2.4098482964436707,0.15264400048799354,-0.42137412237578564,5.1788089050757975,5.198164870142666
2.412335239990052,0.11379148169011644,-0.3919089602783319,4.55745709339903,4.575691892230596
2.4148221835364336,0.07493953634421657,-0.3385023412571342,3.5673918781655214,3.5841992943397236
2.4173091270828153,0.036088173976403404,-0.28509629557584226,2.299592816401379,2.3174790992146717
2.4197960706291965,0.002025807375528932,-0.21253722353968252,0.8785582890154853,0.9039031156508405
2.4222830141755782,-0.04640116732872712,-0.13040194530001115,-0.6047321456875832,0.6203698120439162
2.4247699577219595,-0.07088551422046296,-0.04826728093257193,-1.9970496855989675,1.9988901753938004
2.427256901268341,-0.07621562732412457,0.024289949562567248,-3.202626367814835,3.2036252083102674
2.429743844814723,-0.08633351400291411,0.07290452294069416,-4.154424648714576,4.155961105081775
2.432230788361104,-0.09645076175563227,0.10236482931397228,-4.7614649674370755,4.763541743687597
2.4347177319074857,-0.08741374817760528,0.11267085554993228,-5.004593812288316,5.0066251218815365
2.437204675453867,-0.07837607748407827,0.10382258859171634,-4.869446074256166,4.871183327438258
2.4396916190002487,-0.06454933734613266,0.06624320881747092,-4.375175466933093,4.376153007622044
2.44217856254663,-0.026779905531279846,0.019086316602828557,-3.598396543117895,3.598546808413716
2.4446655060930116,0.010990210252813326,-0.023282890921285215,-2.630089064933376,2.6302150800292305
2.4471524496393933,0.03918421220214097,-0.07522963647026737,-1.5181371639820576,1.5205049652509641
2.4496393931857745,0.0625905124163223,-0.1415423360432757,-0.3630974077544753,0.39470436107946044
2.452126336732156,0.10036273289870529,-0.19349058232176297,0.7248968302550018,0.7569588483635425
2.4546132802785374,0.12855886571261987,-0.235862791153842,1.669231000429905,1.6907071807384086
2.457100223824919,0.14239051614547205,-0.25908216835116704,2.4124441670698626,2.430490791645819
2.459587167371301,0.15143449938849235,-0.26314872629056074,2.8922869917900105,2.9081787604325657
2.462074110917682,0.14611401729456708,-0.2576392839140027,3.0896057667222436,3.1037704651647515
2.4645610544640637,0.14558269158140702,-0.23776545012710626,3.0044003979142424,3.0173081513742495
2.467047998010445,0.15462893394878208,-0.2083156404006976,2.6414591953675632,2.6541688329949062
2.4695349415568266,0.14931073611761636,-0.1645014634896187,2.0630313095608557,2.074958460220009
2.472021885103208,0.11526289639256115,-0.11589973803432763,1.312212278324873,1.3223537151412184
2.4745088286495895,0.10036945618541504,-0.07687568592023197,0.4608280600437382,0.4778560450013553
2.4769957721959712,0.0854768103668041,-0.03785251235596343,-0.40014177298407283,0.41091670237285105
2.4794827157423525,0.051431353750548525,-0.017983842396740002,-1.2228132777124632,1.2240265172314946
2.481969659288734,0.03175191761717877,0.00667232886020841,-1.930572090541868,1.9308447117839345
2.4844566028351154,0.021650106628034793,0.016962376510008426,-2.4851110738048945,2.485263265427143
2.486943546381497,-0.002816087893432462,0.022463095644785103,-2.8529114925244947,2.8530013153160847
2.4894304899278787,-0.017704641477236605,0.018386071470804843,-3.0052430144144937,3.0053514066812688
2.49191743347426,-0.027803949631795444,-0.004845514050922262,-2.9421057264817403,2.9422410921639637
2.4944043770206417,-0.033114004601707436,-0.03286646228285317,-2.6730765217453145,2.6734836511094997
2.496891320567023,-0.03363479868799313,-0.06088838115310402,-2.2220975025575056,2.2231860033552144
2.4993782641134046,-0.034154727568361465,-0.09369968515551985,-1.6370527872449596,1.6400878039422169
2.501865207659786,-0.02988538033621413,-0.1217235787481532,-0.9897685101092808,0.9976730271912956
2.5043521512061675,-0.016038346141213244,-0.14017166963456562,-0.3041867716229394,0.3353131633942716
2.506839094752549,0.0025979791701515875,-0.15862077540450725,0.3574431018044901,0.39106632546578435
2.5093260382989304,0.016446796374935513,-0.1674941002917798,0.9328717843881904,0.9479317152892173
2.511812981845312,0.02550811283473564,-0.16679165509616878,1.383791967569035,1.3940410071223481
2.5142999253916933,0.03935874249575322,-0.16609025718349724,1.691049956692627,1.6996426213096276
2.516786868938075,0.04842188596698016,-0.1510247072434976,1.8259152510867622,1.832790125843605
2.5192738124844567,0.047909147121826146,-0.13117182249298986,1.783599367302923,1.7890578627974725
2.521760756030838,0.052185743059116385,-0.11132001675408842,1.5880442424360748,1.5927962876159427
2.5242476995772196,0.05646327754066449,-0.09625770377453957,1.2536150075611747,1.2585723000404805
2.526734643123601,0.04637654763195931,-0.06204287730593272,0.8138304076544038,0.8175084312822661
2.5292215866699825,0.04107917358504065,-0.03740596754908587,0.3069975916319425,0.3119843364313762
2.5317085302163638,0.050147968955761124,-0.017558581388469108,-0.21899948433092398,0.22535282715771304
2.5341954737627455,0.0448525206819832,-0.0072891322750807674,-0.7114884601211067,0.7129380821266003
2.536682417309127,0.03476964220864187,-0.011386033585917943,-1.1513157982496747,1.1518969732920659
2.5391693608555084,0.019899340284690648,-0.005907278702147245,-1.500174347330919,1.5003179503275896
2.54165630440189,0.009818428244432464,-0.01479489413418511,-1.7197569553631036,1.7198486200667211
2.5441432479482713,0.0045269127263363185,-0.028472083076456656,-1.8004868896516122,1.8007176881068507
2.546630191494653,-0.015128812967516336,-0.03257364532935636,-1.7758830467706588,1.7762461876551028
2.5491171350410347,-0.010841515746346286,-0.055830010502427196,-1.6220034828373375,1.6230002547359113
2.551604078587416,-0.0065532057384263265,-0.08387597824881254,-1.3388482699581417,1.3414890287298493
2.5540910221337976,-0.026205893126928448,-0.08798113818724795,-0.9934551261120248,0.9976875849230372
2.556577965680179,-0.03149234498579345,-0.09208751638646762,-0.5906125255033139,0.5985775085553539
2.5590649092265605,-0.03198936164683508,-0.10577192888093334,-0.1686277649685639,0.20160938300599615
2.561551852772942,-0.03727374349653323,-0.11466917503028817,0.21503824598354981,0.24653559356014682
2.5640387963193234,-0.023403467733778438,-0.10441405412101146,0.5508086316554248,0.5611061982424298
2.566525739865705,-0.023897351455702043,-0.10373699524929592,0.8051645003555681,0.8121713613658027
2.5690126834120863,-0.014813371970119449,-0.08390758759459427,0.9828941875611772,0.9865804088803994
2.571499626958468,-0.010516733201683559,-0.06886785678688323,1.0648440127534755,1.067120496885229
2.5739865705048492,-0.0014306225277391782,-0.06340621510206335,1.0414371026589162,1.0433664905434639
2.576473514051231,0.002868159338944687,-0.04836905814175019,0.917461794568684,0.9187404076324845
2.5789604575976126,0.011956424912770713,-0.038121604677093135,0.7312252496187792,0.7323159007695363
2.581447401143994,0.02104577669320351,-0.03745226676607949,0.5066694195861903,0.5084874607562557
2.5839343446903755,0.015771010485174708,-0.03199584311298853,0.2198522236456526,0.22272731981095745
2.5864212882367568,0.02007414860229606,-0.02175234231068135,-0.08613077194380558,0.09107494558737858
2.5889082317831384,0.02437839006226139,-0.040240596121945416,-0.3777608069648153,0.38067944357029015
2.59139517532952,0.023895337149437146,-0.044364983112406,-0.6215191206020325,0.6235585426709935
2.5938821188759014,0.013836592094641942,-0.038913914978746966,-0.8174057746853034,0.8184484984094281
2.596369062422283,0.018144176997113237,-0.047829416626939736,-0.9510556204875407,0.9524303951022967
2.5988560059686643,0.017664484019913385,-0.061534689648906404,-0.9985267020460462,1.0005768969573656
2.601342949515046,0.012397518554086107,-0.06087612892418415,-0.9693958860463514,0.9713845713324273
2.603829893061427,0.011920092578126762,-0.06500735582315675,-0.8828168452216669,0.88528731331999
2.606316836607809,0.01144380805651568,-0.07392837836341126,-0.7483664450726852,0.7520962052696494
2.6088037801541906,0.001391863580440078,-0.07327399453015593,-0.5612563405482991,0.5660209319135646
2.611290723700572,-0.00865892903054577,-0.07262101883882766,-0.34064020260916195,0.34840283733453764
2.6137776672469535,-0.004343354689361867,-0.07196945909301355,-0.11046010494746561,0.13190869022586674
2.6162646107933347,-0.009603424924109816,-0.06653091970487734,0.11970708929302631,0.13728938878900446
2.6187515543397164,-0.014862328073294684,-0.056305408335886487,0.32591930759443954,0.3310809309919073
2.621238497886098,-0.015331655848215386,-0.041292932576623365,0.4938112846648597,0.49577187376270626
2.6237254414324793,-0.01579980665318026,-0.045435516548451904,0.6138061591169901,0.6156882498669715
2.626212384978861,-0.011478372304153717,-0.04479115109895915,0.6715386668266987,0.6731286513668114
2.6286993285252422,-0.0023673479895902627,-0.024994633645805564,0.6574319475720927,0.6579111655353074
2.631186272071624,-0.002831938910955789,-0.02435319805967051,0.5954279649545793,0.5959325126083327
2.633673215618005,0.011069876240815013,-0.028501641617487472,0.4998918765147824,0.500826091513161
2.636160159164387,0.010607682199485824,-0.02786316484631346,0.3660352270908014,0.367247418436553
2.6386471027107685,0.0053582902095639096,-0.032014581484390625,0.20822317537955293,0.21073807313044943
2.6411340462571498,0.004898511463906408,-0.03137909191876709,0.045609283974664905,0.055577419955320714
2.6436209898035314,0.009228350463203694,-0.040321913068234405,-0.12180649723625869,0.12863841531486878
2.6461079333499127,0.01834781165671351,-0.049266245180325186,-0.2748706045103173,0.2798529155299716
2.6485948768962944,0.017891689481432826,-0.05342369175331507,-0.40879468349270276,0.4126588138461994
2.651081820442676,0.01264839160439557,-0.062371066176971635,-0.4900599593350812,0.4941749644101082
2.6535687639890573,0.012194728961846368,-0.06174316517018452,-0.5186664798608689,0.5224709055927906
2.656055707535439,0.006953899157789545,-0.06590520530453103,-0.5137679056055138,0.518024433429549
2.65854265108182,0.006502713026601659,-0.06049198316065629,-0.45142226665365826,0.4555037081453256
2.661029594628202,0.010841174711270218,-0.05508031185184281,-0.35078322240599924,0.3552467324893408
2.663516538174583,0.010392481663507369,-0.04967019778195425,-0.24058123833834166,0.24587489595978426
2.666003481720965,-0.004420168715510542,-0.04426164728619497,-0.12081635944036684,0.1287448019159804
2.6684904252673465,-0.0048663525125270946,-0.05321987659218008,0.008511369861244233,0.05411543280967041
2.6709773688137277,-0.0005228724270902596,-0.052602875296634544,0.14740190570152478,0.1565076921096516
2.6734643123601094,-0.005754934529244582,-0.04241064952959306,0.2719131881744872,0.27526090236023704
2.6759512559064906,-0.006197325017233579,-0.03700841531391408,0.3581031579331846,0.360063746249377
2.6784381994528723,-0.006638443420498463,-0.036396178643542054,0.4251253860714179,0.4267321696723507
2.680925142999254,-0.007078285998001532,-0.03099713880396049,0.4634030243177314,0.46449250552998317
2.6834120865456352,-0.012305252378725928,-0.020811301653592018,0.46814762827620626,0.4687715129711467
2.685899030092017,-0.007954128960001583,-0.029780689584856024,0.4633011740267623,0.46432546289670373
2.688385973638398,-0.013178525430812438,-0.024386485079018083,0.4105563950378901,0.4114911028121359
2.69087291718478,-0.013613228287304269,-0.01899390375320209,0.3434320751340536,0.34422620265614645
2.6933598607311615,-0.014046637356098679,-0.03275656447772146,0.26671657876777743,0.26908740945459503
2.6958468042775428,-0.014478749192607276,-0.04173245617309407,0.17083306097931938,0.1764515990292678
2.6983337478239244,-0.010121157080908216,-0.03634477765395827,0.07972350059827527,0.08819987092402845
2.7008206913703057,-0.005762260994558899,-0.04532395423076352,-0.011400542921693457,0.047089668270132626
2.7033076349166874,-0.006190460955845967,-0.04472797462399303,-0.09775070294178434,0.10767596503595118
2.7057945784630686,-0.006617350395033861,-0.03934524740962431,-0.16017340231919341,0.16506773346260437
2.7082815220094503,-0.011831329431489346,-0.043540987738031056,-0.198668676650529,0.20372786027294412
2.710768465555832,-0.012255588271989803,-0.04773839409194425,-0.19887135103117082,0.20488769600767506
2.713255409102213,-0.00789012381216292,-0.042360664888176025,-0.17035826661910747,0.1757231316275877
2.715742352648595,-0.008311739636348792,-0.03219620843869997,-0.12749466735506942,0.1317595197987245
2.718229296194976,-0.01830883605654221,-0.026821836310192193,-0.07506899000304834,0.08179228350445937
2.720716239741358,-0.023516200151321054,-0.03102595668355468,0.010860749129530944,0.04041753987245402
2.7232031832877395,-0.019145425687593032,-0.025654961072826055,0.11114090438573854,0.11565908948321892
2.7256901268341207,-0.024350123081397612,-0.025074064169087862,0.20182942732010467,0.20483348095561957
2.7281770703805024,-0.029553482874345782,-0.024494867317186753,0.2781378832988892,0.2807740889057916
2.7306640139268836,-0.03475550229597779,-0.019128971797143457,0.354431451498467,0.3566448041303445
2.7331509574732653,-0.025590968662076996,-0.018553188785247254,0.397191278419621,0.3984470230077988
2.7356379010196465,-0.021213492577651816,-0.02276752275266425,0.4159941409718879,0.4171564426957519
2.7381248445660282,-0.02162307141337394,-0.026983574785901965,0.4156284132690775,0.417064321708469
2.74061178811241,-0.026819702586684646,-0.016836139266672046,0.39130566330745076,0.39258486237847867
2.743098731658791,-0.01764977028041881,-0.025844043715785858,0.3717562828469987,0.3730712570310834
2.745585675205173,-0.008478481966097795,-0.025276872426149843,0.3426150342850178,0.3436507917264578
2.748072618751554,-0.0184594484819236,-0.019923032869174406,0.2990934871780109,0.30032414579794603
2.7505595622979357,-0.03322745747013689,-0.02414773909337864,0.24119161491987917,0.2446642032274254
2.7530465058443174,-0.024052086658143512,-0.028374188482375384,0.18806300470129322,0.1917062627613476
2.7555334493906987,-0.024452156983350348,-0.018237175036288633,0.13013082430519773,0.13365827310268857
2.7580203929370803,-0.024850859546177495,-0.01289031593441159,0.08176025862853464,0.08642028324460445
2.7605073364834616,-0.015671385492718293,-0.012333615011957288,0.0429512831183434,0.04735528591442195
2.7629942800298433,-0.020855749256789236,-0.01656707604146801,0.03285748701236457,0.04229710082728549
2.7654812235762245,-0.021250335434792933,-0.011225492772058754,0.04669044345468443,0.05251272183063684
2.767968167122606,-0.02164354526994472,-0.010674078812391574,0.07966172609573974,0.08323682847693054
2.770455110668988,-0.02203537673026479,-0.005336031107422645,0.11261769912986175,0.11487722669410216
2.772942054215369,-0.017637424508431643,-0.004788159821386806,0.14076993721553954,0.14195133124219975
2.775428997761751,-0.022814896623203684,-0.004242065095785286,0.1880604354348243,0.1894867858193285
2.777915941308132,-0.02320258121614971,-0.003697750330810212,0.22575875284642244,0.22697807739817755
2.7804028848545137,-0.018800476434319147,-0.0031552188652104185,0.26823007889037953,0.26890665395594804
2.7828898284008954,-0.019185387109785346,-0.0026144739764695224,0.31547439354273443,0.31606804256976384
2.7853767719472766,-0.019568908157938436,-0.0020755188809840064,0.35312646731389563,0.3536743585032861
2.7878637154936583,-0.01516263453827782,-0.00153835673424485,0.38597468448929995,0.38627545753541964
2.7903506590400395,-0.015543371215203994,-0.005791393951327439,0.4140190265261712,0.41435116864600674
2.792837602586421,-0.015922713235997255,-0.00046942360551094353,0.413317458770706,0.41362431611305384
2.7953245461328025,-0.01630065901192168,-0.004726061951898508,0.40302357694080726,0.4033807763341715
2.797811489679184,-0.01667720699776476,-0.008984505263534448,0.39750257392134714,0.39795369936988
2.800298433225566,-0.021840759012002442,0.0011204535668483118,0.3680240132000492,0.36867322721115214
2.802785376771947,-0.027002910275713887,0.0016467951438294826,0.3385298952720923,0.3396091269246717
2.8052723203183287,-0.027375256053057906,-0.002617079946504841,0.31380860783379205,0.315011263452594
2.80775926386471,-0.022957794971436907,-0.006882771058626336,0.27949492578095203,0.2805206702271615
2.8102462074110917,-0.023327332341659957,-0.011150280808060131,0.2547424477306599,0.25605118213373834
2.8127331509574733,-0.02848386687654425,-0.010631208430954331,0.23476275617587028,0.23672326660519497
2.8152200945038546,-0.03842739733138134,-0.010113959745192247,0.22434424072596393,0.22783611521069366
2.8177070380502363,-0.029215905902241324,0.00476667277128362,0.204333274862865,0.20646640778388203
2.8201939815966175,-0.029579811350805563,0.005280266816221069,0.19867186242374046,0.2009312205111923
2.822680925142999,-0.03951911255890295,-0.003784776612121288,0.21693679775561314,0.22053947268438523
2.825167868689381,-0.03509179184868527,0.0015135568238817676,0.21124403583083762,0.2141442676877221
2.827654812235762,-0.035451461466832646,0.011598458277598311,0.2199007918548137,0.22304189878344743
2.8301417557821438,-0.04059812042034583,0.007316312319521234,0.266849071537683,0.2700188193221819
2.832628699328525,-0.031378154476396136,0.007820730140180476,0.29941642792865686,0.30115768247186836
2.8351156428749067,-0.02694517600591262,0.0035349030655944524,0.32239125438296945,0.323534633311949
2.837602586421288,-0.03208758745999907,-0.010329574200748315,0.35492715467742464,0.3565243308661898
2.8400895299676696,-0.03722858136977403,-0.0002538803358937969,0.4066009264071049,0.4083017818735876
2.8425764735140513,-0.02800294698684369,0.005031562875818629,0.43431693110082925,0.43524783549808005
2.8450634170604325,-0.033141103486266754,-0.008838456332430855,0.4380751606256972,0.43941585930398336
2.847550360606814,-0.04306624352109378,-0.013133519788285586,0.46097123718535826,0.46316484342536973
2.8500373041531954,-0.03383634982376604,0.001723177455553948,0.4790631369511118,0.48025967673268105
2.852524247699577,-0.034181841690337667,-0.002575592800757587,0.46362043322422686,0.4648859409388914
2.855011191245959,-0.02973750857406765,-0.011664622177843142,0.43379673295763155,0.43497125002861886
2.85749813479234,-0.030080156569638028,-0.0016018956001215834,0.4231108535120054,0.42418177264991636
2.8599850783387217,-0.035209785170808194,0.003670568860258072,0.4076207728493202,0.4091551007940747
2.862472021885103,-0.045126393910881024,0.00894117310820075,0.37774967933579795,0.3805406105033325
2.8649589654314846,-0.04067636908129535,-0.00015529417765325348,0.34786277838075463,0.35023292777906734
2.867445908977866,-0.026648113614278657,0.00032318229862005055,0.33232527583329663,0.33339213452580785
2.8699328525242476,-0.03656045040299938,0.010376601285963627,0.3263487646993024,0.3285541912815581
2.8724197960706292,-0.04168295921547793,0.006062944986144458,0.3299332417412142,0.33261114292328015
2.8749067396170105,-0.046804043100656556,0.006535825537906881,0.3287134941950267,0.33209320488672145
2.877393683163392,-0.05192370182576456,0.011795241852721627,0.3370547296513031,0.3412346543391631
2.8798806267097734,-0.04746512855582785,0.01705278957551215,0.3453801395299756,0.34904323062175746
2.882367570256155,-0.04300512977538895,0.022308467725075776,0.34411291568010505,0.34750655771812694
2.8848545138025368,-0.038543705366469116,0.01319706541262855,0.3715602835812284,0.37378713741091363
2.887341457348918,-0.034080855249036035,0.013660598365035082,0.40378022597436924,0.4054461586081551
2.8898284008952997,-0.03440498270114556,0.01891066244022932,0.41204232270401775,0.4139084339415136
2.892315344441681,-0.03951608771816306,0.005005240267635269,0.42028859056004997,0.4221718524175192
2.8948022879880626,-0.03983736369228397,0.0006747510526405875,0.4285190301509463,0.4303673198982957
2.897289231534444,-0.044945617334246735,0.005919194131080552,0.41758002922228066,0.42003360125351724
2.8997761750808255,-0.04526404211067114,-0.0032034477106588355,0.4162020091392993,0.41866837472756513
2.902263118627207,-0.05515784812669888,-0.0027511584311641357,0.4291733750804063,0.4327120785933627
2.9047500621735884,-0.050685018961784456,-0.002300745179514063,0.44212891935568344,0.4450306123247725
2.90723700571997,-0.031845554833576206,-0.001852208412676415,0.450280241326908,0.4514087568579954
2.9097239492663514,-0.0465234891993207,-0.0014055485363448916,0.4536273440854348,0.4560089669249639
2.912210892812733,-0.061199999107270475,0.003827637415162677,0.456958634450368,0.4610545350581175
2.9146978363591147,-0.05193306828243127,0.009058945817753905,0.45548571300579077,0.45852627278374164
2.917184779905496,-0.04745311700923882,0.004711569777668956,0.45399698738017946,0.4564945363900221
2.9196717234518776,-0.04776014568605902,0.009939122373443077,0.4524924622836206,0.4551145417287847
2.922158666998259,-0.0432773481062837,0.010376393491643654,0.45576054614659256,0.45792824091209555
2.9246456105446406,-0.04836993470034656,0.02517699631102266,0.46858964779781864,0.47175183067948423
2.927132554091022,-0.04388429269181182,0.025610510857006386,0.46703775654054347,0.4697935668416942
2.9296194976374035,-0.04418563258157415,0.01167693712645379,0.46547008863504935,0.4677083753806529
2.932106441183785,-0.03969714830395077,0.016895098407781806,0.4686750540936835,0.47065657783929
2.9345933847301664,-0.04957245374994723,0.022111381515111717,0.48144106331962,0.484491319647343
2.937080328276548,-0.0450811296420901,0.01774897995211866,0.4846145105034392,0.48703034641553455
2.9395672718229293,-0.03579998329988543,0.008596297232130734,0.4877722101447013,0.48915975316845295
2.942054215369311,-0.040882628717775815,0.009018543557596459,0.4957025738078933,0.4974673508267107
2.9445411589156927,-0.04117545336184547,0.014227315898000192,0.49882880347992753,0.5007274804306542
2.947028102462074,-0.03667845801341041,0.02422261459118724,0.5019393114901494,0.5038602154954089
2.9495150460084556,-0.04654525676883148,0.015062423421309923,0.5050341072272087,0.5073980557607439
2.952001989554837,-0.04683383387530837,0.010688759423252758,0.5081132004575064,0.5103789592573721
2.9544889331012185,-0.04233259353537289,0.020678429718385516,0.5111766013233083,0.5133431246948749
2.9569758766476,-0.04261834330517533,0.025877821553388802,0.5046475137002293,0.5071046222607816
2.9594628201939814,-0.04290268081305648,0.03107533882347946,0.49331435179692384,0.4961505481129293
2.961949763740363,-0.043185607040630125,0.03148257883000305,0.4915423368328593,0.49443909465611957
2.9644367072867444,-0.04346712300230082,0.03188794556146446,0.4897546737942733,0.49271276861632385
2.966923650833126,-0.038958826424781434,0.022714633091743597,0.49752818131507226,0.49956784916122476
2.9694105943795073,-0.0440259283484844,0.023116255462691804,0.5196512750733824,0.5220249910865901
2.971897537925889,-0.0490916232445433,0.023516006840158532,0.5321819511880985,0.5349585210283712
2.9743844814722706,-0.04457910561619649,0.014337081435646049,0.5399086260606971,0.5419355801720183
2.976871425018652,-0.04964198992049684,0.009944690107653642,0.5619849264124355,0.5642608275783412
2.9793583685650336,0.37146442478341857,-0.8946693937401122,-8.303230906420675,8.359549188103056
2.981845312111415,0.6154013188970062,-0.563877288260517,-10.330622354380441,10.364286497793328
2.9843322556577965,0.7970903708371726,-0.21393343578040946,-11.544000779914928,11.573464242866205
2.986819199204178,0.9117431759817656,0.13600855149608915,-11.919424151566227,11.95501760977246
2.9893061427505594,0.9641481363181389,0.4620066580886366,-11.49519968069152,11.544810413335266
2.991793086296941,0.9495168471621669,0.7449072718816492,-10.323999788261098,10.39429847150649
2.9942800298433223,0.8534840971583235,0.955979974162565,-8.520746138064158,8.616579806653988
2.996766973389704,0.6999919014830254,1.0904363628640912,-6.248244426749412,6.38119099698506
2.9992539169360852,0.5129822752822577,1.1434880359623638,-3.6740887539437814,3.881963919847658
3.001740860482467,0.30203202371099636,1.1103465914767434,-0.9610848156161174,1.4992587899888559
3.0042278040288486,0.06714114525331738,1.0101656440711055,1.6992312726835284,1.9779609399361764
3.00671474757523,-0.17253674835518018,0.8381567918505373,4.148842218981205,4.236173685681343
3.0092016911216115,-0.3882712387680134,0.6134736495642206,6.2297307316373605,6.271893610566992
3.0116886346679927,-0.5656971176291681,0.36484663864426903,7.841340359188189,7.870180742985356
3.0141755782143744,-0.7048143865729253,0.10664097060394395,8.926210280382744,8.954628165688517
3.016662521760756,-0.7960462406221258,-0.1563549496422616,9.417302867657598,9.452181218569516
3.0191494653071373,-0.8250274715083104,-0.381045490575723,9.305041333619238,9.349313355268075
3.021636408853519,-0.8061232909137327,-0.5770074571598438,8.64688653768282,8.703529121071062
3.0241233523999003,-0.739333700588374,-0.7202988310746583,7.51945295286705,7.589968210556235
3.026610295946282,-0.6294471056310197,-0.801342803920182,5.994566649190725,6.080557808274801
3.029097239492663,-0.4716751045281484,-0.8201393738963256,4.2110913434754575,4.31606259221766
3.031584183039045,-0.3091133289975082,-0.7719001358421873,2.3078907528593717,2.453108354111352
3.0340711265854265,-0.14655018422231808,-0.6757787011581493,0.3998865781936054,0.7987885107173119
3.036558070131808,0.030379537867656237,-0.5269866646029837,-1.3884226727174562,1.485380550265256
3.0390450136781895,0.19294541543223886,-0.3542544441377933,-2.9516921050402196,2.9791291391083496
3.0415319572245707,0.3315706398849552,-0.16715884440296813,-4.208518840233015,4.224868281626316
3.0440189007709524,0.4318899992918918,0.03908853996160877,-5.106230419370604,5.124611788335812
3.046505844317334,0.5082687016138143,0.22618048447227723,-5.563423963300126,5.5911699026248876
3.0489927878637153,0.531976324901752,0.3941169912466762,-5.6184066755737945,5.657280317005467
3.051479731410097,0.5173780770628362,0.538109659121115,-5.290332146161711,5.342738651345082
3.0539666749564782,0.4692623593369515,0.6198512637278779,-4.579200351453608,4.644728044760896
3.05645361850286,0.3780523629766616,0.6680722272220021,-3.5951445439093916,3.676181222619346
3.0589405620492416,0.2772669090910857,0.6827725518746113,-2.409990749131101,2.5201410094214527
3.061427505595623,0.14775238223994136,0.6304334167524552,-1.0716229758269966,1.2520594481637286
3.0639144491420045,0.008662393519426492,0.5541504540847724,0.3050371211029468,0.6326179005328719
3.0664013926883857,-0.13042625264050156,0.44434685961472065,1.6146446936876941,1.6797418331044613
3.0688883362347674,-0.25035994519481636,0.30102263576316224,2.785373717485962,2.8127569172364186
3.0713752797811487,-0.3511386864051005,0.16248501155032224,3.7645517816230907,3.7843823634234415
