Time (s),Acceleration x (m/s^2),Acceleration y (m/s^2),Acceleration z (m/s^2),Absolute acceleration (m/s^2)
0.0,0.23645902917691775,-0.3472628685950787,-0.9563471608935643,1.0445593638148836
0.0024869435463814966,-0.3075814395297429,0.00358817882606699,-4.466614273637582,4.477193572589134
0.004973887092762993,-0.8324681007939487,0.30655498327683395,-9.619303888882413,9.660123519048796
0.00746083063914449,-1.319047358071983,0.5281187098506392,-15.921211200697929,15.984485021475047
0.009947774185525986,-1.7433772115035853,0.6539141369277073,-22.807305353318213,22.883184771346002
0.012434717731907484,-2.0671504512709804,0.7078832694565849,-29.693401877648938,29.7736851057932
0.01492166127828898,-2.2712134808406965,0.6804492891497196,-35.995316304532395,36.073317254918386
0.017408604824670475,-2.3651431236038176,0.557246974405587,-41.21505542449688,41.28662277094077
0.019895548371051973,-2.3345741863521767,0.3813719434730034,-44.950394094381096,45.01259390916081
0.02238249191743347,-2.189083492481112,0.16240099136545139,-46.94754767384141,46.99883714738762
0.024869435463814968,-1.9478246720281596,-0.09008908689648232,-47.13469084857783,47.17500628921576
0.027356379010196462,-1.6251629517117439,-0.34736788300360155,-45.54534317719284,45.57565253722677
0.02984332255657796,-1.2546171715323702,-0.6046470052406558,-42.37582993101886,42.3987101760264
0.03233026610295946,-0.8553409615300673,-0.8236192386423378,-37.98049369078184,37.999050748752296
0.03481720964934095,-0.43691114510433365,-0.994707788157092,-32.742407456936576,32.760427057787155
0.03730415319572245,-0.07594219213875633,-1.1227010686859247,-27.111681876213098,27.135023844897525
0.039791096742103946,0.23714268724934623,-1.1884454785196452,-21.5911000316396,21.62508358101298
0.04227804028848544,0.49276666966242605,-1.1919410292214305,-16.611618956198132,16.66161537047932
0.04476498383486694,0.6621993184230778,-1.142764538985943,-12.537158036128766,12.606536017152049
0.047251927381248435,0.7502290200978401,-1.0361276160375206,-9.659810607593233,9.744144138603621
0.049738870927629936,0.7424905479741329,-0.8911838851924219,-8.175901940057251,8.25777654483878
0.05222581447401143,0.6485606919434382,-0.7270869712570143,-8.118951589790008,8.177203761204654
0.054712758020392924,0.4780162419001055,-0.5390484824259589,-9.431499449652808,9.458977463908415
0.057199701566774425,0.2500107943823468,-0.3653756567663371,-11.950740539122105,11.95893825560119
0.05968664511315592,-0.025878860708639127,-0.1964916991314669,-15.413313407593662,15.41458753596624
0.06217358865953741,-0.32092232018643124,-0.051550234285647534,-19.469665344327645,19.47237831345626
0.06466053220591891,-0.6111775841805753,0.0598719196585904,-23.755878428237143,23.76381456297265
0.06714747575230041,-0.9014330727377755,0.12340954127978909,-27.912823141153492,27.92764772065163
0.0696344192986819,-1.1438047693762172,0.15342782909000308,-31.610100384411837,31.631159886443942
0.0721213628450634,-1.338292690811763,0.1355615616912913,-34.546041478835264,34.572219861048765
0.0746083063914449,-1.4753200471138281,0.08896434094003425,-36.51474581120311,36.544645921833066
0.07709524993782639,-1.540521645025332,0.004059348783109762,-37.362985204352356,37.3947307357301
0.07958219348420789,-1.5434743078842048,-0.09999981289810966,-37.08118358024771,37.11342733585394
0.08206913703058939,-1.4746012457402045,-0.19448273556875728,-35.726802506840656,35.75775006528191
0.08455608057697088,-1.3386908785967417,-0.30811985052461033,-33.462648424616205,33.49083263671112
0.08704302412335238,-1.1740504496917639,-0.4265459591652805,-30.499411806733253,30.524980859460033
0.08952996766973388,-0.9711031690520738,-0.5258190562361578,-27.100455562329177,27.12294635047274
0.09201691121611537,-0.7442142632976477,-0.6203043630312952,-23.557873019902352,23.577786443903815
0.09450385476249687,-0.5173257656803615,-0.6812714709478427,-20.16854591069532,20.186678798573805
0.09699079830887837,-0.30001449948201897,-0.699143584649891,-17.20062554543621,17.217442597731214
0.09947774185525987,-0.10185728797495539,-0.7122279419900837,-14.874379201042235,14.891769544445108
0.10196468540164136,0.05799223893770842,-0.6965825376422021,-13.319094490721202,13.337423603690667
0.10445162894802286,0.18432246796461735,-0.6617841895071734,-12.630540203799566,12.649208628427132
0.10693857249440436,0.24840296258279315,-0.6078329088300207,-12.837447482464714,12.854229760740871
0.10942551604078585,0.259810512842684,-0.5395171101605603,-13.891933015108737,13.904833084615138
0.11191245958716735,0.22812190880602634,-0.46162520803284934,-15.640768616391036,15.649242165339874
0.11439940313354885,0.14854873058526727,-0.3837340202852686,-17.916360890308802,17.9210855161028
0.11688634667993034,0.021090961625179563,-0.31542036473997337,-20.498444003618935,20.500881478723205
0.11937329022631184,-0.11594418805460063,-0.25668425256203076,-23.147598509064963,23.149312011313068
0.12186023377269334,-0.28649875158576715,-0.21231409822012326,-25.638770168603685,25.64124986363663
0.12434717731907483,-0.4618423255634902,-0.18709831616600292,-27.761269953389878,27.765741724985155
0.12683412086545634,-0.6228213132101229,-0.17624851419363496,-29.366658076964097,29.373790639552546
0.12932106441183783,-0.7694357310154636,-0.17497630007959053,-30.340013575315446,30.350273010305497
0.13180800795821931,-0.8777435788535907,-0.19285849154375345,-30.609511113506983,30.622700710353534
0.13429495150460083,-0.9716868897871922,-0.2394719062881503,-30.170363002262054,30.186956221089076
0.13678189505098232,-1.0321120669812744,-0.28129773211390985,-29.099184407910037,29.118841270532304
0.1392688385973638,-1.03986551358562,-0.3279127866866589,-27.501320915847813,27.522926792012253
0.14175578214374532,-1.0188892626172432,-0.3649518710519244,-25.50606012720417,25.529011504760916
0.1442427256901268,-0.9643949271553556,-0.4115686094786484,-23.300150482067174,23.32373166504036
0.1467296692365083,-0.8715941202628805,-0.45339780297459686,-21.075128822945402,21.098016512979676
0.1492166127828898,-0.7692172782282959,-0.48565105916893225,-18.998589974831283,19.020356810642554
0.1517035563292713,-0.6524760140809053,-0.5083283889916861,-17.238128761787635,17.257960653216703
0.15419049987565278,-0.5213703441529888,-0.5118529967125895,-15.92303278037028,15.939786493261204
0.1566774434220343,-0.399842301360698,-0.5058016998627299,-15.125128786331848,15.138864885739148
0.15916438696841578,-0.2926803053209092,-0.49975131595308,-14.863571097927391,14.874849878975654
0.16165133051479727,-0.2094611789524199,-0.4745482425524008,-15.147937225782249,15.156816031615522
0.16413827406117878,-0.14060813187405335,-0.4493461037713953,-15.920767033033675,15.92772756823319
0.16662521760756027,-0.10527479360743097,-0.41935650709842465,-17.0958699618786,17.101336568107122
0.16911216115394176,-0.09388437373287936,-0.38936786664147816,-18.55832503355896,18.56264662332463
0.17159910470032327,-0.10164848513127224,-0.3545917898467055,-20.150115638386197,20.1534917072028
0.17408604824670476,-0.14772075726493733,-0.315028287459139,-21.75632079549227,21.759102895119455
0.17657299179308625,-0.2225243996538796,-0.2754657735224728,-23.21413548972927,23.216836240890608
0.17905993533946776,-0.2973290085160512,-0.24548106537885106,-24.408638738060926,24.411683893945806
0.18154687888584925,-0.3864998099311008,-0.23465098034833742,-25.253639976267447,25.257687448311426
0.18403382243223074,-0.47567161003530944,-0.20945670584589493,-25.667737042328973,25.67299866525849
0.18652076597861225,-0.5600560215837865,-0.19384026910773056,-25.655719032856993,25.66256331487836
0.18900770952499374,-0.6492298672704183,-0.19737848738639885,-25.236740253275144,25.245861369719925
0.19149465307137523,-0.7192511465244238,-0.20091775798965328,-24.458685427765943,24.470083428784267
0.19398159661775674,-0.765331472033445,-0.20924649480367385,-23.36465087601446,23.378118549526516
0.19646854016413823,-0.797047666422904,-0.23194151501160665,-22.040828546397293,22.056454947715824
0.19895548371051974,-0.8143997456541051,-0.2594260224917946,-20.61171761264812,20.629431687528772
0.20144242725690123,-0.8030225157035912,-0.2821232210988178,-19.21618245724219,19.235022924411414
0.20392937080328272,-0.7677043958049964,-0.30003312130391846,-17.930838218257122,17.949772954623352
0.20641631434966423,-0.7323874184487166,-0.32752094351510275,-16.865818855765426,16.884889901170087
0.20890325789604572,-0.6779179862175175,-0.3502214881941281,-16.097739505336158,16.115813509360628
0.2113902014424272,-0.6042961149502681,-0.36813476573911075,-15.669696478021065,15.685664943303983
0.21387714498880872,-0.5258870304212967,-0.37647238320306986,-15.591267260340802,15.604675690556817
0.2163640885351902,-0.452267555058822,-0.3752343509343605,-15.848087320911814,15.858979112500458
0.2188510320815717,-0.3786493013039929,-0.37399748589678117,-16.39227330379206,16.400910751511606
0.2213379756279532,-0.3146090915324463,-0.37276179838812373,-17.166365045068936,17.17329377549272
0.2238249191743347,-0.2601469414524179,-0.3619504920399774,-18.103325572845684,18.10881225774577
0.22631186272071618,-0.22962807670598268,-0.3463519804190902,-19.102599090626327,19.10711858876554
0.2287988062670977,-0.21347570630623242,-0.3259662737459257,-20.04926459058349,20.053050553769314
0.23128574981347919,-0.21168984587914647,-0.3103701888554036,-20.876285096708948,20.87966526752885
0.23377269335986067,-0.224270511022644,-0.28519852595452155,-21.530988841558216,21.534045508371747
0.2362596369062422,-0.25121771730626874,-0.26481650514559396,-21.946338846315264,21.94937417969297
0.23874658045262367,-0.282954673630245,-0.23964732990262938,-22.093605357302742,22.096716766847855
0.24123352399900516,-0.32905820214703985,-0.23842143023519657,-21.99194265260946,21.99569652714955
0.24372046754538668,-0.37516310837823397,-0.2515620095632398,-21.612620975670907,21.617340637565796
0.24620741109176816,-0.426057811097022,-0.2551270613184484,-20.99394821494376,20.999820873701616
0.24869435463814965,-0.4673771157653999,-0.253904998826882,-20.22211629061157,20.229110123477707
0.25118129818453117,-0.49433263445573117,-0.26226104202753575,-19.36416350808743,19.37224751998586
0.2536682417309127,-0.5308663991316844,-0.2706183942299676,-18.434455734758906,18.44408337884559
0.25615518527729414,-0.5578248118432372,-0.28376546867661245,-17.547915306225256,17.55907238314074
0.25864212882367565,-0.5560542746091878,-0.31127908190197573,-16.776368926675104,16.788467630699678
0.26112907237005717,-0.5590736259402769,-0.32921722716994406,-16.13897086223325,16.152006927744345
0.26361601591643863,-0.5477292677920169,-0.34236831763766773,-15.702759410674588,15.716038830610191
0.26610295946282014,-0.5172328120487577,-0.36030916975382565,-15.486888835005052,15.499712199504632
0.26858990300920166,-0.47716108052338513,-0.3734629866568784,-15.472206170089901,15.484066683818464
0.2710768465555831,-0.4514561049570277,-0.3722529714561369,-15.658712062484899,15.669640976910447
0.27356379010196463,-0.4113874805343686,-0.361467537192528,-16.027253543861413,16.03660670462435
0.27605073364834615,-0.3617436256489817,-0.35068350019778816,-16.525158821033152,16.53283736774721
0.2785376771947276,-0.32167816862178833,-0.3351124668130421,-17.090179292545294,17.096491027720436
0.2810246207411091,-0.28161431781793644,-0.3195428499901878,-17.679219968584306,17.68434994435956
0.28351156428749064,-0.2463404915293259,-0.299186256010481,-18.23003224440317,18.234151246645173
0.2859985078338721,-0.22064510801338402,-0.28840790440623376,-18.704309530191978,18.707834144663693
0.2884854513802536,-0.20931658549276094,-0.2776309980778322,-19.05416842782396,19.057340498609438
0.2909723949266351,-0.20756653551442428,-0.2668555465357536,-19.246090747444836,19.24905984219136
0.2934593384730166,-0.22018337623061596,-0.24650475261915128,-19.260923507460944,19.263759230028125
0.2959462820193981,-0.2423787191173151,-0.23573223905818486,-19.098667337847733,19.101659907290365
0.2984332255657796,-0.26457577229426466,-0.24411482191135558,-18.7688996734973,18.77235167312207
0.3009201691121611,-0.2915629538059364,-0.26207570392471347,-18.314716770808236,18.318912168181388
0.3034071126585426,-0.32334027833999635,-0.2656728778520092,-17.774426481111426,17.77935228702267
0.3058940562049241,-0.35033095390671176,-0.26448315965765534,-17.18154825065846,17.18715460478297
0.30838099975130556,-0.38211180176054266,-0.27287176859469087,-16.588755137211635,16.59539892360247
0.3108679432976871,-0.4091060298373677,-0.2764735039624333,-16.029566583469993,16.03716964417164
0.3133548868440686,-0.4265252493557603,-0.2704999716688157,-15.547078836979853,15.555280594906595
0.31584183039045005,-0.4391578781370312,-0.26452798755054685,-15.165234530201513,15.173897754174558
0.31832877393683157,-0.451792333964327,-0.26813436741201135,-14.898399487138613,14.907659763704983
0.3208157174832131,-0.4500634213011045,-0.2765307170641824,-14.775304739928508,14.784744045076572
0.32330266102959454,-0.4339711545330465,-0.2705634323244617,-14.795950898948254,14.804786338815079
0.32578960457597606,-0.4226691612881036,-0.264597732219654,-14.93160815280357,14.939932503484405
0.32827654812235757,-0.4257342625143503,-0.2586336257826902,-15.167911898200625,15.176089495197377
0.33076349166873903,-0.4096476492375297,-0.2574595253337262,-15.466555513372594,15.47412149532073
0.33325043521512054,-0.383986142326409,-0.25628703651905616,-15.77486716470943,15.781621034190822
0.33573737876150206,-0.36311496593001735,-0.25990457159221325,-16.064117033309536,16.07032230307415
0.3382243223078835,-0.3470341341961313,-0.2731005427731965,-16.353459331570534,16.359420793722855
0.34071126585426503,-0.3357436612319497,-0.27193294232644893,-16.595010623491085,16.600633991657116
0.34319820940064655,-0.31966675446320836,-0.27076698904508456,-16.755252681105638,16.760489074127975
0.345685152947028,-0.31795704119641915,-0.2648142884069977,-16.810244081153566,16.81533613566346
0.3481720964934095,-0.32103772877486514,-0.26365165581690375,-16.774350624990525,16.77949392291174
0.35065904003979104,-0.3193320245002169,-0.2672791000046417,-16.633207692093755,16.63841967217733
0.3531459835861725,-0.322416748913528,-0.27090822634534417,-16.382027466614193,16.387439328460786
0.355632927132554,-0.3302919158731074,-0.26496223685929676,-16.0495409539678,16.055125741324552
0.3581198706789355,-0.3381691358745797,-0.25901794681335977,-15.68363277086439,15.689416354745674
0.360606814225317,-0.35562522933188545,-0.25307536479895854,-15.298668708774077,15.304894011551617
0.3630937577716985,-0.37308340333484347,-0.24713449937257614,-14.918591363800047,14.925301838377454
0.36558070131808,-0.3857552682504676,-0.23161855241499074,-14.557766523387285,14.564718343663955
0.3680676448644615,-0.39842924104303223,-0.2256811456936445,-14.24971358623454,14.257068952956528
0.370554588410843,-0.4063169319925788,-0.22453388433906785,-14.013586739042278,14.021273915272529
0.3730415319572245,-0.4094183546556104,-0.22338837344631424,-13.839809746541988,13.847666214023159
0.37552847550360596,-0.41252192586485004,-0.2174562180748314,-13.747536791330203,13.755443626981872
0.3780154190499875,-0.41083925576806524,-0.2211026365295794,-13.741556843976065,13.749474890561668
0.380502362596369,-0.4091587611090774,-0.22475083047809363,-13.80750525969143,13.81539450482683
0.38298930614275045,-0.40748045526659005,-0.22361240487223233,-13.935805794922905,13.943554998021266
0.38547624968913197,-0.40101594825395315,-0.22247577126836626,-14.107305397381518,14.114757342389744
0.3879631932355135,-0.3897652533595541,-0.23570614782725352,-14.302851012673946,14.31010207621169
0.39045013678189494,-0.3737283838262751,-0.24414992943110425,-14.474559164371378,14.481441402560938
0.39293708032827646,-0.34811694953094785,-0.24301872088658216,-14.61285360048472,14.619019592929318
0.39542402387465797,-0.3272961735856892,-0.24188933692468728,-14.732100083494462,14.737720519356419
0.3979109674210395,-0.3160544724157983,-0.2503385922396961,-14.779626727255684,14.785125161367729
0.40039791096742094,-0.30002664911890764,-0.25878968820779447,-14.7697992899578,14.775112830653516
0.40288485451380246,-0.27921271670694314,-0.257665826168211,-14.69782991435002,14.702739731434686
0.405371798060184,-0.2727663014262167,-0.24217861074341496,-14.563719144333986,14.568286352544543
0.40785874160656543,-0.26632220623376923,-0.2458468730811898,-14.367467521634753,14.372038518865947
0.41034568515294695,-0.2646688473205852,-0.23994020112795722,-14.123440795752987,14.127958125999635
0.41283262869932846,-0.2630178341895038,-0.21488179607397528,-13.85558152063601,13.85974357058513
0.4153195722457099,-0.2470039696550011,-0.2137672955954173,-13.583043844708278,13.58697124104408
0.41780651579209144,-0.25014608968672497,-0.21744309416676355,-13.320193510862866,13.324316482740102
0.42029345933847295,-0.25807899700303505,-0.2211207961856867,-13.071819453132806,13.076236575961033
0.4227804028848544,-0.26601430091453904,-0.22001200601201054,-12.885806233206122,12.890429440899718
0.4252673464312359,-0.27874041732388305,-0.20932832796760392,-12.733423957409771,12.738194544293815
0.42775428997761744,-0.29146895544429674,-0.20822338293784126,-12.629038359709218,12.63411734234714
0.4302412335239989,-0.3041999277603212,-0.21669717848868553,-12.591803575137806,12.597341486919674
0.4327281770703804,-0.31693334670729234,-0.2155961088665861,-12.592989703265246,12.598822091567053
0.43521512061676193,-0.32488082135082674,-0.20970858488119015,-12.623020454673982,12.628941786142345
0.4377020641631434,-0.3328307673475577,-0.20861142062399507,-12.677107940990377,12.683192058469713
0.4401890077095249,-0.33599479366368307,-0.20751622018699845,-12.755252674876841,12.761364593293406
0.4426759512559064,-0.3295845092153951,-0.2207882009047868,-12.838301553422527,12.844429148661485
0.4451628948022879,-0.33275353947024433,-0.22927375683099838,-12.902313068096579,12.908639505415632
0.4476498383486694,-0.33592508992350945,-0.22339608862104265,-12.94728772466236,12.953571357106268
0.4501367818950509,-0.31515715605893824,-0.22230881681325432,-12.978014429888647,12.983743827781186
0.45262372544143237,-0.3183337831141838,-0.2164351419850563,-12.975340071620323,12.981048899929233
0.4551106689878139,-0.32151296647123906,-0.2105634746356757,-12.934476745333468,12.940185324794697
0.4575976125341954,-0.3151179114218712,-0.20469382190480445,-12.836271334206103,12.84177015150895
0.46008455608057686,-0.3135138398080636,-0.2084029975334465,-12.699877945634423,12.70545640939922
0.46257149962695837,-0.2927587468577665,-0.20253739530133075,-12.53487387802245,12.539927919182261
0.4650584431733399,-0.2720062576300243,-0.1870970222299504,-12.365201637376495,12.369608087279708
0.46754538671972135,-0.2751984004522983,-0.18123549858248023,-12.171708097454395,12.176167643195244
0.47003233026610286,-0.2783931703968455,-0.18016442798087562,-11.973547356203818,11.978138347409782
0.4725192738124844,-0.281590579085229,-0.1790954140073513,-11.799450315833534,11.804168593228923
0.47500621735886583,-0.275213831445953,-0.1780284635246132,-11.63026384296283,11.634881771800373
0.47749316090524735,-0.26883974563616386,-0.16738677671483826,-11.494718835021013,11.499080582291766
0.47998010445162886,-0.2624683331196013,-0.17590078028272282,-11.40239257375639,11.406769354924712
0.4824670479980103,-0.2560996053070516,-0.17484006104915428,-11.324555111948426,11.328799783663904
0.48495399154439184,-0.25931038019680225,-0.1737814323573823,-11.270783726526211,11.275105661129658
0.48744093509077335,-0.2625238624525993,-0.16314809422919296,-11.245867288679213,11.25011409513667
0.4899278786371548,-0.2609516600050421,-0.16688206988827048,-11.245017860530576,11.249283180619164
0.4924148221835363,-0.2593821873717312,-0.18019496259605994,-11.258659098451156,11.263088121772276
0.49490176572991784,-0.25781545569616765,-0.17914476229232523,-11.282003059693876,11.28637030643575
0.4973887092762993,-0.2562514760679037,-0.17809668543882173,-11.319838605707925,11.324139230317986
0.4998756528226808,-0.24990185620207023,-0.18183914181610605,-11.357800982210819,11.362005085491676
0.5023625963690623,-0.24355501040015598,-0.1903721378437755,-11.376737029143275,11.380936078558651
0.5048495399154438,-0.23721094958891265,-0.18454206661946548,-11.35749358398367,11.361469329236746
0.5073364834618254,-0.22608128132020078,-0.18829095108284344,-11.31443630498432,11.318261135332152
0.5098234270082068,-0.2149544197317747,-0.19683039421085535,-11.261930847923542,11.26570166612179
0.5123103705545883,-0.20861877890650232,-0.20058359561922856,-11.166458832896815,11.170208522696578
0.5147973141009698,-0.19749756291128223,-0.19476215820302745,-11.051962717358,11.055442889884377
0.5172842576473513,-0.19595599235939265,-0.18894289477721848,-10.932808149629409,10.936196423118577
0.5197712011937328,-0.1848404645665957,-0.18791421479536075,-10.789841952294774,10.793061062783053
0.5222581447401143,-0.16415099007442785,-0.18209931770892096,-10.656583381959445,10.659403129899285
0.5247450882864958,-0.15782959597037433,-0.18107501620940036,-10.523456062838818,10.526197121912476
0.5272320318328773,-0.15151108272365893,-0.17047610634546873,-10.380883616635849,10.383388771165288
0.5297189753792588,-0.15477226734916988,-0.1742446106869706,-10.25759688909839,10.260244128593376
0.5322059189256403,-0.158036353524509,-0.1923805351608081,-10.148807900209372,10.151861285237118
0.5346928624720217,-0.15172654487110498,-0.19136506241025897,-10.059305474064557,10.062269532867571
0.5371798060184033,-0.15499646487595098,-0.19035181156054648,-9.99387843222696,9.9968927089581
0.5396667495647848,-0.16305772036803784,-0.19891759505473328,-9.94773878708132,9.951063410801687
0.5421536931111662,-0.15675670815884707,-0.19790880537241584,-9.920886951790184,9.92409887450732
0.5446406366575478,-0.16482385820627904,-0.20647906151404838,-9.89895812700794,9.902483148550887
0.5471275802039293,-0.18725918048953033,-0.22462836915714623,-9.867587510837073,9.871920136879936
0.5496145237503107,-0.1905438616886549,-0.22362631401561828,-9.845929122065737,9.850311465547149
0.5521014672966923,-0.18904312162974457,-0.21783811164439637,-9.843560170280414,9.847784906802712
0.5545884108430738,-0.19712218008168803,-0.22162897755658895,-9.831750635939583,9.836223722794808
0.5570753543894552,-0.2099926434747983,-0.22063370730155762,-9.82007772349435,9.824800386704105
0.5595622979358368,-0.21807771486162886,-0.2148523063476886,-9.808541828180996,9.813318103395934
0.5620492414822182,-0.21658900055747904,-0.20907318344172943,-9.782778132696418,9.787408767634064
0.5645361850285997,-0.21989172010121927,-0.1937195373274987,-9.723633413834612,9.728048437089138
0.5670231285749813,-0.22319747969267456,-0.1927333899489727,-9.631108059084104,9.635621709069797
0.5695100721213627,-0.22650628879407225,-0.186961133325247,-9.524356066623982,9.528883357879588
0.5719970156677442,-0.22981815680962114,-0.18597957935518528,-9.408166222077707,9.412810231348574
0.5744839592141258,-0.22834468976508715,-0.18500032993457083,-9.282538905149897,9.287189830354565
0.5769709027605072,-0.23166270358893543,-0.1792349869170109,-9.17141650954437,9.17609250064058
0.5794578463068887,-0.23498380419035103,-0.18304876539515336,-9.074799409757302,9.07968658963931
0.5819447898532703,-0.22873119409975723,-0.17728805717721263,-8.992687977675132,8.997343278890432
0.5844317333996517,-0.24163530235152503,-0.17631807727131976,-8.896352162649116,8.901379527106277
0.5869186769460332,-0.2449657180776253,-0.1801388306823637,-8.809734347937093,8.814980288269254
0.5894056204924147,-0.2339340469528361,-0.17917351573227513,-8.73283489757506,8.73780485221365
0.5918925640387962,-0.2372707178352742,-0.17821054066156483,-8.665654172975376,8.670733454324987
0.5943795075851777,-0.24539893296161008,-0.16288470038710612,-8.608192532923429,8.613229983333637
0.5968664511315592,-0.2391650878688491,-0.15713801634585556,-8.560450333574426,8.565232174846804
0.5993533946779407,-0.23772280459736073,-0.15139368669014663,-8.54636994505181,8.551015812047135
0.6018403382243221,-0.23628368852672837,-0.14565171617047445,-8.542009701639502,8.54651824702847
0.6043272817707037,-0.23963615161784535,-0.13512370617453673,-8.528216338302308,8.532652448917569
0.6068142253170852,-0.2429917991315772,-0.12459806468814927,-8.533720620565772,8.5380886222877
0.6093011688634666,-0.23677383294898968,-0.11407479633428919,-8.520215664825853,8.524268290139156
0.6117881124098482,-0.23055906817282346,-0.11313071233401528,-8.47812500475235,8.482013890474182
0.6142750559562297,-0.23392431984616435,-0.11218901058457531,-8.407448978004954,8.411450842706506
0.6167619995026111,-0.2325043863507999,-0.10646129226094692,-8.336918339511822,8.340839268089919
0.6192489430489927,-0.24066448593057327,-0.09594756181582342,-8.266533421623226,8.270592490276643
0.6217358865953742,-0.229674206886624,-0.0998014369405329,-8.17714094074969,8.180974546654518
0.6242228301417556,-0.20911036402261662,-0.10365771204159291,-8.097471643843889,8.10083446864971
0.6267097736881372,-0.20291498204310904,-0.10272798812350681,-8.003583838671767,8.006814709491493
0.6291967172345186,-0.20629966567066793,-0.10180067278875349,-7.890689443614887,7.894042236054447
0.6316836607809001,-0.20489921292704466,-0.09608736695652631,-7.801884407590098,7.805166031478398
0.6341706043272817,-0.19392522841435578,-0.10474168810491058,-7.718015433680161,7.721161832908814
0.6366575478736631,-0.19731973659626506,-0.108610027106812,-7.624717625616025,7.628043660521238
0.6391444914200446,-0.19592913199323392,-0.0981155814330692,-7.545933311016997,7.549114148454738
0.6416314349664262,-0.18975342234651305,-0.09720037175401197,-7.476874394904447,7.479913434708926
0.6441183785128076,-0.1883694219774577,-0.10107599877539819,-7.4271179895827135,7.430193875522209
0.6466053220591891,-0.1822003318655921,-0.09537725651965578,-7.391875994715431,7.394736270026361
0.6490922656055707,-0.1760345628907346,-0.09446935888837871,-7.342418290683167,7.345135736149444
0.6515792091519521,-0.16987212255169215,-0.08877550313888793,-7.2978987883864175,7.3004153548623325
0.6540661526983336,-0.15892461496620264,-0.08787249976704015,-7.263106186079973,7.265376114127241
0.6565530962447151,-0.15755725747244148,-0.10133715922597641,-7.233252372691693,7.23567781180673
0.6590400397910966,-0.15619325074615947,-0.11001587200425034,-7.198760831141328,7.20129553119757
0.6615269833374781,-0.1500441987225027,-0.10433183518832845,-7.16442025162041,7.166750723670574
0.6640139268838596,-0.143898511916276,-0.09865026242352748,-7.115865708348714,7.118004174996043
0.6665008704302411,-0.13775619746095874,-0.09297115735152461,-7.0674626927761,7.069416476613907
0.6689878139766225,-0.13640566574928215,-0.09208292689160968,-7.019211483698548,7.0211406212921705
0.6714747575230041,-0.1302701171519352,-0.10077397792037557,-6.971112357217944,6.973057664683793
0.6739617010693856,-0.11934955861908186,-0.10946750731078936,-6.9040119734598235,6.905911147848343
0.676448644615767,-0.122797610320945,-0.11337511521344723,-6.841852619736409,6.843893660778502
0.6789355881621486,-0.12146066580401971,-0.112496805056582,-6.784634564061333,6.786654138258499
0.6814225317085301,-0.11055032851446689,-0.11162098354607597,-6.713204458469093,6.715042421333744
0.6839094752549115,-0.11879702507932771,-0.11553605734515804,-6.637139372217378,6.639207811173909
0.6863964188012931,-0.12225874554086824,-0.1098768197931661,-6.5851699851457415,6.5872212540382655
0.6888833623476746,-0.11614709316122651,-0.10900848410868402,-6.533354537870268,6.535296054071882
0.691370305894056,0.7518737165541409,0.19831516231355728,4.325733009036847,4.3950664448582994
0.6938572494404376,-0.003377646096409781,0.9413810059495762,2.9263536098159175,3.074045389472712
0.696344192986819,-0.7203252353627665,1.5599458551930034,1.0144603600776385,1.9953519333699274
0.6988311365332005,-1.3271430077768163,1.9917604637924877,-1.2423528703788858,2.696638456070153
0.7013180800795821,-1.7663701297699352,2.2080944087814443,-3.7004342256543463,4.657140518797926
0.7038050236259635,-2.023641397594765,2.218524493798327,-6.177824620584396,6.86895133760177
0.706291967172345,-2.0845916074423867,2.0469927324850454,-8.492564967301977,8.981055680737686
0.7087789107187266,-1.9444323620829143,1.7030759285650734,-10.539310628362173,10.851652102342804
0.711265854265108,-1.6366824907873578,1.2250813057262353,-12.198351753656265,12.368481688841952
0.7137527978114895,-1.218802839366665,0.6656812976597557,-13.38349731361484,13.45535626785251
0.716239741357871,-0.729100640288894,0.0727599347789778,-14.037286695887579,14.056397103608063
0.7187266849042525,-0.19630631931982406,-0.4866451391790947,-14.140566511984007,14.150299676767805
0.721213628450634,0.30775406795362525,-0.9838035069975675,-13.726855807234653,13.765505884613702
0.7237005719970155,0.7351964826077722,-1.3756195414562487,-12.815308414306937,12.90987888187497
0.726187515543397,1.0429252891009384,-1.6429396318941702,-11.506481019611762,11.669877859145764
0.7286744590897785,1.2213636751953305,-1.7522449576471204,-9.905718710178917,10.13337825129779
0.73116140263616,1.270511635355486,-1.7322659411726629,-8.123154973657538,8.402415833114764
0.7336483461825415,1.1760039541467162,-1.5734257783236127,-6.302442118238522,6.6014718535951395
0.736135289728923,0.9713594493991692,-1.304454891473058,-4.520194802928554,4.8038841368466985
0.7386222332753045,0.6900969390047107,-0.9540837029518994,-2.8769697006367103,3.108611290567504
0.741109176821686,0.3417932243153632,-0.5558310383691865,-1.4781118848939183,1.6157306383389256
0.7435961203680674,-0.020879263372324874,-0.14321572329184074,-0.3858707966506092,0.41212007806554607
0.746083063914449,-0.36440170598133825,0.25024341675531225,0.3375041258396241,0.5561649089166372
0.7485700074608305,-0.6600436886932644,0.5814507496488828,0.668070673581612,1.1045637465311124
0.7510569510072119,-0.8742863933076639,0.8408294665496818,0.6345590767985723,1.3689543861241695
0.7535438945535935,-0.997553018163999,0.994860742058997,0.23696914848573236,1.428640716720735
0.756030838099975,-1.034631971500922,1.0435445740621843,-0.4768152624657169,1.5449276322943934
0.7585177816463564,-0.9903116614954466,0.9964577671271906,-1.4158146745900932,1.9945366532973592
0.761004725192738,-0.8598036896222755,0.8583887225435083,-2.5225684269736313,2.7999009004681175
0.7634916687391194,-0.6670500772163404,0.6484910516034179,-3.715673839411597,3.830369242045961
0.7659786122855009,-0.4312044422306227,0.39070676896131307,-4.918516632331876,4.952816866474765
0.7684655558318825,-0.1857856125173742,0.09940108267267345,-6.059270926796453,6.062933368706578
0.7709524993782639,0.0356875841326989,-0.19669558920430186,-7.042168824580488,7.045005643174957
0.7734394429246454,0.2284267399123881,-0.4496992152885291,-7.8289032646196794,7.845134446681637
0.775926386471027,0.3780666404354559,-0.6548213940401424,-8.371590376527385,8.405667782815875
0.7784133300174084,0.4750304746974733,-0.8168505305182545,-8.641499900517832,8.6930097936071
0.7809002735637899,0.500164625114946,-0.9118446098186104,-8.633843590728496,8.696256688589358
0.7833872171101715,0.46783429740806215,-0.9206500203157828,-8.377352021862329,8.440763726579462
0.7858741606565529,0.37803948739754356,-0.8528435702647506,-7.8911789593068065,7.946128703789046
0.7883611042029344,0.23556859428588206,-0.7371556811603717,-7.204054972417097,7.245501991338374
0.7908480477493159,0.07394043725883598,-0.5783747578545766,-6.3925946610803654,6.4191316429606395
0.7933349912956974,-0.08290297107703193,-0.38128920515802767,-5.490316992632126,5.504165244627791
0.795821934842079,-0.23496163465538938,-0.17462944444168338,-4.554682948342402,4.564081416073444
0.7983088783884604,-0.36787034738763674,0.03681611956624753,-3.6335767001758175,3.652336739021691
0.8007958219348419,-0.46726390312388427,0.21952866225682355,-2.7940360307156222,2.841331682442574
0.8032827654812235,-0.528353902293612,0.3543545690231271,-2.0839451066034336,2.178887838782173
0.8057697090276049,-0.5511403485853961,0.46044745186177005,-1.5272460752212318,1.6876753580127564
0.8082566525739864,-0.5356232456266345,0.509076889607226,-1.1622462912562277,1.377268304407908
0.810743596120368,-0.48180259698358635,0.5002428810567596,-1.0033110901407625,1.2202499031376894
0.8132305396667494,-0.3753131962004767,0.4530990383297562,-1.0312869814141639,1.187312752315878
0.8157174832131309,-0.26403907992453535,0.3676453603051595,-1.2174436653268295,1.2988644367006632
0.8182044267595124,-0.15276865485917435,0.2486702492229771,-1.5378392428037486,1.5652874149699492
0.8206913703058939,-0.031925117685902116,0.10575051068422336,-1.9972622320487101,2.0003146770489457
0.8231783138522754,0.06976110841219313,-0.04196024302883039,-2.5334635021407763,2.534771112136428
0.8256652573986569,0.13792481027382825,-0.18488520623396454,-3.0841939195214003,3.09280745051903
0.8281522009450384,0.18214279140010298,-0.3038707665678251,-3.6398767845206574,3.657077582678002
0.8306391444914198,0.21199185535288717,-0.3749749083062959,-4.181358588196073,4.203487405913847
0.8331260880378014,0.21789519247351863,-0.43171645552861904,-4.651178592413675,4.676250603999375
0.8356130315841829,0.1806991865233734,-0.4549417957502837,-5.011029669694709,5.034882578977524
0.8380999751305643,0.12434585120724712,-0.4398625264074538,-5.265700319820246,5.285502889130328
0.8405869186769459,0.05362358700924058,-0.39126705153673047,-5.38167181338896,5.396142779961182
0.8430738622233274,-0.026679205526051464,-0.30915537181426833,-5.344579031664023,5.353579536126447
0.8455608057697088,-0.09740891583266059,-0.21268110115741434,-5.173575676537243,5.178861557189091
0.8480477493160904,-0.15377714324517888,-0.11620945012320938,-4.892603850610442,4.8963991345774405
0.8505346928624719,-0.2005722936785082,-0.02452882258814615,-4.53518246051908,4.539681801440373
0.8530216364088533,-0.2282175630263623,0.07672599089238741,-4.110888393693431,4.117933161084024
0.8555085799552349,-0.23192455044257837,0.15882456991997929,-3.648452148244795,3.659264587200592
0.8579955235016163,-0.22605846830212,0.20740170409686876,-3.162239009726804,3.1770856854342697
0.8604824670479978,-0.19625410899802193,0.2368226029868099,-2.690556277701406,2.708079338583436
0.8629694105943794,-0.14729987814457873,0.24708726623219457,-2.2669228458206074,2.2851014332276165
0.8654563541407608,-0.1079261978977279,0.23340729019459783,-1.8913387819081908,1.908740269198144
0.8679432976871423,-0.05419105383012335,0.18620586795470784,-1.5973229744477973,1.6090525101048578
0.8704302412335239,-0.0004596580171378206,0.12463661255443581,-1.4088175027038279,1.4143200671698
0.8729171847799053,0.048479584166183365,0.05827633043434588,-1.3162456201236736,1.3184266886196492
0.8754041283262868,0.08783826740442557,-0.008086575246114336,-1.3243957875446668,1.3273300855423569
0.8778910718726683,0.11761638976204158,-0.07924050792899706,-1.4093260433151418,1.4164436344605509
0.8803780154190498,0.128237142722339,-0.14560866105637071,-1.5470944232202708,1.5592138407888383
0.8828649589654313,0.11491212114833804,-0.19761422803133177,-1.7377009770875969,1.7526724920755783
0.8853519025118128,0.09679493656394056,-0.2304688055384081,-1.9955109621505045,2.011106444257377
0.8878388460581943,0.07388558727104544,-0.26332600682486396,-2.26785198660688,2.284283760620271
0.8903257896045758,0.04139566831039759,-0.257878605255498,-2.5212052693889806,2.5346974152348336
0.8928127331509573,0.008901984742751279,-0.23806861732051576,-2.769936060089508,2.7801621695270673
0.8952996766973388,-0.028383868273072155,-0.2086844461903108,-2.975737169239153,2.9831806084197026
0.8977866202437202,-0.06088508555841077,-0.16972609167648045,-3.1194550181157066,3.1246621497189886
0.9002735637901018,-0.08860166851640766,-0.1259819568725229,-3.2058780420686706,3.209575630786627
0.9027605073364833,-0.09716840853052472,-0.07266363819300636,-3.23979467392204,3.24206588969216
0.9052474508828647,-0.11531572680839186,-0.02413634529550812,-3.206839730697567,3.2090031689597964
0.9077343944292463,-0.12389001129596239,0.01959992216148798,-3.092648026900436,3.095190577353648
0.9102213379756278,-0.09894924656040482,0.06333356787785505,-2.935526811047257,2.9378767422395873
0.9127082815220092,-0.07880066027457228,0.08312257566958747,-2.7498413125456267,2.752225672220269
0.9151952250683908,-0.06823265681085466,0.08375534931243056,-2.5212263383784457,2.523539756636915
0.9176821686147723,-0.038514817241270094,0.07959709926055902,-2.2496819029914636,2.2514190533983487
0.9201691121611537,-0.013589159103175152,0.0658594227246132,-1.978303648219761,1.9794462491733305
0.9226560557075353,0.00654431672563327,0.04733072359347634,-1.7214567934878549,1.7221197743835284
0.9251429992539167,0.012308802784620765,0.02879940579357232,-1.4839297490959087,1.484260224034822
0.9276299428002982,0.027646314913245595,-0.01367654663310569,-1.275299326185353,1.2756722690506779
0.9301168863466798,0.042980045766479846,-0.05615511640409476,-1.1147191400641656,1.1169599109448105
0.9326038298930612,0.04873318805689181,-0.074694286199664,-1.0165544002509037,1.0204592146080804
0.9350907734394427,0.035328934554543834,-0.09802447518634372,-0.976016700518775,0.9815628003565913
0.9375777169858243,0.012344091368143628,-0.12135727925141637,-0.969164018900635,0.9768105555073827
0.9400646605322057,-0.010644535336312322,-0.12075068096392672,-0.9959963475769236,1.0033457816088878
0.9425516040785872,-0.01927173601533183,-0.12493509937946978,-1.0660904829198632,1.0735590792491625
0.9450385476249687,-0.027902720990221175,-0.13391053359497596,-1.1555043956158375,1.1635725164912891
0.9475254911713502,-0.0652679104862493,-0.11894656274880377,-1.2450844572330304,1.2524549854474873
0.9500124347177317,-0.07869486822652555,-0.10398520246614495,-1.3491958601486953,1.3554834095847477
0.9524993782641132,-0.08254880436176876,-0.10339166169506431,-1.467838584351279,1.4737890793868675
0.9549863218104947,-0.09598333230637118,-0.08364711614410147,-1.5531285742035088,1.5583382200688285
0.9574732653568762,-0.09984483885570267,-0.06869358132922887,-1.6242194181354552,1.6287346371371345
0.9599602089032577,-0.08455651738933817,-0.06331945944896278,-1.6811110888842542,1.684426802134045
0.9624471524496392,-0.07884878779304744,-0.04358273274383828,-1.699861540179267,1.702247291585592
0.9649340959960206,-0.07793324665423029,-0.019060206660560297,-1.69004754659138,1.6919508243892774
0.9674210395424022,-0.07223308718389976,-0.013693896570862396,-1.666034283616705,1.6676556526674318
0.9699079830887837,-0.056959905857425885,-0.01790699456848266,-1.6086681011196688,1.609775807648296
0.9723949266351651,-0.036902105734967716,-0.007757482750515354,-1.5083721532214938,1.5088434301014617
0.9748818701815467,-0.026424896461587077,-0.007187376381568189,-1.3843000115870954,1.3845708561183456
0.9773688137279282,-0.01595147102519101,-0.01619667408919101,-1.2460284388684162,1.246235793158053
0.9798557572743096,-0.01505863563945209,-0.015631761184284887,-1.1031341953507106,1.1033477092091613
0.9823427008206912,-0.014169583181442347,-0.0246462495049502,-0.9604056356381339,0.9608263108739706
0.9848296443670727,-0.003707506472997779,-0.028874927611912682,-0.8082659020189631,0.8087900069952451
0.9873165879134541,-0.00282601820271855,-0.042683003952687315,-0.6802337643151937,0.6815774345734501
0.9898035314598357,-0.001948311082347498,-0.04691686369762671,-0.5715207634431856,0.5734465721076175
0.9922904750062171,-0.010651191050015996,-0.0511533119040779,-0.4773384379821959,0.4801896433335714
0.9947774185525986,-0.019357850707874658,-0.050603943633691806,-0.41205193746156965,0.4155987062794391
0.9972643620989802,-0.02806828924409399,-0.05005716055408227,-0.3612959891636969,0.36582555948102025
0.9997513056453616,-0.04157090911268124,-0.04472455765768757,-0.3250705280129118,0.33075561178115165
1.0022382491917432,-0.045500499432044705,-0.03939453654312919,-0.3177406965816427,0.32339043774082277
1.0047251927381247,-0.039857059227316194,-0.034067095454384244,-0.35846003845593444,0.3622744144054033
1.0072121362845061,-0.043794200750790435,-0.028742232601204343,-0.3993444484370059,0.40276548567591874
1.0096990798308876,-0.03815830963831335,-0.01863154283891655,-0.4451822555552596,0.4472028976250939
1.012186023377269,-0.03731459471409304,0.00105337901115643,-0.4959733832328457,0.4973762011410009
1.0146729669236507,-0.036474651467406694,0.015947324880338787,-0.5373525426493551,0.5388250852199021
1.0171599104700322,-0.035638478654291705,0.011685086733726813,-0.5693196526700266,0.570553686631755
1.0196468540164136,-0.020440865016436938,0.01220868313259249,-0.5918746298912403,0.5923533222793175
1.022133797562795,-0.024400632445368275,0.012729712749885103,-0.6050173886469654,0.605643027711557
1.0246207411091766,-0.013998956295112164,0.013248177612308787,-0.6039594376948259,0.6042669007715464
1.027107684655558,-0.008389448390117238,0.004187273139273362,-0.5791238802227134,0.5791997796484776
1.0295946282019397,-0.017148913861350645,-8.77886150356666e-05,-0.5209338171755498,0.5212160155161716
1.0320815717483212,-0.006758527904244138,0.009999801116358231,-0.4437543638634658,0.44391847130939294
1.0345685152947026,-0.0011603055053983624,0.015296431211537787,-0.3619506333668614,0.36227556929959726
1.037055458841084,0.0044341583229008386,0.01580210386270764,-0.2803109299023685,0.2807909999790786
1.0395424023874655,0.005236461980037688,0.011516821294822677,-0.19883515214990588,0.19923723406351906
1.042029345933847,0.006035010558172793,0.0024405857654734575,-0.11273479325935476,0.11292259039955357
1.0445162894802287,0.006829805881163331,0.01251541616633256,-0.04116336077919236,0.04356264639377208
1.0470032330266101,0.007620849824728881,0.013010894898042302,0.03503286650079218,0.03814003766858785
1.0494901765729916,0.008408144316305766,-0.0008613790049096792,0.10627719205827368,0.10661275916336241
1.051977120119373,0.009191691334900165,-0.0003709832336920016,0.17256972819411232,0.17281474447264494
1.0544640636657545,0.014759896231252512,-0.0046715286505367715,0.24348739602541158,0.24397907643879166
1.056951007212136,0.015535954446441624,-0.008974609484194485,0.29508829559582495,0.29563323847903955
1.0594379507585177,0.016308271433605692,-0.003703416611292365,0.30821893243109955,0.30867229438470123
1.0619248943048991,0.01707684937654641,0.0015652458419799231,0.30203304077427795,0.30251946466059293
1.0644118378512806,0.022630093830200426,-0.0027454262190009793,0.2956843570162082,0.29656179372261715
1.066898781397662,0.0377564104001758,-0.0022702202558502194,0.29396140972754203,0.2963849031838842
1.0693857249440435,0.05287899478166935,0.0029908663402071767,0.29207592297197493,0.2968391452462357
1.071872668490425,0.05363263939991825,-0.001327373751791594,0.3043932362210473,0.30908488184833777
1.0743596120368066,0.049594153331943835,-0.005648131220167496,0.3117598678235165,0.3157304176292317
1.076846555583188,0.05512874902513565,-0.009971403362908138,0.30938754820136793,0.31441892887699363
1.0793334991295696,0.06544802569553437,-0.019085590767482064,0.30206481652228234,0.3096624892088598
1.081820442675951,0.07097517928861674,-0.01862548070939729,0.3137338273330279,0.3222007123203448
1.0843073862223325,0.05734500247913382,-0.00859107039451068,0.31087589742723587,0.3162373782478039
1.086794329768714,0.06765312783501293,-0.012924373599779493,0.3126447822052434,0.32014175763085223
1.0892812733150956,0.07795754148909151,-0.036413790790581047,0.34298264246372234,0.3536105703541132
1.091768216861477,0.06910463294362384,-0.040752092519265926,0.3875244145054815,0.39574152571696086
1.0942551604078585,0.06503642163263257,-0.035516082511227065,0.44627024665554416,0.4523806597388112
1.09674210395424,0.06575291043737419,-0.030282564461894257,0.5096434826521694,0.5147591265351263
1.0992290475006214,0.07125410228773665,-0.03462834203686693,0.5776442749207007,0.5830516079333934
1.101715991047003,0.08632840348239085,-0.02939979895016398,0.6263307613239029,0.6329353553141966
1.1042029345933846,0.0870338004464436,-0.028962142128407198,0.6748567116388529,0.6810618689523171
1.106689878139766,0.08294710289532942,-0.023738561867209018,0.7184338810650477,0.7235958697093555
1.1091768216861475,0.08843352391277837,-0.023305861714103315,0.7666392367793975,0.772074718347626
1.111663765232529,0.08433945338815296,-0.018087231906184886,0.8194729413270512,0.8240001170649487
1.1141507087789104,0.08024170118033824,-0.01287107261241438,0.8529931426529096,0.8568557034480169
1.1166376523252919,0.07614027055508166,-0.0028689773321937118,0.8815652172580215,0.8848518543294783
1.1191245958716736,0.07682356814576163,0.0023422505029468965,0.9147661403091671,0.9179893453718272
1.121611539418055,0.06792638735166107,-0.006814192509846162,0.9525960823108512,0.9550391213726227
1.1240984829644365,0.05902553822060602,-0.011184689823005467,0.9806900057772943,0.9825283705217568
1.126585426510818,0.05490942752692923,-0.010769238141793203,1.013413295107524,1.0149569096381281
1.1290723700571994,0.046001252130672965,-0.005567834143186623,1.0507661266948212,1.0517873211747102
1.1315593136035809,0.04187782221960401,-0.009945684436943214,1.0640182589580043,1.0648885030972954
1.1340462571499625,0.028173931426235144,-0.01911438232354712,1.062746678817991,1.0632918853082116
1.136533200696344,0.0192547933510947,-0.013920311114651973,1.0613167784478375,1.0615826987773578
1.1390201442427255,0.019908815000040936,-0.013517080656646474,1.0693055486242056,1.0695762846579469
1.141507087789107,0.02055919346379642,-0.027481494127670203,1.0915015787195355,1.0920410291296794
1.1439940313354884,0.025994335839636173,-0.03665993475649376,1.1183282500535228,1.1192308658984833
1.1464809748818698,0.02184903598903487,-0.0218987857445212,1.140208945846135,1.1406285010371646
1.1489679184282515,0.012911701099985184,-0.007140060148735472,1.1762974711315444,1.1763900004142713
1.151454861974633,0.008759141725895425,-0.001960561038093278,1.2026520029454826,1.202685497772439
1.1539418055210144,0.009391361824468647,0.0032165218266642093,1.2144843334813142,1.2145249029810512
1.156428749067396,0.005231558757534005,0.008391192070998699,1.2357366767226594,1.235776240064911
1.1589156926137774,0.001068139892428377,0.008775050026750275,1.2568324252713232,1.2568635119372342
1.1614026361601588,0.0016895126408827954,0.018733309333569537,1.2729833769017116,1.2731223308070738
1.1638895797065405,0.007095681138536314,0.023900763735659414,1.2937665411934098,1.2940067458516307
1.166376523252922,0.007709842924441768,0.02427741696444663,1.3239705262418404,1.3242155372179716
1.1688634667993034,-0.001256401098171267,0.024651676097826147,1.3588071353298208,1.3590313148347193
1.1713504103456849,-0.005437836701142951,0.034600351560018616,1.3982765768803862,1.3987151746686657
1.1738373538920663,-4.6056253431348004e-05,0.02539302723863246,1.432802254487683,1.4330272532015949
1.1763242974384478,-0.00423466868223088,0.0018181102892018686,1.471961186830674,1.471968400978716
1.1788112409848295,-0.003638459629409674,0.002182831135059793,1.496599974461832,1.4966059891298695
1.181298184531211,0.001742575345194619,0.012121983701581573,1.521084042962972,1.5211333422202917
1.1837851280775924,0.0071200374042136305,0.012481958619162015,1.5549904163745332,1.5550568122227084
1.1862720716239739,0.0029171244325670864,0.003262759824642192,1.5887425072263808,1.5887485356357043
1.1887590151703553,-0.006077755681470953,0.003618004561173116,1.6127637298107844,1.6127792400897034
1.1912459587167368,-0.005499388366766,-0.0008175131453533879,1.6366311134553762,1.6366405570956428
1.1937329022631185,-0.004924575611690241,-0.010043789283327165,1.660344882592974,1.660382563839069
1.1962198458095,-0.004353312722125469,-0.004907206535242015,1.66954005343295,1.6695529407672385
1.1987067893558814,0.001002808358044338,-0.004561374121583306,1.6785820638356999,1.6785885609015085
1.2011937329022628,0.01114379240612362,0.005358922003719346,1.6778943367808186,1.67793989986393
1.2036806764486443,0.016492837600107446,0.015276879309407132,1.6722655069212644,1.6724166114853591
1.2061676199950258,0.026626755440365746,0.006038888647682761,1.700003033856179,1.700222269999306
1.2086545635414074,0.031968744186969156,0.011163777418137677,1.7467419423568646,1.7470701313112091
1.211141507087789,0.04209561542198814,0.02586314648167809,1.778963645600549,1.77964957099764
1.2136284506341704,0.03785376084619574,0.016618176801009632,1.8158219949666101,1.8162925393269969
1.2161153941805518,0.03360839544292826,0.01694769584673539,1.8573172302234529,1.8576985875872545
1.2186023377269333,0.034147927595097105,0.02206330455035843,1.879507576199706,1.8799472331315088
1.2210892812733147,0.049049169045932484,0.02238820054632029,1.9063352925804091,1.9070976116196656
1.2235762248196964,0.049581705015987576,0.017922388132800116,1.9473774307344502,1.9480909668705368
1.2260631683660779,0.05489915396856304,0.023031081591887048,1.9595386071435597,1.9604427818000396
1.2285501119124593,0.06500152112515678,0.02334907530662944,1.9715494897218626,1.972758922800451
1.2310370554588408,0.06552360178558037,0.023664776964012812,1.9881987314011118,1.9894188999817766
1.2335239990052222,0.06125380456995344,0.014401384312635823,2.0046981800830377,2.0056854742637635
1.2360109425516037,0.06655734477789232,0.009924111725063689,2.0258364919120213,2.026953837683488
1.2384978860979854,0.07664582446644641,0.00544456031488183,2.0420371146649394,2.0434822737949734
1.2409848296443668,0.08194244241084031,0.0009627345381124641,2.062877110984741,2.0645041694680093
1.2434717731907483,0.08723560738553249,0.0060554455133834395,2.0883567384499617,2.090186734874578
1.2459587167371298,0.09731372820308665,0.011145891099916039,2.094534239605151,2.096823281410125
1.2484456602835112,0.10260000375304634,0.011445672498943349,2.1101402950772057,2.1126641543552527
1.2509326038298927,0.09351763296267329,0.01174319757387865,2.1303867638011234,2.132470682973912
1.2534195473762744,0.09400863803894266,0.026403680850177302,2.1456971029331733,2.1479177907741693
1.2559064909226558,0.09928462130429538,0.0266967069917583,2.1464947711625433,2.148955549288975
1.2583934344690373,0.09976878179799964,0.031775893886789586,2.1471452453042046,2.149696774358238
1.2608803780154187,0.10024952855720715,0.03206443952255844,2.166802407008947,2.169357224450968
1.2633673215618002,0.09115006069488801,0.03713915518844413,2.210254929473419,2.2124453673874847
1.2658542651081817,0.09162399728244275,0.03263483559297198,2.224830647548595,2.2269556348620183
1.2683412086545633,0.10645974746670278,0.023339888746471082,2.2440486573403877,2.2466937496571644
1.2708281522009448,0.10692689718848336,0.023619529320319188,2.2774860398337395,2.2801170814555203
1.2733150957473263,0.10260225898706732,0.02868535872491762,2.286835844282278,2.2893161101186235
1.2758020392937077,0.11263945207814313,0.01938376842986056,2.305617171207369,2.308448378632123
1.2782889828400892,0.10830806250986191,0.014868376487227497,2.3481955093033875,2.3507390018750702
1.2807759263864709,0.1039733062485656,0.010350784367387345,2.390629122147682,2.3929114456682
1.2832628699328523,0.10921199597547981,0.01540780352134652,2.4041878714339573,2.4067164314942553
1.2857498134792338,0.11444733112557004,0.025251035458727422,2.41281405680723,2.4156588085075397
1.2882367570256152,0.11967931780922453,0.020726871747635656,2.4356615760112454,2.4386881832619167
1.2907237005719967,0.12011955885111825,0.025777333858249207,2.4440002949968456,2.4470861491382143
1.2932106441183782,0.12534486707126125,0.03082562003769862,2.447407307678752,2.4508088632594704
1.2956975876647598,0.12099003872230929,0.03108333187240575,2.4554597093642254,2.4586352204630444
1.2981845312111413,0.11663188669248337,0.02176207096763383,2.46336938678329,2.466224912790261
1.3006714747575228,0.11705882058349959,0.022015455548902274,2.4855018413220407,2.488354245475246
1.3031584183039042,0.1174824433900602,0.027055087258724964,2.5027037524903495,2.505605750109293
1.3056453618502857,0.11311435814027615,0.02251576111739828,2.519763817756739,2.522401933632346
1.3081323053966671,0.09916616789546978,0.013185885444728651,2.5462591392582548,2.5482235774527755
1.3106192489430488,0.09000308903122362,0.003853868578648445,2.577401610510325,2.5789754690960907
1.3131061924894303,0.09041353131531421,-0.005480284445244621,2.6084031263588114,2.6099753848955984
1.3155931360358117,0.09082069458718972,-0.010028165253212151,2.6344755829711115,2.6360596654731894
1.3180800795821932,0.08164777871871398,-0.014578172094445119,2.660407684467846,2.661700195447805
1.3205670231285747,0.07726000021552382,-0.014341896559967982,2.6957765395936653,2.696921568947424
1.3230539666749561,0.07765736565433523,-0.009319333543715391,2.702275225184896,2.703406907786201
1.3255409102213378,0.07326307500305218,-0.013875687883302845,2.713422869168401,2.7144472144065013
1.3280278537677193,0.059288731581505494,-0.013645744477363664,2.729219777505807,2.729897791852972
1.3305147973141007,0.054887955342491024,-0.00862949816849845,2.7305126441454997,2.7310778926494876
1.3330017408604822,0.05527234966846717,0.001173056217518731,2.7364553908574187,2.737013795151824
1.3354886844068636,0.05086511465258381,-0.003391689409654841,2.747048327380395,2.7475212968071965
1.337975627953245,0.04645466037973489,0.006406690079293398,2.762291764694419,2.7626897897605835
1.3404625714996268,0.04682939696542776,0.020991393267577152,2.7869744183320284,2.787446867556153
1.3429495150460082,0.042412524594635403,0.011632005473405815,2.7923661818068446,2.7927124841437507
1.3454364585923897,0.03799245344347291,0.011847355195151898,2.7976209830499306,2.7979040282227396
1.3479234021387712,0.038357593718059246,0.02163744770496434,2.812315944557067,2.8126607431663233
1.3504103456851526,0.03393114569337807,0.021848675009557894,2.81729777009855,2.817586806586445
1.352897289231534,0.024713116314635353,0.017269445732876587,2.8221435845539737,2.8223046227707336
1.3553842327779158,0.025068722517371023,0.01747657183470741,2.841218917301693,2.8413832559942964
1.3578711763242972,0.02063276134444858,0.03204686529022149,2.8457936690067154,2.8460488960968906
1.3603581198706787,0.01619364314896954,0.0418267181679588,2.8598101780180007,2.8601618770143915
1.3628450634170601,0.016539778312826714,0.02766252255155255,2.897633977195399,2.897813217793338
1.3653320069634416,0.016882770605875508,0.027861510383336174,2.9209581640178675,2.921139826787962
1.367818950509823,0.02201103046697861,0.03763528373764835,2.9106294503791794,2.9109559765580166
1.3703058940562047,0.027136161722556618,0.03783023474255254,2.9288974057429815,2.929267401809141
1.3727928376025862,0.022681364906695478,0.04281157878281805,2.947031937602593,2.947430154701143
1.3752797811489677,0.023011857182816287,0.047790917976345604,2.9602449711595,2.960720150012009
1.377766724695349,0.03291604910129131,0.04319145113496026,2.9876904493143757,2.988183928185131
1.3802536682417306,0.03324033463829679,0.05295520032675949,3.005426686173717,3.0060769682517514
1.382740611788112,0.02398472107842653,0.0627169610712972,3.023030820165868,3.0237764506861198
1.3852275553344937,0.0338796356551041,0.06289993222224677,3.0500799907898344,3.05091661331512
1.3877144988808752,0.048559875745711856,0.053504119287564045,3.0674209186844363,3.06827180098114
1.3902014424272566,0.05366023875418002,0.0632599477106024,3.0750539388224354,3.0761726168852874
1.392688385973638,0.06354594203266395,0.06343700310434963,3.0921330005015575,3.093436411646835
1.3951753295200195,0.08300539631884574,0.058823694337209353,3.089928020851141,3.0916023833725084
1.397662273066401,0.0785197858138541,0.05899683361099095,3.0971697578700077,3.098726592038242
1.4001492166127827,0.07881953790861274,0.05916802317951886,3.1186469539721937,3.120203871230715
1.4026361601591641,0.08390466009771524,0.05454886530942371,3.120841126016999,3.1224453405194637
1.4051231037055456,0.08419835326046154,0.04992776892062434,3.127694631706282,3.1292260790817688
1.407610047251927,0.07970062494190422,0.04051633630493612,3.1439962164504696,3.1452672338258596
1.4100969907983085,0.08477669267295818,0.026314573086866133,3.1553810133595777,3.156629354841557
1.41258393434469,0.0994265640483254,0.026476098184409214,3.1618493664764324,3.1635230427011187
1.4150708778910717,0.10928503672628731,0.03142411060578487,3.1729784274473873,3.175015400754164
1.4175578214374531,0.10956371503006462,0.036370212691479775,3.17440333227116,3.1765017733281145
1.4200447649838346,0.10505100994760769,0.0317376034734802,3.1613360245320585,3.1632401821817786
1.422531708530216,0.11011213913140039,0.036679901917318514,3.1529304653519663,3.1550658658312227
1.4250186520765975,0.11995870697638233,0.046408710398502695,3.1539754068188683,3.156597016820257
1.427505595622979,0.12501391458067146,0.03698201802267098,3.1740480052591797,3.176724238612094
1.4299925391693606,0.1252777697063101,0.037130250430150724,3.1939949979865663,3.1966665797738116
1.432479482715742,0.13511549009936347,0.03727660670987909,3.2186051398164546,3.2216555972241188
1.4349664262621236,0.14495027692722456,0.03742109260238191,3.243090379814893,3.2465437210363794
1.437453369808505,0.1356285247393429,0.032775310538700086,3.2626626679302433,3.265644959638076
1.4399403133548865,0.13588066131076681,0.03291607292149479,3.272533954984242,3.275519120460088
1.442427256901268,0.145706694516951,0.04742019216397475,3.2870698059443217,3.290639303327359
1.4449142004476496,0.14595301897417,0.042768850806945036,3.3014821733521815,3.304983509687948
1.447401143994031,0.13661964260181209,0.03332726460459501,3.3014062039554783,3.3043998784690682
1.4498880875404125,0.1320717833018663,0.028672246000931434,3.3155726752223647,3.3183259662541382
1.452375031086794,0.14188625567747054,0.03359220412963815,3.3296167355669493,3.332807787961371
1.4548619746331755,0.13254424447020924,0.04329874149362256,3.3291735342231936,3.3320923124561332
1.457348918179557,0.12798777428646047,0.033849847324254334,3.328608641157903,3.3312403348485287
1.4598358617259386,0.12821685315189613,0.03397594738590515,3.3374992238196315,3.3401339786645665
1.46232280527232,0.12844308579251984,0.038888644210197665,3.3366920305282486,3.3393897136343846
1.4648097488187015,0.12387807695477637,0.03422273369742168,3.335764230309789,3.3382390528040378
1.467296692365083,0.1240986413662869,0.029555028358579705,3.329927783004786,3.332370479481146
1.4697836359114644,0.11952798049345875,0.02488553407307137,3.3287598591812495,3.330998112881981
1.472270579457846,0.12453131242409032,0.015425853408864043,3.3418376301649024,3.344192690488039
1.4747575230042276,0.12474343534373933,0.0203296055442288,3.3547962514287484,3.3571762101687965
1.477244466550609,0.11537595409801193,0.030019989744166864,3.3724244924670383,3.3745310441541103
1.4797314100969905,0.11558249015329708,0.02534339864152102,3.3899343168645615,3.3919988609285734
1.482218353643372,0.11578624507313379,0.015876644799334372,3.4073260922487343,3.4093297906358737
1.4847052971897534,0.10641042043987603,0.015984944109153965,3.4150233803198633,3.4167182184294433
1.4871922407361349,0.11139704109667675,0.016091495869024808,3.4321801634048095,3.4340251762434506
1.4896791842825166,0.10680409870198315,0.01619630602553368,3.444431601284129,3.4461251416269207
1.492166127828898,0.10699681149494433,0.016299380533054464,3.4661432743473455,3.467832635203029
1.4946530713752795,0.10239838113115984,0.011612322033297318,3.487738747060712,3.4892609306599462
1.497140014921661,0.08822041260434377,0.006923539816110047,3.5044299878803047,3.505547078069045
1.4996269584680424,0.10277014080862235,0.007021443178721221,3.506640562602625,3.508153223249548
1.5021139020144239,0.10295194421022136,0.011906038105288896,3.518312860918339,3.5198389514100525
1.5046008455608055,0.09355423449567823,0.012000523946454678,3.5298704499191498,3.531130385666817
1.507087789107187,0.08415382668884441,0.016881713341079685,3.5269484940109246,3.5279927066531243
1.5095747326535685,0.0699623258694324,0.016972805653620693,3.5191241748268363,3.5198604746528632
1.51206167619995,0.06534495041499033,0.017062210216172602,3.5159746746170706,3.5166232374411126
1.5145486197463314,0.07509011207884575,0.012361529726780951,3.4983467563182478,3.4991743825925
1.5170355632927128,0.08004420602894802,0.012447576850865616,3.4901828133493833,3.491122754600256
1.5195225068390945,0.07063043408986358,0.0221087609398416,3.505848433079776,3.506629534361726
1.522009450385476,0.06600241802381812,0.02697987807004676,3.526190380218754,3.526911230886446
1.5244963939318574,0.07094856964769392,0.022272530964480453,3.5320554200492005,3.532838130380382
1.526983337478239,0.06631528419219901,0.01756353231298613,3.5186555283798118,3.519324213820405
1.5294702810246203,0.052102570184474506,0.012852888170562071,3.5147215048176985,3.5151311683893307
1.5319572245710018,0.05704085608852194,0.017717411238473257,3.515465326275395,3.515972699861146
1.5344441681173835,0.06197653718001561,0.017791897621942443,3.5113105668840614,3.5119025527331313
1.536931111663765,0.06212121871014087,0.01786475671281229,3.507046011266157,3.507641646531798
1.5394180552101464,0.052686505944478323,0.0275128012284922,3.5074604445658792,3.507964023808447
1.5419049987565279,0.29703459010026956,0.8559761983836287,19.54891696884539,19.569902387460356
1.5443919423029093,-0.37799333368485355,1.421075803874659,16.00090686050559,16.068333944726287
1.5468788858492908,-0.976409366158177,1.83294490016038,11.696220761668673,11.879168420518107
1.5493658293956725,-1.4455410621548954,2.0676414767358384,7.017931321785167,7.457619611912877
1.551852772942054,-1.7566579930981643,2.1299539430223264,2.3108039642222415,3.600328605166097
1.5543397164884354,-1.8858181337183653,2.0150939018051104,-2.085184290502742,3.4590326670779774
1.5568266600348168,-1.833021475334561,1.7470033757956704,-5.825268018092416,6.351829343322246
1.5593136035811983,-1.6126332192138269,1.3496243877096505,-8.68918028012276,8.94001822302879
1.5618005471275798,-1.2725373898529648,0.8612641702279116,-10.504538170927272,10.616329382793294
1.5642874906739614,-0.8366759951345806,0.3393835693161362,-11.146842817608398,11.18334979907291
1.566774434220343,-0.35293305953090004,-0.18249858565731403,-10.649612656408987,10.657021967220638
1.5692613777667244,0.1403841991386175,-0.6469214487190198,-9.142134189559624,9.166069638841694
1.5717483213131058,0.5953917564256659,-1.0251545938138096,-6.748905515559411,6.852237513599877
1.5742352648594873,0.9689939912138585,-1.288467594883061,-3.6854043955908176,4.022599117127187
1.5767222084058687,1.2324604923591336,-1.4416488491069965,-0.23893464024713662,1.9116485115385815
1.5792091519522504,1.3857912686506115,-1.4559679304205082,3.3271419568668863,3.88717553704811
1.5816960954986319,1.4194095222476697,-1.3410016393178212,6.7446751992017395,7.021655953635686
1.5841830390450133,1.333315261961224,-1.120691986251203,9.76945690717971,9.923505851112688
1.5866699825913948,1.1418737065737314,-0.8046157717091427,12.1764325148647,12.256295969455936
1.5891569261377763,0.8738152848390155,-0.43586861941960775,13.812373506477627,13.846847889966082
1.591643869684158,0.5578704255211383,-0.052757749787677444,14.624607836309952,14.635339324993193
1.5941308132305394,0.2227695573942008,0.32077482674496416,14.584405475590401,14.58963350607568
1.5966177567769209,-0.1075452940781626,0.6512102930983432,13.730074042359476,13.745929362716407
1.5991047003233023,-0.3947668934617564,0.9193950421556565,12.166958801461014,12.208030742923425
1.6015916438696838,-0.6101648119534487,1.1061754668020947,10.038712244612809,10.117888554003754
1.6040785874160652,-0.7537390406628599,1.1923979599249512,7.53687089703773,7.667747932402764
1.606565530962447,-0.8207011673701805,1.1732741243742373,4.8769133008542935,5.0827557408455535
1.6090524745088284,-0.7966859732060511,1.0727459829235353,2.2551643851871157,2.6213086212802637
1.6115394180552098,-0.6960586592143515,0.9003903483871314,-0.12247411392147534,1.1446398320506024
1.6140263616015913,-0.528396023110153,0.6514188236198417,-2.0931960900419586,2.2549986058469806
1.6165133051479728,-0.30327486260022707,0.3689270446809698,-3.5516562763269395,3.5836217869293576
1.6190002486943542,-0.05421399198480181,0.07685703434981406,-4.397297808995861,4.398303557242927
1.621487192240736,0.18526777444382575,-0.20084918459323253,-4.606178277147835,4.614275984817958
1.6239741357871174,0.40080523568224224,-0.44503799268698385,-4.1926624962071735,4.2352240152071445
1.6264610793334988,0.5876099973753175,-0.6221905605085898,-3.2142109112519797,3.3261927762251986
1.6289480228798803,0.7217400518939262,-0.7418836885171392,-1.7570143870611155,2.0392154535838998
1.6314349664262617,0.7888301982567347,-0.7945405638898577,0.04006377527609484,1.1203360636155322
1.6339219099726432,0.8080340587315491,-0.7801611804440658,2.009429854953213,2.302037977427686
1.6364088535190249,0.7554096257101439,-0.6987455319966662,3.997855341322352,4.128163798983818
1.6388957970654063,0.659687328114289,-0.5502936123642739,5.852111723923474,5.914830687345671
1.6413827406117878,0.5256555782705935,-0.3731126419258195,7.476431332321904,7.5041689944627805
1.6438696841581693,0.3676795951524998,-0.17199101781801085,8.736739269693128,8.746163859744431
1.6463566277045507,0.2001245977394045,0.038706056181840864,9.542056269260872,9.544233120536518
1.6488435712509322,0.046932611657248935,0.23982497297581196,9.863652307569254,9.866679052868603
1.6513305147973139,-0.09189635406406305,0.40742372214552747,9.720681394515202,9.729649829409649
1.6538174583436953,-0.2115738870687749,0.541502309873644,9.141874346777222,9.160341414682716
1.6563044018900768,-0.2833695583943643,0.6181187257408172,8.160750384487581,8.189030217531883
1.6587913454364582,-0.30728335899509374,0.6516381858895492,6.897019987669618,6.934546856020151
1.6612782889828397,-0.30725729642190214,0.622907083219419,5.479970443104914,5.523811758001253
1.6637652325292211,-0.2641377483382258,0.5462906338713345,3.9957934078022053,4.041604528474835
1.6662521760756028,-0.18271310900452753,0.43615405398521423,2.5498341521529255,2.5933122917410594
1.6687391196219843,-0.08213698263789337,0.282920543098363,1.2713799632449625,1.3050661012242608
1.6712260631683657,0.023225429869024983,0.12010893062972405,0.25141090169007896,0.27959437994751507
1.6737130067147472,0.13337413758852207,-0.028338760643757066,-0.476553811665557,0.49567658946663734
1.6761999502611287,0.23873234295600976,-0.16721092786837577,-0.8646297459434269,0.9124347776921176
1.6786868938075101,0.32014644176986834,-0.29171916155133326,-0.8888744868034202,0.9887829219217756
1.6811738373538918,0.3824048464334763,-0.38270984224057925,-0.5684412497326718,0.784745655815476
1.6836607809002733,0.411142356072148,-0.43060615712636974,0.048786329907714254,0.5973606996593943
1.6861477244466547,0.40635897977520496,-0.43540810004149044,0.9101362134765729,1.0876836677578459
1.6886346679930362,0.37284312995513613,-0.4066924714613105,1.9389943457638061,2.0159637493769726
1.6911216115394176,0.32974842898805046,-0.3492476685429735,3.0539582682639264,3.091499484829391
1.693608555085799,0.2674980793306745,-0.26786208844579473,4.15926031252824,4.176452043091679
1.6960954986321808,0.18609209008267458,-0.16253572501107527,5.173498020078662,5.179394741825925
1.6985824421785622,0.09510727698649735,-0.03326857208254275,6.00569212579861,6.006537280488953
1.7010693857249437,0.008908859106841027,0.08163214993109413,6.631901011050964,6.632409380915186
1.7035563292713252,-0.06292634781012485,0.18216644718099317,7.0090294439045495,7.011678692385168
1.7060432728177066,-0.11560993133694486,0.2731227291359013,7.1275010156502,7.1336689304655145
1.708530216364088,-0.1443534790447435,0.3257705820195511,6.977739317551092,6.986831211838458
1.7110171599104698,-0.15873378846433972,0.3544752219355445,6.5884751673978235,6.599913191094583
1.7135041034568512,-0.15396244716455343,0.3736018649844426,6.017169802860341,6.030722612184307
1.7159910470032327,-0.13003944603362783,0.34963169406053796,5.292554041636831,5.305683826111648
1.7184779905496141,-0.09175317927940907,0.2921415219376713,4.486454331251017,4.496892013507657
1.7209649340959956,-0.029526831148273147,0.22986177466757862,3.6419666992401094,3.6493327756707643
1.723451877642377,0.018332380910637602,0.14363884509542268,2.835705996311617,2.839400762753976
1.7259388211887587,0.07097807929212185,0.05741475594557377,2.134710266452868,2.136661476144399
1.7284257647351402,0.10925665982846766,-0.014445276701839926,1.5916523436041397,1.5954632138148521
1.7309127082815217,0.14274493827367962,-0.0815180533720472,1.2400514483303828,1.2508992385218742
1.7333996518279031,0.18580813370174715,-0.13901516463324004,1.0894847844938518,1.113924133050069
1.7358865953742846,0.20971583530330318,-0.17735979773721722,1.1255875392471966,1.1586131959972266
1.738373538920666,0.21925645551050854,-0.20134034990084482,1.343571706267988,1.3761527021610278
1.7408604824670477,0.2096416001140271,-0.20138000838421366,1.7194956658300535,1.743894736812843
1.7433474260134292,0.17608287490348917,-0.1774787670923108,2.2389946047179023,2.2529093926651287
1.7458343695598106,0.15209911222981987,-0.12963661993451714,2.849396483016684,2.856396350403248
1.748321313106192,0.1185367079191399,-0.06743036746531628,3.47887564738624,3.4815475834114125
1.7508082566525736,0.08497247771789085,-0.005225213564085784,4.079548460936833,4.080436651874207
1.753295200198955,0.05140643073018358,0.047402041205419465,4.627473303222015,4.628001593200171
1.7557821437453367,0.027415382698842694,0.1048166128762622,5.084343343669562,5.085497553028647
1.7582690872917182,0.003422536083426242,0.16223010419532669,5.392698138253175,5.395138879656365
1.7607560308380996,-0.006206890057196324,0.20527731126393034,5.557326485931782,5.561119938577374
1.763242974384481,-0.006261289947787074,0.2291698368189321,5.592593992118635,5.597290914231713
1.7657299179308625,-0.006317461135980418,0.23390768691233088,5.474559035471374,5.479557404496566
1.768216861477244,0.007989815429421454,0.22906767423148278,5.203222011049109,5.2082679590046395
1.7707038050236257,0.04623735547641861,0.2050729981771302,4.836044153547719,4.840611106325923
1.7731907485700071,0.0605411348861995,0.17628887474611687,4.420909890808726,4.424837540410154
1.7756776921163886,0.08441998598203371,0.1331385033281718,3.9626080205700918,3.9657426693859112
1.77816463566277,0.12745072448224287,0.08998709990893605,3.4898693569439017,3.4933550483535325
1.7806515792091515,0.1656913428594216,0.03725786386673491,3.0505783270890676,3.0553019325794963
1.783138522755533,0.17998823690274446,-0.01068398882437993,2.6782541479626207,2.684316522714775
1.7856254663019147,0.1894950289600027,-0.03947324219629156,2.3728972130315276,2.3807787983058883
1.7881124098482961,0.20857693805463673,-0.06826350352908728,2.1823919487114125,2.193398929242629
1.7905993533946776,0.21808035996369757,-0.08268955686680313,2.1019503446331287,2.114850315629939
1.793086296941059,0.2084284971004876,-0.09232820286124221,2.145938003440885,2.1580122451133144
1.7955732404874405,0.18919816515503157,-0.08760262888926684,2.285624897621493,2.2951146679226295
1.798060184033822,0.17475458313297165,-0.06372442565444825,2.516223015982148,2.5230890259579164
1.8005471275802036,0.16030935675385893,-0.039847200468401844,2.82815594372192,2.8329759849419176
1.803034071126585,0.15065089837285228,-0.0016057374071443142,3.1735400391830586,3.1771142018931546
1.8055210146729666,0.13620241037901476,0.031846356204437765,3.523645273687885,3.5264204658235982
1.808007958219348,0.11217549847638142,0.06529748963628368,3.8497416182515867,3.8519290792938503
1.8104949017657295,0.09772378496507794,0.09395926551082656,4.147041060176625,4.149256299207618
1.812981845312111,0.08327047221770112,0.11304328644358863,4.396390376484368,4.398631730276779
1.8154687888584926,0.08318077920261246,0.12254955836335935,4.554694327267617,4.557101913620938
1.817955732404874,0.08787790828066844,0.13205489383242552,4.617164898848214,4.619888821703929
1.8204426759512555,0.092573465126915,0.12719408880432503,4.607744497130294,4.610429213588131
1.822929619497637,0.10205586205076311,0.11754395582684829,4.521645107749955,4.524323867824832
1.8254165630440184,0.12111351135518961,0.10310450079979905,4.354078715990933,4.356982956790537
1.8279035065904,0.13059280873505924,0.07908732629517612,4.143352936660832,4.146164835677638
1.8303904501367816,0.13049376315973837,0.05506924483837006,3.908621770920991,3.9111872100512146
1.832877393683163,0.14475840019327757,0.03583866562683591,3.640308799639673,3.643362123247491
1.8353643372295445,0.16380992215051954,0.011818787889339433,3.376721636510376,3.3807132952706067
1.837851280775926,0.1637063213781751,-0.016990382512519275,3.1465910882024275,3.1508925575322357
1.8403382243223074,0.1636012200984327,-0.04101203308442569,2.945129137752776,2.9499547427233224
1.8428251678686889,0.16349462724474983,-0.05066935134004691,2.796278187724085,2.801512016651832
1.8453121114150706,0.1490213417820106,-0.06990434804328194,2.709615430315875,2.7146104247916956
1.847799054961452,0.13933498590949722,-0.06519819412245065,2.6899296539987834,2.694324885064391
1.8502859985078335,0.12964716521700487,-0.050916093717214395,2.7180676302273907,2.7216341558957127
1.852772942054215,0.11516948528624038,-0.04621165429586105,2.79881814663723,2.801567872688384
1.8552598856005964,0.09590195501099918,-0.022354450131960135,2.9369699904371833,2.9386203618610254
1.8577468291469779,0.09099819655794317,0.001501911289333524,3.103793125161335,3.1051271618587677
1.8602337726933595,0.07172779888210357,0.02056903243523278,3.289711127186332,3.290557287536773
1.862720716239741,0.057244384132947856,0.04921212904556738,3.4803591691239797,3.4811777747287365
1.8652076597861225,0.05233636449021761,0.07306599692955063,3.67573763309628,3.6768362599272226
1.867694603332504,0.042638538843428164,0.08734223852826473,3.832751270886339,3.8339834397277563
1.8701815468788854,0.03293931935425598,0.10640606955512011,3.946612060377129,3.948183633712077
1.8726684904252668,0.03760392481575048,0.12068068911303298,3.9933783657024042,3.9953784120589066
1.8751554339716485,0.04705555741002332,0.12058929629588055,3.9826273737640747,3.984730455390833
1.87764237751803,0.04692901598933774,0.11570870346966,3.9670319008670347,3.968996464989239
1.8801293210644114,0.046801115997851306,0.10603891635056684,3.9226503097056806,3.924362374765297
1.882616264610793,0.04667186622928887,0.09636834396582294,3.835117769123686,3.8366122326688523
1.8851032081571744,0.04654127546742459,0.0723317820520708,3.7283766740302795,3.7293686597693787
1.8875901517035558,0.046409352485943356,0.053082849578693025,3.597638998910041,3.5983298880725205
1.8900770952499375,0.05585291268892689,0.043409955544641665,3.4524819277001075,3.4532065436622923
1.892564038796319,0.05571835154821536,0.019371089017433007,3.297694240503449,3.2982218054034194
1.8950509823427004,0.04600567780639664,0.004908272258034252,3.1620067335048487,3.1623452051060124
1.8975379258890819,0.041080110156348826,0.019175124197379656,3.0406313791217485,3.0409693264711284
1.9000248694354633,0.05051846395986581,0.014287617272242148,2.9479337625221635,2.9484012141203344
1.9025118129818448,0.05037873132564752,-0.004965839567066421,2.9126446782986717,2.9130845676283
1.9049987565282265,0.045449324273206027,0.004510389182330599,2.9203992906194047,2.920756409106687
1.907485700074608,0.04051865481087946,0.013985889208597335,2.9424675531442537,2.9427797518318237
1.9099726436209894,0.040375134935689894,0.013883859471047977,3.0027918555038715,3.0030953765332313
1.9124595871673709,0.04501877331289439,0.028146322161014314,3.072642150247418,3.0731008263444375
1.9149465307137523,0.04487277195554917,0.04719647621741396,3.1520188092824784,3.1526914925347276
1.917433474260134,0.04472554282592611,0.05666911724852808,3.2504990105883502,3.251300598355471
1.9199204178065155,0.058942304515079647,0.061352654133510764,3.339352705007741,3.3404363235770997
1.922407361352897,0.0635810490395966,0.07082389906137498,3.4281570693663728,3.429478016655285
1.9248943048992784,0.06343018832581837,0.0707176476090492,3.5217008765848483,3.5229818958678876
1.9273812484456598,0.0776433442487946,0.0562455019835002,3.6056192857126073,3.6068937437776296
1.9298681919920413,0.08706691210872308,0.05134948430289343,3.6368170352820437,3.638221483752741
1.932355135538423,0.09648930379485199,0.04645279343249742,3.6488133163500187,3.6503844544565056
1.9348420790848044,0.10591052786351007,0.04155543486739255,3.632031689485097,3.6338131607862443
1.937329022631186,0.11533059285828134,0.03665741409179457,3.5768957146451124,3.5789422830081388
1.9398159661775674,0.12474950730986745,0.02697033325867748,3.4929825644533716,3.4953135816440546
1.9423029097239488,0.11022526313442921,0.007705794510003194,3.413811427513769,3.4155991349287
1.9447898532703303,0.11485349871935235,-0.0019825834217694904,3.334594265241855,3.336572218698251
1.947276796816712,0.138634222555993,-0.0068831984168737925,3.2361778284612077,3.239153247919593
1.9497637403630934,0.1384718132395074,-0.006996045046434141,3.142504497242326,3.145561619631123
1.9522506839094749,0.13351989251562824,-0.007109521213155556,3.0487862310928415,3.0517168266224437
1.9547376274558563,0.1285668721555347,-0.007223621510759948,2.978965408796432,2.981747227403638
1.9572245710022378,0.13797797055729222,-0.007338340544362776,2.9330423918844115,2.9362951902341297
1.9597115145486192,0.1330227762223119,-0.007453672930537447,2.9062291379121277,2.9092814264494105
1.962198458095001,0.12806650752081794,-0.007569613297378375,2.9081028137353497,2.9109311748389914
1.9646854016413824,0.1326859794886428,0.0018906503560560672,2.938663778903889,2.9416583671720473
1.9671723451877638,0.12772758722552446,-0.003014893223122428,2.9835471823364825,2.9862815030314147
1.9696592887341453,0.13234495237936528,0.011232584544232704,3.0235997689566645,3.02651564017281
1.9721462322805268,0.14174967998205595,0.020691072381743947,3.044456686328612,3.047825061774759
1.9746331758269082,0.1415765684103003,0.020572172282456336,3.0940023244962305,3.097308109146285
1.97712011937329,0.14140243262767116,0.020452696188445696,3.1435066196894175,3.1467517901425888
1.9796070629196714,0.1412272809423244,0.015544246068904144,3.197758330686482,3.2009131681354632
1.9820940064660528,0.13147431500687662,0.020212037162245622,3.2423926022862783,3.245119999216294
1.9845809500124343,0.13608555970110037,0.02009086477294275,3.267832981904985,3.270727032332798
1.9870678935588157,0.15027261996775781,0.015180734154260023,3.2932334361732067,3.2966951299946774
1.9895548371051972,0.1500934874531059,0.02463526382851633,3.2898638978064048,3.2933781163555587
1.9920417806515789,0.1355481703895946,0.034089249063599336,3.2577247187253757,3.260721657301036
1.9945287241979603,0.1305786935957602,0.024389081794765843,3.230335073372098,3.2330651569044946
1.9970156677443418,0.12560825863236713,0.024265187148021727,3.1885416989396385,3.1911070805945796
1.9995026112907233,0.1302136803257294,0.02892916699476933,3.1323449451724388,3.1351837832564637
2.0019895548371047,0.12524135356448313,0.028804219873610037,3.0665335644009417,3.0692251760538416
2.0044764983834864,0.11069128650258903,0.02867875427153921,3.0150499214981945,3.017217436808364
2.0069634419298676,0.10571710055924277,0.02376437202233328,2.973105960672405,2.9750798147468336
2.0094503854762493,0.10553040053593837,0.014061078267426641,2.9311252220641277,2.933058036722049
2.0119373290226306,0.10055438789762616,0.013934088096483332,2.917838471624851,2.919603858442202
2.0144242725690122,0.0955774740538442,0.013806599984849566,2.9093040380268107,2.910906329896027
2.016911216115394,0.0905996670773711,0.018467022355988405,2.8959454591431006,2.8974211694057823
2.019398159661775,0.0808325717041245,0.023126956979869995,2.887339885363815,2.8885637217136444
2.021885103208157,0.07106459929397257,0.018209602293234095,2.902641272951258,2.903568171462242
2.024372046754538,0.06608416119004534,0.02286857664171027,2.927484754152985,2.928319838056624
2.0268589903009198,0.06589126539827961,0.03710388507665563,2.928351847158665,2.929328062525796
2.0293459338473014,0.0656975165873428,0.04655032267541337,2.9387617158615766,2.939864540899905
2.0318328773936827,0.0655029227291446,0.04641949114280708,2.9635031034483212,2.964590367351255
2.0343198209400644,0.05573068513780377,0.05107660545173687,2.9977879456761265,2.9987409518215293
2.0368067644864456,0.05553442503204742,0.060521670600927724,3.0176745642280993,3.0187922619095895
2.0392937080328273,0.06491415033198378,0.055601078294579054,3.018374893271889,3.019584793171891
2.0417806515792085,0.0647162556590204,0.045891640145412804,3.0190428827759828,3.020085125360223
2.04426759512559,0.04536394225760709,0.04575857107309256,3.0148904653027158,3.0155789248263805
2.046754538671972,0.04516444455767399,0.045625069382289496,3.00112957260594,3.0018161478641985
2.049241482218353,0.04975256044795373,0.035914333364191364,2.9825489422678153,2.983180073283372
2.051728425764735,0.04476308779933191,0.035779981218325485,2.9591489077340327,2.959703735043228
2.054215369311116,0.039772841066302744,0.03564521120877906,2.926141398310042,2.9266287675194564
2.0567023128574977,0.02999342472438893,0.035510028226631185,2.8787383424776047,2.8791135809623873
2.0591892564038794,0.029790056512222995,0.03058603382897962,2.8504588944535394,2.8507786413367286
2.0616761999502606,0.03437434086896651,0.02566163619983186,2.8221497711001344,2.8224757652463857
2.0641631434966423,0.034169478895146765,0.015948436868800986,2.7938113017260964,2.7940657643618536
2.0666500870430236,0.033963881633813586,0.015811650632948204,2.7702322181220262,2.7704855343193286
2.0691370305894052,0.04812276675014049,0.025251282314536105,2.741836041275512,2.7423745741921524
2.0716239741357865,0.06228093196884066,0.029902126760996683,2.708623097969129,2.709504039215225
2.074110917682168,0.057284771675628954,0.034552592087061296,2.689747327417498,2.690579140637836
2.07659786122855,0.052287906799941,0.034414279752854604,2.689997458021576,2.6907256813006724
2.079084804774931,0.05207874829142911,0.02948719452477855,2.699797007365148,2.700460251816781
2.0815717483213128,0.05186890044016823,0.029348147795786428,2.7239347021332394,2.724586566453269
2.084058691867694,0.04686996751720196,0.038785547624403005,2.757622461507111,2.7582934493574336
2.0865456354140757,0.05144716705570018,0.04343418877374461,2.7625533805592806,2.763373756876185
2.0890325789604574,0.05602369996807455,0.03371726931303476,2.7578813933360724,2.7586564282123565
2.0915195225068386,0.06059957378806258,0.038365213859753666,2.7675488363308283,2.768478058329869
2.0940064660532203,0.06996319935034878,0.04301281713429006,2.7724024152774787,2.7736185938116225
2.0964934095996015,0.0649609708685932,0.05244848712395189,2.7772308516315913,2.778485554180931
2.098980353145983,0.059958105779105986,0.04273021187982273,2.7916112692858697,2.7925820174633684
2.1014672966923644,0.06453141817826014,0.037800012641682645,2.805967177965379,2.8069636529009068
2.103954240238746,0.06910410886148566,0.04723470067395308,2.796356876544583,2.797609385852048
2.106441183785128,0.07367618524504693,0.03751545734375927,2.7675690829270208,2.7688037522701903
2.108928127331509,0.07824765472534512,0.04216111048806548,2.7387577240812178,2.740199650741189
2.1114150708778907,0.0876069279991526,0.0420180514058508,2.7051347094750415,2.7068790676504206
2.113902014424272,0.09696560910260055,0.03708628466274577,2.6571235443538637,2.659150851647639
2.1163889579706536,0.08717009209078264,0.02736581480974376,2.618666556299993,2.620259919523134
2.1188759015170353,0.08695080420173129,0.03201025966441717,2.575398845424963,2.5770650577917786
2.1213628450634165,0.09630775273136472,0.03186601046714266,2.5464743341711955,2.5484940966091902
2.1238497886097982,0.09608733167402111,0.03172147504510647,2.5366817341059047,2.538699125031127
2.1263367321561795,0.10065475824581305,0.026788254570098147,2.5651749658400202,2.5672887637180173
2.128823675702561,0.10522163636113463,0.021854756839715606,2.560128285978414,2.562382887825668
2.1313106192489424,0.1097879732341373,0.016920986316395936,2.5550608232497636,2.557474443538105
2.133797562795324,0.11435377605834912,0.01677535076800707,2.549972882214682,2.5525908208176347
2.1362845063417057,0.1189190520066018,0.016629451306877208,2.5496531698253513,2.5524791019676103
2.138771449888087,0.12348380823095534,0.026060098991318004,2.5397367788211698,2.54287048143463
2.1412583934344687,0.12804805186263518,0.021125281622480507,2.5202240109681577,2.5235632836467317
2.14374533698085,0.12782338669164173,0.016190213548986865,2.5054803770561955,2.5087911154605393
2.1462322805272316,0.1323866264479306,0.011254899143485986,2.4907177736541426,2.49425899208836
2.1487192240736133,0.13216097155916484,0.006319342763542846,2.4807249030289933,2.484250893328738
2.1512061676199945,0.131934832392823,0.015748758712548216,2.470713659861974,2.4742838989146048
2.153693111166376,0.11734300601395264,0.015601134716257015,2.4798379544880964,2.4826616879841947
2.1561800547127574,0.10753911270853894,0.0058764750868087745,2.479367663088861,2.481705704247042
2.158666998259139,0.11209996610061762,-0.008636812558543205,2.4740914841349975,2.476644841070323
2.1611539418055203,0.11666036319129197,-0.018361917297466945,2.468798115141711,2.471621114506434
2.163640885351902,0.12122031092114632,-0.02808723818382175,2.458699446025549,2.4618461005137906
2.1661278288982837,0.11620300956863266,-0.03302436764613681,2.4485841723831516,2.451562399274495
2.168614772444665,0.11118527267187267,-0.02838489812825884,2.438452585527852,2.4411511381248676
2.1711017159910466,0.11095551042704188,-0.023745632050315102,2.43788178244818,2.4405209619112695
2.173588659537428,0.10114851972736832,-0.01910656520718934,2.4277184392429536,2.429899772442744
2.1760756030838095,0.10091792068649641,-0.004890886768542213,2.4127512476423334,2.4148658203901734
2.178562546630191,0.10547531679469713,-0.00025220584133167634,2.392980495083605,2.395303896358728
2.1810494901765725,0.11003231152035159,-0.005190518266732891,2.382771677990105,2.3853165241724565
2.183536433722954,0.09543529834896908,0.004236196700162509,2.377336678526736,2.3792552457863723
2.1860233772693354,0.08083789730654489,0.018451136546578262,2.3670989745586413,2.368550773244554
2.188510320815717,0.09018213171733719,0.02308909542388804,2.361635656250531,2.3634696731886478
2.1909972643620983,0.0899491850397422,0.022938480749150614,2.35615860282228,2.3579865121416264
2.19348420790848,0.08492746727247669,0.0275761032441606,2.3554564991483087,2.3571483694386863
2.1959711514548617,0.08469379171233993,0.027425160333856446,2.3547412224741926,2.356423434485663
2.198458095001243,0.0700945517119822,0.012908849427546887,2.3444362457348404,2.345519387020393
2.2009450385476246,0.05549496384388086,-0.0016076154795650055,2.3389070574742776,2.3395658783078854
2.203431982094006,0.05047184133783045,-0.0017590204079334093,2.3285771286404495,2.3291247164864806
2.2059189256403875,0.05023678744023308,0.002877832004721359,2.3086583325050505,2.309206641462466
2.208405869186769,0.04042459873436677,0.002726139104957781,2.2791509446614935,2.279511045941351
2.2108928127331504,0.030612088382521496,-0.0022140951357845218,2.2735740629448316,2.2737812167989864
2.213379756279532,0.025587666204067383,-0.0023660601212043275,2.2631975410235174,2.2633434199425335
2.2158666998259133,0.030139741995726332,0.007058651408904382,2.248021651483432,2.2482347684673814
2.218353643372295,0.03469151557058103,0.006906430097386007,2.223258262583795,2.2235396335969346
2.2208405869186763,0.03924299335958148,0.016330893133747804,2.198484451536528,2.1988953122525485
2.223327530465058,0.03421737513025469,0.016178431129165283,2.188065697863795,2.1883930333838078
2.2258144740114396,0.03397987722883389,0.02560266124143773,2.1680602535133833,2.168477666747722
2.228301417557821,0.038530506017724786,0.030238377370307656,2.1624104026225117,2.162965027162951
2.2307883611042025,0.03829246119576324,0.025297180040231737,2.1471743951098325,2.1476648115843617
2.2332753046505838,0.03805415239972809,0.029932686361310523,2.1367177064393195,2.1372661605983874
2.2357622481969655,0.04260398924336517,0.034568093505842334,2.140617407735742,2.141320372874962
2.238249191743347,0.04236517135640472,0.03441500195047853,2.139720149181432,2.1404162017972856
2.2407361352897284,0.04691451162669569,0.02947341547621285,2.12444938657711,2.1251717224141826
2.24322307883611,0.0418868063173643,0.024531741168363652,2.0995937846605948,2.1001548446373235
2.2457100223824913,0.03685886826987983,0.029166789416559258,2.0843072171051853,2.0848371286629965
2.248196965928873,0.041407510302459594,0.02901335399285454,2.0785899432759187,2.0792047780118126
2.2506839094752547,0.036379125288159786,0.024071438614195362,2.0776538181889563,2.0781117061286283
2.253170853021636,0.03613892931887719,0.019129450301799356,2.0719222925100693,2.0723257331513656
2.2556577965680176,0.04068692850220024,0.009398989420188464,2.070972429154705,2.071393388391496
2.258144740114399,0.030869515641054335,0.004456866278750304,2.0748044833646526,2.075038899597548
2.2606316836607805,0.030628713397708784,0.009091487850457547,2.0642650960659967,2.0645123298425934
2.2631186272071617,0.03996452780939597,0.00893764781093953,2.044142923750478,2.0445530899809308
2.2656055707535434,0.03972335160856011,0.013572156421257642,2.019226621872601,2.019662917066107
2.268092514299925,0.04427040074625832,0.02299501728572606,2.0134584581294908,2.014076364444852
2.2705794578463063,0.04402887454838733,0.01326421739094874,2.002896665975218,2.0034244522396234
2.273066401392688,0.04378718227813949,0.008321776910495515,1.9875414944241632,1.9880411870382975
2.2755533449390692,0.048333733175030535,0.01774450604083677,1.9817584014091283,1.9824271433807932
2.278040288485451,0.04809172649393234,0.027167198360704248,1.9711824238972833,1.9719561402590844
2.2805272320318326,0.05263797474721721,0.03658985739357945,1.965390614412379,1.966435821802949
2.283014175578214,0.05239567714223359,0.03643568000611053,1.9595948144710507,1.9606337502610047
2.2855011191245955,0.04736483950314385,0.03149307300968651,1.9585836711832192,1.9594094106884066
2.2879880626709768,0.04233387095058139,0.021762039879163808,1.9432038140087498,1.94378671818374
2.2904750062173584,0.05645639054223717,0.021607794034099737,1.9230322912797968,1.9239821761390885
2.2929619497637397,0.0705787907494112,0.031030338916887334,1.907646150277822,1.9092035203997346
2.2954488933101214,0.07033586733977326,0.03087606467242532,1.9018340339122393,1.9033846584836693
2.297935836856503,0.07009283597890037,0.021144974710600284,1.9008077773990557,1.9022172121584366
2.3004227804028843,0.07463810566775875,0.016202282385983313,1.8997792149004846,1.9013138683920885
2.302909723949266,0.07918327874266884,0.020836394396247737,1.8891717762036642,1.8909453051234408
2.305396667495647,0.0789399575159005,0.020682104141548585,1.878562503321243,1.880334104676323
2.307883611042029,0.07390814759595954,0.02052781828700123,1.8631632272482799,1.8647415416016546
2.3103705545884106,0.07845306452818585,0.02995034680174946,1.8381857779222663,1.8401029484143263
2.312857498134792,0.08299790723223271,0.025007676396455736,1.8179955975035114,1.8200609959630005
2.3153444416811735,0.08754268124422054,0.02485342364829446,1.8073813204524,1.8096708682041411
2.3178313852275547,0.09687579539640684,0.03427599515719626,1.7919779668879547,1.7949219474365983
2.3203183287739364,0.10142044853591065,0.02933337758491561,1.7574205558682827,1.7605889823039755
2.3228052723203176,0.08681143616531206,0.029179187459689615,1.7372281385929078,1.739640553662989
2.3252922158666993,0.08656758696605882,0.01944821805126873,1.7409777485973583,1.7432371328679364
2.327779159413081,0.08632369639222048,0.009717279214626284,1.730362385150901,1.7325415406330855
2.3302661029594622,0.08607976983450105,0.004774777468120828,1.7197474829823314,1.7219070620967598
2.332753046505844,0.0906242159796054,0.009409119313766645,1.7234984757559335,1.7259050599558496
2.335239990052225,0.10474544348990578,0.009255097956009983,1.7176735695083005,1.720889234133754
2.337726933598607,0.10928984440186235,0.004312716543897199,1.707061389132095,1.7105617369387662
2.3402138771449885,0.10425742400880778,0.008947188171076537,1.6964505584535843,1.6996747217966734
2.3427008206913698,0.10401339754062056,0.00400490267268383,1.6858412969117529,1.689051717528644
2.3451877642377514,0.10376936692152461,0.003851073109696568,1.6656570162374535,1.6688907118252072
2.3476747077841327,0.09873693405131684,0.0036972992455113207,1.6598399503356882,1.6627781911301174
2.3501616513305144,0.10806971740690857,0.003543584147496226,1.6540251054804473,1.657555631153484
2.3526485948768956,0.10782570555795123,-0.006186875773937839,1.6386358901970386,1.6421912924055935
2.3551355384232773,0.0980049036511716,-0.01112886752315978,1.6280377285428953,1.6310228871450987
2.357622481969659,0.09776093009005704,-0.006493984761492655,1.6270192368649736,1.629966554386573
2.36010942551604,0.10230538665203587,-0.006647434447843548,1.6307922237993457,1.634011584330777
2.362596369062422,0.10206147176970193,-0.00680081027620405,1.6393569002317943,1.6425449282676585
2.365083312608803,0.10181759381205202,-0.006954109277206744,1.6479250726568013,1.6510821382161578
2.367570256155185,0.09678535448291725,0.002469478142812953,1.6373433365366639,1.640203251083748
2.3700571997015665,0.09654156542250936,-0.007260465001307281,1.612400302863624,1.6153042205358625
2.3725441432479477,0.07714421500428797,-0.01699032250792598,1.6018265981596596,1.6037731608738495
2.3750310867943294,0.06732372810055853,-0.0171432848323545,1.5816804113512184,1.5832053878863477
2.3775180303407106,0.062291706316864426,-0.017296155727458462,1.5567503502142959,1.55809212390383
2.3800049738870923,0.04768294459352007,-0.012660529001487841,1.5414018280930026,1.5421911515269942
2.3824919174334735,0.04265106108841166,-0.017601611760243774,1.5308466439775064,1.5315418300280668
2.3849788609798552,0.037619254012944525,-0.022542594524275206,1.5250849991054487,1.5257154490064138
2.387465804526237,0.03258752819451305,-0.027483474471051483,1.5241170936415198,1.5247131544959867
2.389952748072618,0.02276748511557669,-0.0228474421537066,1.5183663200367032,1.518708874608052
2.392439691619,0.012947532874569068,-0.02299970474322688,1.4934676663485522,1.4937008721475677
2.394926635165381,0.012704482865595224,-0.03272866278625752,1.487728556084857,1.4881427437725832
2.3974135787117627,0.012461533176860384,-0.03288070024415157,1.4724187651958154,1.4728385690083057
2.3999005222581444,0.012218688512531273,-0.033032621016405805,1.4523268918005883,1.4527538852287876
2.4023874658045257,0.016764356872424835,-0.03797282569846283,1.4418183395857476,1.442415717994876
2.4048744093509073,0.006944929630132712,-0.03333610162077205,1.4169512846022059,1.4173603884173847
2.4073613528972886,0.001914024697065031,-0.014334042770648647,1.4208215483121496,1.420895140543744
2.4098482964436703,0.0016716466787169981,-0.00969706639382828,1.4199104979797745,1.4199445939093667
2.4123352399900515,0.006217800155903452,-0.0050599598694760495,1.3950647097573228,1.3950877422739196
2.414822183536433,0.010764086364448366,0.013942489407031022,1.3845915985680097,1.3847036337755612
2.417309127082815,0.020098913156119114,0.013791460820987922,1.393279755020293,1.3934929660572537
2.419796070629196,0.015068671756437224,0.013640570264907392,1.3828221387673931,1.3829715100069424
2.422283014175578,0.014826979928741157,0.02785503029480818,1.3388537249919032,1.339225537006828
2.424769957721959,0.6035590472084613,0.16656811985675946,19.998396890144836,20.008195986589456
2.4272569012683407,0.11490052255997502,0.4537218581150628,17.28251602622089,17.288852647043928
2.4297438448147224,-0.345027422617064,0.7025685181241821,13.661635509472923,13.684039288116228
2.4322307883611036,-0.733129154056044,0.8843776824924974,9.437424929943395,9.507081126725218
2.4347177319074853,-1.0398278607578941,0.9704189338125455,4.949861103158948,5.150153379043787
2.4372046754538665,-1.2603351350682073,0.9702690812230546,0.4958252136955448,1.6660460333379326
2.4396916190002482,-1.337190132833904,0.8982933371670008,-3.66610878150411,4.004417806469316
2.4421785625466295,-1.3039116730124842,0.7544917041103254,-7.258213313285782,7.4129011786039944
2.444665506093011,-1.174864961304905,0.5723830077450938,-10.036279636806235,10.12100977832888
2.447152449639393,-0.9596268001163759,0.3423904438643688,-11.928481527824308,11.971916570507705
2.449639393185774,-0.6821392018378329,0.0836676281672073,-12.839050746562766,12.857431245606604
2.4521263367321557,-0.36634417888477133,-0.1606898070619449,-12.744045104118957,12.750322148373927
2.454613280278537,-0.04576055033791804,-0.37152824615623503,-11.753597705625731,11.759557231943285
2.4571002238249187,0.25566967133775637,-0.5392708801053065,-9.968264850642953,9.98611456951778
2.4595871673713003,0.5235812802936689,-0.6639177065556754,-7.555640486279712,7.602803906195479
2.4620741109176816,0.7388206673358851,-0.7215267065680551,-4.716837383955536,4.8285620709952655
2.4645610544640633,0.8774458199258648,-0.7025210711802343,-1.6481799128326262,1.9949797110303054
2.4670479980104445,0.9346683387816164,-0.6308428146880416,1.430065540261129,1.8211685835766747
2.469534941556826,0.9200650345573882,-0.5112803381220266,4.29284418411121,4.420004348529841
2.4720218851032074,0.8432127178829548,-0.35341044584904235,6.767773662963359,6.829250836214413
2.474508828649589,0.6945345860822018,-0.1763867488923152,8.73993245984733,8.769259374607536
2.476995772195971,0.5123378696576795,0.015002351669759051,10.099187460047787,10.112185842656743
2.479482715742352,0.32056458912629526,0.18244963150094273,10.792866387634563,10.799167300545376
2.4819696592887337,0.10963794173833763,0.33074349613181564,10.806604192178101,10.812220211635696
2.484456602835115,-0.09171164871797521,0.4550955444365341,10.178708258712927,10.189289710135212
2.4869435463814966,-0.2595421617992457,0.5315637619921851,8.976216391136523,8.995686903584556
2.4894304899278783,-0.39385359368816353,0.5505713443209914,7.337992442092636,7.3691507338808835
2.4919174334742595,-0.4802807306308816,0.5360603101715613,5.378958246567326,5.426898014028935
2.494404377020641,-0.518823568859106,0.47366545171427576,3.2427660584103197,3.317991646362207
2.4968913205670225,-0.4999052979882871,0.3729635777053071,1.1017985503387937,1.266083402774149
2.499378264113404,-0.4474679309005253,0.24831990020542571,-0.9050804292272421,1.0397407875968887
2.5018652076597854,-0.356723060580487,0.10931122793938552,-2.686891066124697,2.7126709877396187
2.504352151206167,-0.23245908667787119,-0.03448563038374486,-4.10955791736054,4.116271706510975
2.5068390947525487,-0.09382961882771135,-0.16391705942993662,-5.091677977517076,5.095179822780929
2.50932603829893,0.03522332999026334,-0.2741946538417386,-5.633251098672847,5.640030259836363
2.5118129818453117,0.16906497333445292,-0.36053000827732395,-5.700758310714178,5.714648735421434
2.514299925391693,0.28854170149673675,-0.4085579107698436,-5.322929887740377,5.3463780702224035
2.5167868689380746,0.36971150142434966,-0.42306676264926946,-4.5668033314611485,4.601235132895147
2.5192738124844563,0.42693958660272135,-0.40884496526113123,-3.4946277413125575,3.5442706819004646
2.5217607560308375,0.4506491538914003,-0.3563157100055667,-2.1925942343787765,2.2666087050328865
2.524247699577219,0.44084020676634905,-0.2750558015794664,-0.7421055254674558,0.9059339892142522
2.5267346431236004,0.4118779586401703,-0.1842188513357912,0.717974829726705,0.8479787108897034
2.529221586669982,0.344608799659081,-0.08380485736180399,2.091878904347981,2.1217294430195417
2.5317085302163633,0.262974749827899,0.021397778919517663,3.331722803703302,3.342153560910439
2.534195473762745,0.17176421584594653,0.11223544610892322,4.317796582255632,4.322668974944398
2.5366824173091267,0.08055400770884424,0.20307335603376808,5.021369956512849,5.026120171291035
2.539169360855508,0.008497742028543143,0.2747578972640361,5.413712641947088,5.420687104353678
2.5416563044018896,-0.07792340113046892,0.3033470550339641,5.475671159633679,5.484620874835886
2.544143247948271,-0.13561378860282491,0.2936292344843552,5.240764466136371,5.250735321506952
2.5466301914946525,-0.1741502237706808,0.2695464540219623,4.728146307023843,4.739024276360947
2.549117135041034,-0.19353270339956385,0.22631031211640407,3.976124040113442,3.987258913968769
2.5516040785874154,-0.1793960143181096,0.14955560058145112,3.0613122487540085,3.0702088678117367
2.554091022133797,-0.15089376662113507,0.06322433777810188,2.0794791285448166,2.085905005446342
2.5565779656801784,-0.12239116710710463,-0.013529861268112509,1.0785088408538481,1.0855155340812424
2.55906490922656,-0.07952300267655499,-0.09028380146870285,0.11107394934191817,0.16374521362393016
2.5615518527729417,-0.0270776735351681,-0.1670374811097175,-0.7557877733953466,0.7744997604347288
2.564038796319323,0.02536801676713596,-0.22463728521101345,-1.469403765747204,1.486691922683962
2.5665257398657046,0.08260247461756881,-0.2630832120888602,-2.0058318870488447,2.0246968919810855
2.569012683412086,0.12547208977791935,-0.28237526007453617,-2.3219763843753043,2.3424460212376315
2.5714996269584676,0.15876526858773893,-0.27772502419405454,-2.4130487323845085,2.434161412978977
2.573986570504849,0.18727041736281602,-0.2443440994884245,-2.2982024233547005,2.318729959889135
2.5764735140512305,0.201410732434242,-0.20617450093552359,-1.9870141439408737,2.007809606560541
2.578960457597612,0.19160941010942373,-0.1488510169656565,-1.5082141950948929,1.5276062482131734
2.5814474011439934,0.1626548566330011,-0.08673885594593145,-0.909686492064206,0.9281754927604973
2.583934344690375,0.13848909150721767,-0.01983801629741455,-0.2297381444683122,0.2689839965143913
2.5864212882367563,0.09517010100758466,0.037486293583034236,0.47895852710122,0.48975896215930276
2.588908231783138,0.05663990458913237,0.09481088188527886,1.135000781121418,1.1403613266250128
2.5913951753295197,0.02289850508178648,0.13777054018282664,1.7240235215457123,1.7296711150158366
2.593882118875901,-0.02041930466898989,0.17115367331565468,2.2172964413602987,2.2239860693722098
2.5963690624222826,-0.044583101958420635,0.19974868610899765,2.562147215945121,2.5703084536214402
2.598856005968664,-0.0639580939879838,0.2091903700921316,2.758575956200529,2.7672355437970078
2.6013429495150455,-0.09769789130289863,0.18990192009995566,2.8161595786661273,2.824245454937595
2.6038298930614268,-0.10749526462803405,0.15624854755427497,2.7205329822802895,2.727135594026296
2.6063168366078084,-0.09813861459440676,0.11780706054196655,2.495638291545893,2.5003440110149144
2.60880378015419,-0.0839931484969828,0.07457746049469227,2.1510524200086394,2.153983091909799
2.6112907237005714,-0.0698472670133885,0.026559748829555918,1.7394479101025269,1.7410522947135094
2.613777667246953,-0.055700967524180744,-0.01666926641025679,1.2751900767062256,1.2765148624108595
2.6162646107933343,-0.022400634151888976,-0.055109583836645104,0.7870094436686763,0.7892545337625463
2.618751554339716,0.0013233157546866936,-0.09354960539633161,0.3275785504507098,0.34067724689181134
2.6212384978860976,0.02025928806577615,-0.10804731312857463,-0.09352569435678149,0.14433196503946885
2.623725441432479,0.04398409194881392,-0.11775631896983096,-0.45714957650757526,0.47411695424540734
2.6262123849788606,0.05813251994665425,-0.12267662158970705,-0.7249857694586126,0.7375861368528485
2.628699328525242,0.05791617121970949,-0.1084430097111877,-0.8970341742105301,0.9054195043986734
2.6311862720716235,0.06727706482730128,-0.08463228867312411,-0.9685062894239795,0.9745220676781173
2.6336732156180047,0.07184999324331581,-0.06560966714895189,-0.9298252114173451,0.9349021198712576
2.6361601591643864,0.06684655555935154,-0.03222153058415911,-0.8049328607273853,0.8083462125241311
2.638647102710768,0.05705515748476847,0.010743718960010806,-0.5938291422635977,0.5966605137716284
2.6411340462571493,0.04726420470610493,0.044132469447211164,-0.3156675751890621,0.32222290100449374
2.643620989803531,0.03747369956680524,0.06315631878789096,0.0008215137221139202,0.07344163428775607
2.6461079333499122,0.032472047707884255,0.0773920748393424,0.3316962000477268,0.34214958169838977
2.648594876896294,0.0035288315054760044,0.08683973880416618,0.633860945117867,0.63979159937677
2.6510818204426756,-0.0014719135619615242,0.09628771519124557,0.9168926458216049,0.9219357974327862
2.653568763989057,0.003104604797376953,0.09615919853453336,1.1520609715231007,1.15607124008017
2.6560557075354385,-0.0018952244675976004,0.07687738335401972,1.31542399394643,1.317669916100812
2.6585426510818198,-0.006894592508634334,0.05280748075732333,1.4117702037791773,1.4127743180382686
2.6610295946282014,-0.007105093820273689,0.028737895197556984,1.4315228807917038,1.4318289378304796
2.6635165381745827,-0.0025267262398097623,-0.004908178846964262,1.3938357237220345,1.393846655586192
2.6660034817209644,-0.002736294267557615,-0.03855393363049675,1.3034972203951192,1.3040701272103834
2.668490425267346,0.0162082208159956,-0.06741096474139008,1.1557190510452955,1.1577968170358837
2.6709773688137273,0.03994161114556494,-0.07711406114111652,0.9409244916387127,0.9449237057520302
2.673464312360109,0.04931026551330342,-0.08681683504704596,0.7213628670003036,0.728239693383625
2.67595125590649,0.053890992610992616,-0.10609609204959813,0.497034257847524,0.5110808872447039
2.678438199452872,0.07283740774888758,-0.1110098145106404,0.26315034063606824,0.29474831409550634
2.6809251429992536,0.08699589965263299,-0.10634640472752288,0.05801842076494168,0.14914416348921908
2.683412086545635,0.08200126034608873,-0.09210586169084589,-0.11836142386612103,0.17093017029119179
2.6858990300920165,0.0817955083935974,-0.06828818440473317,-0.2612007129721814,0.2820985533104305
2.6883859736383977,0.07201343577502434,-0.049258581847738014,-0.35134575723987815,0.3620168282666391
2.6908729171847794,0.0718086576904795,-0.020651843089996458,-0.39358488488784005,0.4006145823038605
2.6933598607311606,0.07639277271663675,-0.0016215804572343728,-0.4022832317034801,0.40947562046636043
2.6958468042775423,0.076188976088019,0.026985820273928596,-0.35349870783761617,0.3626214707047306
2.698333747823924,0.05204365637673908,0.041228343430737446,-0.2711732575677832,0.2791831909177668
2.7008206913703052,0.047052445297222634,0.050682796569309296,-0.1648836161319096,0.17879956751980425
2.703307634916687,0.04685013469847993,0.055349180591881986,-0.020264503085410723,0.07529353889117645
2.705794578463068,0.027494709767251546,0.04565068974684561,0.13395373121691279,0.14416499799355276
2.70828152200945,0.02250499551243046,0.04074093819126956,0.2929827521072923,0.29665669030056013
2.7107684655558315,0.02230418703858017,0.02625471682689895,0.4328806107248422,0.434249248769212
2.7132554091022127,0.017315479428772873,0.021345639784557058,0.5440705672598138,0.544764393406981
2.7157423526485944,0.012327277705583839,0.006860094619497659,0.6265526876359626,0.6267114910847472
2.7182292961949757,0.012127986870210994,-0.012413514524495017,0.6707502302314285,0.6709747050104707
2.7207162397413573,0.01192920526190111,-0.036475186836937734,0.6814516624828144,0.6825314011044192
2.7232031832877386,0.016519337839247195,-0.05095971155936452,0.6778106608875802,0.6799243139774597
2.7256901268341203,0.016321579578687073,-0.060655491227461944,0.6358852711627225,0.6389800941012774
2.728177070380502,0.016124335396421552,-0.07035092838978985,0.5508871514112723,0.5555950871878798
2.730664013926883,0.02550441350784849,-0.07046921564680675,0.46591199204661393,0.4719008050375625
2.733150957473265,0.034885008826065156,-0.07058715889300471,0.37138304606835426,0.3796378244437589
2.735637901019646,0.03947771956345947,-0.06112795075438582,0.26251196890864925,0.2724108120571895
2.738124844566028,0.03928254723178576,-0.05166839715090221,0.1536640283954842,0.16680939842793338
2.7406117881124095,0.04387629996252296,-0.046996900694876054,0.05920449147409279,0.08740143124704114
2.7430987316587907,0.034105365944438804,-0.03274825072999743,-0.030443392392303537,0.05623543413569978
2.7455856752051724,0.029123359908003077,-0.013710849893795896,-0.11049116465727238,0.11508455571648944
2.7480726187515536,0.02414187996140227,-0.004249907476969739,-0.16178515768874924,0.16363168803751618
2.7505595622979353,0.023949330832766846,0.0004229804985196317,-0.19869052796956588,0.20012914646463736
2.7530465058443165,0.009392100628051958,0.019461427959185595,-0.21163041625119838,0.2127307965835542
2.755533449390698,-0.0003761960048604962,0.028923418936314782,-0.20539317411361502,0.20742001267685195
2.75802039293708,0.013798055561413003,0.03838576069099009,-0.1895555573221337,0.19389471955885368
2.760507336483461,0.008819226769757105,0.03827164719071563,-0.140175499262309,0.1455735839118643
2.762994280029843,0.003840932206707781,0.02379267571100918,-0.08598337070291429,0.08929716801299216
2.765481223576224,-0.0011368268427691675,0.023679266757306472,-0.03176752666833593,0.03963805999361667
2.7679681671226057,-0.0013256457936687838,0.00920100097911103,0.03204888692334329,0.03336985029653442
2.7704551106689874,-0.0015139267218262642,-0.005276911103459625,0.10546591666154193,0.1056086991784871
2.7729420542153687,-0.011278475043545622,-0.005389258982406719,0.1453879784035923,0.1459243378466072
2.7754289977617503,0.00289953368757645,-0.01986646204462117,0.18533394028518835,0.18641822076022913
2.7779159413081316,0.012289680733862163,-0.04392011644686589,0.23009224967623254,0.23456865997467832
2.7804028848545133,-0.0022616460217323997,-0.03924299511571849,0.24135572322254184,0.24453570872299232
2.7828898284008945,0.002341184447884448,-0.03456551747407177,0.2526432265360601,0.2550075607848135
2.785376771947276,0.002156156665594433,-0.04904129631612042,0.24480118786945937,0.24967442668048814
2.787863715493658,-0.00281672826397128,-0.04915150792450218,0.20825284128289212,0.2139931087483027
2.790350659040039,0.01136454734564496,-0.0396845551561662,0.15257503328733968,0.15806061380668812
2.7928376025864208,0.006392757997178977,-0.030217244200169358,0.08255620624580295,0.08814463336790686
2.795324546132802,0.01099832465810413,-0.015961171296376087,0.022138414977597165,0.029425015754585754
2.7978114896791837,0.010816038393549499,-0.006493142657285844,-0.043043513082626106,0.044854114711950416
2.8002984332255654,0.010634303530392408,0.0029752454538791717,-0.10820113803837828,0.10876316825969871
2.8027853767719466,0.01045312105577434,0.0076555901216637245,-0.1733344241301129,0.17381800363723965
2.8052723203183283,0.015060895257782092,0.012336295059665936,-0.20971291649025225,0.21061462932240138
2.8077592638647095,0.014880820444265974,0.007440554009024769,-0.21733658098412967,0.21797245260566034
2.810246207411091,0.009912897544457677,0.012121980621266903,-0.23451261084781372,0.2350348327345702
2.8127331509574724,0.009733934109034337,0.012015365294309355,-0.2468757635993839,0.24735957860809352
2.815220094503854,0.00955552770863144,-0.007244501585334184,-0.24963760420012449,0.2499254375684643
2.817707038050236,0.00937767921514121,-0.012138796439377764,-0.22364448845016582,0.22416990980190693
2.820193981596617,0.004411986161159787,-0.0074559222633219235,-0.20241520946997404,0.20260052671070833
2.8226809251429987,0.009023659341611312,-0.017137895345183285,-0.1763729312913096,0.17743321215901187
2.82516786868938,0.013635892931003646,-0.031607908742009805,-0.1359408187371134,0.14023160724310954
2.8276548122357616,0.01346028440536362,-0.03171234888138974,-0.09548405402023086,0.10150890059490655
2.8301417557821433,0.018073641182925426,-0.03181642544421459,-0.07894462677960234,0.08701261707951963
2.8326286993285246,0.017899157382021524,-0.03670854148183933,-0.07674570419453453,0.08693560815353676
2.8351156428749062,0.012936833743003362,-0.032023486775406784,-0.07452205090371855,0.08213648058837913
2.8376025864212875,0.00797507430800859,-0.036914874359224914,-0.07227364228351973,0.08154623920268667
2.840089529967669,0.01737908974133373,-0.032229090716060504,-0.0843656644451034,0.09196908385911634
2.8425764735140504,0.012418460806074005,-0.027542942261441716,-0.09164448102838563,0.09649633537171887
2.845063417060432,0.007458398129790211,-0.018068025460822312,-0.09889847304282462,0.10081165218821528
2.8475503606068138,0.007287305681162093,-0.003804340110773907,-0.12049282890356316,0.12077292596005318
2.850037304153195,0.007116780770046627,-0.00869390262018932,-0.1372739145456734,0.13773293043419602
2.8525242476995767,0.011735227328791398,-0.008794696205564723,-0.1636069199055541,0.1642628578918222
2.855011191245958,0.01635424263105867,0.005470085945005199,-0.20906863235548556,0.20977863601252264
2.8574981347923396,0.016185423932512766,0.005370024070303625,-0.24014021013816134,0.24074493895322302
2.8599850783387213,0.025593981752135897,0.00048192496101906457,-0.2568216354886932,0.2580942397820686
2.8624720218851025,0.025426303348871748,0.0003825953973120022,-0.2734781013503813,0.27465781474306594
2.864958965431484,0.015682389245112227,-0.004504771132391561,-0.29010959144985193,0.2905680735156401
2.8674459089778654,0.015515853226775178,-0.00460336786886506,-0.29713928361435293,0.2975797146378459
2.869932852524247,0.01534988914025659,-0.014278404664831434,-0.3041439696906245,0.30486561996322636
2.872419796070629,0.02476130409560906,-0.02874147810212957,-0.320700442260641,0.3229364773607669
2.87490673961701,0.02459648526349434,-0.033627378132254915,-0.33244347803701935,0.3350439579170428
2.8773936831633917,0.019643836398689607,-0.03851291131853962,-0.32979625778185806,0.3326179434330114
2.879880626709773,0.019480164558902002,-0.03860967427358464,-0.32233557626463494,0.3252236268855762
2.8823675702561546,0.01452866350328541,-0.04349447358109115,-0.31963822897791516,0.3229108990409368
2.884854513802536,0.01436614025499705,-0.03880209923332423,-0.29776218889211137,0.3006232027381792
2.8873414573489176,0.0237809984997166,-0.034109357834174237,-0.27586105957741225,0.2789772542209774
2.8898284008952992,0.02361962530446482,-0.029416249356940316,-0.2826652519585391,0.28517160989575624
2.8923153444416805,0.009093617680163923,-0.024722773784895846,-0.2894443378273053,0.29064055829567104
2.894802287988062,0.013721799183272876,-0.034394141072188855,-0.3009867129254573,0.30325607342737815
2.8972892315344434,0.013562153509630082,-0.03448833462035861,-0.30292716041816625,0.30518558575351823
2.899776175080825,0.01340308426011616,-0.025005354442333427,-0.30484248077374865,0.30615984142725805
2.9022631186272068,0.018032995018871123,-0.020310410521778177,-0.32588628179961887,0.3270161622154085
2.904750062173588,0.017875079392425497,-0.020403502891158443,-0.3373281387954652,0.3384170424442712
2.9072370057199697,0.01771774093163847,-0.015707824952018168,-0.3487448543157221,0.3495477471249645
2.909723949266351,0.012772576530217905,-0.006223376756172794,-0.3984436515258398,0.3986968931039147
2.9122108928127326,0.012616393026341766,-0.015892174966594563,-0.38107965466799776,0.3816194934749068
2.914697836359114,0.012460787280872965,-0.01119539641208478,-0.37326731483903863,0.3736430066890438
2.9171847799054955,0.007517356138352804,-0.006498251134053223,-0.36542982405002356,0.365564897407209
2.919671723451877,0.007362906388015067,-0.020954352503693485,-0.3527787783089398,0.3534772463744672
2.9221586669982584,0.007209034841990203,-0.025833280698498218,-0.3544677908988092,0.3554810028112365
2.92464561054464,0.011844144936930201,-0.025923439147499838,-0.3513432492105064,0.3524973577664337
2.9271325540910214,0.01647983345284243,-0.03080163460936891,-0.3577703645442494,0.35947177824047266
2.929619497637403,0.016327697153775134,-0.03089106057080171,-0.3833259455439748,0.3849150969301109
2.9321064411837847,0.011387736108211421,-0.02619171716833968,-0.39927957495197575,0.40029971965481936
2.934593384730166,0.006448353689139208,-0.035857217828947796,-0.424784869371333,0.42634435211757327
2.9370803282765476,0.006297953253814215,-0.04073394942622777,-0.44068821949714554,0.4426115968370124
2.939567271822929,0.010936534823520527,-0.040821912124101356,-0.4469896299570806,0.448983034860541
2.9420542153693106,0.01078729176333193,-0.03133270277521616,-0.4676311226285019,0.4688037657459465
2.944541158915692,0.0010618207431173365,-0.02663153152244968,-0.48824749347123664,0.48897441734253033
2.9470281024620735,-0.0038746683014382333,-0.03150680187700372,-0.4896851357665408,0.4907129749758595
2.949515046008455,0.0007662279093544333,-0.026804900757404493,-0.48630926667642704,0.48704803938131974
2.9520019895548364,0.0006192993586556783,-0.022102635012886562,-0.4829082973576284,0.4834142464419643
2.954488933101218,-0.009103857344977428,-0.022188408181178065,-0.4938474462396556,0.4944294750857819
2.9569758766475993,-0.009249629006566451,-0.01748541384781621,-0.48560789917784497,0.48601062444982474
2.959462820193981,-0.004606419047754606,-0.017570458888279017,-0.4964968924579072,0.49682904941473266
2.9619497637403627,0.004825772415126495,-0.022443543546080136,-0.5073608231443352,0.5078799125659575
2.964436707286744,-0.0001066680304134815,-0.022527861432708907,-0.5181997022021072,0.5186891624866984
2.9669236508331256,-0.005038530569532851,-0.013035009488521876,-0.5290135412122581,0.5291980962254111
2.969410594379507,0.004395394597846991,-0.02269540790456448,-0.5254371424077053,0.5259454264989862
2.9718975379258885,0.013829897335248975,-0.022778637036616978,-0.5170473252324825,0.5177335887264936
2.9743844814722697,0.0041113641712503535,-0.018073100491032168,-0.5086325064166708,0.5089701040929735
2.9768714250186514,-0.005606591817614803,-0.02294400852316203,-0.5097695066137575,0.5103163835035615
2.979358368565033,-0.0009587608895859079,-0.027814554795117186,-0.5156699371161508,0.5164204224527424
2.9818453121114143,0.0036896467608351635,-0.023107932977270096,-0.5215454098128482,0.5220701145981769
2.984332255657796,0.0035502275654495374,-0.01361254670914791,-0.5369727471471339,0.5371569944833773
2.9868191992041773,0.008199787902754774,-0.018482009599385396,-0.5523751588711345,0.5527450925502578
2.989306142750559,0.0032731175355291686,-0.02335111202256268,-0.5581758553238121,0.5586736732633468
2.9917930862969406,0.0031354261343277123,-0.023431451001951764,-0.5543748540683247,0.5548786737804734
2.994280029843322,0.007786713394763778,-0.018723026889165162,-0.5457605765684423,0.5461371545479242
2.9967669733897035,0.007650172357889229,-0.018802646684417113,-0.5514866548259114,0.55186012277616
2.999253916936085,0.012302609332141223,-0.014093504114607303,-0.5715531081349994,0.5718591928730237
3.0017408604824665,0.00737881401061502,-0.01896080951607626,-0.5820179397588969,0.582373455262943
3.0042278040288477,0.0024555926742582113,-0.014250949990813666,-0.6020347834108222,0.6022084356329942
3.0067147475752294,0.007109751590385294,-0.014329135890770228,-0.6172384501257753,0.6174456875035426
3.009201691121611,0.011764483731515618,-0.014406964294395586,-0.6228405581400107,0.6231182267931257
3.0116886346679923,0.011631385376995707,-0.01448443560813395,-0.6332063395284315,0.6334787734562775
3.014175578214374,0.011498859433396125,-0.009773146925760923,-0.6339706069981634,0.6341501941233806
3.0166625217607552,0.011366905473652933,-0.019426711950197628,-0.6251333837680768,0.6255384490009935
3.019149465307137,0.011235523057453567,-0.00992630786849169,-0.63542511352642,0.6356019536363449
3.0216364088535186,0.015893115051626383,-0.01957916167984397,-0.6456922073025773,0.6461844637945144
3.0241233523999,0.01576287434897161,-0.024443257226867576,-0.641569479987151,0.6422284162839446
3.0266102959462815,0.010844800469893445,-0.014941788320497196,-0.6517873768911961,0.6520488106040472
3.0290972394926627,0.0011388929218582033,-0.015016772021201774,-0.6524039073366765,0.652577703286886
3.0315841830390444,0.005798764480716367,-0.01987980547488899,-0.6482075010984705,0.6485381999663133
3.0340711265854257,0.010459204667353394,-0.024742485834714056,-0.6535633951198196,0.6541152016335503
3.0365580701318073,0.010331809630567013,-0.029604813581354694,-0.658894810266867,0.6596404795599189
3.039045013678189,0.005416578826831997,-0.029678385882330183,-0.6594133712472043,0.6601031283779611
3.0415319572245703,-0.00907489162023467,-0.02975160655289555,-0.6599075099268976,0.6606401693874782
3.044018900770952,0.00037622096299405605,-0.01545926613412174,-0.6795308686474826,0.6797067984774177
3.046505844317333,0.0002510927533931895,-0.015531785056894787,-0.6895530570585979,0.6897280028340754
3.048992787863715,-0.004661873522002535,-0.025180760516890555,-0.6899741052396777,0.6904491796404989
