Time (s),Acceleration x (m/s^2),Acceleration y (m/s^2),Acceleration z (m/s^2),Absolute acceleration (m/s^2)
0.0,-0.8066591705240613,0.08527156966358551,4.194611753877559,4.272322322080957
0.002486943546381497,-0.1430050869826538,0.29722071069692424,0.4033385146885964,0.5210302900996296
0.004973887092762994,0.4392456808119314,0.5714190917003827,-3.0240130259017213,3.1087153821626887
0.007460830639144491,0.8874206703629639,0.8695595181184295,-5.819292204700345,5.950446282878621
0.009947774185525988,1.144059015864154,1.1581231987145946,-7.73829037518526,7.907670852145138
0.012434717731907486,1.1995838847236846,1.432321762172336,-8.675662587194878,8.874551732551575
0.014921661278288981,1.0683604609632225,1.6682132238912113,-8.588313133804764,8.81382164099084
0.01740860482467048,0.7647539286169242,1.8610092125486688,-7.524125971251243,7.7884963562797855
0.019895548371051976,0.32228308501325803,2.001132953497784,-5.598022702331552,5.9536759787781435
0.022382491917433474,-0.21116806254474044,2.0646424621259323,-3.0254813996477607,3.6689069416744413
0.02486943546381497,-0.782927103419525,2.0611145770572064,-0.06507576576473184,2.2057658543726846
0.02735637901019647,-1.3403216269587805,1.9905493302689015,2.9958900767490837,3.83850310041441
0.029843322556577963,-1.8306792224948591,1.8625235603720645,5.898842425163698,6.451102416294951
0.032330266102959464,-2.2156926893051505,1.691402509290475,8.375630770023388,8.827305780227451
0.03481720964934096,-2.4618432299708877,1.4867630156193237,10.229930651590262,10.626505422287842
0.03730415319572246,-2.5499772570172086,1.2677587245854427,11.327666853201961,11.680138378127117
0.03979109674210395,-2.4944600061938442,1.0391780714450436,11.635320627832462,11.944995098330365
0.04227804028848545,-2.2905030999511133,0.8249631047252068,11.143315244965372,11.406158127245176
0.04476498383486695,-1.9476833706815506,0.639479066301299,9.918688427115676,10.12831595591614
0.04725192738124844,-1.5426152972427813,0.48751439139628205,8.114669156468699,8.274369326785598
0.04973887092762994,-1.0944525186288332,0.39301112850188,5.903640028393991,6.017079827251349
0.05222581447401144,-0.6367138837742699,0.3463925028544512,3.501079268045281,3.575324933060094
0.05471275802039294,-0.22686025819424777,0.3380817396764759,1.093734680554049,1.1670562929427617
0.05719970156677443,0.1063779125394701,0.3872324840977335,-1.083761895847073,1.15577035085124
0.059686645113155926,0.3294817795568893,0.4794795579905422,-2.8446626562322708,2.903543441616333
0.062173588659537427,0.4328745106122146,0.605246186531569,-4.078834248906081,4.146153894671302
0.06466053220591893,0.4165560801234651,0.7597439982011271,-4.6761433222800175,4.755738247758644
0.06714747575230041,0.28052646253240693,0.9190310081809232,-4.607859381319558,4.706982172070938
0.06963441929868192,0.03915084226603749,1.0783188449158672,-3.90750117426452,4.053747617529911
0.07212136284506342,-0.27405198294254296,1.2376075401524358,-2.689990305911973,2.973688746102607
0.07460830639144492,-0.6351400219754595,1.3825319156567346,-1.0846135911334995,1.8684710293167444
0.0770952499378264,-0.9818640571263861,1.4843615832138115,0.7745537517637882,1.9409584876470336
0.0795821934842079,-1.299858903865629,1.562250187791023,2.6768220512309693,3.360897962326172
0.0820691370305894,-1.5747593776364428,1.6018325510920373,4.488116088725623,5.018856507718638
0.0845560805769709,-1.7778350838935553,1.6031087047592687,6.055207032304014,6.511235467164563
0.0870430241233524,-1.8755672247432447,1.5804438903731934,7.220077646580401,7.625291897875058
0.0895299676697339,-1.8679558255052982,1.5051077196079166,7.910901955811349,8.266618290941125
0.0920169112161154,-1.7789429280718356,1.4106190472773539,8.11331482397227,8.424984360268372
0.09450385476249688,-1.5989517510630458,1.3113431148892563,7.803374308271457,8.072726804629653
0.09699079830887838,-1.351924336310984,1.1833379373632547,7.028964515593771,7.254952118835064
0.09947774185525989,-1.071379532257496,1.0553339661161285,5.876276779256901,6.065658469499626
0.10196468540164137,-0.771682574031801,0.9369080392564402,4.469809659009741,4.631683177513814
0.10445162894802287,-0.4911407133327609,0.8280601882244765,2.9580037310698897,3.1107376856042936
0.10693857249440437,-0.2441191852252343,0.7431556543931384,1.4605691515986576,1.6568454212307038
0.10942551604078588,-0.05934843470203399,0.6774060658250778,0.10679288326199732,0.6883356264451244
0.11191245958716736,0.04401789991816357,0.6212346472329595,-1.0027685313335635,1.1804299173897352
0.11439940313354886,0.07555660027259792,0.5985834465412898,-1.757981743080002,1.8586314188995634
0.11688634667993036,0.025690834751828484,0.6142408983623064,-2.125327856134927,2.212457998759358
0.11937329022631185,-0.096002614937237,0.6634186306359342,-2.0856531847591064,2.190728186846887
0.12186023377269335,-0.27037016041144685,0.7221746579884929,-1.658111269919548,1.8286523025758408
0.12434717731907485,-0.483046616571813,0.7952974149351533,-0.9097396859316609,1.3013294387444905
0.12683412086545634,-0.7053015883217406,0.8732101259964622,0.07805878278138945,1.1251841752358764
0.12932106441183785,-0.9227698904883923,0.9511244189789263,1.2334581582887907,1.8104035349664824
0.13180800795821934,-1.1162979345408959,1.0338287282946588,2.4175948160254466,2.8565166921586043
0.13429495150460083,-1.2667321319101617,1.1117462783591625,3.525123954517138,3.9073122445191983
0.13678189505098234,-1.3549188939883605,1.170511890231295,4.489007998699327,4.832917970216959
0.13926883859736383,-1.3904350520502748,1.21491399821417,5.218267356751493,5.535308470497829
0.14175578214374532,-1.3637038240496735,1.2449526332529413,5.641076049978587,5.935598889784682
0.14424272569012683,-1.2699368312203565,1.2558394229341467,5.752645746012586,6.023521004412808
0.14672966923650832,-1.1330761146772095,1.2284207848444337,5.557764918967304,5.803587683562078
0.14921661278288983,-0.9531216988922596,1.191427169733967,5.075587252757218,5.299955248304567
0.15170355632927132,-0.7635924315379183,1.1592238183517216,4.3587852543772465,4.574481627060322
0.1541904998756528,-0.5740651436427303,1.0982919382026444,3.488761850581003,3.7023310522879846
0.15667744342203432,-0.39890506951273574,1.0182083666329467,2.532554757996466,2.758569762506439
0.1591643869684158,-0.2716310566919273,0.9381267475872754,1.5859321130074564,1.862537487560062
0.1616513305147973,-0.18745472611797823,0.8772007249674396,0.759027261791128,1.1750501139821679
0.1641382740611788,-0.14637610200457474,0.8162767160692757,0.07578229059008468,0.8327524217929207
0.1666252176075603,-0.1531836118409127,0.760143154746074,-0.3967650846406716,0.8710369492931173
0.1691121611539418,-0.21745408639120706,0.7135884748063739,-0.6298843746804561,0.9763447733927347
0.1715991047003233,-0.3248223397723241,0.6814011100133359,-0.6092103004427569,0.9700279456325615
0.1740860482467048,-0.446557976093917,0.6779463007247308,-0.3443195996172621,0.8818056471581672
0.1765729917930863,-0.577872616020445,0.6792820606891861,0.1121153600475111,0.8988496716798882
0.1790599353394678,-0.7187662834894049,0.6949852268502377,0.7505178405083086,1.2501625753247068
0.18154687888584928,-0.854873792429665,0.720267426142593,1.4799082470979368,1.854648965700421
0.1840338224322308,-0.9670415534015274,0.7647054954133659,2.228460598250069,2.5467588222432247
0.18652076597861228,-1.0409043802369324,0.8043574482183444,2.938714122177837,3.2197070558030916
0.18900770952499377,-1.0860391033202024,0.8440117179854234,3.5149008203489265,3.774435651978559
0.19149465307137528,-1.0880805363844486,0.8836683347718037,3.95223235713266,4.193438873323829
0.19398159661775677,-1.0422402997532842,0.9185389252633722,4.221978380111134,4.444668721263671
0.19646854016413826,-0.972460433621597,0.9534119227350297,4.29062013335915,4.501565807378551
0.19895548371051977,-0.8787409615316467,0.978710550448513,4.167734490645978,4.370362777110487
0.20144242725690126,-0.7706587136147873,0.9944348382533477,3.8628983255512486,4.062609872231027
0.20392937080328274,-0.657790519950364,1.0005848159456177,3.404842124744828,3.609266994345856
0.20641631434966426,-0.5449248072449483,1.0019489165876694,2.8606036012668055,3.079593746029298
0.20890325789604575,-0.44163840547249633,0.9793735565856394,2.263701644721464,2.5057059246532014
0.21139020144242726,-0.3718733545145126,0.9472239755325946,1.6572319511588107,1.944721263205421
0.21387714498880875,-0.3404180809174061,0.9150770096454424,1.1321742496357645,1.4950146938861306
0.21636408853519024,-0.33290739789203494,0.8733558818033957,0.7028938158867533,1.169460366264575
0.21885103208157175,-0.3637065385163768,0.831637428109876,0.41248634536930684,0.9970196804019974
0.22133797562795324,-0.408873509250701,0.7994984846106741,0.2609519034581105,0.935131685582388
0.22382491917433472,-0.4827735430621226,0.7577854673714854,0.2578673619671523,0.9347752054949223
0.22631186272071624,-0.5758298562600888,0.7160752123210725,0.41759799582818413,1.009322455502155
0.22879880626709773,-0.6784656650974968,0.6983097652897408,0.7018366432457048,1.2002195052645996
0.2312857498134792,-0.7667389758093148,0.6901239454853243,1.0866413521801022,1.4983154358896356
0.23377269335986073,-0.8406498111746425,0.6771525720551019,1.5337049604245498,1.8754942325956836
0.23625963690624222,-0.9001981939147027,0.6689724806867825,2.0095087088849857,2.3013053294441663
0.2387465804526237,-0.9310189367314761,0.6847373136469934,2.4422266116961433,2.701875695166218
0.24123352399900522,-0.9426888688697619,0.7100818898978969,2.8127051193062513,3.050276820556376
0.2437204675453867,-0.935208012874559,0.7306410283388043,3.0922138753117325,3.31213480859508
0.24620741109176822,-0.908576391231261,0.7464147577665496,3.2472341197763903,3.4535743046812337
0.2486943546381497,-0.8388520097636702,0.7813451235155444,3.272977512472359,3.4679323369229422
0.2511812981845312,-0.759553714078876,0.806701734332222,3.1885977295586088,3.3756251293193005
0.2536682417309127,-0.6802583331215278,0.8368498287807229,3.003671640337612,3.191412282780156
0.2561551852772942,-0.6009658891343477,0.8574242254376512,2.7277761138947785,2.921831417074793
0.2586421288236757,-0.5264648076186499,0.8636365494540201,2.389641632378562,2.594883506905593
0.26112907237005717,-0.4759087239745494,0.8794288458359452,2.017998677718052,2.2521551615542017
0.2636160159164387,-0.4492976602583629,0.8856475296394131,1.6463661349421823,1.9226963838720077
0.2661029594628202,-0.4370548318228165,0.8727158224931668,1.293897678897265,1.62074706117436
0.26858990300920166,-0.42481505063695585,0.8693641725200383,1.0084774041287599,1.3976010039876947
0.2710768465555832,-0.441308758488858,0.856438994570782,0.8236241949973238,1.2675164639267524
0.2735637901019647,-0.48174757386023204,0.83394031670791,0.7441265157167329,1.2170708476271355
0.27605073364834615,-0.5269779052072641,0.8114449735645308,0.7460424103528203,1.2217724566157253
0.27853767719472766,-0.5769997742024021,0.784164589742254,0.8485255526270468,1.2914482013214064
0.2810246207411092,-0.641390009093337,0.7520991930919065,1.0515760027513537,1.4432069947089234
0.28351156428749064,-0.6914182114994865,0.7296140213536291,1.3073097875052415,1.6490769065922797
0.28599850783387215,-0.7222959995756525,0.7262859088751021,1.5774197400783976,1.8808125288881195
0.28848545138025367,-0.7292349914100809,0.713384463368832,1.8523291133509296,2.1146688179098727
0.2909723949266352,-0.7409656282662523,0.7004865190366312,2.117672756650104,2.3503721683771936
0.29345933847301664,-0.7383343181371887,0.697168910006603,2.335143502468057,2.546385130245951
0.29594628201939815,-0.7165526789091312,0.6986432603716861,2.490376199663885,2.6839381071043658
0.29843322556577967,-0.6851975383611585,0.7049095974703941,2.5977361167829374,2.777521582206079
0.30092016911216113,-0.6394805142429345,0.7207563518863016,2.6284928922510984,2.7995356635512616
0.30340711265854264,-0.5841900308758945,0.7222415342053567,2.5778581808581524,2.7401210970545424
0.30589405620492416,-0.5289029158325589,0.7189419781794342,2.4410436371552198,2.599097901361302
0.3083809997513056,-0.4784075932955376,0.7443765340852095,2.246779738695947,2.4147441777617287
0.31086794329768713,-0.43270408405715854,0.7554495989971033,2.014220156152682,2.1943153279408962
0.31335488684406865,-0.41094602212067044,0.7521611997945934,1.7720953665967993,1.968488021778921
0.3158418303904501,-0.3844030082154984,0.7584533798804765,1.5395590402164379,1.758766397361913
0.3183287739368316,-0.37701707952344576,0.7647493593366259,1.3166112336748927,1.5685817165506841
0.32081571748321314,-0.39357665987365104,0.771049164806316,1.1511360365940986,1.4403241220264926
0.3233026610295946,-0.4101397531016019,0.7629876128921778,1.0383451018270895,1.3522297382432675
0.3257896045759761,-0.43628318621284967,0.7501415367182129,0.9686616786601672,1.300523275988066
0.3282765481223576,-0.467218576179528,0.7468761726480708,0.9660278393744957,1.3074123303851821
0.3307634916687391,-0.49815753990094375,0.7388263370423815,1.016078429440486,1.3514587176979798
0.3332504352151206,-0.5291000975235428,0.7259920561410977,1.1236019073606336,1.4385731211877466
0.3357373787615021,-0.5600462691202545,0.708373356102088,1.2838099247467492,1.5695899330937064
0.3382243223078836,-0.590996074690149,0.6955470696412946,1.4775489229987455,1.7367247641006647
0.3407112658542651,-0.6027959208768496,0.682724819430709,1.647358116702181,1.8823562006052466
0.3431982094006466,-0.6050226341713215,0.655541421418218,1.8123911733148939,2.0200368086162093
0.34568515294702806,-0.5928878310287246,0.6475157246709036,1.9630713401192414,2.1504515061436713
0.3481720964934096,-0.5759683377899597,0.6394941416480198,2.0658798475415647,2.2379794073710833
0.3506590400397911,-0.5494757707594612,0.6314766980052278,2.120816748995085,2.2800329220415594
0.3531459835861726,-0.5229869561267488,0.6234634193128987,2.142247307597798,2.291603263745727
0.35563292713255407,-0.49650191336454397,0.6154543310556693,2.111017962968533,2.2542615251043188
0.3581198706789356,-0.4556554519081298,0.6170262652726213,2.0223403644292333,2.1629155906991944
0.3606068142253171,-0.4387548176394109,0.6138140373146579,1.9001565809650671,2.044472669074147
0.36309375777169856,-0.42664641651941365,0.6201828823674982,1.768408681301775,1.9219581775923216
0.36558070131808007,-0.4001766544317184,0.6265560189278117,1.6127315073423238,1.7758425364827466
0.3680676448644616,-0.3928643737055871,0.6281450687246579,1.4379135140098915,1.617561101554579
0.37055458841084304,-0.3999211900297182,0.6249500567190611,1.291838785848637,1.48974728737824
0.37304153195722456,-0.4069819123738178,0.6313362177442103,1.193660987218239,1.4103355094593044
0.3755284755036061,-0.41883496291016886,0.632938366622223,1.1242265556524957,1.3564361579273254
0.37801541904998753,-0.4450571670523969,0.639333334687165,1.0835355417023251,1.3344932614738325
0.38050236259636905,-0.476071736853604,0.6505211465424441,1.0907416089350033,1.3562961764274877
0.38298930614275056,-0.497513480967018,0.6425598100994643,1.1362680007302952,1.3969637585787975
0.385476249689132,-0.5045940146066333,0.6346029630615879,1.2057495568813028,1.452985902967694
0.38796319323551354,-0.5116785661875476,0.6410158397206043,1.2848211169140349,1.5242970722062954
0.39045013678189505,-0.5283439607241096,0.6426448510344498,1.3686943267273168,1.601706560331908
0.3929370803282765,-0.5450134098686996,0.634701617829937,1.4669460419124025,1.6887322021253433
0.395424023874658,-0.5521101251926973,0.6363397774429775,1.5699995045100898,1.7817554116259622
0.39791096742103954,-0.5352689148658873,0.6284057405541292,1.6491243430100244,1.8441848293192666
0.400397910967421,-0.5136434102186861,0.6061111277116393,1.7138974121937576,1.8890856495991428
0.4028848545138025,-0.5159640491403003,0.6029747859326189,1.7691071632512791,1.938952719264379
0.40537179806018403,-0.49913521963314605,0.585477915655785,1.7812348205381454,1.9402880825012636
0.4078587416065655,-0.47273374614070707,0.5584089437879554,1.7550688346998413,1.901463740852627
0.410345685152947,-0.46549006630507384,0.545709910422411,1.7145512693898741,1.8585387710586956
0.4128326286993285,-0.4534621811619989,0.5282272256744662,1.6548937680660103,1.795362173844503
0.41531957224571003,-0.4270733016250077,0.5059609128451552,1.5617311672708905,1.6962877966646124
0.4178065157920915,-0.4246306717273282,0.5028530117411745,1.468582336475178,1.609318625318077
0.420293459338473,-0.4317690988950727,0.5093267388307692,1.3754473216316079,1.528951803109638
0.4227804028848545,-0.4437001971110469,0.5110169071652431,1.272749361775963,1.4414919639825379
0.425267346431236,-0.44605877363324886,0.503135136339534,1.1844305189092967,1.3619798269718775
0.4277542899776175,-0.44842165223681013,0.5192002724137368,1.1344328547551115,1.325740850625461
0.430241233523999,-0.45557725329187426,0.5256935148658721,1.103602800876038,1.3045472193027126
0.43272817707038047,-0.46752559376335234,0.5369800962790336,1.1015172084778975,1.3115898616551422
0.435215120616762,-0.4794782872106874,0.5530600391769815,1.1185993152060352,1.336801878671761
0.4377020641631435,-0.4866469471079268,0.5643565593441098,1.1548491650666328,1.374409026185177
0.44018900770952496,-0.4842431868434864,0.5708696791063539,1.2150552051058519,1.4271449842192456
0.4426759512559065,-0.48184382968085826,0.5773878240105428,1.27527546216713,1.4804991320236336
0.445162894802288,-0.47466048883650525,0.5791226128631253,1.3402983827343817,1.5352802138868078
0.44764983834866945,-0.4674815840811964,0.5760740676907736,1.400547203048676,1.5849078304079163
0.45013678189505096,-0.46030713177884647,0.5778190170603699,1.4512335623889712,1.6284459845654273
0.4526237254414325,-0.45313714820660533,0.5747806761568044,1.49235750307162,1.6621783952820013
0.45511066898781394,-0.45076005287495197,0.566959066704531,1.52870747044987,1.6916186741684849
0.45759761253419545,-0.4340222486056048,0.5591426136469331,1.5363414896711927,1.6915557772552723
0.46008455608057697,-0.417288961375056,0.5513313385053844,1.4961059889189894,1.6481594134618407
0.4625714996269584,-0.4053486104315493,0.5387368593789339,1.4463082359355806,1.59572942974909
0.46505844317333994,-0.3934128082948708,0.5261476009049386,1.391736674935789,1.5390048434068702
0.46754538671972146,-0.3862699740373954,0.5279287942587518,1.322814539887755,1.4757207092091658
0.4700323302661029,-0.38870852664325534,0.5249268472706135,1.263483887715605,1.4223340142834158
0.47251927381248443,-0.3911516750472061,0.507564974308159,1.1993795484943242,1.3598283484995912
0.47500621735886595,-0.3888110314156764,0.4997852128776845,1.144866771933735,1.3083115846921503
0.4774931609052474,-0.40084022442782263,0.4920107771394795,1.095157194174929,1.2657475144332082
0.4799801044516289,-0.40329725279096423,0.49381849443097225,1.055039257711746,1.2327259285274093
0.48246704799801043,-0.4057589383653916,0.4860547720633219,1.043666614710693,1.2207086303334698
0.48495399154439195,-0.4225905062423031,0.4878732438055078,1.056250900448033,1.2378485378610402
0.4874409350907734,-0.42506155154049924,0.50406233336061,1.0880037499109907,1.2722060832787023
0.4899278786371549,-0.42274889585151,0.5202568510452203,1.1293483944770468,1.3133208351773922
0.49241482218353644,-0.41565255403629164,0.5220916070704162,1.1659196619135752,1.3433969442748215
0.4949017657299179,-0.41334934750630037,0.5239318314633676,1.1977175896587546,1.3710906868921617
0.4973887092762994,-0.4062624843014432,0.5257775441842552,1.2343190215009017,1.4017969464077704
0.4998756528226809,-0.3991803823320935,0.5372055717275681,1.2565703810156243,1.4236937614458003
0.5023625963690624,-0.3873146527773623,0.5390623205593421,1.278836914729549,1.440841656872074
0.5048495399154439,-0.3754537133661775,0.5217710036793983,1.291541852276266,1.4426679546389969
0.5073364834618254,-0.36838598173649995,0.5188504638632798,1.2994736329584917,1.4469090358918373
0.5098234270082069,-0.3469578588335978,0.5063587039354345,1.3074206957868348,1.444343369365228
0.5123103705545884,-0.3398997787145764,0.4938725498549026,1.3010178661982472,1.4325115857253796
0.5147973141009698,-0.3328465454622852,0.49096882747288983,1.2515347593760477,1.3849824786988256
0.5172842576473514,-0.325798173028915,0.483282345930955,1.1924902333746363,1.3273052520544777
0.5197712011937329,-0.31875467527490975,0.4708131242232736,1.1334611293535968,1.2680708468796307
0.5222581447401143,-0.30213925932819397,0.458349584555779,1.0840242881790036,1.21510539915344
0.5247450882864959,-0.295105552146528,0.45068014902561293,1.044179743782534,1.17495158238934
0.5272320318328774,-0.2976535673142399,0.4382280296599643,1.0235043364424712,1.1524767150928
0.5297189753792588,-0.30499491500302356,0.43057005165802753,1.0076328895412772,1.1374253855298824
0.5322059189256404,-0.30755280197180074,0.42291783014858986,0.9822002261669223,1.112728853468198
0.5346928624720219,-0.3005388382072123,0.4104829801507517,0.9663599923548531,1.0920950073544222
0.5371798060184033,-0.29831824688442266,0.40763072985495485,0.9696890272049767,1.0933679151264741
0.5396667495647849,-0.31046784776542846,0.41914950070089896,0.963456942959553,1.0955938432516301
0.5421536931111663,-0.30346883063643126,0.4163088907757655,0.9620289814483307,1.0912864815681096
0.5446406366575478,-0.29168641839365084,0.39432051465776086,0.9845587875258506,1.0999661999578216
0.5471275802039294,-0.2990626404807033,0.39149161669716337,1.0166811825087478,1.129754298837953
0.5496145237503108,-0.30165549304473227,0.39824540793018137,1.0583961973787304,1.1703836772816396
0.5521014672966923,-0.2946765854206671,0.40500509928188366,1.0953386528605158,1.204421099487136
0.5545884108430739,-0.2877027368107963,0.40219390156600143,1.1275085793435426,1.2311817070272766
0.5570753543894553,-0.26636874972215585,0.40417704208630356,1.1309639903193371,1.2301995527463079
0.5595622979358368,-0.25940505645079626,0.4061661347535943,1.1296469321860645,1.2281547556111578
0.5620492414822184,-0.25723486263636264,0.40337279336677456,1.1139806278030697,1.2123663737107626
0.5645361850285998,-0.24549297050417898,0.4005854382532883,1.0983303163345113,1.1945982486539197
0.5670231285749813,-0.24333300542764708,0.4025924896283195,1.0779076233664338,1.1760852472278758
0.5695100721213628,-0.2411781727640852,0.3998171576336764,1.047924174187905,1.1472426706688947
0.5719970156677443,-0.24381688773744448,0.40183626557980867,1.0083799971112324,1.11254180939646
0.5744839592141259,-0.24646075883665322,0.39907302338313544,0.9736403301124845,1.0807301587630667
0.5769709027605073,-0.2538982010967742,0.3867390441674452,0.9580704108704907,1.0639221291942742
0.5794578463068888,-0.2613408228176707,0.37441115090435195,0.9377282502042412,1.0429846627940635
0.5819447898532704,-0.26878863552485366,0.3716661664522021,0.9269790851978286,1.0342501120458203
0.5844317333996518,-0.2858184572897098,0.368927300274668,0.9353997493175772,1.0453574672994932
0.5869186769460333,-0.2884882828466158,0.36140616504215384,0.9246830425291659,1.033865868771796
0.5894056204924149,-0.30552854335847723,0.35389117995195907,0.9091942010241443,1.0223603832457882
0.5918925640387963,-0.31778563669009086,0.35595916740781774,0.9032984606964689,1.0215883460791844
0.5943795075851778,-0.3156827672518274,0.35324493309787774,0.9069958471815305,1.0232688107743917
0.5968664511315593,-0.3135851559604911,0.33617168591643587,0.9298631924577041,1.037300635851679
0.5993533946779408,-0.3067044103564438,0.3286814578856725,0.9527469082838262,1.0534826848763745
0.6018403382243223,-0.30940575116603614,0.34035107095239425,0.9660702127616965,1.0699824420701913
0.6043272817707038,-0.3169007857390463,0.3520269270269627,0.9985635502579377,1.1052050620847735
0.6068142253170853,-0.3148243146892432,0.354132234545665,1.007131315036835,1.1130307607571688
0.6093011688634667,-0.30796475181620375,0.35624381511121284,0.9965619342681631,1.1022194123669347
0.6117881124098483,-0.3058989141443189,0.3583616835707475,0.9860090447850176,1.0927996515025966
0.6142750559562298,-0.3038384086414908,0.3604858546563414,0.9706842665213529,1.0791180543597643
0.6167619995026112,-0.3017832455003318,0.36740474630519815,0.9410108157932768,1.0543058049314862
0.6192489430489928,-0.29494503149749063,0.36954156637828683,0.911353925220963,1.0267032277644939
0.6217358865953743,-0.29290058327485696,0.3668963292617953,0.8865020204865335,1.0031398209797264
0.6242228301417557,-0.30043831405826754,0.3642574525467084,0.8664551236544273,0.986757900194876
0.6267097736881373,-0.3031930236965278,0.366413353708392,0.8464248531714738,0.9708860836681229
0.6291967172345188,-0.2963763185832481,0.35421043350492987,0.8264112305075866,0.9467098157987868
0.6316836607809002,-0.2991418216177454,0.3324371091801499,0.8159910834761703,0.9305061575902935
0.6341706043272818,-0.3019127356815714,0.32982381446352793,0.796010819671702,0.9129996021841504
0.6366575478736632,-0.29511226356035714,0.3367937564060348,0.7760472663135918,0.8959746882644644
0.6391444914200447,-0.2931056245453459,0.32940493198160814,0.7800424602853475,0.8960383675947939
0.6416314349664263,-0.3006812311911797,0.32202256461050505,0.7888428082909442,0.9035378858140448
0.6441183785128077,-0.30826228599556227,0.31943507095609514,0.7880831200580829,0.9045105890172972
0.6466053220591892,-0.30627199136017547,0.3120656576044629,0.7969170282601858,0.9089907905357892
0.6490922656055708,-0.30428716287190966,0.2999143376658959,0.8057677453524761,0.9120312203409606
0.6515792091519522,-0.30230780938097196,0.29734633409512634,0.8050584834939993,0.9099033002787662
0.6540661526983337,-0.2955455363211846,0.29957325644906874,0.8091544711493324,0.912042903705649
0.6565530962447153,-0.28400035235059723,0.3065951174883148,0.798902113245008,0.9016104218287833
0.6590400397910967,-0.2724606693514778,0.31362352653644265,0.7790898310134153,0.882935726725973
0.6615269833374782,-0.256138092469367,0.2967164795190187,0.7928132719539267,0.8844208702977883
0.6640139268838597,-0.25418624335526135,0.303758022049474,0.8209188401065095,0.9114753558447347
0.6665008704302412,-0.237874710360923,0.3108061498196739,0.8298877292550433,0.9175502622543981
0.6689878139766227,-0.2359339215857541,0.30349566504518055,0.8101431494900098,0.8967197760290789
0.6714747575230042,-0.24357548179086197,0.29619178974644855,0.819145957091509,0.9044659698751629
0.6739617010693857,-0.23685738236000087,0.298471342506593,0.8138005383185352,0.8985866001914659
0.6764486446157671,-0.22535643782301634,0.295969125190096,0.8084721189795037,0.8899496695326531
0.6789355881621487,-0.21864946261366675,0.2934735528255743,0.7983723113074745,0.8782554646409833
0.6814225317085302,-0.2167364644290094,0.29577304032449137,0.7835011305619517,0.8650609273269929
0.6839094752549116,-0.20525224090910205,0.2932907925201853,0.7686469950291137,0.84791873097757
0.6863964188012932,-0.2033504128401441,0.28602682076939656,0.758598322701765,0.8358433751652499
0.6888833623476747,-0.21103098763105693,0.27876953963192674,0.7485667246389429,0.8261953008846097
0.6913703058940561,-0.20435195599319206,0.2667305569096752,0.7433406182474425,0.8157574312527462
0.6938572494404377,-0.19289013178410447,0.25948669024817805,0.7333432106805198,0.8014563057377839
0.6963441929868192,-0.18143392544507697,0.2570379505350262,0.7281513220803522,0.7932156864088236
0.6988311365332006,-0.17477174732146095,0.25938434854047054,0.7277649656564353,0.792128303475184
0.7013180800795822,-0.16332679770176844,0.26173749159709425,0.7082421377249482,0.7725212508431453
0.7038050236259636,-0.15667589005989152,0.2545205835998021,0.6983132708340385,0.7595850750409571
0.7062919671723452,-0.16439583777388644,0.25688724824799314,0.6931899739984875,0.7573172319720632
0.7087789107187267,-0.16733303420413403,0.2640490925221175,0.6832954526219019,0.7514086392712593
0.7112658542651081,-0.16069908257619325,0.266429319964927,0.6590529118173425,0.7288069142459623
0.7137527978114897,-0.15407079598084017,0.2640279406424053,0.6348275730092077,0.70459535271445
0.7162397413578712,-0.15702498741317356,0.2664217711437735,0.6297730606523206,0.7016063816235454
0.7187266849042526,-0.15998485649141192,0.26882241797993167,0.6486777889510016,0.7201690916677241
0.7212136284506342,-0.158162006058501,0.26165308422408895,0.6388693319766006,0.7082595428122768
0.7237005719970157,-0.14676803886185436,0.24491377947271697,0.6338665232772236,0.6952052833073987
0.7261875155433971,-0.14495657415496305,0.24254652980649194,0.6480345828312082,0.7069583071561807
0.7286744590897787,-0.14793921449432862,0.2449745379465691,0.6287010838443603,0.6907702861692933
0.7311614026361601,-0.13656235238014486,0.23783260317647326,0.6237500689612556,0.681379315616836
0.7336483461825416,-0.13476801010010203,0.23069754126399378,0.6427583539765482,0.6960761981983258
0.7361352897289232,-0.1425561932450769,0.2187809578987121,0.6617839311556697,0.7114389273208613
0.7386222332753046,-0.13598489070919384,0.22123647525452395,0.6520963891570943,0.7019025354249389
0.7411091768216861,-0.12463091453363823,0.22848729546623314,0.6376377528764756,0.6887098176593145
0.7435961203680677,-0.12285947998485114,0.2213798139108354,0.6375616436033003,0.6859944046590218
0.7460830639144491,-0.121093785632722,0.22864445905130015,0.627926052458788,0.6791414587037091
0.7485700074608306,-0.11454543327253536,0.22633922271005025,0.6039425835603591,0.6550547643198574
0.7510569510072121,-0.11279123456566936,0.22882932315493631,0.5943416639830055,0.6467818297358715
0.7535438945535936,-0.12061959775842135,0.21696115529459625,0.575181283994084,0.6264620816356344
0.7560308380999751,-0.11887691440083514,0.2098883404831864,0.5751918701006087,0.6237231145933947
0.7585177816463566,-0.11235159254990562,0.21718769331731025,0.5704314120028329,0.6206330399491632
0.7610047251927381,-0.11540884680872304,0.20534039839387663,0.5656883190399817,0.6127700673438247
0.7634916687391196,-0.12804868172499373,0.19350007671640412,0.5753278069094687,0.6203554061858589
0.7659786122855011,-0.13590589179112705,0.1816667358903925,0.5801962677845278,0.6229774662888752
0.7684655558318826,-0.1341920780458855,0.1698403834046318,0.5898705134787381,0.6283315146616278
0.770952499378264,-0.1372724547150992,0.16759783327188815,0.5947737422433654,0.6329996564004738
0.7734394429246456,-0.14035862264925814,0.15578547946646681,0.604482765330344,0.639819562178286
0.7759263864710271,-0.14823898924548162,0.1583453457289714,0.6142091837505568,0.6513838866982163
0.7784133300174085,-0.14654834852573922,0.15612382580074513,0.6000109849540216,0.6370747597447085
0.7809002735637901,-0.1496519143400743,0.1539093299083203,0.5906185926350638,0.6284219118273173
0.7833872171101716,-0.15754969048389117,0.1517018648416153,0.5860320102874965,0.625514890190152
0.785874160656553,-0.16066487401837004,0.15428984059463957,0.5718860311660627,0.613736253855782
0.7883611042029346,-0.16378587187213361,0.15688486040463623,0.5529690615291258,0.5976733675323833
0.790848047749316,-0.16212428423979053,0.15469852739279055,0.5436463139985594,0.5880197553160801
0.7933349912956975,-0.17004532450391818,0.16209605784556436,0.5391293876383987,0.5880910141891901
0.7958219348420791,-0.1683953827117357,0.169500651331973,0.544206687877228,0.5943470323396068
0.7983088783884605,-0.1667512687392777,0.162547103984926,0.5349361999462179,0.5834246177981738
0.800795821934842,-0.17468979236963372,0.16038903506382152,0.5161063287234011,0.567984954620452
0.8032827654812236,-0.17305734337118905,0.16781485375151517,0.5116590920936037,0.565602064844522
0.805769709027605,-0.1762191346618051,0.16088254919348044,0.4976524744646138,0.5519006825477761
0.8082566525739865,-0.1793867657855019,0.1539573369822831,0.48845168653335413,0.5426486187459956
0.8107435961203681,-0.1825602395141417,0.1566160292748764,0.48405672876301153,0.5405254280216958
0.8132305396667495,-0.18095115520692834,0.16407022815207828,0.47010239138359466,0.5297722328710437
0.815717483213131,-0.184136322091782,0.17631993889993058,0.46574228759562786,0.5309527139227864
0.8182044267595125,-0.1825389360232793,0.15984634344731052,0.4853416270082338,0.5426120267603602
0.820691370305894,-0.1857358060452825,0.15295667341291663,0.49059318243658545,0.5464203548936416
0.8231783138522755,-0.17936172450825816,0.16043933705851288,0.46713174302748506,0.5254745231105384
0.825665257398657,-0.17299350027253485,0.15835232260935728,0.4628413408224592,0.5188683031238788
0.8281522009450385,-0.17620794210687574,0.16106084473869808,0.46335676443022145,0.5212382619423931
0.8306391444914201,-0.17463984208705224,0.1637765047241473,0.4591012055116508,0.517779619960172
0.8331260880378015,-0.16350079883817226,0.15692250040874045,0.4692282753819601,0.5210876670706958
0.835613031584183,-0.1619444274957535,0.16444085276356857,0.4697959552066191,0.5234262423522885
0.8380999751305646,-0.1651823265027451,0.17675475940352925,0.47038104912697953,0.528947802092472
0.840586918676946,-0.1588492875706075,0.1699222078687117,0.4853487643390153,0.5382100667342411
0.8430738622233275,-0.14294531228101903,0.1630968154682817,0.48118027457050516,0.5277957845177996
0.845560805769709,-0.13662401540633773,0.16585539275718109,0.47224078648792656,0.5188308908643793
0.8480477493160905,-0.1207317850660024,0.1686211368956423,0.47289550649395196,0.516371389404345
0.850534692862472,-0.10484542921105294,0.16181724493057992,0.45920241416559193,0.49804040193430194
0.8530216364088535,-0.10333015902272669,0.15980893039729693,0.4455267153798399,0.48446885360726644
0.855508579955235,-0.10182076567042286,0.15301939011650534,0.45581042239244773,0.49147283061723773
0.8579955235016165,-0.10031725019467158,0.14623703075697714,0.43738109407295234,0.4719650848354041
0.860482467047998,-0.09881961354635443,0.14425025887475895,0.42854595211628776,0.46284455952527026
0.8629694105943795,-0.09732785658686421,0.13269386763207658,0.4293049913950018,0.4597642328537691
0.8654563541407609,-0.09105357676795406,0.11635626335998861,0.4252929965614971,0.4502262395613946
0.8679432976871425,-0.07999677477252487,0.11439106223823403,0.4165099619705632,0.43927821197359385
0.870430241233524,-0.06894585451479307,0.11722146041258075,0.41253268835974666,0.4343703726100033
0.8729171847799054,-0.0626892198201392,0.11527065391686131,0.3989959596078556,0.42001790166547914
0.875404128326287,-0.07080367774559365,0.10853864531376534,0.3711113659778267,0.3930870695746397
0.8778910718726685,-0.059770405376881774,0.11617905033562748,0.35282091739867383,0.37623486394783623
0.8803780154190499,-0.048743016234840786,0.11903825804085022,0.3345478003021114,0.35842463530852814
0.8828649589654315,-0.04250991379122254,0.11232786733751254,0.34502242742793854,0.3653287806611985
0.885351902511813,-0.04107109810949133,0.11041309030385582,0.34593756477788773,0.3654458705948422
0.8878388460581944,-0.03484976252468808,0.10371712230564878,0.36123522126475827,0.37744222404176103
0.890325789604576,-0.023845906924858662,0.10181677187917648,0.3669733723459565,0.3815818894076726
0.8928127331509574,-0.032001547712172285,0.09513523416892333,0.3727288164695146,0.386007231102107
0.8952996766973389,-0.030586264678101438,0.09803772081056827,0.3737131418716917,0.38756731892188867
0.8977866202437205,-0.01960005744891835,0.1105242333686669,0.3699263398589512,0.3865815118900187
0.9002735637901019,-0.018196538845253907,0.10386435337590338,0.37094520812898857,0.38564136884157024
0.9027605073364834,-0.026375708319783475,0.09242329213796552,0.35761612420897926,0.37030667724636307
0.905247450882865,-0.024983951957414596,0.08098945421029669,0.3586694985813139,0.3685475529172094
0.9077343944292464,-0.018809672358289065,0.08871645399985484,0.35974011159840913,0.3709950954896445
0.9102213379756279,-0.02221807867703607,0.09166227592155707,0.34646274336625993,0.3590710909946574
0.9127082815220094,-0.030420766701089896,0.08503851756254166,0.3332025936670586,0.3452259273901249
0.9151952250683909,-0.029052525491507164,0.07842198636205122,0.32953645871777937,0.33998284487111863
0.9176821686147724,-0.027690160625351345,0.08138948965070147,0.31631071456936866,0.3277856954969878
0.9201691121611539,-0.026333670953700816,0.07478741472880612,0.30310215695126175,0.3133010328361902
0.9226560557075354,-0.029771458562785014,0.06819256871033552,0.2851223713893347,0.2946715677478015
0.9251429992539169,-0.02842671549293435,0.06160495196062277,0.2719481531285446,0.28028386726640764
0.9276299428002984,-0.0222994403403442,0.050236161416890024,0.273156297172763,0.27863111749862257
0.9301168863466799,-0.02096643825727712,0.058028213830643605,0.27916998500431767,0.28590688284978744
0.9326038298930613,-0.02921611099132998,0.06582749596320392,0.2804123978660069,0.28951330408671566
0.9350907734394429,-0.027894843604389707,0.059268797789044037,0.2912487333634566,0.2985242659766368
0.9375777169858244,-0.03136784431658912,0.04314052245694766,0.29252536562214715,0.2973485091055596
0.9400646605322058,-0.034846707983080316,0.04617308961053812,0.28903068513196395,0.2947625895687805
0.9425516040785874,-0.033543029375492694,0.03963607894318777,0.2951298887870575,0.29966281856302546
0.9450385476249689,-0.03224520982276985,0.042683103245118925,0.30124615664446,0.3059588987955841
0.9475254911713503,-0.030953247250444738,0.04094895195831505,0.30737947516706043,0.3116361049939642
0.9500124347177319,-0.03924394614179094,0.029645221059563465,0.31831823390411706,0.32209536549954637
0.9524993782641133,-0.05232890093647746,0.023137119701309494,0.3292740155310998,0.33420804521325836
0.9549863218104948,-0.03668928606984645,0.021424646969701477,0.316304789209898,0.31914548232304557
0.9574732653568764,-0.030632325699692042,0.02450780184575896,0.31771776703494403,0.32013052216049936
0.9599602089032578,-0.043734823979921233,0.027598179885296226,0.3191477243465144,0.3233104766584198
0.9624471524496394,0.24961464743925418,-1.051483370530801,-3.0887485178471534,3.27235269450315
0.9649340959960209,0.5429582787078501,-0.603057041165266,-9.843721731538151,9.877111876215276
0.9674210395424023,0.7884120393542067,-0.12110466939268516,-15.133426595199232,15.154433687770414
0.9699079830887839,0.9668223189096712,0.3560665166834962,-18.574790858819625,18.603343361061047
0.9723949266351654,1.0686123136270114,0.7805724822152698,-19.95233638882405,19.99617346018031
0.9748818701815468,1.0602632032381836,1.1284712088529711,-19.280428411239537,19.3425056559455
0.9773688137279284,0.9800822173602425,1.3470902582217694,-16.769756688450293,16.852298143173385
0.9798557572743098,0.8376461657685835,1.4220644184064102,-12.827335519197467,12.933076000363924
0.9823427008206913,0.6233782450373191,1.362970493990502,-7.936793655570159,8.077065217947249
0.9848296443670729,0.3612204750625315,1.1841736927755475,-2.610490269802419,2.8891879507915688
0.9873165879134543,0.09426848910105551,0.9048276257811954,2.6056966424082724,2.7599374218760784
0.9898035314598358,-0.16311249943294337,0.548874307245387,7.204196311707673,7.22691588371193
0.9922904750062174,-0.4109224870070968,0.15940936458574795,10.797148051527568,10.806140600716395
0.9947774185525988,-0.6300078567290024,-0.21568317156118022,13.11640125808939,13.133293992492664
0.9972643620989803,-0.7916381849871057,-0.5668264972225738,14.037457427006226,14.071183116884505
0.9997513056453619,-0.8862366613727701,-0.8365597753233722,13.56510494332198,13.61974007831973
1.0022382491917432,-0.9185916853601646,-1.024883008732735,11.842995888153764,11.922698833436533
1.0047251927381249,-0.8934916563456615,-1.1078541838187672,9.144069232050898,9.254170430303516
1.0072121362845063,-0.8061481670073898,-1.080684900330818,5.784359575231505,5.939408254745989
1.0096990798308878,-0.6709264232273766,-0.9481635647586857,2.1182087442623327,2.4157741399373385
1.0121860233772693,-0.487826420849601,-0.7246553903323234,-1.456945804619882,1.6987616457926342
1.0146729669236507,-0.28079017224274244,-0.4436792036621955,-4.620281068515353,4.650020592284705
1.0171599104700322,-0.0689712863785531,-0.13875383145774745,-7.108434884579116,7.110123499095513
1.0196468540164139,0.12847662784756309,0.1709671094337808,-8.677198703457494,8.679833715901223
1.0221337975627953,0.30676517157733785,0.45675319542623205,-9.278688512139446,9.29498729731964
1.0246207411091768,0.4515291393875858,0.6946624061553637,-8.951211557587236,8.989472886155504
1.0271076846555582,0.5579801325715057,0.860752721159308,-7.761805506892891,7.8292951025083015
1.0295946282019397,0.6117529458569606,0.9454473298394444,-5.882852900401895,5.989663643981371
1.0320815717483214,0.6080591806875507,0.9248042115389299,-3.568139135110499,3.735855415350768
1.0345685152947028,0.5660524551833027,0.822765378707075,-1.06187280158003,1.4577146830410481
1.0370554588410843,0.485732774257561,0.6584844403761041,1.3917375094256226,1.6144569927215815
1.0395424023874658,0.3766769495386437,0.43674979552090853,3.56284841689963,3.609227722104203
1.0420293459338472,0.23409658276800255,0.19108026294210712,5.235981749594224,5.2446942483841195
1.0445162894802287,0.08193369568279274,-0.05937054861644109,6.291427402466621,6.29224099610299
1.0470032330266104,-0.06065809322666882,-0.2954490305065538,6.690878126719433,6.697672703298789
1.0494901765729918,-0.1984671819981545,-0.49321317085471783,6.443910706558658,6.465804949759631
1.0519771201193733,-0.32191675863567326,-0.6287209578826753,5.612774362515411,5.657044854593402
1.0544640636657547,-0.41185320442973117,-0.7019723965082298,4.321967558087453,4.397930408796729
1.0569510072121362,-0.45391130391867085,-0.6938138784623251,2.710353966536834,2.8343309252262747
1.0594379507585177,-0.47203306813110113,-0.6233990221324641,0.9694696974534018,1.245517182733889
1.0619248943048993,-0.4566416847814708,-0.5050930426795786,-0.7187259464084903,0.9900543399653146
1.0644118378512808,-0.40773714815317186,-0.33889594539717294,-2.205792485729951,2.2686164360449834
1.0668987813976623,-0.3253194524581464,-0.13917294563276217,-3.352866248026287,3.3714854192325436
1.0693857249440437,-0.21896539847777818,0.0509803212514548,-4.073755997528085,4.079954995619619
1.0718726684904252,-0.09346338360233175,0.2315638496834036,-4.3540965484610465,4.361251422914642
1.0743596120368066,0.04160979152832944,0.3834240207177113,-4.184311118561798,4.202047702172626
1.0768465555831883,0.16231211638370768,0.4826188119967054,-3.6170721689198695,3.652735579807654
1.0793334991295698,0.2638551937846031,0.5387250243132984,-2.7385709840555075,2.8035005350131867
1.0818204426759512,0.35581583658260524,0.546954248408217,-1.6541524619569667,1.7781969032739515
1.0843073862223327,0.41425203445660297,0.4929412682905734,-0.4595846941584867,0.7910840240708337
1.0867943297687142,0.439163793756304,0.3910512878007104,0.7062685977376102,0.9190219146392941
1.0892812733150956,0.4497047341816352,0.2508611073683271,1.723697305225846,1.7989713847580462
1.0917682168614773,0.417144442298091,0.08673593065342278,2.501721739539171,2.5377439330021847
1.0942551604078588,0.36063653794270384,-0.07259382881276055,2.9876694382905438,3.0102320922108863
1.0967421039542402,0.2945462377003274,-0.22712817751022385,3.176751972114504,3.198452405069665
1.0992290475006217,0.20929674162210682,-0.36250191204708004,3.064180911465021,3.0926392321895593
1.1017159910470031,0.11925326642832185,-0.4547730224795381,2.6595330365773826,2.700769485938315
1.1042029345933846,0.03399262558623056,-0.503941515553771,2.0298459673519726,2.091742622998332
1.1066898781397663,-0.04648517401051999,-0.5100073981040252,1.2756761467537316,1.374633787203004
1.1091768216861477,-0.12696852872190445,-0.46818227373197274,0.4688495976486493,0.6746373795884314
1.1116637652325292,-0.17872701159920945,-0.39283135940797553,-0.3427496738739162,0.5511235438176978
1.1141507087789106,-0.2065490188698117,-0.2839546622285063,-1.048988418736041,1.1061959365499976
1.116637652325292,-0.22958815665613175,-0.16549420597838216,-1.5780406145957828,1.6032190228421728
1.1191245958716736,-0.22390240113220095,-0.03744999792727244,-1.9059642724872567,1.9194360097631271
1.1216115394180552,-0.18949174500831922,0.0810243412878151,-2.032759420218036,2.0431796117308405
1.1240984829644367,-0.14550979421103094,0.17077519094411997,-1.9392724724853583,1.9522077216814842
1.1265854265108182,-0.09674494464122685,0.24137935015533873,-1.6446570707188997,1.6650887229396274
1.1290723700571996,-0.028831978854121476,0.288048407989149,-1.2159508897204248,1.249935892180723
1.131559313603581,0.03907549741701982,0.29162874346754464,-0.7010379911784383,0.7602818448380486
1.1340462571499625,0.1021890884637191,0.26169715544998473,-0.14780243694839612,0.31744853337122836
1.1365332006963442,0.16050880196134393,0.19825363607126034,0.3910833076277207,0.46691940763645723
1.1390201442427257,0.2044578390079278,0.11566338734334325,0.8581583737228673,0.8897285099929104
1.1415070877891071,0.2244594007644511,0.023503207874532084,1.215115505626997,1.23589648247217
1.1439940313354886,0.2348787050561349,-0.0782269104505442,1.4428010607482769,1.4638860462836023
1.14648097488187,0.23571575980964127,-0.18473857250964043,1.526849799653105,1.555943626966049
1.1489679184282517,0.2221821696934002,-0.27687817330193276,1.467261692707698,1.5095970701707595
1.1514548619746332,0.18948953943764113,-0.34028051122889025,1.2736135167588571,1.33183651472294
1.1539418055210147,0.13763787715438436,-0.3653687880939853,0.9554820484941935,1.0321746371305067
1.1564287490673961,0.08578080429808177,-0.37129662570385635,0.5799049042868685,0.693908660171537
1.1589156926137776,0.029129925782564903,-0.3484872260242282,0.1899776837516267,0.39797414438854234
1.161402636160159,-0.02752634677716226,-0.3017290010623679,-0.18078082029386344,0.3528169423867186
1.1638895797065407,-0.06982279506514988,-0.24538716954643025,-0.5084286218275853,0.5688494960727453
1.1663765232529222,-0.10733621730700349,-0.16988493368293645,-0.759446928340969,0.7855835991190021
1.1688634667993036,-0.1400666050280257,-0.0704338990782416,-0.9003169474787445,0.9138655228757048
1.171350410345685,-0.1584371430534821,0.0050818920586350735,-0.9501923235611311,0.9633242474267668
1.1738373538920666,-0.16244782279017,0.06623923728358339,-0.8947078778173427,0.911745095031276
1.176324297438448,-0.147310232265779,0.12740333739431486,-0.767382464829863,0.7917119187165009
1.1788112409848297,-0.13217797605106907,0.15026695658696676,-0.5825813260490946,0.6159968969532135
1.1812981845312112,-0.10747423873673656,0.15877210214395854,-0.3498812997532674,0.39896894155847323
1.1837851280775926,-0.08277581813684254,0.152918764668728,-0.08364762768808376,0.19295831226945814
1.186272071623974,-0.05329430204692909,0.11834172472671067,0.17781243165307536,0.22014156193763473
1.1887590151703555,0.0001239317556759323,0.06940618272851573,0.42013363623324373,0.4258280238013836
1.191245958716737,0.04396006902717953,0.010900532367783988,0.5858551139885222,0.5876032027323199
1.1937329022631187,0.08779092546326961,-0.06196363937845373,0.6845536391962685,0.6929360895029032
1.1962198458095001,0.1172513002144226,-0.1348211323275157,0.7066523727104705,0.7288910624924577
1.1987067893558816,0.12755279912780487,-0.1885183430516837,0.6856701051268441,0.722462715506446
1.201193732902263,0.1426374480281996,-0.22305528147938425,0.6072415936978572,0.6624510950195178
1.2036806764486445,0.14814004623332727,-0.24322036093387256,0.47136680549782284,0.5507161542900643
1.206167619995026,0.1440606030769795,-0.24901359149225843,0.2971993207443031,0.41362865272808597
1.2086545635414077,0.1303991279477662,-0.2500117899460763,0.1134695261583154,0.3039492738076068
1.2111415070877891,0.1167324369294428,-0.22706135323842336,-0.055880594995358024,0.2613540909627887
1.2136284506341706,0.09348373287871037,-0.184950694987009,-0.22042788282926118,0.30254655743820025
1.216115394180552,0.07022983198742011,-0.13325663220256168,-0.35144195102740383,0.38236239913058684
1.2186023377269335,0.04697074386038014,-0.0863443852884469,-0.41540401008648686,0.42687480043400466
1.221089281273315,0.014129671515047182,-0.03942556143874043,-0.43625611047897195,0.4382618126669537
1.2235762248196966,-0.004351358735972255,0.007499828760581195,-0.43315189948795485,0.4332386753099387
1.226063168366078,-0.003683933808670048,0.04006656469138292,-0.3821493946436778,0.384261708736383
1.2285501119124596,-0.02217527044951162,0.06306303894593634,-0.27367182356626785,0.28171786687161343
1.231037055458841,-0.02630653554824769,0.06691243408509706,-0.15081485052721177,0.16707611076179893
1.2335239990052225,-0.006500912544477044,0.06597994920118078,-0.0327321233233242,0.07393921461413179
1.236010942551604,0.018087995251729216,0.036323556754271014,0.085364726724249,0.09451832053212243
1.2384978860979856,0.02830658458138824,0.0018852623382188405,0.18432205156794268,0.18649245464351236
1.240984829644367,0.043308478798792516,-0.03254654180335992,0.24498620303633878,0.2509046460259067
1.2434717731907485,0.0774588979883864,-0.07654867345639804,0.2817223560773794,0.30203818665741466
1.24595871673713,0.11160423904256167,-0.11575593387348615,0.28016526559533617,0.32302866505203126
1.2484456602835114,0.13137930222387395,-0.1597451409766535,0.25946850961587664,0.331817628526224
1.250932603829893,0.14157250112563396,-0.18936269283351947,0.2052668428027058,0.31310617890153525
1.2534195473762746,0.15654905603098396,-0.20939700418037388,0.13671384294297795,0.2950345524784257
1.255906490922656,0.17630897731101597,-0.2150596831796059,0.06338628106548683,0.2852250750496556
1.2583934344690375,0.1864870654244563,-0.2063507413802661,-0.00992747523799764,0.2783102743403699
1.260880378015419,0.19187173415953757,-0.1880585937176873,-0.09280426845232093,0.2842418499859457
1.2633673215618004,0.1828861873914947,-0.1697600585131065,-0.17087892457543674,0.3024325410220072
1.2658542651081819,0.16431883900412525,-0.13708993755141474,-0.22020946307830513,0.3070611330968963
1.2683412086545636,0.1505349095691519,-0.11399025924481965,-0.24079592014609652,0.30600198260909883
1.270828152200945,0.13195760310373528,-0.090884228827814,-0.2470035420364738,0.2944206206179748
1.2733150957473265,0.12295214027326429,-0.05819505159894689,-0.24840917179739286,0.28321548238302086
1.275802039293708,0.10436491854729746,-0.04465315948296,-0.2162824260238594,0.24426221296377568
1.2782889828400894,0.08577275536330636,-0.0311049512647803,-0.16498855130222445,0.18853568791240746
1.280775926386471,0.08154087152479295,-0.027127245714136716,-0.11846960096697323,0.14635521016462585
1.2832628699328525,0.06772726131816487,-0.03272005502267605,-0.057571998576273486,0.09472126976773683
1.285749813479234,0.053908742317098746,-0.043094988123893785,0.012915815604666037,0.07021501828201453
1.2882367570256155,0.04966213214003434,-0.06304046065368851,0.05947498128433004,0.0998884400063135
1.290723700571997,0.06456424844986097,-0.08776808166872963,0.09168226795058132,0.14239879421633583
1.2932106441183784,0.06509627907078497,-0.12206626692731382,0.1239028483091662,0.18571379832838483
1.29569758766476,0.07041184839425874,-0.15156981896712107,0.13219466840195615,0.213088405996021
1.2981845312111415,0.08051096757397247,-0.17627875034699647,0.12134609409234365,0.22865058118243187
1.300671474757523,0.08102843784585578,-0.2057698803262782,0.09614549114436954,0.2411447840128884
1.3031584183039044,0.09111788373087432,-0.21610120498157936,0.06616962854407049,0.24368138884975188
1.305645361850286,0.10599091319096487,-0.2168495436907878,0.017053258578609842,0.24196820432880528
1.3081323053966674,0.11128232758965295,-0.2223801192108028,-0.036838446639247735,0.2513836609741659
1.310619248943049,0.10699213829329607,-0.20875092779433402,-0.07635191177170952,0.2466857959890718
1.3131061924894305,0.11706237331138569,-0.18553878899421372,-0.1110639814970753,0.2458931667466916
1.315593136035812,0.10797422085092279,-0.16710892574111114,-0.14576309726658465,0.24663881680599237
1.3180800795821934,0.1036697090035894,-0.13909614110098056,-0.15650728070179376,0.23364433215197597
1.3205670231285749,0.09936044597980809,-0.10628885147778888,-0.14808497343733507,0.20760293237743552
1.3230539666749563,0.08546963670998364,-0.08305227997250242,-0.13964982715894791,0.18358870943903804
1.325540910221338,0.06678569612543273,-0.059809633140513796,-0.12641347703996964,0.15497705830443556
1.3280278537677195,0.062462249158065974,-0.04134932755376042,-0.13231797826375846,0.15205047461563856
1.330514797314101,0.0581340975369361,-0.027671376519063262,-0.1429981595382923,0.15682395227207055
1.3330017408604824,0.044224446350427216,-0.028352600038711984,-0.11057002641546987,0.12241487787632142
1.3354886844068639,0.025521710686553623,-0.03860460820848344,-0.05897563433697961,0.07496531822614895
1.3379756279532453,0.016391112312321043,-0.05363901117820813,-0.026522248789504488,0.062042257888179984
1.340462571499627,0.0024674531109281084,-0.0782442257919862,0.010732107821226577,0.07901534871737503
1.3429495150460085,-0.006672448395141917,-0.09805505566594164,0.03842218644496498,0.10552525726312348
1.34543645859239,-0.001451773645991139,-0.1130715144300205,0.04697114127073121,0.12244820592598538
1.3479234021387714,-0.0010241239665014223,-0.14723563236821446,0.04116733636843861,0.15288600280090697
1.3504103456851528,-0.005389487363532841,-0.16702859997286845,0.025799135728993505,0.16909522520550727
1.3528972892315343,-0.00018264184655580884,-0.15808522106928713,-0.003921903375337266,0.15813396790270892
1.355384232777916,0.019384827970467366,-0.16350113937784538,-0.03841901378834933,0.16906926022718505
1.3578711763242974,0.029370917587507983,-0.18327636878703268,-0.05375021846889361,0.19324068966226132
1.360358119870679,0.03456404246190947,-0.17431529335307694,-0.04033875041174717,0.18222982553045258
1.3628450634170604,0.04454102140649585,-0.16534834698703582,-0.05085708584971904,0.17863488354855223
1.3653320069634418,0.054513463308006216,-0.16116394704816894,-0.042209634682338404,0.17529172476188032
1.3678189505098233,0.0692697837283367,-0.14739689766385533,-0.05270366332641707,0.17117775704431898
1.370305894056205,0.0744447849823453,-0.12404721297139387,-0.06797400174629509,0.15984430540511382
1.3727928376025864,0.07961528602034496,-0.11026852043792301,-0.07365547997627075,0.15467019783463393
1.3752797811489679,0.09435810582622006,-0.10127243097721994,-0.08890175136179224,0.16450859797087158
1.3777667246953493,0.09473124017492596,-0.09227055555086983,-0.09455924275376226,0.16257094967093783
1.3802536682417308,0.09509991143684349,-0.09283971512881761,-0.08105118771066344,0.15566791862745735
1.3827406117881123,0.09546413205403548,-0.10297992408740964,-0.04837762649756705,0.14852158098881482
1.385227555334494,0.10061231782117103,-0.11311439020901304,-0.0492110359679252,0.1591836355620188
1.3877144988808754,0.10575607792427028,-0.12324312796285986,-0.040455826632923575,0.1673615562683
1.3902014424272569,0.10131861826069816,-0.12857774854373538,-0.036477248910449234,0.16771490546432655
1.3926883859736383,0.1016651613607204,-0.1386950731528267,-0.046852149960052714,0.1782337013789719
1.3951753295200198,0.10679571982468467,-0.14880671307546312,-0.0667921670413385,0.19496142492112079
1.3976622730664012,0.08797988636176424,-0.17327789292290996,-0.06277851755200636,0.2042225032802702
1.400149216612783,0.09310170683651531,-0.18816661078823005,-0.05875325879250859,0.21800584086244382
1.4026361601591644,0.11258438729980791,-0.19347288140995822,-0.06908164148067009,0.23426325638991863
1.4051231037055458,0.11769752055100957,-0.19398512289045833,-0.07461009314915223,0.23885058142363128
1.4076100472519273,0.11322952266110398,-0.19449175337522195,-0.09449226794914267,0.24408350135804385
1.4100969907983087,0.118334019691123,-0.194992787732164,-0.10478619020405056,0.25100851208932995
1.4125839343446904,0.1330110244496423,-0.18591143423092094,-0.11028030421321766,0.25380453010200826
1.4150708778910719,0.1333185331721518,-0.18640132110496266,-0.11576305432906331,0.25674962228685594
1.4175578214374533,0.13362176868480252,-0.1820972533871381,-0.11165767499516832,0.25195559756219166
1.4200447649838348,0.1482859538415835,-0.16821084279210874,-0.09796420734685185,0.2447051238953462
1.4225317085302163,0.14858068164120508,-0.16868412099719343,-0.07947109588987367,0.2384244255849187
1.4250186520765977,0.15844798163302076,-0.1595750865169916,-0.08969720510102874,0.24210650491760738
1.4275055956229794,0.16352265683077727,-0.1456721578279927,-0.11427736630215968,0.2470209572328181
1.4299925391693609,0.16380472023574022,-0.14612896340724157,-0.11969279758106843,0.25002405106462594
1.4324794827157423,0.16887099151606166,-0.14658030852883508,-0.12030875027490673,0.25392399259765924
1.4349664262621238,0.16435627376427908,-0.15660301510727592,-0.11612526580515059,0.25499522823905
1.4374533698085052,0.155048983379813,-0.1570434851736504,-0.10714238563756773,0.2453208802419993
1.4399403133548867,0.15531434342802775,-0.1574785407189907,-0.10772536124219023,0.24602192893362684
1.4424272569012684,0.16994077035866623,-0.17227340709232486,-0.08914381424859918,0.2578848809839064
1.4449142004476498,0.16062105076335265,-0.16790927647685505,-0.08491660949183277,0.24739336620631702
1.4474011439940313,0.14650881110183223,-0.1587513742958131,-0.09983219192548987,0.23797751388719385
1.4498880875404128,0.14196927453760477,-0.16874173264957726,-0.09558337665982464,0.24034398087742725
1.4523750310867942,0.1326372443360435,-0.17393835047153372,-0.09132381868735351,0.23703845301861473
1.4548619746331757,0.13766634702814595,-0.16476443669175334,-0.10141876971783859,0.23745548962596058
1.4573489181795574,0.12832617596490786,-0.16995042683816575,-0.1115030615757604,0.24038237822481714
1.4598358617259388,0.11419355108264179,-0.16555431995024028,-0.11199992944154502,0.23020074751825093
1.4623228052723203,0.10963369566046582,-0.16594134166453145,-0.1029094151709451,0.22393397202841367
1.4648097488187017,0.10985821971844062,-0.1711115076908638,-0.10338517393471314,0.2281150382887034
1.4672966923650832,0.11007873329850587,-0.16669962381194292,-0.07990842441296131,0.21515447565832513
1.4697836359114647,0.10550684646416708,-0.16228251244546454,-0.06120962848169498,0.20301213538922447
1.4722705794578463,0.10093097594080946,-0.15786018940154767,-0.06165403808689085,0.19725141752260375
1.4747575230042278,0.09635113515445826,-0.1486442672026702,-0.0668764852826218,0.1893439296664359
1.4772444665506093,0.09176733755176791,-0.15378837500513853,-0.06251180215196506,0.18968350992204794
1.4797314100969907,0.08717959659972485,-0.1493505121143497,-0.04856003076700688,0.17962164156972268
1.4822183536433722,0.08737632910564586,-0.13533069446877288,-0.06811684310978627,0.17489689553740434
1.4847052971897536,0.09235754857624567,-0.13088255131925797,-0.08766345806355424,0.18260624550795712
1.4871922407361353,0.09254646189701554,-0.13600609866615132,-0.08804630449776774,0.1865868650783229
1.4896791842825168,0.08315467929285736,-0.1315477392589215,-0.07884223122810852,0.17445803454543926
1.4921661278288982,0.0833358276090177,-0.12708429579889424,-0.07920489373429618,0.1713729663437087
1.4946530713752797,0.08830151710766476,-0.13219259101700231,-0.08913433423729344,0.1822552292342505
1.4971400149216612,0.08847495474882805,-0.1516610443530837,-0.09426538501869608,0.19928585701147536
1.4996269584680426,0.06949094419009305,-0.15197084871331423,-0.09938649166198843,0.19442686261922287
1.5021139020144243,0.06965672563004566,-0.1522756335557678,-0.10449769645005702,0.19738210801305722
1.5046008455608058,0.0698186994407799,-0.16215222172597477,-0.10959904168460177,0.20779784344514918
1.5070877891071872,0.06040007265196834,-0.16244701617529111,-0.10511376304458686,0.20269707699424752
1.5095747326535687,0.0557660689114956,-0.16273683980426767,-0.1101955161478223,0.20429435932107015
1.5120616761999501,0.04633989528202809,-0.15823330557946136,-0.120055940026635,0.20395733285427986
1.5145486197463316,0.046486775443838946,-0.15851323645493087,-0.11554146376756336,0.20158694469665908
1.5170355632927133,0.05141831981168932,-0.1587882454499825,-0.11101733971360161,0.2004554818966702
1.5195225068390947,0.05155773549546605,-0.16863515557066755,-0.10648361026015074,0.2059970267693186
1.5220094503854762,0.05169343958112893,-0.1689003699265923,-0.09715191449475213,0.20158879221589474
1.5244963939318577,0.06619065581009753,-0.15479550161335576,-0.10696431143837515,0.19945980587022272
1.5269833374782391,0.08068418801645039,-0.15026258367311263,-0.12155563356014376,0.20943866476417633
1.5294702810246208,0.08080884004850009,-0.14572482593013625,-0.13134911665925486,0.2121753613629988
1.5319572245710023,0.07614143237005822,-0.1459706481935661,-0.12676799654378534,0.20778612274437183
1.5344441681173837,0.08104718877887962,-0.14621166365547023,-0.11738912231103349,0.20427115174398583
1.5369311116637652,0.08116091316418461,-0.1464478888514127,-0.09842413310446751,0.19421994735877665
1.5394180552101466,0.07648261938916723,-0.141890937019451,-0.07466147471438234,0.1776428013835978
1.541904998756528,0.08137753129070002,-0.1373292280607017,-0.07962001285828535,0.178384320853237
1.5443919423029098,0.08626885611653756,-0.15670479517959235,-0.09414617673470183,0.20214403518703083
1.5468788858492912,0.09115660776720502,-0.15213362179755752,-0.09429799222542812,0.20086382789993132
1.5493658293956727,0.10082920347539415,-0.14755774116203346,-0.09444071177745528,0.20213575460901637
1.5518527729420541,0.0961330438837884,-0.14297716993984633,-0.08978597455836201,0.19428215172208926
1.5543397164884356,0.09143335288852228,-0.15275713477933683,-0.07554541973670581,0.1933957359654669
1.556826660034817,0.09151854775607027,-0.15774403910686896,-0.05171908980146256,0.18956183874140192
1.5593136035811987,0.09638864244327106,-0.1483610930092718,-0.051825850483032454,0.18435754144935917
1.5618005471275802,0.10125524759702786,-0.1581271364756489,-0.06628893762737853,0.19912568821648902
1.5642874906739617,0.10611837719465023,-0.15352336302984648,-0.0711663771170521,0.1997377936355225
1.5667744342203431,0.11576644854355317,-0.14891499941756248,-0.0904002280343974,0.2091644063615768
1.5692613777667246,0.12541107232003246,-0.1538788690825572,-0.10962532289507543,0.2267693868899344
1.571748321313106,0.1111102459283485,-0.15883818220534085,-0.12405330085034905,0.2301396887293071
1.5742352648594877,0.1111712099457497,-0.1542161489840641,-0.1432610110065351,0.23804490291306718
1.5767222084058692,0.12080557507530393,-0.1543779962357119,-0.14809488254137193,0.24567996850775425
1.5792091519522506,0.125648145387806,-0.15453533751292747,-0.13855495790629035,0.24262337756292887
1.581696095498632,0.13048733824335612,-0.15468818970520948,-0.13858329614589593,0.2452768057659998
1.5841830390450136,0.13532316768951358,-0.15962497303855283,-0.13381472973306963,0.2483925796488643
1.586669982591395,0.1449440511016351,-0.16455730111414635,-0.12424930109157906,0.25204319495172073
1.5891569261377767,0.1449847925810256,-0.16948519086895342,-0.1242522625952418,0.25531244537563286
1.5916438696841582,0.1498106161577759,-0.16962025593472063,-0.11467004336398112,0.25369956795790943
1.5941308132305396,0.15463313258735734,-0.16017410995793346,-0.11465629906770403,0.25042607314434767
1.596617756776921,0.159452355951896,-0.16508878652132797,-0.11942266876140728,0.2587298495879274
1.5991047003233025,0.16426830033957873,-0.17478749597947152,-0.12896919480624547,0.2723376515581331
1.601591643869684,0.16429257652405727,-0.18448185202089773,-0.13371911290777838,0.2809028401116956
1.6040785874160657,0.1643136019251037,-0.18938346834744868,-0.13367246539642075,0.28413621005790135
1.6065655309624471,0.16433139064739155,-0.1799155553535945,-0.13361769790632216,0.277899446210465
1.6090524745088286,0.15476915015990234,-0.18002014668858157,-0.11440123945268432,0.26353061803765276
1.61153941805521,0.14520370121752113,-0.18969725941232696,-0.09996514891534325,0.258963696439253
1.6140263616015915,0.15000026789981868,-0.1993701039559994,-0.09509787187390195,0.26700585004150834
1.616513305147973,0.1547936543685855,-0.20903869740291547,-0.09501104724757425,0.2769212009647682
1.6190002486943547,0.15479547143005412,-0.21870305684756497,-0.09491631393502686,0.28425652446467176
1.6214871922407361,0.15479413653462126,-0.22357479607494035,-0.09481371413389716,0.2879870735524678
1.6239741357871176,0.1500012604953237,-0.21407712556019476,-0.09470329001970512,0.2780253711064113
1.626461079333499,0.14520526076880846,-0.2093636757104651,-0.08500827710444447,0.268596581583237
1.6289480228798805,0.1404061514941246,-0.20464606034109512,-0.0848823307983082,0.2622954583523619
1.631434966426262,0.135603946812759,-0.19034748995653095,-0.08953708988548925,0.25027482452118793
1.6339219099726436,0.2840275671183632,-1.674815027609346,1.299241173085976,2.138622140872738
1.636408853519025,0.7101755128846052,-1.315743172884267,-6.649359424757523,6.815387745073949
1.6388957970654066,1.0644943558758366,-0.8992063814290774,-13.716886239895668,13.787483036012535
1.641382740611788,1.3326189002796318,-0.44914668702458194,-19.458017805538447,19.50876886942123
1.6438696841581695,1.5193375635658763,-0.008659736740550539,-23.504047107992232,23.553103661254937
1.646356627704551,1.5863431333225184,0.38873562898670144,-25.663438056387385,25.71535830588241
1.6488435712509326,1.5336356237004443,0.7382509896355081,-25.86436464283018,25.92030885478151
1.651330514797314,1.3851570654524412,1.0159443113964706,-24.20738337892907,24.26825525237204
1.6538174583436955,1.1361190694094077,1.1882967538132254,-20.898395649307794,20.962961537674147
1.656304401890077,0.820040472964479,1.2744619129468897,-16.253436114925286,16.323936568328413
1.6587913454364585,0.47522851683057354,1.274439771571711,-10.684307503114038,10.770536926990765
1.6612782889828401,0.11604842511822105,1.193018715776959,-4.641119767735052,4.793407305000024
1.6637652325292216,-0.23834617474266828,1.030198728326713,1.4164403307420415,1.7676033292039997
1.666252176075603,-0.5544364453627584,0.7955565986209909,7.081358468409174,7.147443447252046
1.6687391196219845,-0.798703549354186,0.5178227293368298,11.941831918071749,11.979708564829364
1.671226063168366,-0.9663590692527808,0.22093911982712378,15.686614422297238,15.717904948790752
1.6737130067147474,-1.0478261842762588,-0.09509424716054271,18.095439386778075,18.126000916607538
1.6761999502611291,-1.0431048802852592,-0.39197016231925685,19.077327106891502,19.109843482947756
1.6786868938075106,-0.9617719497837197,-0.6649002395871388,18.637065944459923,18.67370677262931
1.681173837353892,-0.8038273786377947,-0.8899424796237911,16.865635521110278,16.908216866441695
1.6836607809002735,-0.5836363626777488,-1.0623084963722194,13.968937138196988,14.021424161482434
1.686147724446655,-0.3251409043778656,-1.1819983070976872,10.205544533638433,10.278909272571616
1.6886346679930364,-0.05228300621608595,-1.220281509145172,5.8819154785973105,6.007391295035078
1.691121611539418,0.2253605392866735,-1.1963117330640323,1.3667569874422902,1.830293363932835
1.6936085550857995,0.47905932632407955,-1.1100889961233045,-3.028684765259116,3.2610928880920875
1.696095498632181,0.6944481590463151,-0.980766928873873,-7.007528814857066,7.109825743675268
1.6985824421785625,0.8475850349582649,-0.7987687419450193,-10.301624616579643,10.367251402156374
1.701069385724944,0.9336815648411362,-0.5880364692081574,-12.685917255493116,12.733815012275818
1.7035563292713254,0.9623145694318967,-0.3581469345733854,-14.035908286345027,14.073416073575533
1.706043272817707,0.9143304495402016,-0.1378305752313258,-14.308502120282204,14.338348243941676
1.7085302163640885,0.813671235852863,0.07291259155024044,-13.551582831490913,13.57618408702608
1.71101715991047,0.6651253457695157,0.2549289352236839,-11.860918527313462,11.882288028791722
1.7135041034568514,0.46869279336326297,0.40343003520400833,-9.404103364848277,9.424414508318597
1.715991047003233,0.2531040126227059,0.5184158742284777,-6.410980744309795,6.4368851755929875
1.7184779905496144,0.05187784085007663,0.5807328217554408,-3.1257592758239996,3.1796718338588144
1.720964934095996,-0.1541393211827592,0.5999576671677542,0.21214083385359928,0.6547609228689171
1.7234518776423775,-0.3266402328672825,0.5760903932106105,3.372876184657505,3.4372762094290468
1.725938821188759,-0.46562488016496806,0.49476577267152155,6.121814973254779,6.15940080410443
1.7284257647351404,-0.5519396357636243,0.37513740158378495,8.27699783288657,8.30385805256827
1.7309127082815219,-0.5903728889605189,0.24593568262523613,9.733079849971624,9.75406929819199
1.7333996518279033,-0.5761362224204306,0.09758379191536504,10.40865812758383,10.425047700617316
1.735886595374285,-0.5092296221368136,-0.06034148114044724,10.294155818654597,10.306920001685668
1.7383735389206665,-0.40880668739299064,-0.21826334713205187,9.437456916014165,9.448828225657513
1.740860482467048,-0.27486740419984834,-0.37618182328479,7.943906252390912,7.95755687386756
1.7433474260134294,-0.12177696853832243,-0.5101549102169329,5.942790677170583,5.965890436066558
1.7458343695598109,0.060041440202902696,-0.6153942218222412,3.596915863037193,3.6496737865955136
1.7483213131061923,0.2370690127427746,-0.6727461620274533,1.1121831126143196,1.3212646938861186
1.750808256652574,0.3805753431107747,-0.7061527646357353,-1.3246598846985478,1.5486165209360727
1.7532952001989555,0.5049256552091167,-0.7108256435216771,-3.546019052724219,3.6516399240696678
1.755782143745337,0.5957547530079923,-0.6771880092325615,-5.3986655251898785,5.473490365247177
1.7582690872917184,0.6434858437873043,-0.6100282822692971,-6.78683127560532,6.844507820132696
1.7607560308380998,0.6529073447772279,-0.5189232864454989,-7.624325084062215,7.669804584573178
1.7632429743844813,0.6144424632360374,-0.41344984556686804,-7.877628167115142,7.912364112877561
1.765729917930863,0.5472448263327013,-0.28881957346995524,-7.565894177781201,7.591155930117017
1.7682168614772444,0.4561028512638403,-0.17376290722498178,-6.72264197897694,6.740336678264764
1.770703805023626,0.34101655189412455,-0.05391465401054374,-5.438851273400581,5.449798368082433
1.7731907485700074,0.22113955535760949,0.056359959081996536,-3.8390205869299026,3.845797474491227
1.7756776921163888,0.09647187549501024,0.1379073016503729,-2.0715904619810246,2.0784158122908822
1.7781646356627703,-0.032986473865262544,0.20030416322389577,-0.2419058110236385,0.31579785729148485
1.780651579209152,-0.13850505898550902,0.2291853167403377,1.5303232435766247,1.5535761296456734
1.7831385227555334,-0.2152954627422854,0.2389159550696056,3.0822909496352437,3.0990241154382083
1.7856254663019149,-0.2633576713454917,0.2247076578109688,4.3230176048385065,4.336857388280029
1.7881124098482963,-0.27790326769791085,0.1913488112151973,5.199830733501049,5.210766186542311
1.7905993533946778,-0.2493554313954408,0.13883939822392266,5.640904246722815,5.648119618984807
1.7930862969410595,-0.1968677619694963,0.06717940179022763,5.641449702155214,5.645283405611708
1.795573240487441,-0.13959385896537801,-0.014054388480401858,5.230197480759635,5.232078904129872
1.7980601840338224,-0.048803288739314055,-0.10007358629079999,4.4598199801670155,4.461209560103828
1.8005471275802039,0.04677354249438881,-0.1908782086517502,3.3925664047178845,3.3982538258988257
1.8030340711265853,0.14234824510852012,-0.26731465928022313,2.133781588704313,2.1551668191221482
1.8055210146729668,0.24749763942198666,-0.3389597618020965,0.7888103664892103,0.8935158621542385
1.8080079582193485,0.33349131917635194,-0.4010251298692089,-0.5657328474173866,0.7694746710578481
1.81049490176573,0.39554089469949305,-0.4487223771198745,-1.8101380085503127,1.9064112833033373
1.8129818453121114,0.4384347829446149,-0.4676863105380935,-2.863002298936898,2.933894631318308
1.8154687888584928,0.46696140084931126,-0.4674937536953818,-3.65249970717269,3.711786291063096
1.8179557324048743,0.466755552054123,-0.4577215301489521,-4.145111448342987,4.196345870363803
1.8204426759512558,0.4378172501445458,-0.4240044468398838,-4.3073187374605375,4.350225100100312
1.8229296194976374,0.38972331533045895,-0.3711309239756271,-4.177428839269214,4.211951344970797
1.825416563044019,0.32247376116478804,-0.32783139835012953,-3.7698070018377496,3.797750331905573
1.8279035065904004,0.23128019786340548,-0.27495227353873064,-3.0988184731598576,3.119577729796878
1.8303904501367818,0.14487305886760943,-0.21249356638238304,-2.250654550959358,2.2653007806235426
1.8328773936831633,0.058463954359498915,-0.15003210034673442,-1.2923529196037276,1.302345474097438
1.8353643372295447,-0.023158698855515913,-0.09235629556083813,-0.2861628600633832,0.3015877867919336
1.8378512807759264,-0.0856296773487617,-0.04425457213731532,0.6913011368058584,0.6979886607581688
1.8403382243223079,-0.13373737099048932,-0.015303753492310612,1.5682129835457097,1.5739796221780438
1.8428251678686893,-0.16748176634848977,0.00407295025631127,2.291900206056752,2.298015075125919
1.8453121114150708,-0.18207444668825146,0.023452329007957573,2.800113523676133,2.806124883419607
1.8477990549614522,-0.1775153986138377,0.018892349437421796,3.064122479062073,3.0693183615105486
1.8502859985078337,-0.14422780210712705,-0.0048186018408018505,3.1078690514747525,3.111217594277027
1.8527729420542154,-0.10615366041079899,-0.03331533155352151,2.9169879936911,2.919109019251107
1.8552598856005968,-0.04892775022389595,-0.06659785637011328,2.510632881810084,2.5119925689462286
1.8577468291469783,0.013084731813672201,-0.10945459626167953,1.9462645185731358,1.9493837731719639
1.8602337726933598,0.06551858904275132,-0.15230876121950132,1.262190093521264,1.2730335723921773
1.8627207162397412,0.1179506413863694,-0.17600675457513137,0.5350240228386589,0.5754488999676585
1.8652076597861227,0.17038090210725387,-0.21406741616411917,-0.19692650377049858,0.3370972535535346
1.8676946033325044,0.20844417448749858,-0.24733714927900774,-0.9097195064823644,0.9655124130562784
1.8701815468788858,0.24171727839067964,-0.26145076051269456,-1.5075869555846282,1.5490649345634906
1.8726684904252673,0.25583501705869355,-0.28513868632076456,-1.9570100644469823,1.9941524562422341
1.8751554339716487,0.2507974036739943,-0.2992473299352847,-2.2579888695979218,2.291497771631278
1.8776423775180302,0.23139285471879162,-0.2894114978879623,-2.4201002141225016,2.448302823328937
1.8801293210644117,0.20240978665456283,-0.2843616265724229,-2.390671697857802,2.4160178855585412
1.8826162646107933,0.163848212601529,-0.26973252247831825,-2.1744917603998335,2.197274740787323
1.8851032081571748,0.11091974233855262,-0.23594739539423548,-1.8290212777833421,1.847509999220027
1.8875901517035563,0.07235480886532175,-0.20215987500895505,-1.3782023027150636,1.3948280971641909
1.8900770952499377,0.024211408636637732,-0.18273518766905994,-0.8459768878158869,0.8658263312231099
1.8925640387963192,-0.03351044531275771,-0.15851973645682582,-0.2658638922614216,0.3113439673412569
1.8950509823427006,-0.05771511008718777,-0.13430194103368986,0.2663685816958008,0.30384250297222315
1.8975379258890823,-0.07713299261766315,-0.10529341439784146,0.7459320949762773,0.7572654039248129
1.9000248694354638,-0.09176407993549773,-0.07149417284494453,1.1776150152282305,1.1833466048492203
1.9025118129818452,-0.09203155245377082,-0.052057845928772384,1.4800144504227895,1.4837865747573222
1.9049987565282267,-0.08272380056903683,-0.04698444989854034,1.653130365064177,1.6558655650776948
1.9074857000746082,-0.05905240805994083,-0.051485597659552074,1.7209047403472741,1.7226871680644047
1.9099726436209896,-0.0258057653686673,-0.041619288812053234,1.640241911071577,1.6409727692936353
1.9124595871673713,0.00743933371923311,-0.04611595945567348,1.4446606652511065,1.4454156713992252
1.9149465307137528,0.05504811199652948,-0.06018722242357821,1.1437377743881818,1.1466424433710272
1.9174334742601342,0.102655372310682,-0.07904469052441288,0.766203623356775,0.7770805498848854
1.9199204178065157,0.14547272412621587,-0.08832316990146483,0.3647306137229229,0.40248194542469246
1.9224073613528971,0.17392337356357968,-0.10238788659491727,-0.041527676098471744,0.20605136999119833
1.9248943048992788,0.19758414000053037,-0.12123885665880252,-0.438206070921094,0.4957448066654715
1.9273812484456603,0.22124343947043823,-0.14487609612172792,-0.7917857821858441,0.83478288650872
1.9298681919920417,0.22095926806055421,-0.16372281434603853,-1.0687480212416602,1.1035626357335624
1.9323551355384232,0.21588525171649448,-0.17299062398847997,-1.2403624026648288,1.2708387340025031
1.9348420790848047,0.21559820971867222,-0.2014099609218949,-1.3209941708218302,1.3535413402396361
1.9373290226311861,0.191367734760246,-0.2202504211490508,-1.3010665533842598,1.3333814286462815
1.9398159661775678,0.16234745271259748,-0.21993521392740156,-1.1901563912113726,1.2211471775624914
1.9423029097239493,0.13811418278138143,-0.2244063717298297,-1.0169941383496361,1.0505764249191176
1.9447898532703307,0.10909113086579136,-0.22887550708035365,-0.7720030221887981,0.8125721745442088
1.9472767968167122,0.08006671280054767,-0.21897742583515756,-0.4934903032269897,0.5457970968254994
1.9497637403630936,0.05582934439482612,-0.2042889504245733,-0.20060962858620002,0.291710668373001
1.952250683909475,0.04116744143207707,-0.1943869032512877,0.10185056466801967,0.2232813559455501
1.9547376274558568,0.026504209708952176,-0.17490609008858016,0.38037141964383814,0.4194961625143184
1.9572245710022382,0.016628064957014632,-0.16021173660353938,0.5966456762251333,0.6180051424121673
1.9597115145486197,0.021115826201955512,-0.1455154551537281,0.7698269142359564,0.7837436466644195
1.9621984580950012,0.03517910248220246,-0.1260288580682256,0.8855498903548078,0.8951644824415491
1.9646854016413826,0.03966429284875139,-0.11132876760836696,0.9198725547165321,0.9274334841621303
1.967172345187764,0.058513426208773756,-0.10141519936594356,0.8823716807955932,0.8901059750272233
1.9696592887341458,0.0869381115207869,-0.09149976558333028,0.7826240421640236,0.7927362951888607
1.9721462322805272,0.10578474775541258,-0.08637088511421975,0.6158412025310369,0.6308016561392048
1.9746331758269087,0.12941855709839295,-0.09081697678278111,0.41075354894615757,0.4401310761185327
1.9771201193732901,0.1482627451066691,-0.10004965274284228,0.18172625859659597,0.25498275954276856
1.9796070629196716,0.16231732395040827,-0.10449212179799261,-0.028145071309465308,0.1950837312829627
1.982094006466053,0.18115911241290256,-0.12329801264358542,-0.23801408662902368,0.32353010581078356
1.9845809500124347,0.18084610600756174,-0.13731372738214942,-0.43830401319737256,0.493630207514289
1.9870678935588162,0.180531930102803,-0.15611608800757049,-0.5763424468673062,0.6238065619905137
1.9895548371051976,0.17063979011721092,-0.17970510984239807,-0.6808598398368133,0.7245564063462039
1.992041780651579,0.1655349080428276,-0.17935038825640515,-0.7374910143206694,0.7768277568111225
1.9945287241979606,0.1652172958825206,-0.17420555179137898,-0.7270823891126152,0.7656978057245427
1.997015667744342,0.13616814236858854,-0.18821263227812546,-0.6831528194288641,0.7215701855251361
1.9995026112907237,0.12148308932981089,-0.20700643495346904,-0.5769719172202965,0.624905111489836
2.001989554837105,0.10200853540224797,-0.21622176502255286,-0.4420585375003121,0.5025667553084809
2.0044764983834864,0.0777444924744165,-0.21107023429928384,-0.2975663252195453,0.37301550614139806
2.006963441929868,0.07742139232777889,-0.22028227780770138,-0.1387069086249646,0.27158416818072345
2.0094503854762498,0.0675204235506709,-0.22470429733648523,0.04888489077947611,0.2396680232831799
2.011937329022631,0.04804159794441831,-0.20997109796220137,0.2221134117487047,0.3094030135456911
2.0144242725690127,0.03813854056226629,-0.19523630797099756,0.36182500974213205,0.4129032597367812
2.016911216115394,0.028234456506123107,-0.19007674897560678,0.4680196536035943,0.5059335442472266
2.0193981596617756,0.03269456744986665,-0.18012722595422925,0.5359089089600442,0.5663153811909445
2.0218851032081573,0.041942078436093766,-0.16538775381284365,0.5415507282609333,0.567793482117173
2.0243720467545385,0.04640019447754207,-0.16022355738505034,0.5184639039033598,0.5446369304769799
2.02685899030092,0.055645733838230016,-0.14548103822874436,0.4618600018261585,0.4874175227311464
2.0293459338473014,0.06967870811144472,-0.1259486144697055,0.3669505880725996,0.39417116832379445
2.031832877393683,0.08849912886022931,-0.12556831748110264,0.25288924539230884,0.29589266398331987
2.0343198209400644,0.092953394336042,-0.12039814539895177,0.12925274999910208,0.19960541154094305
2.036806764486446,0.09261832268172387,-0.11522651624694058,0.010406281532381101,0.14820119580527535
2.0392937080328277,0.10185913532982854,-0.11484184801438069,-0.0988617869036581,0.1825858330081574
2.041780651579209,0.09194542379938042,-0.11924415533572708,-0.18418627545861632,0.23790273980493787
2.0442675951255906,0.09160761942230017,-0.12364504949040889,-0.2742976340589198,0.31451430213907244
2.046754538671972,0.09605733025736063,-0.12804454504328344,-0.3404654726811529,0.3762168979452066
2.0492414822183536,0.08614095437131858,-0.1324426565241672,-0.3731130144768642,0.4051847021534658
2.0517284257647352,0.08101211636222733,-0.11768578514641037,-0.39139390241285454,0.41665584583559756
2.0542153693111165,0.07588242419526192,-0.11250436529111463,-0.3761545527866552,0.3998845109446411
2.056702312857498,0.05159827584322729,-0.11689841138197243,-0.3273949950700281,0.35144715598582726
2.0591892564038794,0.03689010245050606,-0.12129113116635093,-0.26426887190877224,0.2931048529423504
2.061676199950261,0.03654631852825807,-0.12089413567607288,-0.1819878092397058,0.22151882121097785
2.0641631434966428,0.03141332195430424,-0.11570743922725768,-0.09970544949354121,0.15593647728303792
2.066650087043024,0.016702720535528126,-0.12009626606078827,0.0017317915692807162,0.12126455828918452
2.0691370305894057,0.0067797353280520944,-0.11011861381872468,0.09838186841365903,0.1478210605869082
2.071623974135787,0.01122118403559036,-0.10971651330976773,0.1710911389329901,0.20355786913160775
2.0741109176821686,0.01566186772807765,-0.11410157538410726,0.2485899943322547,0.2739734455891252
2.07659786122855,0.015313394083752097,-0.10890860421451931,0.2925711794407029,0.31255956096341553
2.0790848047749315,0.02454098402967364,-0.10371442053840463,0.3078230690792392,0.32575141255583806
2.081571748321313,0.024191035218180335,-0.10809584505607228,0.31349924813873997,0.3324931525413251
2.0840586918676944,0.02384036519084698,-0.10768768182903399,0.2856576717364767,0.3062112101998372
2.086545635414076,0.03785419477681795,-0.1072783481626658,0.24345192498194024,0.26871997287906174
2.0890325789604574,0.05186732485051693,-0.11644466464512604,0.18688197981293797,0.22621771303385654
2.091519522506839,0.05630295957373277,-0.11603303190502379,0.12073621159735559,0.17666612731566592
2.0940064660532207,0.06552631967677103,-0.10604346381440166,0.05459139913331512,0.13608503094562466
2.096493409599602,0.07474901257553329,-0.10562958748859552,-0.0019756786709166363,0.12941764926098298
2.0989803531459836,0.08397104897299507,-0.11479141672358972,-0.053753452757785425,0.15204486213751991
2.101467296692365,0.08840403621847537,-0.1239521586365111,-0.09116514399834763,0.17745561340968558
2.1039542402387466,0.07847117830753075,-0.12353502030610164,-0.1381527963951985,0.2012580985173377
2.106441183785128,0.08290290576468806,-0.12311682205384455,-0.16119761399644794,0.21912397042545254
2.1089281273315095,0.09212242251834063,-0.11790917420163582,-0.16987643062208235,0.22637825817082907
2.111415070877891,0.086976125822534,-0.12706570363414338,-0.1737660799810108,0.23217491263076695
2.1139020144242724,0.07704083281936486,-0.13143281063462942,-0.16328978238965064,0.2233235918251342
2.116388957970654,0.07189336061702306,-0.1310105087285507,-0.1480243713342837,0.21034168204859655
2.1188759015170353,0.06674531632875991,-0.13537561804280873,-0.10402785694745376,0.18331200242586018
2.121362845063417,0.05680830703373185,-0.1445281520243724,-0.04566547581251257,0.16186693966589355
2.1238497886097987,0.06123595637848389,-0.14889131744014383,0.007909132278690834,0.16118629326357464
2.12633673215618,0.06566306473309902,-0.1388883210174705,0.042330730966575913,0.15935336384701682
2.1288236757025616,0.06530123907393715,-0.13367278936587823,0.0911181172068165,0.17445680761942509
2.131310619248943,0.06015048966322645,-0.14282154241445788,0.13511765154385103,0.20560363358437092
2.1337975627953245,0.07415284333023303,-0.14718098013048797,0.1599640979548198,0.2296723703901459
2.1362845063417057,0.0833662936664884,-0.14675111572243704,0.175234237130919,0.24329584202842933
2.1387714498880874,0.08300244751008168,-0.14632036567890738,0.18092804323534217,0.2470506274714616
2.141258393434469,0.08263812162526463,-0.13631193648726514,0.17225708722370214,0.2346966281680552
2.1437453369808503,0.07748492278049635,-0.13109105119602438,0.15879815012542053,0.22001279382170882
2.146232280527232,0.08190807099054986,-0.12586931953191405,0.13097439980166214,0.1992644250643493
2.1487192240736133,0.10069597959455778,-0.12543515782164016,0.08878581086730897,0.18372963651956897
2.151206167619995,0.10511823865437186,-0.11063496574958132,0.0513859713317153,0.16102936935202963
2.1536931111663766,0.09517485811854842,-0.10541077284205214,0.00919804939568536,0.1423175630824601
2.156180054712758,0.09480786450195966,-0.10497418866250596,-0.03298957666557456,0.1452460795524174
2.1586669982591395,0.09922886436228084,-0.10453682273329967,-0.0560233185024277,0.154638051739621
2.161153941805521,0.08449585094054102,-0.1136754944965177,-0.06948000757343209,0.1577629181005414
2.1636408853519025,0.08412765728604965,-0.11323660343105502,-0.06857126526248436,0.15685027732439313
2.166127828898284,0.08375908320944958,-0.11279696889625734,-0.06766232612088352,0.15593886811298696
2.1686147724446654,0.0738133318060833,-0.10756820024900637,-0.06675321462505934,0.14654459157507152
2.171101715991047,0.06386721941685974,-0.10712711676548814,-0.056267148496793595,0.13682555632076945
2.1735886595374283,0.05870915902662177,-0.11147373103952818,-0.045780958624995094,0.13404870099374236
2.17607560308381,0.05355075694376643,-0.12060805562311172,-0.03050626582345295,0.1354423084007694
2.178562546630191,0.04839202276111443,-0.12016489306534783,0.00392211584897062,0.12960236257511454
2.181049490176573,0.043232966035531506,-0.12450946579518263,0.03835054920557468,0.13726784419229573
2.1835364337229546,0.03807359628786222,-0.12885338291817527,0.05362539717409831,0.1446667765792437
2.186023377269336,0.04249072964349021,-0.12361985017733979,0.08805386264055315,0.1576096830446198
2.1885103208157175,0.05169597223071243,-0.1279624931952359,0.11769390544148983,0.18138006667682569
2.1909972643620987,0.051324123500988916,-0.12751611430981535,0.14254550212967132,0.19802460766081267
2.1934842079084804,0.050951999471068765,-0.12228072577745008,0.15303182273200377,0.20240410301038653
2.195971151454862,0.0553680128010543,-0.12662154977284068,0.16830645731204186,0.21777441833545064
2.1984580950012433,0.05499536615371592,-0.12617338850611493,0.16921576948570838,0.21812425566208057
2.200945038547625,0.04983406879599572,-0.12093625410554765,0.15575973626509132,0.20339642919976847
2.2034319820940063,0.04946093659894979,-0.12048696529716052,0.14230354473819595,0.192908765743862
2.205918925640388,0.053875978756441345,-0.12003713080307277,0.11927036550650882,0.17758646892839197
2.208405869186769,0.04392559114445971,-0.10522155266172684,0.09623698256784685,0.1492065330865202
2.210892812733151,0.04355179948512722,-0.09998225943092987,0.06841497007423136,0.12873934740227816
2.2133797562795325,0.057543016182582785,-0.08995405306276583,0.05495791889443602,0.12009705751189445
2.2158666998259138,0.05238042704167856,-0.08950215538789186,0.05586580673121411,0.11779360474098888
2.2183536433722955,0.05200605767417821,-0.09862657823264342,0.047196594801038216,0.12107580488893341
2.2208405869186767,0.04205470709245507,-0.09338531677833073,0.0385270676778795,0.1094246348967054
2.2233275304650584,0.04167999751412976,-0.09293199604553282,0.03943401005106928,0.10921821840010312
2.22581447401144,0.036516727877645816,-0.0972666277299612,0.049917400084696695,0.11526497783830338
2.2283014175578213,0.026564907045345754,-0.08723561020238257,0.04124679613638804,0.10008518454410048
2.230788361104203,0.03576656044404858,-0.09635777831322923,0.04215259652298364,0.11108964704727738
2.233275304650584,0.044968083580628315,-0.1102679336659631,0.06221158639555391,0.1343555998748362
2.235762248196966,0.025439065284155404,-0.10023566785919025,0.06790492113786506,0.12371504948246635
2.238249191743347,0.02506354747147721,-0.09499141229127561,0.07838619277264236,0.12568192009328927
2.240736135289729,0.01989952221748692,-0.10411198503527475,0.09844378347722227,0.14465985938669976
2.2432230788361105,0.014735401481643207,-0.10844378419823952,0.099347252302314,0.1478075198630949
2.2457100223824917,0.028724807146987663,-0.10319841780396333,0.09067338497670896,0.14034489918058113
2.2481969659288734,0.023560521215429175,-0.10274110711322137,0.07721056402447601,0.1306610288026649
2.2506839094752547,0.027972972135803187,-0.09270665342058937,0.07332397872592722,0.12146364318081326
2.2531708530216363,0.027596958436670982,-0.08746027789812105,0.06464839855509652,0.11220654063248947
2.255657796568018,0.03200929521064444,-0.08700199171247647,0.055972206382888245,0.10829048632815648
2.2581447401143993,0.03642158755184621,-0.08654340266548388,0.04250697855521679,0.10306859759699141
2.260631683660781,0.04083384383713595,-0.08608452183470305,0.05298311477578466,0.10901907242941046
2.263118627207162,0.0452460724057443,-0.09520216689367711,0.07782378830143877,0.13102366837707058
2.265605570753544,0.0400814749186269,-0.09474273554937529,0.08351015590305266,0.1325015347457664
2.268092514299925,0.03970526960061305,-0.08949464206557112,0.07961900434993119,0.1261942361844487
2.2705794578463068,0.04411746467787381,-0.10818831726278555,0.07572712052696673,0.13923239373458438
2.2730664013926885,0.04374126169820303,-0.10772814211198467,0.08619969475495637,0.14473782488934364
2.2755533449390697,0.033788265491923486,-0.09769093406264773,0.09188309422807706,0.13830281446127907
2.2780402884854514,0.03820050077341819,-0.10201872048021299,0.09756570285763111,0.14624009013216355
2.2805272320318326,0.04261276565673122,-0.10634630212259699,0.11282430799076515,0.16079399318899076
2.2830141755782143,0.03744826153834302,-0.10109688302294195,0.12329368048857425,0.16378120679008681
2.285501119124596,0.04186060969871419,-0.10063568377082754,0.11460859132764689,0.15816124904184864
2.287988062670977,0.04148460813819266,-0.10017431162940493,0.09634582820161341,0.1450461445011874
2.290475006217359,0.03632026478011352,-0.09492437381660013,0.08765898556014662,0.13421585646861992
2.29296194976374,0.031155990830149527,-0.0944626874660055,0.07418283472614284,0.12408460039793343
2.295448893310122,0.03556860077628754,-0.09400085970496086,0.06549416373943373,0.11996154579857002
2.2979358368565035,0.03519289246692969,-0.08875049761544407,0.06638135743487972,0.11628273785078798
2.3004227804028847,0.030028873673375922,-0.07871161155435358,0.06726759080169842,0.10780621419862474
2.3029097239492664,0.029653358769481053,-0.06867261515344403,0.06815284558499002,0.10119318217971052
2.3053966674956476,0.024489548809769945,-0.07778713195993481,0.07382550696538281,0.11000355166154502
2.3078836110420293,0.0384794680528463,-0.08211315559271304,0.07470875027773083,0.1174931366126697
2.3103705545884106,0.04289270419575958,-0.06728548626572062,0.06601415429232738,0.10356152423642004
2.3128574981347922,0.03772926481929284,-0.07161136067074647,0.06210691117579614,0.10202427562457032
2.315344441681174,0.05171957738793875,-0.08072557893049837,0.07735221320976926,0.12318643865012377
2.317831385227555,0.046556422843658185,-0.08505134444234042,0.08780802622835893,0.13081086028907268
2.320318328773937,0.04139342193396495,-0.08458866719855207,0.10305113942276023,0.13960012655495632
2.322805272320318,0.036230582086924534,-0.08412596046599097,0.11350472881776419,0.14585319937072702
2.3252922158666998,0.040644717333013,-0.09324004078605919,0.12395718051388549,0.16034675192787193
2.3277791594130814,0.04984743170354494,-0.10235411137311878,0.1200432674451033,0.1654433940093015
2.3302661029594627,0.04468511923065871,-0.10189137539569426,0.10655137594131148,0.15405131604654068
2.3327530465058444,0.04431140047074261,-0.10621705257802772,0.1074235057282209,0.15743370685143362
2.3352399900522256,0.04393787934036736,-0.1057543459969148,0.11308283340387781,0.1609417476878297
2.3377269335986073,0.03877615971783699,-0.1005032653238711,0.1091641323604513,0.1533665696859448
2.3402138771449885,0.03361465208380321,-0.09525222350478746,0.12439780598727879,0.16024276910915441
2.34270082069137,0.04281857352126678,-0.09000123011928718,0.13484182126455302,0.16767816919122977
2.345187764237752,0.042445914512437566,-0.08475029470101125,0.12613095192729595,0.15777606011303252
2.347674707784133,0.032496682102796215,-0.07949942673759969,0.10784198842621606,0.13786256804157282
2.350161651330515,0.032124496580776984,-0.08382544231129829,0.09434012464636332,0.13022575466298714
2.352648594876896,0.03654096159495107,-0.08815154417706239,0.09041374794610668,0.13145562914058256
2.3551355384232777,0.03616927743527382,-0.08290093504379037,0.09127443915705591,0.12849826810023415
2.3576224819696594,0.03579785431433319,-0.0776504308555519,0.07298016594332779,0.1124152143025077
2.3601094255160406,0.035426699086099245,-0.08197684751032108,0.07383813924677263,0.1158763364250581
2.3625963690624223,0.0350558185662358,-0.07672658093809037,0.07469473027905948,0.11267289545076767
2.3650833126088036,0.029896816211789967,-0.07147644694460364,0.07554992364657487,0.10821503153642556
2.3675702561551852,0.034314908722751225,-0.08059166460977485,0.10034572067064573,0.13319832214459926
2.3700571997015665,0.029156489518628592,-0.07534182308456794,0.11556328294210871,0.1410012891824543
2.372544143247948,0.028786775222812366,-0.07009214135659114,0.13077940204778038,0.15114509157645864
2.37503108679433,0.028417369139152937,-0.08399624168759923,0.15078246636721815,0.17492360518298763
2.377518030340711,0.023259874533210545,-0.08832371309004383,0.1564188477913575,0.18113242669850405
2.3800049738870928,0.0324679112338247,-0.08786296777237679,0.1668421448864592,0.19133835913368624
2.382491917433474,0.032099469148745896,-0.09219082121716937,0.16768713308931993,0.19403220876968513
2.3849788609798557,0.03173136138964355,-0.086942072259232,0.14937699126964965,0.17572503733145903
2.3874658045262374,0.03136359438930025,-0.08169353628872988,0.14064212497210882,0.16564334046693469
2.3899527480726186,0.026207771221937515,-0.0860220286496225,0.12232890665062435,0.151825551498274
2.3924396916190003,0.025840704884467658,-0.09035075135840831,0.11359093543381604,0.1474242209159826
2.3949266351653815,0.025473998374637707,-0.08510290638536944,0.11442819728118003,0.1448628371993613
2.397413578711763,0.025107657972286868,-0.07506690561551688,0.10568706498293601,0.13204238150021982
2.3999005222581444,0.015164883278422248,-0.06981956420794999,0.08736752472239395,0.11286199363450186
2.402387465804526,0.010010890457419541,-0.07414929395524972,0.09298838603676174,0.119353155213988
2.404874409350908,0.01922249231516271,-0.06890249000221971,0.10818442537169659,0.12969551739484547
2.407361352897289,0.014069275056870945,-0.0684443706896447,0.11380201596396766,0.13354203539406811
2.4098482964436707,0.008916454732426748,-0.06798654103085555,0.10984114444288551,0.1294864855452431
2.412335239990052,0.0037640373926425275,-0.06752900931329764,0.12503221747079607,0.14215270128278637
2.4148221835364336,0.00818883569084028,-0.062283380457910376,0.12106799533667889,0.13639551314496565
2.4173091270828153,0.017402452281307546,-0.07140327594101059,0.11710207828411967,0.13825400500156002
2.4197960706291965,0.01703968313962856,-0.07094668730992648,0.11313445338617178,0.13462238961160697
2.4222830141755782,0.007100534164267036,-0.06570202598769193,0.10916510782645261,0.1276095394986844
2.4247699577219595,0.021103834457835924,-0.07003450999180716,0.11955923885992448,0.14015925233597942
2.427256901268341,0.030319169920869082,-0.07436734069206086,0.139528430570536,0.16099048532064392
2.429743844814723,0.020381336376840697,-0.06912371941210838,0.14991905719140597,0.16634064796985093
2.432230788361104,0.005655549533138959,-0.0734572673513525,0.15551950966714756,0.17208798114441307
2.4347177319074857,0.014872235020126245,-0.0730027824209083,0.1611181790521421,0.17750959759057106
2.437204675453867,0.014512575266189764,-0.06776027244673033,0.15713824654944375,0.1717396223692882
2.4396916190002487,0.014153382544628612,-0.05772974520869445,0.14836810343248708,0.15983158585044624
2.44217856254663,0.023371469090870345,-0.057276418401553286,0.1395961410839739,0.15268888721158472
2.4446655060930116,0.0182248238603111,-0.061611896392764987,0.14039915431601102,0.1544023721142368
2.4471524496393933,0.017867065653339065,-0.06115938018345357,0.15077713140901672,0.163687034231233
2.4496393931857745,0.017509796630996166,-0.0559188773693573,0.16594165743185307,0.17598337278146065
2.452126336732156,0.23263117165093677,-2.1144806298752323,0.559388179866632,2.199559213096058
2.4546132802785374,0.7685760691659775,-1.5394209879781962,-4.429332507017224,4.751790463608626
2.457100223824919,1.2039650023565507,-0.8925357355036385,-8.785985844190535,8.912895097574463
2.459587167371301,1.5196443632721715,-0.2121321064255306,-12.199325627013344,12.295440812565687
2.462074110917682,1.706037350564901,0.4491174553661801,-14.44429691049877,14.551631632531157
2.4645610544640637,1.7344135495682205,1.0337521027078216,-15.382036009320913,15.513989350351634
2.467047998010445,1.6143497721404314,1.5226182150440106,-15.022119740975171,15.185143164547037
2.4695349415568266,1.3697880400631794,1.8678317519428291,-13.45552777929391,13.653437023241292
2.472021885103208,1.01988197176057,2.0550274962606174,-10.869007864411186,11.108493561385433
2.4745088286495895,0.6029387989000391,2.088993844180804,-7.540287399436511,7.8475068997959685
2.4769957721959712,0.16205415643247434,1.9601539819715619,-3.771035803978825,4.2531372206344615
2.4794827157423525,-0.2740415306900953,1.6876615158685397,0.13707750246390837,1.7152522830092403
2.481969659288734,-0.6718294342323621,1.3194004720750185,3.8249222606535547,4.101487863502202
2.4844566028351154,-0.9882139193557807,0.8601592469570791,7.0339246811852885,7.154896023082505
2.486943546381497,-1.1992529645403254,0.3530334634889063,9.52945299136169,9.61110371465598
2.4894304899278787,-1.2953697582641333,-0.15888125530983244,11.124759451794219,11.201049009990042
2.49191743347426,-1.2813526990034776,-0.6420660930142161,11.75759480952745,11.844625334389809
2.4944043770206417,-1.161990185271761,-1.0534254265137182,11.423170651555603,11.530340587096928
2.496891320567023,-0.9612242289007474,-1.3738056492535677,10.202889824743089,10.339741522687737
2.4993782641134046,-0.6599012118764473,-1.5696879446727157,8.221250805942015,8.395734313762501
2.501865207659786,-0.33463558262813464,-1.6554375293678532,5.693731735194991,5.938942284545875
2.5043521512061675,0.004995856862320958,-1.6358428132496998,2.8645411725708403,3.298727451245405
2.506839094752549,0.3350510946151874,-1.486961786261794,-0.06520795164029991,1.5256364792318071
2.5093260382989304,0.6124345053326049,-1.2375248748258434,-2.8225766572397015,3.142209863317401
2.511812981845312,0.8227808836017576,-0.9210509086386429,-5.168144787167147,5.313663867789109
2.5142999253916933,0.9708786372542971,-0.5566935073908699,-6.972625460626172,7.061870772226028
2.516786868938075,1.0279973508429523,-0.1779715006890008,-8.12588540999834,8.192586045005662
2.5192738124844567,0.9797718188446826,0.18159628190564403,-8.536944980843433,8.59490311943957
2.521760756030838,0.8549324655827121,0.5315866407593557,-8.205804181704652,8.267328235035954
2.5242476995772196,0.6822097153435775,0.8193271331196899,-7.237807894069382,7.315912120728922
2.526734643123601,0.4424499591741224,1.011298929560362,-5.733512596001976,5.838805886464837
2.5292215866699825,0.17396042792862,1.1266556372231902,-3.8126283787469823,3.979415825193284
2.5317085302163638,-0.08016324425485122,1.1653972500137981,-1.6619029799312255,2.0313784508981763
2.5341954737627455,-0.31992105315758745,1.0987933419606977,0.4983970396795474,1.2482371159967784
2.536682417309127,-0.5165825746749212,0.9459975203403568,2.5150427659015087,2.7362764807784656
2.5391693608555084,-0.6653594013404078,0.7501054090753763,4.253958897936833,4.370529437380803
2.54165630440189,-0.7566747224033176,0.4967517922893707,5.576281731766366,5.649268707602618
2.5441432479482713,-0.7857401304694209,0.2194554873537049,6.376666386713913,6.4286407949897795
2.546630191494653,-0.7286136048993598,-0.07699510823777977,6.635959241969763,6.676283479078828
2.5491171350410347,-0.6044487549725761,-0.34950437038398485,6.373313903385796,6.411446148365912
2.551604078587416,-0.4611296099264962,-0.5789186915409685,5.622249186875706,5.670755971463682
2.5540910221337976,-0.27950255254993994,-0.7700264807221591,4.4737447482955535,4.548126485795809
2.556577965680179,-0.07872119223019847,-0.8940973236543024,3.037933856882466,3.167751437386574
2.5590649092265605,0.11248405496902908,-0.9463428226214756,1.4441033952537072,1.7302173322252734
2.561551852772942,0.29411319287019555,-0.9315513865041523,-0.1784597538749555,0.9930450340599961
2.5640387963193234,0.44222420865839757,-0.8545114241387068,-1.6956803043678725,1.9496368172888578
2.566525739865705,0.5424518961238884,-0.7295881509579598,-2.963906163352153,3.10020848892192
2.5690126834120863,0.5995846623025023,-0.5567815723898177,-3.9113112876605447,3.9959809153200507
2.571499626958468,0.5944688975930352,-0.35045690377913585,-4.499588457270551,4.552198325689942
2.5739865705048492,0.5366814122807025,-0.14413297370806966,-4.661700032140318,4.694704297616047
2.576473514051231,0.440587419935727,0.06697861584742615,-4.431164841857558,4.453518301893569
2.5789604575976126,0.3061869241319798,0.26372424635384384,-3.8558669258737863,3.876984738256222
2.581447401143994,0.1574219450097194,0.4173734926806243,-2.9789019202237546,3.0121153615815977
2.5839343446903755,-0.005707513927554753,0.537503156303405,-1.88167268740834,1.9569451503018374
2.5864212882367568,-0.15447102928958167,0.6145364254601633,-0.6743125097542269,0.9253181495670459
2.5889082317831384,-0.2649265810414584,0.6341080851120906,0.5330453305076954,0.8697220713095057
2.59139517532952,-0.3801697956676351,0.6057949368653963,1.64463276120299,1.7934139227439638
2.5938821188759014,-0.4571050399218476,0.5343853790493638,2.5838353235337035,2.6778195850363415
2.596369062422283,-0.47179029387392357,0.42466781003659726,3.27403855879683,3.335004844788587
2.5988560059686643,-0.4529559741519005,0.2814306282429482,3.6817236382668614,3.7201426399542923
2.601342949515046,-0.4006020774966434,0.1238274420883867,3.7829485399532814,3.806115462757724
2.603829893061427,-0.3147286006836504,-0.03856494660463383,3.596866871842497,3.6108160630185715
2.606316836607809,-0.21448915380423011,-0.18180452600968744,3.147420645335032,3.1599549366183135
2.6088037801541906,-0.09509533038261919,-0.32025651081988427,2.472917081885882,2.4953809826289235
2.611290723700572,0.024299259420965447,-0.43955569576356845,1.6499706296057735,1.7076892990963768
2.6137776672469535,0.13890621537291437,-0.510971665565334,0.7504073333779164,0.9184215511774501
2.6162646107933347,0.2247835239240341,-0.5440812314695118,-0.13479314853994673,0.6039215279805809
2.6187515543397164,0.2962963980535248,-0.5484612046777988,-0.9529583843611587,1.1387409410662044
2.621238497886098,0.3438680341048397,-0.5145347830680165,-1.641839135565828,1.7546016684539893
2.6237254414324793,0.34834482174676795,-0.44230197111616665,-2.143974566862303,2.2166646322444525
2.626212384978861,0.32888037717663265,-0.34133957989630836,-2.4306342627902264,2.4764203865146603
2.6286993285252422,0.28547470327659874,-0.22122442044027402,-2.4922414210784165,2.5182738833075646
2.631186272071624,0.20376259293407595,-0.10589851369848269,-2.333584449326194,2.344856087613865
2.633673215618005,0.1220512755261643,0.014214942663015595,-1.9786053683234668,1.9824171564055124
2.636160159164387,0.03555235051348288,0.12953913773904757,-1.4703998120511086,1.4765229307779628
2.6386471027107685,-0.05573417935662711,0.23528566398678885,-0.8616402210406413,0.8949243057048042
2.6411340462571498,-0.13744310140939991,0.3075125006241217,-0.2002106324135955,0.3918403265318501
2.6436209898035314,-0.20478600964412808,0.3557964501529933,0.4612165134775328,0.6174537197165529
2.6461079333499127,-0.25297449809345846,0.37056070183589185,1.0651803730490155,1.1558202963954152
2.6485948768962944,-0.26764335418268753,0.3470168482973244,1.578162119407441,1.6378795233999828
2.651081820442676,-0.27273459193280547,0.30431849880498474,1.9618545224275223,2.0039628423503753
2.6535687639890573,-0.25388299883541576,0.242465649386852,2.1731619487518152,2.2013357362594737
2.656055707535439,-0.2063001690557788,0.15666989279204735,2.216872798313842,2.2319565898475173
2.65854265108182,-0.15392811671398027,0.06129643509230309,2.1073522777752647,2.1138554209582865
2.661029594628202,-0.09676683936141162,-0.02928951759936327,1.8350235772834047,1.8378066346128976
2.663516538174583,-0.02045112462131138,-0.11987637240999405,1.4286171136349726,1.4337836135662787
2.666003481720965,0.04628860996756695,-0.2008873264645903,0.9647473369164015,0.9865271295986284
2.6684904252673465,0.10345236675572705,-0.26753398016745233,0.4673562607769579,0.5483600069470969
2.6709773688137277,0.15104014806112998,-0.3102395305616308,-0.039614101048046635,0.34731969372794563
2.6734643123601094,0.19384035948963396,-0.32900398128999475,-0.48912610485521313,0.6205336825044799
2.6759512559064906,0.19354577673186713,-0.3334041425952443,-0.8620261400584379,0.9443025765793829
2.6784381994528723,0.18367522525090735,-0.31386321139821804,-1.134372192666481,1.1912375813980745
2.680925142999254,0.16422870723542804,-0.27516959454008916,-1.2917990552442316,1.3309523557098
2.6834120865456352,0.135206224842023,-0.22211169882161386,-1.3151531169516968,1.3406125655897823
2.685899030092017,0.08703097355460926,-0.1546895276827982,-1.2140111867867809,1.2269174389403872
2.688385973638398,0.024491358786129347,-0.08247989116402943,-0.9979500736636577,1.0016521894484736
2.69087291718478,-0.03325900412138666,-0.019848002585809432,-0.7100654096552965,0.7111209394686229
2.6933598607311615,-0.08143170981861053,0.05235974801365151,-0.3647224068296335,0.37735275356042675
2.6958468042775428,-0.12481515962847567,0.11020134075328603,0.038078932788787156,0.17080153599788467
2.6983337478239244,-0.15862094826491518,0.14888836907324166,0.42651255745360395,0.4787915134370747
2.7008206913703057,-0.17327226715300809,0.18278603973467522,0.7622712387424517,0.8028022523013881
2.7033076349166874,-0.17355751771017774,0.18795233297596337,1.0357781682366554,1.0669042624436866
2.7057945784630686,-0.1690535047054691,0.17875245563759234,1.2326681342788568,1.2569814068299456
2.7082815220094503,-0.14539501633758328,0.1599748079589287,1.3242107153316063,1.341739791672121
2.710768465555832,-0.10258205079728017,0.12683098357812073,1.3199827165009133,1.3300238897863075
2.713255409102213,-0.0693450262282545,0.08889778613359045,1.2391377496138976,1.2442563689048352
2.715742352648595,-0.0408955375629213,0.04138680934199712,1.0864642166167862,1.0880210507930432
2.718229296194976,0.0019200301963659405,-0.006125143079927398,0.87153892285599,0.8715625611203615
2.720716239741358,0.044736468774314087,-0.05842647733738415,0.6183038837183226,0.6226674052121342
2.7232031832877395,0.07797697318527896,-0.10594038963573826,0.34112430802905536,0.36560849009782526
2.7256901268341207,0.0920647384130347,-0.12951326950090625,0.059153808012789355,0.16955464027353784
2.7281770703805024,0.11094178265307941,-0.1578755396232534,-0.17014677746519702,0.25725996779788307
2.7306640139268836,0.10587768754708105,-0.16708518613109113,-0.3707194659065536,0.42019098817896966
2.7331509574732653,0.09602606790954177,-0.157142211715811,-0.5281990481728069,0.5593826194223092
2.7356379010196465,0.08138692524352448,-0.15677703895228046,-0.5899130884853037,0.6157924354110804
2.7381248445660282,0.04759505106104828,-0.13247084721301938,-0.5989572173946289,0.6152751925081619
2.74061178811241,0.023380866726958605,-0.08901204239489902,-0.5601198388120618,0.5676301986778587
2.743098731658791,-0.010409239626956168,-0.06470785359886344,-0.4303053233692431,0.43526788292601165
2.745585675205173,-0.04898686329713936,-0.021251056762918275,-0.25739770470765677,0.26287810593125377
2.748072618751554,-0.0779867929691273,0.022204732369043523,-0.07012740311173005,0.10720467659755081
2.7505595622979357,-0.09740902731900736,0.05129430141118396,0.13150558113139965,0.17150318314598026
2.7530465058443174,-0.10725356505240191,0.08517126125752128,0.33792444116923726,0.3646236400731418
2.7555334493906987,-0.11709721154495206,0.11425880291767498,0.5203987569424875,0.5455104923125398
2.7580203929370803,-0.11736315892039595,0.12898011743874171,0.6693517217478675,0.6916948092714882
2.7605073364834616,-0.10805140597231133,0.1389120091863556,0.7752065289560264,0.7949319563112518
2.7629942800298433,-0.08916195152340722,0.12968926596179298,0.8283863720113942,0.8432040919251822
2.7654812235762245,-0.07506000438634303,0.11088869220498321,0.8193144444318481,0.8301845970457878
2.767968167122606,-0.05138035348085085,0.08729868907252758,0.7719327630504633,0.7785507000242963
2.770455110668988,-0.02291140103672673,0.05891925443757673,0.6766645215308973,0.6796111281752115
2.772942054215369,0.0007700473671906072,0.035327192850664435,0.5430865268904377,0.544234856672718
2.775428997761751,0.019663992764060112,0.002157292297403135,0.40950600614027977,0.4099835308722099
2.777915941308132,0.033770436158514716,-0.03580204591881442,0.2567693465195777,0.26144354297323963
2.7804028848545137,0.04308937852676198,-0.049820403856618345,0.0992417585810248,0.11911210613751037
2.7828898284008954,0.042832417496373454,-0.07820501002271829,-0.04392314373140849,0.09939759623093043
2.7853767719472766,0.04257636062763631,-0.10180225304386914,-0.15836014972330226,0.19301394309606032
2.7878637154936583,0.03274440217146818,-0.10624692483109133,-0.2297040486300581,0.2551951309619181
2.7903506590400395,0.01812494631170647,-0.11548104382193314,-0.2579548395779643,0.2832050218882052
2.792837602586421,-0.006070409436351065,-0.10556259521498035,-0.24790092494400717,0.2695091463519207
2.7953245461328025,-0.020688050983656947,-0.10043359737622026,-0.20433070703590772,0.2286174550930551
2.797811489679184,-0.030516380870435067,-0.09051724539384276,-0.11766737813150208,0.1515593385161749
2.800298433225566,-0.054709011625452164,-0.07581354096117465,-0.002276147041616383,0.09351978288822438
2.802785376771947,-0.07411232924247751,-0.041957275775234226,0.10832416420991997,0.13779395809687067
2.8052723203183287,-0.07914952638330314,-0.0224672747009107,0.2189219602296717,0.2338722955588997
2.80775926386471,-0.07939740901826448,-0.012555136005458767,0.32951724237143054,0.3391801778096728
2.8102462074110917,-0.08443278314488539,0.011721155360128854,0.43532160873586,0.44358898023389254
2.8127331509574733,-0.08467884150652666,0.04078479123758827,0.5219698508499313,0.5303644318687677
2.8152200945038546,-0.08013558351415134,0.04590535022214981,0.5655199536663478,0.573011196154979
2.8177070380502363,-0.0564377986446572,0.04623644414684991,0.5899139354072087,0.5944085169904786
2.8201939815966175,-0.04231590628452497,0.05135487823862528,0.5903633944384836,0.5941017563822828
2.822680925142999,-0.037769905925024994,0.05168384447757601,0.5525031225510073,0.5561991423961213
2.825167868689381,-0.023646183802726872,0.03764653487809433,0.4954867348428458,0.4974771431955286
2.827654812235762,-0.014309949422848578,0.0236081580903158,0.4145258298753465,0.41544407976856107
2.8301417557821438,-0.0049727990356916996,0.00956871283747418,0.3239856195554367,0.32416503616882497
2.832628699328525,0.009153671082205384,-0.014048608763897352,0.23344291253378024,0.23404432596142216
2.8351156428749067,0.008915848026603501,-0.0233017913212632,0.14768611420450917,0.14977868390942856
2.837602586421288,0.01825574875006064,-0.03734444929123315,0.07150363002503823,0.08270821822556919
2.8400895299676696,0.00844295365578035,-0.05617658381560986,0.004895462195493749,0.05701804614096666
2.8425764735140513,-0.0013689236757168377,-0.05585617940120402,-0.03298477374008968,0.06488283307635646
2.8450634170604325,-0.01117988297085315,-0.06511365704495153,-0.03256026881601315,0.07365425461153333
2.847550360606814,-0.030566730622277105,-0.060007001187180276,-0.0225614405671255,0.07102241767834325
2.8500373041531954,-0.035587449805925375,-0.05490142279765342,0.0018001167755148373,0.06545130425974295
2.852524247699577,-0.04060725028561024,-0.04979692285226989,0.04531280904209822,0.07862526924976963
2.855011191245959,-0.05041453520978689,-0.035116695653496066,0.10797663880342157,0.12423269376989166
2.85749813479234,-0.06500930443174407,-0.03001435539300079,0.1802148020501555,0.19391865838627614
2.8599850783387217,-0.07002634786889539,-0.02012469298770858,0.23329688155198625,0.2444097534992959
2.862472021885103,-0.0750424720651443,-0.01502451592368681,0.29595329998213415,0.30568850888233295
2.8649589654314846,-0.06569246698766229,0.004439788267170286,0.34903044687020746,0.3551865211141874
2.867445908977866,-0.061129945870526725,0.0239030088429506,0.38295151844556585,0.3885358279408017
2.8699328525242476,-0.051778102050549946,0.03378833841409268,0.4025049209572913,0.4072257789722769
2.8724197960706292,-0.04721374217028573,0.03409577626358207,0.43642107731447766,0.44028969569258347
2.8749067396170105,-0.047436866256060695,0.039190531667112616,0.4368159573592738,0.4411284786275369
2.877393683163392,-0.02850545775690949,0.04428420065079486,0.422843177475956,0.42611031938592336
2.8798806267097734,-0.019149936669472956,0.03979997595194895,0.39929114414523426,0.40172649396452653
2.882367570256155,-0.014581899772259876,0.03531466362054214,0.36137145726422837,0.3633855905135374
2.8848545138025368,-0.010012943867723278,0.03082826309718234,0.30908412010703223,0.31077907611810934
2.887341457348918,-0.0054430691024651146,0.026340773853616106,0.2472175393244136,0.24867644664921432
2.8898284008952997,-0.010449082287428302,0.026640598712903696,0.19492533158399716,0.19701469415645792
2.892315344441681,-0.015454176975922662,0.02215093056804429,0.15699590364809168,0.15930225696239944
2.8948022879880626,-0.015669950065063,0.008083365663094533,0.11427564573274829,0.11562790036631061
2.897289231534444,-0.015884805115979173,-0.005985289766342827,0.09070657799173709,0.0922812766390388
2.8997761750808255,-0.02088714571307615,-0.010478229454183197,0.08150030071151626,0.08478422709797717
2.902263118627207,-0.025888568823293046,-0.014972260385240244,0.08186841423276014,0.0871597603584855
2.9047500621735884,-0.04046588139756202,-0.014678979553177651,0.10617613223125844,0.11457020142076141
2.90723700571997,-0.050253873808187355,-0.009598387241884776,0.14005824851444082,0.1491103411816473
2.9097239492663514,-0.05046414309092445,-0.018884096986550247,0.1739379602631974,0.18209242948958745
2.912210892812733,-0.05546189958549108,-0.018594092409739194,0.2078152713518815,0.21589105953056312
2.9146978363591147,-0.05567033705264235,-0.013516777026195026,0.23690178238697612,0.24373006418342583
2.917184779905496,-0.05587785923655764,0.0011362523194966556,0.2803511106286187,0.2858677516840508
2.9196717234518776,-0.05608446658347721,-0.008153827750317255,0.31900964682624533,0.3240047948212199
2.922158666998259,-0.05629015956190153,-0.0030797907793287393,0.333723781780666,0.3384518129671318
2.9246456105446406,-0.061283341982789064,0.011569959835107113,0.3388587295859349,0.34455006978922414
2.927132554091022,-0.04712199775725995,0.0262186174043455,0.3487797043868106,0.3529237605537231
2.9296194976374035,-0.032959740701161366,0.03128937526860742,0.349121500456528,0.35206702713092153
2.932106441183785,-0.03316178133183778,0.03157063675780725,0.3494609287198873,0.3524476550470441
2.9345933847301664,-0.023786103625824784,0.03185080523046757,0.34022118687008884,0.34253570400006417
2.937080328276548,-0.014409514823423342,0.041706687393896935,0.31661387596995993,0.3196739406763396
2.9395672718229293,-0.014608822186398696,0.04677307338217851,0.273850597131279,0.278200085601077
2.942054215369311,-0.024384026357240962,0.03268475335759824,0.2406617747566262,0.2440921212830245
2.9445411589156927,-0.029369918038738507,0.028172147393321634,0.212259010054634,0.21612530930857327
2.947028102462074,-0.02956649791573901,0.0284468523482575,0.18864230760220124,0.19305263900037334
2.9495150460084556,-0.02976217001440956,0.019143658468485203,0.16981167202373193,0.17345970822937562
2.952001989554837,-0.0347453383818096,0.014627775949610289,0.16055551131116985,0.16492205001421018
2.9544889331012185,-0.034939197124839005,0.014899205053831466,0.15608542686272742,0.16064057484298389
2.9569758766476,-0.03513215033199851,0.000804332789474671,0.17076663340435871,0.17434493976724708
2.9594628201939814,-0.04490100543265085,0.0010735793952396655,0.18065711914568894,0.18615651361045757
2.961949763740363,-0.04988055327502583,0.006130138574430344,0.19054529226403183,0.19706130162451915
2.9644367072867444,-0.05007079468861497,0.0016088007370149704,0.20521956098218652,0.21124568854838724
2.966923650833126,-0.05026013384342248,-0.007702030398956783,0.24862194684931183,0.2537681516293312
2.9694105943795073,-0.04566016828891778,0.0021396621925071635,0.2776568249749758,0.281394281352082
2.971897537925889,-0.04584770555547768,0.007191862360839352,0.29232420039601514,0.29598508936446216
2.9743844814722706,-0.05082274655271668,0.012242973903757726,0.3069892881542664,0.3114085178967219
2.976871425018652,-0.046220082249054495,0.017292997324952264,0.3168636900540758,0.3206835540439758
2.9793583685650336,-0.04161652023409618,0.027130336474569194,0.31715900794319474,0.32102620801599635
2.981845312111415,-0.04180046479665028,0.03217818526781979,0.3078752470327366,0.3123617809524954
2.9843322556577965,-0.03719511028398376,0.042013350927028625,0.3033776225374609,0.3085232239907354
2.986819199204178,-0.037377264343895045,0.047059027418995036,0.29887773643323357,0.3048598256361579
2.9893061427505594,-0.037558524682410555,0.03295000541580029,0.28001038409732004,0.28443305158780197
2.991793086296941,-0.03295048902460718,0.02362830217745815,0.27071758751113606,0.27373717975203815
2.9942800298433223,-0.03791836839574625,0.0286707250283591,0.2566341421349492,0.26099980085200947
2.996766973389704,-0.038096953918032916,0.02413525807587069,0.24733686007158262,0.2514148184381566
2.9992539169360852,-0.03348624669331507,0.02438711201488708,0.23324894018325537,0.2368989827893823
3.001740860482467,-0.043239861123271606,0.024637884283940537,0.23352400129437534,0.2387680257331037
3.0042278040288486,-0.05299258838587584,0.010522365705686543,0.23858524234743328,0.24462594398359006
3.00671474757523,-0.04837921967745018,0.005982573689889303,0.23406745900422266,0.23908976441756638
3.0092016911216115,-0.048553369454746365,0.0014417024285959812,0.21997065692674944,0.22527005593306762
3.0116886346679927,-0.043938232270765154,0.0064765594194273746,0.2441788750190863,0.24818508634198722
3.0141755782143744,-0.04889901929807833,0.0019335322623175166,0.2588080858176518,0.2633941493653955
3.016662521760756,-0.05864732844590054,0.006966235143744726,0.2734351017408674,0.27974058059201523
3.0191494653071373,-0.05402954768028584,0.0024210557115962317,0.2641179120028756,0.2695984513569276
3.021636408853519,-0.04941088822713674,-0.00691360176091349,0.2547985390585179,0.2596373033118665
3.0241233523999003,-0.049579754689275446,-0.006672526336317652,0.2694190053998806,0.2740242236617385
3.026610295946282,-0.04974774504632801,0.003144282985396707,0.26967209039188234,0.27424033435841316
3.029097239492663,-0.045126457295233346,-0.0014051893739788213,0.2651346066391316,0.2689511690676995
3.031584183039045,-0.04529269941106501,-0.010744135727260407,0.26538336678245855,0.2694349577119862
3.0340711265854265,-0.04545806942504027,-0.0009305384032676223,0.2608415702173392,0.2647746716191314
3.036558070131808,-0.050410972025967005,0.013670393729601216,0.2515092230154288,0.25687552438321143
3.0390450136781895,-0.055363005278877775,0.018693451825726015,0.2517515412445306,0.2584440868227911
3.0415319572245707,-0.05552576726553865,0.018927040343376333,0.25199172440576945,0.25872992261348476
3.0440189007709524,-0.0413224527640208,0.014371160443003905,0.257018181995754,0.2607152109703533
3.046505844317334,-0.04627188645171093,0.019391023268353624,0.2668309202249812,0.2715066099514046
