Time (s),Acceleration x (m/s^2),Acceleration y (m/s^2),Acceleration z (m/s^2),Absolute acceleration (m/s^2)
0.0,-0.20391953782375827,0.3318972534551763,3.9127274160845573,3.9320700397293384
0.002486943546381497,-0.18084407429451943,0.24991054528682488,2.0580262964464517,2.081017082274458
0.004973887092762994,-0.24874838977069014,0.30199931519677126,0.8784927046986628,0.9616801859254468
0.007460830639144491,-0.39805571323995026,0.45943319205956357,0.412434186234538,0.7345945594570864
0.009947774185525988,-0.6096124670454988,0.7270006279860608,0.6550626564933968,1.152937273663061
0.012434717731907486,-0.8642650735258919,1.0759712518379814,1.5537059976331085,2.078141135529443
0.014921661278288981,-1.1476483583345691,1.453672675867455,3.0221732684839933,3.5445440140716125
0.01740860482467048,-1.4118783238765729,1.8313745289190693,4.950331511182419,5.463800429848411
0.019895548371051976,-1.647378199112445,2.1803464398272316,7.165798524601271,7.669187311818379
0.022382491917433474,-1.8445712129949463,2.4814348440557232,9.548864544030435,10.036970455538118
0.02486943546381497,-1.9747269811870238,2.6867557571341267,11.912782158161974,12.370633851850263
0.02735637901019647,-2.033057135943837,2.8058860344223726,14.09953437548935,14.519062895441445
0.029843322556577963,-2.0195617128307264,2.8292489179846734,16.003776640902004,16.376939449229514
0.032330266102959464,-1.9390291507224282,2.7472676498696993,17.51058759251428,17.83053536556003
0.03481720964934096,-1.8058246951226091,2.583884295351696,18.52898788490062,18.795234846100588
0.03730415319572246,-1.6391019948427679,2.3534641130465976,19.02545901233077,19.240414218794093
0.03979109674210395,-1.4388610853998958,2.075160764871905,18.980847678879982,19.14808585817354
0.04227804028848545,-1.2386208255391322,1.7920699293268567,18.414307815023612,18.542719015492214
0.04476498383486695,-1.0527464607095456,1.4994032516866853,17.402454190911403,17.498625577126763
0.04725192738124844,-0.8812380263836711,1.2402564104077909,16.017113173196456,16.089211628469734
0.04973887092762994,-0.7480375746192279,1.038571470642307,14.354053144950177,14.411003872066942
0.05222581447401144,-0.662721947495847,0.8943484809167265,12.523407699014705,12.572780121387295
0.05471275802039294,-0.634867987075228,0.8315295063339594,10.644887234675652,10.696173283930923
0.05719970156677443,-0.6501105187988043,0.8453261920488341,8.857355764295844,8.921321157369094
0.059686645113155926,-0.7084495780494667,0.9165849732279772,7.26615847678494,7.3579268702223075
0.062173588659537427,-0.8003083935492282,1.0500943016112523,5.94312173759254,6.088011789977639
0.06466053220591893,-0.9208985973193873,1.226700612307579,4.969648718584113,5.200986156961517
0.06714747575230041,-1.0606434180391302,1.4368271470360625,4.403200574791928,4.751590471888069
0.06963441929868192,-1.19560087440414,1.6373783242421294,4.253354427806608,4.711846041215267
0.07212136284506342,-1.3257710016883202,1.8235657889011598,4.510533785692166,5.0426159845103085
0.07460830639144492,-1.422423415219593,1.9858127826346217,5.112489719736958,5.666064940878821
0.0770952499378264,-1.4951349568635055,2.1049657403887125,6.025703720892155,6.555563640101361
0.0795821934842079,-1.529540451858403,2.171447903714557,7.154408036679006,7.63152896526736
0.0820691370305894,-1.535216742017786,2.190047724087476,8.41720012430699,8.831899988755877
0.0845560805769709,-1.5121638624873612,2.155976846304373,9.7661962639483,10.115011872201189
0.0870430241233524,-1.4555934450645909,2.069235318443634,11.067321475723215,11.352801052049394
0.0895299676697339,-1.365505524838555,1.9489768018250233,12.248750022623039,12.477779971979174
0.0920169112161154,-1.2610537501501289,1.7999897477664475,13.257809780620544,13.438740262091153
0.09450385476249688,-1.1661801726302983,1.6318510108641955,14.032251818741218,14.174872310580465
0.09699079830887838,-1.0713080206368815,1.4637142523121756,14.514615609017696,14.627516076389828
0.09947774185525989,-0.966860522495979,1.3195215365805935,14.680959446404746,14.771815278510694
0.10196468540164137,-0.8911449397043347,1.2136381214539806,14.550437255413245,14.62813320684238
0.10445162894802287,-0.8441613071629612,1.1269104414285978,14.123049346939416,14.193063739432644
0.10693857249440437,-0.8163328530982655,1.0832805608364116,13.441891661422224,13.510157198861378
0.10942551604078588,-0.8124480156628592,1.077960124039379,12.5835789621961,12.65577059309301
0.11191245958716736,-0.8372952329738728,1.1061607753503,11.586418785679584,11.669179716039732
0.11439940313354886,-0.8765093298309619,1.1774593689927353,10.536602701134337,10.638358691662022
0.11688634667993036,-0.9300903409577455,1.2631255325765458,9.496380260853863,9.625060634205095
0.11937329022631185,-0.9932498977198166,1.3631593135812563,8.518424210117821,8.683795235785167
0.12186023377269335,-1.0659880347646253,1.4679839527925398,7.655407293826065,7.8674372072666126
0.12434717731907485,-1.1291511734191761,1.5775994975824532,6.960002256492121,7.225332792168242
0.12683412086545634,-1.182739348251788,1.6632755753459307,6.4417862123537954,6.757363954318048
0.12932106441183785,-1.2267525937901125,1.7298006366638412,6.119913081890093,6.476918117350481
0.13180800795821934,-1.2516141378797692,1.7723863254191656,6.061420818377219,6.438067534138651
0.13429495150460083,-1.2716892249258032,1.7862442854366274,6.232790904952375,6.607234262299502
0.13678189505098234,-1.2678242760482055,1.761797757161376,6.619658437615129,6.966432915256213
0.13926883859736383,-1.2495961322452451,1.7086235942595576,7.183716495338098,7.489103268481174
0.14175578214374532,-1.2074280211896173,1.6458754569766885,7.848350930099633,8.109463654781853
0.14424272569012683,-1.1413199771495957,1.5591881822538594,8.565678013361728,8.780917885193402
0.14672966923650832,-1.0847908575898688,1.4629270268908054,9.292602419462073,9.469392082753279
0.14921661278288983,-1.037840696686447,1.3618804409824197,10.005182435568598,10.150640729345092
0.15170355632927132,-1.000469528568129,1.2752020845193353,10.650745928470016,10.77336848282729
0.1541904998756528,-0.943946967393912,1.2172572141056923,11.157467151210065,11.263295442847808
0.15667744342203432,-0.9113686770788353,1.154527053075349,11.515769599526543,11.609327071420763
0.1591643869684158,-0.9123114982463978,1.1109536645377869,11.730441978641814,11.81819780376283
0.1616513305147973,-0.9084682382669065,1.1200559181740066,11.782330976694107,11.870263815271414
0.1641382740611788,-0.9046273343427065,1.1435266337902519,11.647494878012425,11.738404521465144
0.1666252176075603,-0.9199424335855997,1.1717890510436075,11.34508759631349,11.442482083415436
0.1691121611539418,-0.9400483598130147,1.2287852327613444,10.91341665809392,11.022534518893618
0.1715991047003233,-0.9697335500707447,1.2857848051743401,10.37642437938186,10.50065753295384
0.1740860482467048,-1.0137864413509952,1.352364621002056,9.7867834956136,9.931655662920454
0.1765729917930863,-1.033899840708878,1.4189479196078378,9.187589935064919,9.353831882928164
0.1790599353394678,-1.063592604949208,1.4759579402792056,8.593209205563795,8.783673805496322
0.18154687888584928,-1.0837111542977005,1.51381792222693,8.065890847609042,8.27796289754599
0.1840338224322308,-1.099043925525264,1.5421047178653102,7.6056351579973365,7.8378358408212145
0.18652076597861228,-1.1048025487051352,1.5512415662487542,7.2172308363013125,7.464272235988033
0.18900770952499377,-1.096198653852816,1.5364401096723959,6.953350614746397,7.20495554954456
0.19149465307137528,-1.0875974842066378,1.5072772003117845,6.8187831917985315,7.0675708035354345
0.19398159661775677,-1.0742106696645846,1.463752883620399,6.818317265361296,7.055916056633058
0.19646854016413826,-1.0464614367445495,1.420232414930275,6.937587919488673,7.158370470410659
0.19895548371051977,-1.0187150285055342,1.3671390328885864,7.143076624379102,7.343731551895243
0.20144242725690126,-0.9909714779844765,1.3332032026207876,7.434783672892959,7.618101043722955
0.20392937080328274,-0.958442414836203,1.28490614600313,7.803132550663876,7.96608268032813
0.20641631434966426,-0.9307046786140112,1.2318247147086288,8.21460472613187,8.358428927325342
0.20890325789604575,-0.9077583021674408,1.197900970284274,8.6021628438969,8.732479456756959
0.21139020144242726,-0.8848149149619242,1.1831349575876258,8.961018791119246,9.081991165840076
0.21387714498880875,-0.8810281629999985,1.17794991474685,9.291172857669954,9.406894795667386
0.21636408853519024,-0.8772444656565874,1.1823458864410663,9.525587686320375,9.6386887291523
0.21885103208157175,-0.86388704888147,1.19632291725883,9.669051969025451,9.781004822373761
0.22133797562795324,-0.8696863651205011,1.2103042450566133,9.731142800433588,9.844609232555095
0.22382491917433472,-0.8946424468305889,1.2290783175594806,9.721437274560637,9.839581358044803
0.22631186272071624,-0.9052365031587335,1.2622219857195773,9.639935678143596,9.76427249448881
0.22879880626709773,-0.9158337763866953,1.2905816804730623,9.462696280673978,9.594111396071265
0.2312857498134792,-0.9360111054069135,1.3045806393017316,9.204084577556248,9.343084091706269
0.23377269335986073,-0.9370381024796819,1.3185841161930834,8.883254466860016,9.02933632112371
0.23625963690624222,-0.9428568163184476,1.3325921550769442,8.524148249314466,8.67904857712766
0.2387465804526237,-0.948678875643866,1.3370279931449214,8.160285031623081,8.323333903002915
0.24123352399900522,-0.9401391024644192,1.3271032708104749,7.810818709856549,7.978342781657328
0.2437204675453867,-0.9363911419586015,1.317183241668997,7.494903179408203,7.667162038953876
0.24620741109176822,-0.9374350259508548,1.3024795459344602,7.217327125027584,7.393581555992741
0.2486943546381497,-0.924117172910947,1.2686270170791916,7.0211864573384295,7.194474708166312
0.2511812981845312,-0.9060144211564769,1.2395677150361475,6.901693053067604,7.070414220557737
0.2536682417309127,-0.8879152056100705,1.2057248763933877,6.8253283683209585,6.987651481385878
0.2561551852772942,-0.8698195577987663,1.1766753509166732,6.825611504984186,6.98069648112254
0.2586421288236757,-0.8517275091737175,1.15720758494707,6.883389127709673,7.031757605891576
0.26112907237005717,-0.8432158977502084,1.1377448147594909,7.003449917036169,7.145193283191485
0.2636160159164387,-0.8299195448648633,1.1278638898040596,7.1714289395006485,7.3068622841257955
0.2661029594628202,-0.8214152883781656,1.1227764494630983,7.358596050953416,7.488944242852764
0.26858990300920166,-0.8272799660722994,1.1272709396518732,7.574528333076245,7.70250682454894
0.2710768465555832,-0.8331483990489886,1.131770596216216,7.800072446892786,7.925665342043753
0.2735637901019647,-0.8294438116507808,1.1458522681739023,7.9873446327634365,8.111635392428578
0.27605073364834615,-0.8305314447417051,1.1599391911513481,8.141133566825433,8.265185851556236
0.27853767719472766,-0.8411997324644982,1.1596661973437443,8.256651117823667,8.380019711230926
0.2810246207411092,-0.8470834955993953,1.1737637487173809,8.3147439437853,8.439800864773664
0.28351156428749064,-0.8481827648057381,1.192655080563545,8.329777525217786,8.457365651509392
0.28599850783387215,-0.8540743773010808,1.1923982180992911,8.28738692193976,8.416177193145755
0.28848545138025367,-0.8743351702199917,1.1921468163104054,8.206726016240099,8.3388265317822
0.2909723949266352,-0.8802347540509832,1.1919009167865642,8.083006673029157,8.217690545032086
0.29345933847301664,-0.8765615624406276,1.1916605610018096,7.921017563076015,8.057973337009386
0.29594628201939815,-0.8681040289508057,1.1770605803528373,7.725547356362902,7.862770387739108
0.29843322556577967,-0.8596505870581435,1.1672546293613555,7.501384722080296,7.6401737709462205
0.30092016911216113,-0.8559896701534517,1.1574543458295714,7.25810673194237,7.399495402414703
0.30340711265854264,-0.8427560982599225,1.1524481740816195,7.019655666822762,7.163374924981608
0.30589405620492416,-0.8343151112356987,1.1474477516815549,6.824339016749755,6.97024540910923
0.3083809997513056,-0.8258783355702,1.1328763127529158,6.667368641057745,6.813170213705295
0.31086794329768713,-0.8030805910242009,1.1183107045795369,6.548744801585594,6.691906734552664
0.31335488684406865,-0.7994407304730373,1.103750967682938,6.468467759351608,6.610480075907611
0.3158418303904501,-0.7958051701795039,1.0891971424622082,6.431326177869131,6.571271771139666
0.3183287739368316,-0.78259713295738,1.0698608658729634,6.442108719821572,6.577068138832127
0.32081571748321314,-0.7693934548115199,1.0553189847078626,6.486450433776513,6.616623283641827
0.3233026610295946,-0.7657709716560734,1.0551483456349533,6.55477477078265,6.683174059383461
0.3257896045759761,-0.7717297126733327,1.0501953752750728,6.661447197646487,6.7877356933445965
0.3282765481223576,-0.768116093672583,1.0500369200448856,6.7729491471230565,6.896768809836321
0.3307634916687391,-0.7645069502927073,1.0594614229139847,6.865338857755196,6.988548276680373
0.3332504352151206,-0.770479118079794,1.0641037134432467,6.981712213712761,7.104242409959465
0.3357373787615021,-0.7716674158850595,1.0591754277060046,7.083762241858506,7.203957987563168
0.3382243223078836,-0.7680718724268382,1.0542534116076652,7.137970371509272,7.2561701800360145
0.3407112658542651,-0.7644809196494492,1.0445493009631401,7.1826440809159555,7.298348464671145
0.3431982094006466,-0.7561061827617552,1.0492167480586592,7.203418410931015,7.318592019436338
0.34568515294702806,-0.7429476901975988,1.0491021784870231,7.171563191566635,7.285870247397328
0.3481720964934096,-0.7345822769356173,1.0442056309906755,7.115809091795107,7.229433971775
0.3506590400397911,-0.7310099712174983,1.029738740859467,7.0457331664195415,7.1580090321842
0.3531459835861726,-0.7418076078287401,1.0200667565315467,6.951758856069622,7.065250590584584
0.35563292713255407,-0.7430331982153496,1.0151897163505126,6.838674810439591,6.95342948887633
0.3581198706789356,-0.7346867703271112,0.9911656419241242,6.706481275002783,6.819022295915119
0.3606068142253171,-0.7215567553358525,0.9719365879283333,6.559966897648117,6.670717396229856
0.36309375777169856,-0.708431584314659,0.9622909956222605,6.427862341957237,6.537988494717793
0.36558070131808007,-0.7000996882373951,0.9622289028084867,6.300591044036316,6.411978753790499
0.3680676448644616,-0.6917726913376125,0.9525967338714714,6.173364842394836,6.2846180051916996
0.37055458841084304,-0.6930274277096428,0.9525481396206683,6.0892796078243805,6.20217390244086
0.37304153195722456,-0.6894987147456364,0.9525063508055169,6.019605160386778,6.13337778984108
0.3755284755036061,-0.6811865796976012,0.9381061947163776,5.973918545777362,6.085372723219842
0.37801541904998753,-0.6776678563566322,0.9189245151057823,5.952220002117901,6.0607407914885965
0.38050236259636905,-0.6741541684508977,0.9141149622268792,5.944932959952663,6.052463788023708
0.38298930614275056,-0.6897991562076865,0.9141007662703202,5.95684605884615,6.0659226879009704
0.385476249689132,-0.6862956199076535,0.9188819639261538,5.978382727457351,6.087397290919462
0.38796319323551354,-0.67800879625156,0.9188817851019684,6.019120006778126,6.1264871924116004
0.39045013678189505,-0.6793039218363975,0.9093118628832306,6.055116113605971,6.160578952619076
0.3929370803282765,-0.6758158132330792,0.9045374434936315,6.091159683704376,6.194928675334647
0.395424023874658,-0.6866981101500672,0.9093469663726201,6.136827755197507,6.241724208637965
0.39791096742103954,-0.688008822307945,0.9045868542138826,6.182543751964976,6.286134007587756
0.400397910967421,-0.6797479759233667,0.9046223528085122,6.209154290278809,6.3114179003184745
0.4028848545138025,-0.6762808070680091,0.8998766912006819,6.207082792081078,6.308328667493782
0.40537179806018403,-0.6776073417462789,0.8903499049292629,6.195483098261562,6.295703732200292
0.4078587416065655,-0.6741507992152103,0.8808304327069456,6.169567032130745,6.268484578845175
0.410345685152947,-0.6802764152262399,0.8761067130993649,6.119758012697549,6.219467590383174
0.4128326286993285,-0.6720421988607377,0.8713903778839234,6.065209877908029,6.1642301036537726
0.41531957224571003,-0.6542365790139764,0.8714698653304875,6.00113444811846,6.099270439314288
0.4178065157920915,-0.6555900010744181,0.8667684035992798,5.922743542693496,6.021625759502521
0.420293459338473,-0.6569488771186304,0.8620744306622119,5.834825786643366,5.934639509829336
0.4227804028848545,-0.658313232395266,0.8669647876617228,5.737381400659601,5.839738829059632
0.425267346431236,-0.650106285402799,0.8670742989883733,5.654352621033563,5.7572701504511254
0.4277542899776175,-0.6371164644906985,0.8671914021631293,5.590528069770324,5.6931487259864095
0.430241233523999,-0.6337090045387347,0.8673161312352782,5.526754351265097,5.630172113991018
0.43272817707038047,-0.6303071237144104,0.8770253267428487,5.4582432788625015,5.564070469108133
0.435215120616762,-0.6173340400741488,0.8819538124699151,5.413725488134592,5.519725310669238
0.4377020641631435,-0.6091549881644812,0.8916784286492077,5.378835983752695,5.486167766286117
0.44018900770952496,-0.6105583957794917,0.8966224020788032,5.358363382648347,5.467062412948386
0.4426759512559065,-0.6119674806401398,0.9015741693638106,5.342731090767979,5.45271635870452
0.445162894802288,-0.6133822669954601,0.8921685536736936,5.346304529632354,5.4548303967397676
0.44764983834866945,-0.6052259723409535,0.8827707979449089,5.369083909771015,5.474727827889013
0.45013678189505096,-0.6114406373010458,0.8781693383179197,5.372762214117716,5.478285758260147
0.4526237254414325,-0.6128726725037361,0.8783642074570326,5.371704861093374,5.477440068895111
0.45511066898781394,-0.6047336984239994,0.8785670345499235,5.380277268079704,5.484976423068983
0.45759761253419545,-0.6013889487037543,0.8692010453071677,5.364960818213156,5.468087755856562
0.46008455608057697,-0.593261640268711,0.8694198852039672,5.35448613674923,5.456956303585553
0.4625714996269584,-0.5995054098514703,0.8600699729953141,5.353641831294011,5.455328400075511
0.46505844317333994,-0.6009666675068173,0.8507281471999153,5.343274491801336,5.443848051757807
0.46754538671972146,-0.5976454364551401,0.8509712461778633,5.323384320452841,5.423997857003662
0.4700323302661029,-0.5895417398008543,0.83685728488801,5.2939715183739455,5.392033384131824
0.47251927381248443,-0.5814440038523921,0.8179631013718998,5.250247882310827,5.34530107576095
0.47500621735886595,-0.5781406548015721,0.8134423401517745,5.201790417908984,5.296655417273783
0.4774931609052474,-0.5796317154029696,0.8137182256676456,5.167752936390255,5.263438105255423
0.4799801044516289,-0.5763404016532943,0.823579192159682,5.119405214706462,5.217160213823224
0.48246704799801043,-0.5682667360723305,0.8190832537849757,5.061535851982131,5.158775982813923
0.48495399154439195,-0.5697759510229449,0.8050188444608779,4.998933446269746,5.09529543545176
0.4874409350907734,-0.5665028588279742,0.7957512045833413,4.950751804508156,5.046195487542756
0.4899278786371549,-0.5632358849730517,0.7864919611046375,4.89783750599666,4.992455958959596
0.49241482218353644,-0.5599750515047505,0.7820295474548369,4.844979145556599,4.939530867630905
0.4949017657299179,-0.5519319770302946,0.7775755902601631,4.811330526888298,4.904911227005464
0.4973887092762994,-0.5486834899985206,0.7731301193035391,4.772949822724929,4.866192943546443
0.4998756528226809,-0.5502296120980328,0.7591163575632642,4.729837221314523,4.821863790121197
0.5023625963690624,-0.5469935582569238,0.7451111411345115,4.701146523097308,4.791155517935862
0.5048495399154439,-0.5389753499237481,0.7311144993070715,4.677301107500308,4.764679264037199
0.5073364834618254,-0.5453286217078748,0.7171264612056154,4.667877966138197,4.754023388012891
0.5098234270082069,-0.5468997815354688,0.7031470557893242,4.663300476248556,4.747619033251167
0.5123103705545884,-0.5341120438523508,0.6939647151718438,4.649203610650622,4.730957293675187
0.5147973141009698,-0.5309074462252975,0.6895794679803036,4.625587551024349,4.706744389841974
0.5172842576473514,-0.5372860094980344,0.6708377293940284,4.602029284587979,4.681599411673985
0.5197712011937329,-0.5293057377909807,0.6616815443082564,4.597682604095919,4.675112015571695
0.5222581447401143,-0.5309086683056856,0.6573225375291083,4.5933940746335535,4.670461011217679
0.5247450882864959,-0.5277296115589571,0.657760737015441,4.589163873458956,4.666001798921221
0.5272320318328774,-0.5149801845857421,0.6486309605972655,4.584992176719622,4.659193060406644
0.5297189753792588,-0.5118140208998239,0.6442984458582313,4.561725546169248,4.635344004267439
0.5322059189256404,-0.5086543339701486,0.6351864136118694,4.528940962368902,4.601466858744794
0.5346928624720219,-0.5102895471034041,0.6308716977840885,4.496215404763252,4.5688453122182136
0.5371798060184033,-0.4975660668812907,0.6265659221706779,4.463549045038045,4.534691491512664
0.5396667495647849,-0.4896375263243575,0.6222691137182492,4.421365247118265,4.491707292945288
0.5421536931111663,-0.48650394504803035,0.6179812992036229,4.36966418044757,4.4398819831837
0.5446406366575478,-0.4785885359030179,0.6089141019132167,4.313234416666194,4.382215707073344
0.5471275802039294,-0.48983333485790875,0.6094327582443175,4.261652929609184,4.332785556106583
0.5496145237503108,-0.4915079412333348,0.6051720845016688,4.210131482023449,4.281707650468501
0.5521014672966923,-0.46924716418613804,0.61049731674094,4.173035448808251,4.243480261749181
0.5545884108430739,-0.45656984595135347,0.6110432709246993,4.140788187130726,4.210458017111174
0.5570753543894553,-0.4534760053966954,0.5972331661643246,4.113389859666466,4.181184530709463
0.5595622979358368,-0.4551772579442352,0.6025858512822397,4.095629031277597,4.164669639498317
0.5620492414822184,-0.4520968155702071,0.6127361417257122,4.073140652409661,4.1437075046795755
0.5645361850285998,-0.4442346967657552,0.6037420461290968,4.060290092293217,4.1288987100253705
0.5670231285749813,-0.4411677265367467,0.5995456061573321,4.047500702418887,4.115379184580875
0.5695100721213628,-0.4428959231223383,0.6049352500213152,4.020407429817165,4.089716292992192
0.5719970156677443,-0.43984249799479647,0.600757389157345,3.9933756402991483,4.062193972252444
0.5744839592141259,-0.4367958724608837,0.591800451430011,3.9759822952129573,4.043445760778612
0.5769709027605073,-0.43854446770074695,0.5876412678507072,3.9682275481220506,4.035402505761582
0.5794578463068888,-0.4402998981271258,0.5882798626164656,3.9557463414835663,4.023414758039671
0.5819447898532704,-0.4420621813461213,0.593716259750358,3.93375042324859,4.00278782371448
0.5844317333996518,-0.4342545281960988,0.5895852731403393,3.926181960142115,3.9938818928090707
0.5869186769460333,-0.4264537626694011,0.5854637331015318,3.913887487857105,3.9803449425993813
0.5894056204924149,-0.4234483053106331,0.5861400664541401,3.8872903475767275,3.9539720397514833
0.5918925640387963,-0.41566136657588465,0.586825893202934,3.860755895934102,3.927158653350675
0.5943795075851778,-0.4078813667544553,0.5875212364979843,3.839072681768962,3.9051283549438334
0.5968664511315593,-0.4096851293280867,0.583437715993842,3.798298832845279,3.8646235906269695
0.5993533946779408,-0.41149586436925656,0.5793637578102862,3.752799702334549,3.8194890778871637
0.6018403382243223,-0.40852518514260533,0.5657225779305737,3.707363835611619,3.772463581226081
0.6043272817707038,-0.41513831806573737,0.5520910054434469,3.6667797768942725,3.731275684488995
0.6068142253170853,-0.4121816661856532,0.5528342725820163,3.6310476659219253,3.695947322551815
0.6093011688634667,-0.39965524570205957,0.558375594801718,3.590590834634348,3.655660017294761
0.6117881124098483,-0.40150108928755707,0.5495613807410793,3.559774630412912,3.6242538894553897
0.6142750559562298,-0.4033540029234577,0.5455452654246833,3.5290223828765654,3.5936489905311366
0.6167619995026112,-0.39563719578247963,0.5463272704192597,3.4983342271231317,3.5627720445955537
0.6192489430489928,-0.38313908686925857,0.5423306104741576,3.472498700408189,3.535415856060054
0.6217358865953743,-0.3802249016999246,0.5287669034821354,3.456304338823907,3.517130235954274
0.6242228301417557,-0.3868946557004331,0.5295781870807774,3.4353860640170195,3.497430190823495
0.6267097736881373,-0.3792063475658356,0.5256108688476684,3.4145324097505867,3.475499362210008
0.6291967172345188,-0.376313605744555,0.5216533727846335,3.388955101981387,3.4494566027784326
0.6316836607809002,-0.3686396386336013,0.5320709293566694,3.363442672140491,3.4251629546364577
0.6341706043272818,-0.3609728644612903,0.5329215422886961,3.3379952471716505,3.3994880569364088
0.6366575478736632,-0.3581017013262163,0.5242052317294981,3.3221897594916046,3.382302876966549
0.6391444914200447,-0.36002616387685327,0.5250756309312976,3.2968727204269896,3.357780962416912
0.6416314349664263,-0.37153466995209605,0.535532759687142,3.266832656737196,3.331220340175526
0.6441183785128077,-0.3638968140186809,0.5364230243307984,3.2560117072935144,3.319907045433286
0.6466053220591892,-0.3466894169757963,0.5325348476194618,3.2452563799145704,3.3068831075724954
0.6490922656055708,-0.3438545095534469,0.5286566521320943,3.224989987889277,3.286072762671246
0.6515792091519522,-0.3410268957889466,0.5295768602693331,3.195212649976378,3.2567061385936005
0.6540661526983337,-0.3382065895502896,0.5352954909330871,3.1559244837634113,3.218817221751786
0.6565530962447153,-0.33539360457514955,0.5314473528858294,3.1167024123069353,3.17942747766939
0.6590400397910967,-0.3277995511505069,0.5180324646723933,3.0823349541712366,3.1427056734436376
0.6615269833374782,-0.3297896527141557,0.5094160546198965,3.057610626748307,3.117250178690507
0.6640139268838597,-0.33657551929214946,0.5008097375954836,3.0377411396169185,3.0970897153260397
0.6665008704302412,-0.33379195413937657,0.48263672496719767,3.046668621104847,3.10266739496198
0.6689878139766227,-0.335804180302014,0.4644738412054825,3.0412975518823915,3.0948329834998063
0.6714747575230042,-0.34261221073467096,0.4654747172425031,3.012051234688708,3.0670021975418043
0.6739617010693857,-0.3398508483003492,0.46169735394865086,2.9876601976519392,3.042166415955458
0.6764486446157671,-0.33230850901259346,0.44835336529656145,2.9585477411640646,3.010723239037742
0.6789355881621487,-0.32477360875420835,0.4493847850016963,2.9247139710838903,2.976806408651317
0.6814225317085302,-0.3220345632772278,0.4600032266785501,2.905312605377583,2.9590793438949405
0.6839094752549116,-0.31930298156226333,0.45626669048124313,2.8716133276342104,2.9251148336986157
0.6863964188012932,-0.32615568242004256,0.4477519996269299,2.8331930468313358,2.8868394868711054
0.6888833623476747,-0.3234390646085762,0.44403597715358645,2.8139938807334426,2.867113938846322
0.6913703058940561,-0.3159415433565783,0.43554183263873547,2.7804971060872523,2.832080490338583
0.6938572494404377,-0.32281674372282715,0.427057985441619,2.7566448383092874,2.808145284264064
0.6963441929868192,-0.3201226607524045,0.4233728547422517,2.7424371750406324,2.7933286149511027
0.6988311365332006,-0.30785930596106265,0.4196980529007859,2.728297406107969,2.777504373363075
0.7013180800795822,-0.3051803040149079,0.4016683854575085,2.695072013523701,2.7418763042692804
0.7038050236259636,-0.3072972628475863,0.38364907769533874,2.661914704689239,2.70691856501279
0.7062919671723452,-0.30463338694153586,0.3800053547179596,2.643190782512379,2.6876873112049693
0.7087789107187267,-0.3067654939295535,0.38116042484826185,2.6197467254856432,2.665044322976468
0.7112658542651081,-0.3136935946729297,0.3631722862689841,2.6011594308505845,2.6450573085579077
0.7137527978114897,-0.3110524899411455,0.34998297018679425,2.5922173913558675,2.6341664212739437
0.7162397413578712,-0.30363059365407635,0.33680408770731196,2.5833438886169455,2.6228408601654816
0.7187266849042526,-0.29142791628044484,0.32842405639763195,2.5649622030773207,2.6022727940059434
0.7212136284506342,-0.2840212747987806,0.3200544870051094,2.541860823969839,2.577626700595541
0.7237005719970157,-0.27183387277557036,0.3164837967386447,2.523616642676445,2.5578695445975748
0.7261875155433971,-0.27880773688871807,0.3272888059484056,2.4910761294864026,2.527906643755876
0.7286744590897787,-0.2762124571619545,0.32852751156337234,2.4490277701201757,2.486354895457458
0.7311614026361601,-0.26883644673049384,0.32019992693513855,2.4166252590892494,2.452524958317066
0.7336483461825416,-0.2710449252395059,0.33582488847858505,2.389080273134139,2.42774550945902
0.7361352897289232,-0.2636842889613453,0.34667198926568954,2.3568160845061543,2.396725459574667
0.7386222332753046,-0.26111975727996756,0.33837603215058465,2.3341979808898046,2.3730069702312218
0.7411091768216861,-0.2537745328472245,0.3348790463711837,2.3116492322002626,2.3495249864498917
0.7435961203680677,-0.25122543146572557,0.3361810443851878,2.2891699138261483,2.3273226691599667
0.7460830639144491,-0.253472462167013,0.3231284251904736,2.261971696669211,2.2989511140465066
0.7485700074608306,-0.2557272305319312,0.310086410848601,2.2396314604262324,2.275411847811169
0.7510569510072121,-0.24841293869068132,0.3066318199224005,2.2221492769881444,2.256918135492911
0.7535438945535936,-0.24589480524475849,0.30318785751511834,2.199948410440733,2.234314243966518
0.7560308380999751,-0.24338443538420257,0.2949661318720671,2.1778173336669298,2.2111375672171536
0.7585177816463566,-0.23130503084860188,0.2963318643416568,2.1653329217069484,2.197721832477446
0.7610047251927381,-0.23359861648966274,0.28813145285205266,2.1385532251965707,2.1704833435774558
0.7634916687391196,-0.23589999046659427,0.28473011839565565,2.1214203268132614,2.1534029462319
0.7659786122855011,-0.23342075744930874,0.2909162751463925,2.109145888152021,2.14187158967615
0.7684655558318826,-0.21658411865756222,0.2971131271395113,2.0873647630074785,2.119499125882943
0.770952499378264,-0.20454369510322334,0.3081090881935724,2.0465002073357335,2.0796471893230244
0.7734394429246456,-0.21645310766848264,0.32869257194962787,2.0104942991771324,2.0486527479536285
0.7759263864710271,-0.21400513726218873,0.3492867819104024,1.9841355021337694,2.025979552122765
0.7784133300174085,-0.2115650011871263,0.34594971144042175,1.9674238753313782,2.008780141727053
0.7809002735637901,-0.20913270665573358,0.3378349836098873,1.950782670100038,1.9908344961614663
0.7833872171101716,-0.2019198574308232,0.33930781799168797,1.934211943256419,1.974101635076304
0.785874160656553,-0.204291670427243,0.3312146107396585,1.927288557104819,1.9661839657876758
0.7883611042029346,-0.20667134582916513,0.3231321777527869,1.910858952875751,1.948976497362528
0.790848047749316,-0.20427048701206518,0.3198489314331687,1.8897115872504457,1.9274438133942284
0.7933349912956975,-0.21145431050376678,0.3213648806861582,1.8877885290416794,1.9265860589006658
0.7958219348420791,-0.21864601610173873,0.3181032276002078,1.8907246193511424,1.9297241590412226
0.7983088783884605,-0.21626880347477045,0.3100639807282719,1.8793662948128054,1.9170105731528668
0.800795821934842,-0.20911108212402496,0.2924587451270315,1.8393483942347322,1.8741563642455894
0.8032827654812236,-0.21153806806284475,0.2844411422789346,1.8137665951237212,1.8480812696543956
0.805769709027605,-0.20918455725437263,0.2860111802095515,1.7834673306787314,1.8183278840178654
0.8082566525739865,-0.20205055549448797,0.2828036568080554,1.7532390495577808,1.7873582461761577
0.8107435961203681,-0.209289681732246,0.27960698306958776,1.7374470059182894,1.7722032429253958
0.8132305396667495,-0.21174832822625694,0.28599797313449793,1.7265144361762017,1.7628058014053856
0.815717483213131,-0.20463809706825553,0.2923998276869644,1.7060761722885704,1.7430061146346856
0.8182044267595125,-0.19274739686292341,0.2844473439161197,1.6713438517158599,1.7062977820787246
0.820691370305894,-0.17607623276708934,0.2717173354381144,1.6414711273842535,1.6730991041056626
0.8231783138522755,-0.1737782230914317,0.26378661569474726,1.6116696344839392,1.6423340890811766
0.825665257398657,-0.18106496941780914,0.26544359463335265,1.5915162170330364,1.6236282499886772
0.8281522009450385,-0.18357126656034323,0.25753466542574976,1.5762225079571728,1.6076379904671703
0.8306391444914201,-0.18129711916712932,0.24005983435126055,1.5514233324112752,1.5803201339719621
0.8331260880378015,-0.17903093507976248,0.22259591415629387,1.536272337663874,1.5626047843859414
0.835613031584183,-0.1863495253334912,0.2147197174139288,1.5211927499345759,1.5475329027493574
0.8380999751305646,-0.17452247427456014,0.21164284656319898,1.5013961976377832,1.5262507430987484
0.840586918676946,-0.15791499600568482,0.1990000972296202,1.4673059047436547,1.4891355891108333
0.8430738622233275,-0.1556807078237067,0.18636828146759843,1.4524407239828045,1.4726009900205046
0.845560805769709,-0.15824280697757598,0.19290101779972435,1.447223877082303,1.4685736409950454
0.8480477493160905,-0.1560244905903898,0.18986789137324944,1.4420785846501118,1.4628684500477083
0.850534692862472,-0.1490257623001871,0.1868457137259445,1.4274280661767502,1.4472977864544692
0.8530216364088535,-0.1372466256194948,0.17425768294258548,1.3889071367166625,1.406508233438729
0.855508579955235,-0.12547548725581698,0.16646901353800736,1.3552462400930363,1.3711850355282884
0.8579955235016165,-0.118500753791495,0.16826811321516155,1.3216569957745516,1.3375850631096162
0.860482467047998,-0.12589923500420352,0.16050137290442423,1.29771623208023,1.313650915229521
0.8629694105943795,-0.13809412726556514,0.1623224099279117,1.2882123728999666,1.3057218962867267
0.8654563541407609,-0.1311434168616531,0.17373122815598263,1.2739918244150683,1.2924535984317462
0.8679432976871425,-0.12420071983692288,0.1707858146871848,1.264631411623503,1.282141263890695
0.870430241233524,-0.12684284547096614,0.1678513830125774,1.2505543451385979,1.268128291763666
0.8729171847799054,-0.11991618299745377,0.17450474313318276,1.2269722377924595,1.2451074928029677
0.875404128326287,-0.12257434808870288,0.17638068827900222,1.227403927880049,1.2460557853412975
0.8778910718726685,-0.1252405363714985,0.17347922147179107,1.2135422027938816,1.2322600822046075
0.8803780154190499,-0.12312634666948258,0.1801655555253281,1.1853870753931322,1.2053058712007532
0.8828649589654315,-0.11623178100335285,0.19165128980350543,1.1668805740446526,1.188213077642784
0.885351902511813,-0.10934524459106831,0.1983596201815474,1.1580227094217967,1.1799658965283053
0.8878388460581944,-0.11204354584805476,0.20029054900723375,1.1396598778267055,1.1625380412338366
0.890325789604576,-0.10517307314522611,0.19744407846056244,1.126157297715757,1.1481619217829897
0.8928127331509574,-0.10788744129357025,0.19939701719466463,1.1270917831390914,1.1496672379756934
0.8952996766973389,-0.10582144173967495,0.2013609637345377,1.1089445171801433,1.1320346096440101
0.8977866202437205,-0.10376347908938122,0.2033359197585889,1.0812923117233346,1.1051268792535982
0.9002735637901019,-0.11607876446737675,0.20532188677862306,1.0537119775733519,1.0797871495957665
0.9027605073364834,1.399098570224771,-1.6505816221411003,-13.319852829839643,13.494457229141975
0.905247450882865,1.377190399066205,-1.658150435899189,-15.880354769637565,16.025972166233892
0.9077343944292464,1.240352507389991,-1.498114118911495,-17.052147869203207,17.162708620991094
0.9102213379756279,0.9981617011579008,-1.203991493571755,-16.816078515389023,16.888647634845718
0.9127082815220094,0.6697715930929413,-0.7901477691574552,-15.291856792405527,15.32689830472747
0.9151952250683909,0.3078546192807765,-0.3092553816733776,-12.647076818733083,12.65460253886475
0.9176821686147724,-0.0732240106352176,0.17164802275031166,-9.130735570362576,9.132642380786187
0.9201691121611539,-0.44473387693085087,0.6190436210616448,-5.068444477471504,5.125439751599704
0.9226560557075354,-0.7683677531215936,0.9946241867245713,-0.7570845513755131,1.4672570649978494
0.9251429992539169,-1.039337235845548,1.288812912961391,3.4777327756291196,3.851738032773791
0.9276299428002984,-1.2097582917388419,1.4585141695891992,7.305607666870982,7.547362591632088
0.9301168863466799,-1.2892077271623483,1.4797859395435617,10.448812721148567,10.63153376857178
0.9326038298930613,-1.2681087350769626,1.3813586421210577,12.70144658601478,12.839119784452809
0.9350907734394429,-1.151249718286022,1.1775974864952694,13.972529587660445,14.069246420192524
0.9375777169858244,-0.9673610960762071,0.8828676816780523,14.20938927779357,14.269617601093177
0.9400646605322058,-0.7212312710146214,0.5354764531213974,13.426390853562477,13.456406687179271
0.9425516040785874,-0.4176486455506704,0.1737310261163092,11.73845598080069,11.747168240634048
0.9450385476249689,-0.1092856552193961,-0.1784265841678474,9.327543970787069,9.329890456341957
0.9475254911713503,0.17512728116286697,-0.4874775560813305,6.4043445536864905,6.425257434112997
0.9500124347177319,0.4260133581780948,-0.7342682780954182,3.203489475230178,3.3140582528787736
0.9524993782641133,0.6433725771654941,-0.8948567355205796,-0.01644750328001976,1.1022555831200243
0.9549863218104948,0.7841093096978458,-0.9596661237874413,-3.0208346381721345,3.2651536548653595
0.9574732653568764,0.8434351540266452,-0.9286964451261612,-5.61334741336448,5.751828329267452
0.9599602089032578,0.826138515159854,-0.806736105245675,-7.6120265237596305,7.6991087658350175
0.9624471524496394,0.7513730081819685,-0.6081503166536386,-8.92110392504742,8.973321762121698
0.9649340959960209,0.6143502316912921,-0.3808231152577033,-9.444811573936372,9.472429367351133
0.9674210395424023,0.41028178440115226,-0.11517769727906524,-9.202303107839132,9.212164758248065
0.9699079830887839,0.1822632983427232,0.14569030438071406,-8.255827795064482,8.259124539348743
0.9723949266351654,-0.04097480429914491,0.38262727326490165,-6.6963653248545985,6.707413147313092
0.9748818701815468,-0.2498557145067472,0.5812679960809981,-4.686721437264304,4.729234419211262
0.9773688137279284,-0.43959102646871445,0.7033052427790727,-2.380125066713867,2.520490799084979
0.9798557572743098,-0.6006039309397349,0.7535274130365974,0.02231081817027558,0.9638601644768372
0.9823427008206913,-0.6993756019595843,0.7367229063760208,2.3338384577222833,2.5453268591949025
0.9848296443670729,-0.7359060366971564,0.6576801221651736,4.406017317840785,4.515206467377922
0.9873165879134543,-0.7293488454898371,0.5403410728989182,6.076041653468655,6.143468107524042
0.9898035314598358,-0.6701272186406513,0.3799173509963816,7.238566558400624,7.2794404663509
0.9922904750062174,-0.553452749660754,0.1955625653248787,7.826554352003745,7.84853538489394
0.9947774185525988,-0.3984790485510057,0.00643032459872428,7.835216595822773,7.845345499381476
0.9972643620989803,-0.2195713218803383,-0.17790256926102277,7.298072076980933,7.303541396497369
0.9997513056453619,-0.04067158274700733,-0.32391729788392976,6.282158404862239,6.290635168032942
1.0022382491917432,0.13822017246316842,-0.42203705965281824,4.8928204144355085,4.912933105967657
1.0047251927381249,0.2883735275532948,-0.4770502630628788,3.2497681496541198,3.297230545683491
1.0072121362845063,0.4097884863586477,-0.47938010679924936,1.448769636897742,1.5800839696496471
1.0096990798308878,0.48809984286363944,-0.4338149996585181,-0.342581048619218,0.7374270712451995
1.0121860233772693,0.5328844077639922,-0.34993175390766273,-1.9949970592117872,2.0943808848188414
1.0146729669236507,0.5297769752633004,-0.23251877864299741,-3.4031335647606156,3.451962729454224
1.0171599104700322,0.46920074299459225,-0.10072969307099378,-4.46164573610749,4.487379912913437
1.0196468540164139,0.3750977319418973,0.026281883453080024,-5.103495971614867,5.117329399031782
1.0221337975627953,0.2570447532367499,0.15330434802722426,-5.328684317085064,5.337082609388664
1.0246207411091768,0.1246186181189522,0.27554929096078595,-5.127634012631854,5.136544342184726
1.0271076846555582,-0.026969072024888796,0.3547094791735641,-4.533863929201295,4.547798178676586
1.0295946282019397,-0.1594110858177713,0.4003617126413941,-3.628776971888975,3.6542747169503373
1.0320815717483214,-0.26791901501769977,0.4077175812325957,-2.4794108367727974,2.526953169760096
1.0345685152947028,-0.3620696612367058,0.38156548130998225,-1.191110447434017,1.3020870762363959
1.0370554588410843,-0.43228621269907397,0.3314822124109762,0.1355676749297654,0.5613647845389369
1.0395424023874658,-0.45941505088221013,0.2526793639668323,1.3809133949049066,1.477102181360376
1.0420293459338472,-0.44824457375920235,0.1547337352249536,2.4635238027091013,2.5087477460349707
1.0445162894802287,-0.3939863725569622,0.04243372196810746,3.3307264075536356,3.354215897120489
1.0470032330266104,-0.31100565167839367,-0.06027866688361572,3.925060314404723,3.937823828559636
1.0494901765729918,-0.21366761542160984,-0.1438266325143598,4.1938530306261725,4.201754775399525
1.0519771201193733,-0.12112587130036567,-0.21299858621228118,4.165834919108789,4.173034920497651
1.0544640636657547,-0.0046499935211526955,-0.25342932612670666,3.8122755019835513,3.8206926791885163
1.0569510072121362,0.11660641061030025,-0.2603304571896232,3.2002123668750446,3.212900277792006
1.0594379507585177,0.21870133057148117,-0.2528556010761318,2.3966831004983202,2.4198876236725435
1.0619248943048993,0.2872695625836925,-0.22142795968053353,1.4543600787010291,1.4989053944244026
1.0644118378512808,0.33188791957262553,-0.15647073503775832,0.4450692897092132,0.5768183030415778
1.0668987813976623,0.3621332145664871,-0.08192595256503044,-0.5449980691906138,0.6594506973363833
1.0693857249440437,0.3684286474143732,-0.007370427858282458,-1.4535928182103888,1.4995752974076424
1.0718726684904252,0.33640901474686613,0.07677263662855882,-2.2088889718143454,2.2356778732055504
1.0743596120368066,0.28522793653817524,0.14656121506075337,-2.753425755318795,2.7720368965067523
1.0768465555831883,0.21009701626204447,0.19720689474656394,-3.082414831450312,3.0958540838874584
1.0793334991295698,0.12059306745392612,0.23349806949714091,-3.1719142505381823,3.1827824382360848
1.0818204426759512,0.031081307069923958,0.24106951970516288,-3.026712483714263,3.036456655388286
1.0843073862223327,-0.039284644513483014,0.22470963890778783,-2.685116826229965,2.694789430663535
1.0867943297687142,-0.11923520002327592,0.20357203046685068,-2.175857767570194,2.188610433404843
1.0892812733150956,-0.18482833556368472,0.17286828100684826,-1.522877394770358,1.543761806661914
1.0917682168614773,-0.21212202713998574,0.10865636373574938,-0.7836366189755637,0.8190777193757044
1.0942551604078588,-0.2298466871823014,0.0444550915704891,-0.04911517543729893,0.2392029582456202
1.0967421039542402,-0.2332139047803382,-0.010158739307844389,0.6423796362555301,0.6834789846388875
1.0992290475006217,-0.21264686560562673,-0.06955034945351679,1.2621173222971045,1.2817940847903055
1.1017159910470031,-0.17772236851344947,-0.1193545396322011,1.7143297415430592,1.7276449893250456
1.1042029345933846,-0.11407519566039526,-0.15478291738297933,1.999016818404474,2.0082427995744165
1.1066898781397663,-0.04564735566879652,-0.17583549369752127,2.1161784764449685,2.123961663046759
1.1091768216861477,0.017984352896374678,-0.18730068301958624,2.0322958151419446,2.0409878155080117
1.1116637652325292,0.0816083415270471,-0.1748132866429395,1.8000411928977869,1.81035021548942
1.1141507087789106,0.1356478118499192,-0.15273852591397352,1.4385681440353597,1.4529995496184382
1.116637652325292,0.17531436890724988,-0.12586481566869878,0.9766070086843666,1.0001691502841352
1.1191245958716736,0.21018482779714198,-0.09419216755254256,0.42373451286282915,0.48228701377443245
1.1216115394180552,0.23068239043097483,-0.07208580330108116,-0.14822337507415284,0.2835152504026615
1.1240984829644367,0.22723025881427616,-0.03560371821608799,-0.6865943008762727,0.7240945720466293
1.1265854265108182,0.19982844168696945,-0.013476344250951122,-1.1818015409961067,1.198652535250389
1.1290723700571996,0.16763056116361913,-0.005703693564840684,-1.5955379527809743,1.6043297341634026
1.131559313603581,0.12584822285023678,0.006867834837186226,-1.8942847977116406,1.8984730277755713
1.1340462571499625,0.07448143576577099,0.00029621194064510803,-2.0828305646410232,2.08416187783437
1.1365332006963442,0.023107015662060082,-0.011053364832535273,-2.127656516665682,2.1278106973969444
1.1390201442427257,-0.03306343157816238,-0.027180908146930083,-2.014397530966094,2.014852204266534
1.1415070877891071,-0.07487628337910468,-0.062451640753084625,-1.7861493253656189,1.7888085637511568
1.1439940313354886,-0.10711993367545303,-0.1072887689244908,-1.4668540052019772,1.4746681771520833
1.14648097488187,-0.12979437299087782,-0.14253869241799055,-1.080453676604968,1.0975172004964289
1.1489679184282517,-0.12853438179779653,-0.1682014243951233,-0.6652556564538319,0.6981245554458809
1.1514548619746332,-0.11291675708026938,-0.19864218810126522,-0.2547788590926139,0.3422297181188638
1.1539418055210147,-0.09251829573281622,-0.20991898034168477,0.10788099371277227,0.25350329811947747
1.1564287490673961,-0.06733898792018489,-0.22118542792629325,0.41793540598106915,0.4776269845743783
1.1589156926137776,-0.02780201707776997,-0.21807633454411546,0.6514422676752343,0.6875371029665535
1.161402636160159,0.021304223486479756,-0.20538011728619043,0.7796710646674914,0.8065493361193664
1.1638895797065407,0.07040293723225344,-0.17351998340283714,0.8265637185862769,0.8475100820015201
1.1663765232529222,0.11470573102710646,-0.14164956018594443,0.7633897137731438,0.7848476652994368
1.1688634667993036,0.1542126151460999,-0.12413407172620783,0.6188793736534759,0.6497710962848725
1.171350410345685,0.18892359995105085,-0.10660832231105122,0.4073978109354961,0.46155220437072547
1.1738373538920666,0.19968508260890355,-0.07470711634594496,0.11936812097321159,0.2443440888458865
1.176324297438448,0.22001589689601397,-0.0475840815960451,-0.20211416510493585,0.30252499970144914
1.1788112409848297,0.22118563351024956,-0.03481603930283672,-0.518741920236172,0.5650030273143483
1.1812981845312112,0.20319430315652492,-0.03161460086327006,-0.8305152446619282,0.8555951025098684
1.1837851280775926,0.18519552990577476,-0.018826167829208096,-1.0991270127991761,1.1147789014674858
1.186272071623974,0.15282411467111423,-0.025181175070938533,-1.3102121164008427,1.3193350944951545
1.1887590151703555,0.11565687505118383,-0.041102831010995544,-1.4589822545911861,1.4641363238017504
1.191245958716737,0.09284743536880818,-0.05222594086579324,-1.5406491272214975,1.5443276622408355
1.1937329022631187,0.05566538682683597,-0.06333892324663237,-1.5408476282257784,1.5431532224304982
1.1962198458095001,0.023264353913996727,-0.07444179355757896,-1.469154668859261,1.4712233861049346
1.1987067893558816,-0.004355652079898853,-0.09032297063553729,-1.3399355644134392,1.342983442753272
1.201193732902263,-0.012829409822175286,-0.10140566346843949,-1.167555630892,1.1720212683938274
1.2036806764486445,-0.016522117820502724,-0.11726669443687188,-0.9711685883274903,0.9783623484964227
1.206167619995026,-0.015433764540503825,-0.13790607939163646,-0.7507745441760925,0.7634911289621402
1.2086545635414077,-0.009564338367098135,-0.14417022101257704,-0.5351040265167839,0.5542678489590486
1.2111415070877891,0.001086172395081908,-0.14084753869081235,-0.3576759674463652,0.38441033624816207
1.2136284506341706,0.016517779521287856,-0.1375148552469292,-0.20891366987229354,0.25065532891484155
1.216115394180552,0.03194209154592109,-0.13896059028979035,-0.08402884071226957,0.16550283664476254
1.2186023377269335,0.05693592704337369,-0.1356079535753456,-0.002175204171638967,0.14709163257768873
1.221089281273315,0.09628770134636322,-0.12266855828731549,0.022281918182214255,0.15752898304989418
1.2235762248196966,0.1260554099439558,-0.10971922767724429,-0.029811199216982942,0.16975565645063015
1.226063168366078,0.1318738550436499,-0.10633678510299704,-0.11057063612595108,0.20229703676379454
1.2285501119124596,0.1376850654928352,-0.10773284406724848,-0.21999650617556732,0.28100178946056703
1.231037055458841,0.15306586025493818,-0.10433061485753958,-0.3820309402655333,0.42457234258993365
1.2335239990052225,0.1540742351277551,-0.10570692114726876,-0.5679436334355863,0.5978902858122493
1.236010942551604,0.1454986059070965,-0.1166501833935567,-0.7490042813851439,0.7718707943302006
1.2384978860979856,0.14170419510511845,-0.12758361219604764,-0.9108477904304362,0.9305919376092772
1.240984829644367,0.12832580538740201,-0.1432956282182083,-1.0630510841413443,1.0803141935977996
1.2434717731907485,0.11015185277565742,-0.14463263562425732,-1.2056142800953964,1.219244775394781
1.24595871673713,0.09675915668637225,-0.15553666856295711,-1.2858650599911243,1.2988467739407519
1.2484456602835114,0.0737825200085016,-0.16643093804204856,-1.3181687526521344,1.330681020329382
1.250932603829893,0.06516397226712212,-0.17252705849016214,-1.3408327041403822,1.3534564158794726
1.2534195473762746,0.0613267198183155,-0.17861345107655735,-1.31554980802583,1.3290353753252584
1.255906490922656,0.05269396909093493,-0.17990173042929403,-1.2423201850701133,1.2563839895599798
1.2583934344690375,0.05363094318774386,-0.18596872123621466,-1.1498743765820745,1.1660496238434512
1.260880378015419,0.06892605864280488,-0.17287242504123945,-1.0525777145311217,1.068903888114937
1.2633673215618004,0.07463731213980451,-0.15976647336878047,-0.9360651115824439,0.9525302869190065
1.2658542651081819,0.08512992699600253,-0.16101609452004118,-0.8051250942963009,0.825469384429525
1.2683412086545636,0.10040391663837311,-0.1526792903302434,-0.7028534164053539,0.726219551599067
1.270828152200945,0.12045929456410742,-0.1395444826524228,-0.6148849924046917,0.6419241841293507
1.2733150957473265,0.1357192676995711,-0.12640009343496672,-0.5460083506728459,0.5766470517134009
1.275802039293708,0.15097225300143557,-0.11324614140071887,-0.5058004235070577,0.5398623696261854
1.2782889828400894,0.1710066674953139,-0.11444785532764223,-0.49904974047877104,0.5398075910811911
1.280775926386471,0.18624571831439518,-0.11564004416542195,-0.5257564284297747,0.5696313803156025
1.2832628699328525,0.1871126126599556,-0.11682272691769091,-0.5763438081480032,0.6171149524452169
1.285749813479234,0.19276097772280176,-0.10841911603988841,-0.650812007644916,0.6873629089137174
1.2882367570256155,0.18403721419847235,-0.10000603736053737,-0.7300075422297638,0.7594615957576999
1.290723700571997,0.17530654609148721,-0.09637191347909857,-0.8235073477088193,0.8474575402582502
1.2932106441183784,0.16656898751180316,-0.0975167637653862,-0.9265231504986371,0.9464142302532763
1.29569758766476,0.1626129559556247,-0.10344060767928243,-1.0246898709425576,1.042656350085665
1.2981845312111415,0.15386165902373072,-0.10935506144983886,-1.0988540266270554,1.1149493761676923
1.300671474757523,0.14510351434291047,-0.12483695135594353,-1.1681693622607483,1.1837478419085683
1.3031584183039044,0.121973326323353,-0.13073268384290904,-1.227847606506348,1.2407974338152543
1.305645361850286,0.09883631936133686,-0.13183068204532855,-1.244370068656517,1.2552309805456754
1.3081323053966674,0.09005771791692396,-0.12334256254429077,-1.2416788983955467,1.2510356777535063
1.310619248943049,0.08127232659165207,-0.1292103619292888,-1.2149858260298814,1.224537082391967
1.3131061924894305,0.07726856333122978,-0.13506889031325642,-1.173867792366984,1.184136660173252
1.315593136035812,0.07804644282353657,-0.1265529578944764,-1.1326901420708282,1.142407044942249
1.3180800795821934,0.07881757649819487,-0.11802779487785742,-1.091453010376732,1.1006418330179937
1.3205670231285749,0.08437038248707196,-0.12385863155247234,-1.0310029197671398,1.0418379637061768
1.3230539666749563,0.09470487566290942,-0.12010347172846059,-0.9848588297724064,0.9966648242896053
1.325540910221338,0.10024426431857636,-0.11155073922081504,-0.9434440705606093,0.9552901099799238
1.3280278537677195,0.1009885634478872,-0.11735406788784619,-0.8971819728165116,0.9104428370545956
1.330514797314101,0.10651459474516678,-0.12793667174778323,-0.8652262876594197,0.8810957267678285
1.3330017408604824,0.12161077664387931,-0.13372176490004284,-0.8523655567565669,0.8713195359618893
1.3354886844068639,0.136700317675567,-0.14428617480589123,-0.8585999189597331,0.8813054509818814
1.3379756279532453,0.13741802311004636,-0.15962992236598428,-0.8551990936998042,0.8807558771050068
1.340462571499627,0.13334071487683818,-0.17975302856037745,-0.8804704473890865,0.9084707514532497
1.3429495150460085,0.14362202160380044,-0.18071349784639335,-0.9344141203705032,0.9625042346614492
1.34543645859239,0.13474313545263716,-0.19124177128300301,-0.9739346235933919,1.0016375485519051
1.3479234021387714,0.12106928184501597,-0.20176106344430522,-1.0277625182970418,1.0543533998356158
1.3504103456851528,0.12175408957932554,-0.20748299230174183,-1.0911095429599253,1.1173152129824386
1.3528972892315343,0.11764396094742702,-0.2131959825438159,-1.1591874365379482,1.184486446333449
1.355384232777916,0.11352731489828038,-0.2189000556145575,-1.2128427284996022,1.2376563212986187
1.3578711763242974,0.10940416711563639,-0.22459523303323703,-1.2520755620641886,1.2767558512111365
1.360358119870679,0.10048613001759621,-0.23985834303439635,-1.2720976775964115,1.2984074816463833
1.3628450634170604,0.11071523599836797,-0.24553579400475067,-1.282486025883614,1.3104640766562292
1.3653320069634418,0.11136108098251607,-0.24641601100603072,-1.2736639448897265,1.3020529886873955
1.3678189505098233,0.11200048751046321,-0.266441032454074,-1.25041998299349,1.2833881201130135
1.370305894056205,0.11263347153493009,-0.26730365367291764,-1.2175426890236292,1.2516180494750748
1.3727928376025864,0.11326004906112408,-0.25858070326139115,-1.1798206122549058,1.2131234462799012
1.3752797811489679,0.11388023614630338,-0.2737910264909522,-1.1324654957635847,1.1706444094885384
1.3777667246953493,0.11449404889934267,-0.26983901557853374,-1.0898426963453574,1.128573916205348
1.3802536682417308,0.12946671344122807,-0.2515130960140639,-1.061529167909928,1.0985739127065584
1.3827406117881123,0.14922143934213294,-0.24754370995830755,-1.0475250581566904,1.086670913278458
1.385227555334494,0.14981622626160218,-0.25314247639852994,-1.0478305152114853,1.0883357954311779
1.3877144988808754,0.1599815104324815,-0.2443674011088306,-1.052868880982052,1.092630949106486
1.3902014424272569,0.17014050157455962,-0.23558371649329946,-1.0434866911540865,1.0831952512675367
1.3926883859736383,0.17071640945662492,-0.22679144506198368,-1.0532029183514027,1.0907863398644926
1.3951753295200198,0.17607446049759323,-0.21799060939122983,-1.0724409057257525,1.1084455862585905
1.3976622730664012,0.18142626788326022,-0.22354644208402652,-1.0868355935154153,1.1243220667488834
1.400149216612783,0.1724066382064906,-0.22430535256628303,-1.1107523422834849,1.1462145113266522
1.4026361601591644,0.15859239470897057,-0.22026736360966526,-1.1537681096717574,1.1852637301573936
1.4051231037055458,0.15434876399952235,-0.2162209013700669,-1.2110946437561996,1.2398892108863682
1.4076100472519273,0.1548873594521073,-0.2121659887463876,-1.263578483043025,1.2905948565324792
1.4100969907983087,0.14584298784601601,-0.22246785866118612,-1.3016429730663575,1.328546782982885
1.4125839343446904,0.13679247260762073,-0.21360771089602837,-1.3204998630640006,1.3446413362188419
1.4150708778910719,0.1373126372083786,-0.20473918181745754,-1.3297261126141606,1.3523847187381146
1.4175578214374533,0.13303828856283473,-0.21022750453263628,-1.3293218750299882,1.35240209897759
1.4200447649838348,0.13354625023131228,-0.20134228232627294,-1.3144989006759857,1.3365181164060485
1.4225317085302163,0.129259732536667,-0.19244874842563053,-1.3139877635266082,1.3342819949035136
1.4250186520765977,0.134543962446663,-0.1931237327968236,-1.318211811357683,1.3390598319728404
1.4275055956229794,0.1350337470501053,-0.1890020488629749,-1.308017585664384,1.328482552284402
1.4299925391693609,0.12594070011890646,-0.1800837200661145,-1.2881936448995308,1.3068029969887693
1.4324794827157423,0.13120685538889687,-0.18073397986659145,-1.2491633379071736,1.2689716526191008
1.4349664262621238,0.14125542339533748,-0.18137604517998263,-1.2388108537234324,1.2599613865935364
1.4374533698085052,0.14650961471466983,-0.17722153629837223,-1.2236175252835206,1.245035095213289
1.4399403133548867,0.15175784992502228,-0.17305888021007476,-1.2083719124256849,1.2300985731935217
1.4424272569012684,0.15221174300421514,-0.16888810063810666,-1.2026509786451474,1.2239530144910218
1.4449142004476498,0.15744811793088942,-0.16470922135990662,-1.1920896711683469,1.213670804438841
1.4474011439940313,0.15789018544189237,-0.1700990728473677,-1.2006301641131145,1.222855590910347
1.4498880875404128,0.15832636627402885,-0.1659040657037476,-1.2091190020395128,1.2306746760893388
1.4523750310867942,0.1587566778823828,-0.16648943382714254,-1.1936143265084596,1.215581167505723
1.4548619746331757,0.14960433111957305,-0.18143200784739655,-1.1828467159216114,1.2059955981378265
1.4573489181795574,0.1500229567978223,-0.19157819852395308,-1.1959699423534431,1.2204725301001011
1.4598358617259388,0.1456473625244663,-0.18735122330776566,-1.2234073582661313,1.2462099338975612
1.4623228052723203,0.1508427758655816,-0.18790471962195854,-1.2555823164275903,1.2784946929935668
1.4648097488187017,0.1464556011815007,-0.1980271149784283,-1.2972833798685475,1.3204575529214395
1.4672966923650832,0.1468510661107515,-0.19856482033662948,-1.3485107085974235,1.3709392235599314
1.4697836359114647,0.14724078504619564,-0.1943062633061161,-1.3805340429949933,1.40189479512876
1.4722705794578463,0.13804796909553652,-0.2044050815053282,-1.39814194697456,1.4197322222892652
1.4747575230042278,0.14321465264338662,-0.20013087939694962,-1.3869693714547147,1.408632969574917
1.4772444665506093,0.1483756435461615,-0.1910604880529334,-1.3757468975195213,1.3968532377194645
1.4797314100969907,0.15353095965508068,-0.19155914191174217,-1.3836282998912814,1.4052380341716526
1.4822183536433722,0.15868061885480855,-0.19683846217619783,-1.3339992871610775,1.3577477737556038
1.4847052971897536,0.17340144570365223,-0.19732166677383534,-1.3226280877224514,1.3484617013407796
1.4871922407361353,0.17853984487063457,-0.19300878031726043,-1.3207844439082184,1.3466998228097933
1.4896791842825168,0.16930743101788448,-0.19826503742387702,-1.323680114916348,1.349111958989143
1.4921661278288982,0.16485783544082955,-0.19872525283249454,-1.316950053563973,1.3420235749053464
1.4946530713752797,0.1699794795052798,-0.1991778546058698,-1.3149596328460724,1.340777266078509
1.4971400149216612,0.17509557464699899,-0.20919967416918794,-1.3224974193691885,1.350341582034568
1.4996269584680426,0.17541773565253194,-0.20963712306729798,-1.3251983667069993,1.3530963810727947
1.5021139020144243,0.17573438397909336,-0.21964383944850718,-1.3278510419590397,1.3573188201568194
1.5046008455608058,0.17604553779320853,-0.2248546382593153,-1.335244012465667,1.365440666066835
1.5070877891071872,0.17635121529060305,-0.23484635108758933,-1.337800635843342,1.3696580233826539
1.5095747326535687,0.17665143469578082,-0.2352537929588605,-1.3546746898636748,1.3862516336649893
1.5120616761999501,0.18173461758191484,-0.2308653922185604,-1.3762895326059006,1.4073020919875174
1.5145486197463316,0.177235572268867,-0.2360463838908191,-1.373914909093756,1.4052659964773602
1.5170355632927133,0.16794272038526348,-0.24600838975601702,-1.3667045977760903,1.3987874544558425
1.5195225068390947,0.17300969354776652,-0.25117462831114823,-1.3690239739996564,1.4025860719950656
1.5220094503854762,0.17328289683721587,-0.25633352805050036,-1.3617195900835082,1.3964290465169762
1.5244963939318577,0.17355075196227332,-0.26627351750413863,-1.3543684184793126,1.3911632767597237
1.5269833374782391,0.17381327733712915,-0.2522642019951511,-1.3469706252051132,1.3813682159918035
1.5294702810246208,0.1692820880810848,-0.25261283336563656,-1.3299495698416095,1.3642710607676134
1.5319572245710023,0.16953400929938645,-0.25295422696832226,-1.3272474354112394,1.3617317562780042
1.5344441681173837,0.16978065616093418,-0.2532884081503717,-1.3340759852104043,1.3684806258127653
1.5369311116637652,0.1700220471791164,-0.24882699897156613,-1.3408585794073105,1.3743085904971868
1.5394180552101466,0.17025820089108235,-0.23478162152404458,-1.347595384999206,1.378449703996227
1.541904998756528,0.18006594249795294,-0.2303059145333055,-1.3638633758086858,1.3948433122716555
1.5443919423029098,0.1850800806222178,-0.225823096834199,-1.37050910591749,1.4012658265688465
1.5468788858492912,0.16614702058858,-0.22612159725317227,-1.3627443395456282,1.3913331535467839
1.5493658293956727,0.171150814228215,-0.22641303800614665,-1.3740880676492662,1.4030942529446295
1.5518527729420541,0.18572627022993854,-0.22669744465889163,-1.3949636514717252,1.4254155772250154
1.5543397164884356,0.18593139066322423,-0.23176324612645782,-1.3870640325007457,1.4185313935709225
1.556826660034817,0.1861314041809196,-0.236822064711685,-1.3839082021913995,1.4163091124642593
1.5593136035811987,0.18632632949539624,-0.24187392606557534,-1.390284732235875,1.4234156574457724
1.5618005471275802,0.17215097537815338,-0.24213045254610588,-1.3918285812004356,1.4231830218985362
1.5642874906739617,0.17233578050313458,-0.24238007317860966,-1.4029051277249103,1.4340817684192695
1.5667744342203431,0.18209236032134424,-0.24741121701459434,-1.413937733995608,1.4469242736261894
1.5692613777667246,0.1726903137010536,-0.252435506490559,-1.4153497623432685,1.4480195368669788
1.571748321313106,0.15370646609145944,-0.24787616074774865,-1.4167181885206848,1.4464296368889498
1.5742352648594877,0.15865965956134132,-0.24809841555347623,-1.4180431817772163,1.4482997537654687
1.5767222084058692,0.16360789635334172,-0.2483138934177549,-1.4289017181364265,1.4595161710329494
1.5792091519522506,0.1685511953288792,-0.23894581355368238,-1.4253519505096683,1.4550370407942683
1.581696095498632,0.17348957536617815,-0.23435941179876618,-1.4169708551768583,1.446661456969127
1.5841830390450136,0.17363465203955597,-0.23455471405187023,-1.4133354085406982,1.443149986421285
1.586669982591395,0.1737748475799582,-0.23474334291329457,-1.4000805705215278,1.430219472194891
1.5891569261377767,0.16433337427299322,-0.23013692100453698,-1.3819949144365822,1.4106304986912668
1.5916438696841582,0.15967546102103503,-0.23988908756930094,-1.3734438203557868,1.403349904642677
1.5941308132305396,0.1693779334209442,-0.23526944866827382,-1.379215861816963,1.4093533947502774
1.596617756776921,0.1694987938417981,-0.22106643362388034,-1.3945228058222714,1.4220738606512062
1.5991047003233025,0.16961486790886537,-0.2212220850588107,-1.4097880161549838,1.4370840841188501
1.601591643869684,0.1649377713000857,-0.2261596223720317,-1.4010696467353174,1.4287577814996937
1.6040785874160657,0.15546752302691913,-0.21672545833981172,-1.3970982881012954,1.4223303771010087
1.6065655309624471,0.1603577553948934,-0.2168616356386157,-1.407450917600535,1.4330602444355687
1.6090524745088286,0.16524327747976875,-0.2217797770398775,-1.412974092746122,1.4397872749221812
1.61153941805521,0.16533570500995698,-0.2171146986907111,-1.4184563877365264,1.4444698721846894
1.6140263616015915,0.16063505704581604,-0.22202003999618247,-1.419109570209919,1.4453264309398761
1.616513305147973,0.1607181592995699,-0.22691902045471535,-1.419722214521947,1.446697527121641
1.6190002486943547,0.16079662753335466,-0.22223485957942168,-1.4202944917813127,1.446540815747251
1.6214871922407361,0.16087048084007838,-0.21754439017882632,-1.4256149764869246,1.4510626914395566
1.6239741357871176,0.16093973832271857,-0.22721284839538658,-1.4308954365634996,1.4577342104188877
1.626461079333499,0.1610044190939337,-0.23687505046278812,-1.4313476399987355,1.4597219868966396
1.6289480228798805,0.16106454227567502,-0.2417426192678973,-1.4365485648007859,1.4656237783893156
1.631434966426262,0.1563317236784877,-0.2418155810299285,-1.4273447691120271,1.4561000902989447
1.6339219099726436,0.15159438576206186,-0.24188236529991514,-1.3941596177681177,1.423084318040573
1.636408853519025,0.16121775763484714,-0.23715459499924396,-1.3944541221383435,1.4236347024622158
1.6388957970654066,0.1612598418505432,-0.2324206997003775,-1.4090748405128188,1.4371903229597327
1.641382740611788,0.16608586753271548,-0.2276807056653949,-1.4092915245834572,1.4371936614072414
1.6438696841581695,0.1756958538509753,-0.23251144580640348,-1.41425795928434,1.4439723615396913
1.646356627704551,0.17093620670029008,-0.23254773644282833,-1.4335511229445714,1.4623154442805455
1.6488435712509326,0.17574896186465527,-0.21821279722276365,-1.4384407673630317,1.4654747912128119
1.651330514797314,0.17576892857141113,-0.21344867104433307,-1.4337154676097121,1.4601352997188546
1.6538174583436955,0.17578452933460953,-0.20867857757079245,-1.4337406054207662,1.4594721899106762
1.656304401890077,0.17100738003276272,-0.19911413979251558,-1.4241511426326845,1.4481355053146663
1.6587913454364585,0.1710143065100287,-0.1943321906670996,-1.419312461022681,1.4427261539789316
1.6612782889828401,0.17580532797427217,-0.19433275651729076,-1.4240131357428822,1.4479247716535644
1.6637652325292216,0.16622685035606888,-0.19911586367109502,-1.428676531996679,1.452031379145383
1.666252176075603,0.166220909472385,-0.19431632850033376,-1.4380912249573115,1.4606486906737353
1.6687391196219845,0.16621071790121278,-0.18472258066231007,-1.4283153698817426,1.449770061213915
1.671226063168366,0.1661962948640061,-0.17991145313837587,-1.428079558552664,1.4489308351170034
1.6737130067147474,0.15660085294406045,-0.1846713755927878,-1.4182303495486632,1.4387510794043086
1.6761999502611291,0.156578024648645,-0.19421397105189442,-1.4035563180456236,1.4255546577667253
1.6786868938075106,0.17091623252581456,-0.20853926586455884,-1.403211249172836,1.428881658414488
1.681173837353892,0.16609667256249128,-0.2084936731001128,-1.3980417014863011,1.4232281319078188
1.6836607809002735,0.16127297727002166,-0.21323083239158036,-1.3976246534498689,1.4229655768889173
1.686147724446655,0.17081037584006775,-0.21317396345081452,-1.3875950669085686,1.414227489796797
1.6886346679930364,0.17076687090205278,-0.21311149595080714,-1.3871067269291188,1.4137336756957026
1.691121611539418,0.1659308850071728,-0.2082550529236329,-1.3865829986326723,1.4119191328701024
1.6936085550857995,0.1706676473467834,-0.20818146736151144,-1.3716588437931456,1.3978250795287754
1.696095498632181,0.16582356386922503,-0.22246757225537328,-1.3614880473965396,1.3894743532153204
1.6985824421785625,0.17055226708414972,-0.2223829740318699,-1.370435991075226,1.398798437438768
1.701069385724944,0.17048856625747322,-0.212716102357565,-1.3745608298626184,1.401332211297283
1.7035563292713254,0.16563248061414126,-0.2078321935368801,-1.3786511386743463,1.404032514393031
1.706043272817707,0.16556083601746008,-0.21730808055066886,-1.3827070890629436,1.4094367976040412
1.7085302163640885,0.16548524836717737,-0.21720177313385136,-1.4010940624959218,1.427454570079539
1.71101715991047,0.16540573688037707,-0.22666691089992952,-1.409870213829235,1.4375225097829771
1.7135041034568514,0.16053391745049905,-0.24091511685612899,-1.3946705045072516,1.4244005926439085
1.715991047003233,0.15086980928761107,-0.25036961068416197,-1.3890139291221537,1.4194387399968984
1.7184779905496144,0.15077864155868148,-0.26939562866162214,-1.3881122556452077,1.4220280720733676
1.720964934095996,0.14110682018410303,-0.2932047937786897,-1.3823888486658564,1.420168692343619
1.7234518776423775,0.131431171001409,-0.29785511573765255,-1.3766322826698882,1.4146053387326087
1.725938821188759,0.14569372980397777,-0.3072886374368049,-1.389996342036353,1.4309936409629516
1.7284257647351404,0.14079888589538114,-0.3167169818449702,-1.3937507778704514,1.4362016584285286
1.7309127082815219,0.1359002717374721,-0.3165633686025915,-1.3926841644457753,1.4346603891156144
1.7333996518279033,0.14536311646566213,-0.3164046306228139,-1.3963734792794114,1.4391321063554443
1.735886595374285,0.14045701932608434,-0.3210291974894526,-1.4048188931679721,1.4478618865487054
1.7383735389206665,0.1499124194017991,-0.3160718854955884,-1.4084437701845598,1.4512370668031238
1.740860482467048,0.15936412588590476,-0.3111095275259115,-1.412036684277341,1.4546592936085487
1.7433474260134294,0.16881215792493542,-0.3061421498140633,-1.4251746126259004,1.4674274213839111
1.7458343695598109,2.38571046532165,-2.546930935809361,-24.877515171966387,25.121091392444434
1.7483213131061923,2.2658643162300063,-2.4988579673872695,-28.20895352776822,28.40991889063618
1.750808256652574,1.992785643834472,-2.2496671184035937,-28.882796759465336,29.038735258521168
1.7532952001989555,1.5808396772092856,-1.828088834967679,-26.96129428037616,27.069398813911935
1.755782143745337,1.068333662020694,-1.2772187731366982,-22.736538863088683,22.797430207823894
1.7582690872917184,0.5270936671679792,-0.6688830088768847,-16.701736219539118,16.723433408262718
1.7607560308380998,0.005003744938822163,-0.04617719821876598,-9.508109371123577,9.508222819451946
1.7632429743844813,-0.47878247231111926,0.5334377928602572,-1.8930725988915018,2.024231310724591
1.765729917930863,-0.8811693356351394,1.0172895017176482,5.420325026183962,5.584913671476469
1.7682168614772444,-1.163849599417693,1.352705465725876,11.766495273091651,11.901040667889408
1.770703805023626,-1.312458034655966,1.5205320455150484,16.594771590629044,16.715890880815177
1.7731907485700074,-1.3269946223195852,1.525557618332737,19.52686994724882,19.631273282986186
1.7756776921163888,-1.2218245533509404,1.3582053514819212,20.376042444342993,20.457778049182966
1.7781646356627703,-0.9969478087436543,1.0472056388449027,19.14707731624586,19.20159145325418
1.780651579209152,-0.6810947894256183,0.6404424876023564,16.055452543517525,16.082649441844225
1.7831385227555334,-0.3125727029782651,0.16664629167154876,11.493817029705612,11.499274002889303
1.7856254663019149,0.060734436363310884,-0.3071453284497494,5.917068921659498,5.925346534019556
1.7881124098482963,0.4196730342724319,-0.7426251721670623,-0.08581834066170302,0.8573111393336241
1.7905993533946778,0.7403010930883522,-1.1206396521481736,-5.916294510514542,6.066829458089217
1.7930862969410595,1.0082534217768944,-1.3789395511586418,-11.0715774074157,11.202583431364044
1.795573240487441,1.1852228126878663,-1.5175248951081781,-15.096768883934327,15.21906914557906
1.7980601840338224,1.2616324780783423,-1.5172420966050293,-17.64710406885693,17.757083716267132
1.8005471275802039,1.247059243471567,-1.3733027781976253,-18.545412207024718,18.637956733660335
1.8030340711265853,1.1510799343754494,-1.1335909989366246,-17.81084707925475,17.88396732408079
1.8055210146729668,0.9784829729620139,-0.8220488012497373,-15.572695742571433,15.625045467156733
1.8080079582193485,0.7484219913481263,-0.44346461426114114,-12.09910895012375,12.130343512374244
1.81049490176573,0.4800506216346465,-0.05529930359643265,-7.782735941227053,7.797723087105454
1.8129818453121114,0.21167610918683732,0.30413987842329293,-3.054533181586577,3.0769271681762684
1.8154687888584928,-0.04233631724837861,0.6156992927813025,1.625812443340072,1.7390066370801942
1.8179557324048743,-0.2819866389020991,0.8314948805625457,5.817767661548324,5.883648592895269
1.8204426759512558,-0.4546024004995478,0.941949809438682,9.138260041054943,9.197919838962667
1.8229296194976374,-0.5649719866275362,0.942275650426172,11.333504039704954,11.386632099311386
1.825416563044019,-0.6226721852111212,0.8372607812070769,12.255058988568926,12.299398240535472
1.8279035065904004,-0.6037609609517113,0.646058789449595,11.855040688630702,11.887973291797215
1.8303904501367818,-0.5226035051318124,0.3782464562071217,10.234005443988961,10.254318711294523
1.8328773936831633,-0.3983534123732959,0.07691938580149271,7.621796448581426,7.632586922968514
1.8353643372295447,-0.2405874706765766,-0.24834564066135956,4.286564123097788,4.300487166555803
1.8378512807759264,-0.06367087138206473,-0.5640298254467151,0.5874385515103722,0.8168645393555822
1.8403382243223079,0.12760800079062495,-0.8222491608316649,-3.1116617786921275,3.2209961982789754
1.8428251678686893,0.3093071478205382,-1.0086384623078042,-6.465971993104149,6.5514743588711974
1.8453121114150708,0.4526961683458044,-1.1327745619399494,-9.197764863599566,9.278307524278336
1.8477990549614522,0.5673518875464636,-1.165927065202014,-11.086774001694389,11.162339891363267
1.8502859985078337,0.6245439040189394,-1.1128844007810967,-11.970193858539776,12.038027570518873
1.8527729420542154,0.6530026561821326,-0.9688581906942959,-11.814505774726475,11.87213735448262
1.8552598856005968,0.6383629525505151,-0.7865208967728028,-10.69153596368026,10.739416354854564
1.8577468291469783,0.5710480049369836,-0.5658725442941424,-8.744936688416656,8.781812184551894
1.8602337726933598,0.47499984837446696,-0.3069131585054139,-6.180609454899029,6.206428423562686
1.8627207162397412,0.35979530791244824,-0.0671036044664235,-3.2762818186745823,3.2966616618491242
1.8652076597861227,0.2350112085778301,0.13919088267681845,-0.3144697383928463,0.41652801387473254
1.8676946033325044,0.11501277869458693,0.28802826116974733,2.4127340208857326,2.432585799932852
1.8701815468788858,0.009376843243322774,0.37940850589106834,4.6802743408062195,4.695636979658968
1.8726684904252673,-0.08668498277999803,0.40375478511148444,6.28703811984748,6.300585729371146
1.8751554339716487,-0.1588074711220009,0.365855477095387,7.09894990320363,7.110144848819867
1.8776423775180302,-0.20220220019398005,0.2609221534997257,7.096855915988954,7.1045288367531905
1.8801293210644117,-0.20729234511136208,0.10810840261656773,6.328640030039008,6.33295682701771
1.8826162646107933,-0.1932315009360679,-0.044701767306307705,4.8709165373485686,4.874952776670773
1.8851032081571748,-0.13128922955187694,-0.22623880111156724,2.8769141832803804,2.888781070777871
1.8875901517035563,-0.05019593271145639,-0.40777230376374396,0.6004181831643098,0.7275299842974823
1.8900770952499377,0.030894794447678953,-0.5557834768719467,-1.72393986070513,1.8115789811145018
1.8925640387963192,0.12155977668409224,-0.6606955386113471,-3.923777588948216,3.9808699980758853
1.8950509823427006,0.22179903208979357,-0.7272969170824148,-5.76925180209338,5.81914271797756
1.8975379258890823,0.29809375548834793,-0.7412224270682133,-7.111922156861919,7.156654758943841
1.9000248694354638,0.3600207715595372,-0.6976836899559462,-7.8464439396023815,7.885623626860961
1.9025118129818452,0.40758009831583075,-0.6110459403771973,-7.9297216795719105,7.963666529511853
1.9049987565282267,0.4311949471019495,-0.4956744129264754,-7.371332342291737,7.40055151367467
1.9074857000746082,0.4260769325556791,-0.34199232555902803,-6.2861977660684305,6.309895613821282
1.9099726436209896,0.4065912825684826,-0.18351852607515617,-4.774874578985144,4.795667082430977
1.9124595871673713,0.3535844017618216,-0.03461824895557575,-2.9953802487024905,3.016375836437994
1.9149465307137528,0.2957867279322045,0.09513167467790007,-1.1296742592148252,1.1716244090494299
1.9174334742601342,0.242775085566602,0.2057312203829511,0.6354955024321125,0.7107176730767095
1.9199204178065157,0.17060747588119618,0.28281515379568756,2.1468999727079527,2.1721581007966337
1.9224073613528971,0.09843752994615795,0.30244143395117584,3.2704637016373326,3.2858931193816554
1.9248943048992788,0.035842072162022176,0.2885520531275718,3.9199952727237317,3.9307645413681813
1.9273812484456603,-0.0028136697797365162,0.22678177708089198,4.071552512914105,4.077864362208576
1.9298681919920417,-0.03189488813908592,0.1314957915295749,3.739500475998012,3.741947652903332
1.9323551355384232,-0.051401565244818204,0.026636088873777997,2.9477810226885097,2.948349463659731
1.9348420790848047,-0.04696847349486921,-0.10216256500760901,1.7873736604675265,1.7909069851124197
1.9373290226311861,-0.02817240191901471,-0.23574658095187973,0.4019303336269644,0.4668170174167503
1.9398159661775678,-0.004590139577577146,-0.35017396643393095,-1.0744738198918213,1.1301048030082588
1.9423029097239493,0.03814354103993478,-0.44544474548807234,-2.4933984518973364,2.5331624091104055
1.9447898532703307,0.076086640850482,-0.5167705387855608,-3.7303452305052796,3.7667381785075156
1.9472767968167122,0.11402758066167007,-0.5449977569938156,-4.66560422685739,4.698711275014606
1.9497637403630936,0.1615431845699168,-0.5397032306588496,-5.227349545001205,5.257619142091684
1.952250683909475,0.199479856718077,-0.5152521936033927,-5.391639321888719,5.419875608681994
1.9547376274558568,0.23262601781860487,-0.45727945968439343,-5.168050517412947,5.193454102901808
1.9572245710022382,0.25619328191115476,-0.3609966493552057,-4.590102107765635,4.611397937530074
1.9597115145486197,0.26539326300298216,-0.2742878195480509,-3.705678278794447,3.7252810495221387
1.9621984580950012,0.2602259783890079,-0.18757618730655334,-2.63927766916499,2.6587006226399317
1.9646854016413826,0.24547984865161687,-0.10565017959017053,-1.4866684973132074,1.5104984400670416
1.967172345187764,0.22594329434009952,-0.03329822331280008,-0.35319578800388385,0.42060243531954306
1.9696592887341458,0.21119313929074168,0.010326044696479464,0.6366418210293858,0.670836774160574
1.9721462322805272,0.1820757873844452,0.030011004256214502,1.4158065322105138,1.427781632245664
1.9746331758269087,0.16253327235113912,0.02096822859074665,1.926837354921302,1.9337939196179936
1.9771201193732901,0.1429888046446014,-0.016802305708602194,2.1122732988614352,2.1171742027555944
1.9796070629196716,0.11865399800474752,-0.059358605401926834,1.9912678271756459,1.9956827841174034
1.982094006466053,0.10389407941829631,-0.12585430708490764,1.5877628066509573,1.59612781961036
1.9845809500124347,0.0987090658764398,-0.21150103070401904,0.9496421209998278,0.9779040462397696
1.9870678935588162,0.10788737765581968,-0.287568379556312,0.14394326754169562,0.3391974696967428
1.9895548371051976,0.11227541839646993,-0.3492679734922399,-0.7431426427954175,0.8287670809246925
1.992041780651579,0.1214500116250341,-0.40617664227474704,-1.6302129020747635,1.684435714458801
1.9945287241979606,0.13062277087174146,-0.4439291990164489,-2.431076398707958,2.4747258228669398
1.997015667744342,0.14937051959207903,-0.45294886010126145,-3.073907230735137,3.110688008328061
1.9995026112907237,0.18248167788532466,-0.4571776651059509,-3.5108215124630417,3.545162714546238
2.001989554837105,0.1964374392521625,-0.4374620236748834,-3.6987237611827206,3.7296807036575292
2.0044764983834864,0.20081462703978636,-0.38422515204316676,-3.63761412372995,3.6633580216865695
2.006963441929868,0.22434367784013381,-0.31183228299731214,-3.3370695532413963,3.3591074203837077
2.0094503854762498,0.23350578504437375,-0.2394370525937073,-2.8401858257544736,2.85980953537479
2.011937329022631,0.22351256192864216,-0.17661629019740488,-2.2187891368853325,2.237001656964822
2.0144242725690127,0.21830604165384315,-0.11858161516153931,-1.5207636653037255,1.5409222086091532
2.016911216115394,0.2083094341013887,-0.07012145342861498,-0.8131472026141715,0.842329040034733
2.0193981596617756,0.18873435243550618,-0.021659020928682438,-0.15818913675282253,0.2472115935053252
2.0218851032081573,0.16915761974364862,0.007652046538155766,0.3914379513351083,0.42649328702687167
2.0243720467545385,0.1543676557550983,0.008234919864425372,0.7734846744142683,0.7887811664855118
2.02685899030092,0.13478767020008997,-0.010333616723746442,0.9592204688454125,0.9686993380428081
2.0293459338473014,0.11520608273153488,-0.033688375627360045,0.9390683846247896,0.9467083918253641
2.031832877393683,0.10041131296389061,-0.07619458911641797,0.7369702953473283,0.7476718955571893
2.0343198209400644,0.08082657051201303,-0.12348706948599908,0.37686807496556796,0.40473637933749707
2.036806764486446,0.08039388819412019,-0.1659890322981088,-0.10771959556776167,0.2135861591290818
2.0392937080328277,0.0751712655862824,-0.19891209638146146,-0.6593320183373379,0.6927737377105883
2.041780651579209,0.055581912186299154,-0.23183309047187528,-1.2205084950657152,1.2435742508300833
2.0442675951255906,0.06472147397602668,-0.2599636332900892,-1.733788327110867,1.7543636803846894
2.046754538671972,0.06907114377274648,-0.2689385368618793,-2.1752296387074743,2.192880010539321
2.0492414822183536,0.05905413095556167,-0.27312303308029806,-2.492160133801635,2.507777046328497
2.0517284257647352,0.06818927474645886,-0.25815193386166824,-2.6558495325721125,2.6692375199315768
2.0542153693111165,0.07253457448357303,-0.22402526102816633,-2.661509571429253,2.6719060202192324
2.056702312857498,0.07209004606632363,-0.1946850529482016,-2.5043519864118604,2.5129421235731475
2.0591892564038794,0.086009318634928,-0.16055452469242848,-2.227472546388883,2.2349070010198258
2.061676199950261,0.09992719804679151,-0.1216336979163204,-1.8548134065735837,1.8614813924891604
2.0641631434966428,0.09947849011852428,-0.09228780418024751,-1.410316721803282,1.4168296526381106
2.066650087043024,0.10381682386795432,-0.06772846170707592,-0.9610202764211273,0.9689814493248963
2.0691370305894057,0.10336540834990593,-0.04316728866314401,-0.5356546278286096,0.5472419051645042
2.071623974135787,0.10291266253883613,-0.03296951643932289,-0.16773873636774894,0.19953518186857255
2.0741109176821686,0.10245860204742274,-0.03234676308827922,0.09963163136037423,0.1465282914093074
2.07659786122855,0.09721483912639917,-0.03651064660549386,0.24251432241878312,0.26381233640632584
2.0790848047749315,0.09675819594564161,-0.06461480153060561,0.27048600749688667,0.2944484697041242
2.081571748321313,0.09151188135182087,-0.08314042582218573,0.16439293774777752,0.20569830533037642
2.0840586918676944,0.08147591079011662,-0.10645275058408155,-0.02788098880417955,0.1369228311228427
2.086545635414076,0.08101550962437187,-0.14412860354176082,-0.2967591003089183,0.33970947996008793
2.0890325789604574,0.08534228989474746,-0.17222598912022136,-0.6278763212065321,0.6566382356402695
2.091519522506839,0.09924467023944139,-0.20989854156877907,-0.9685603489838144,0.9960000260779536
2.0940064660532207,0.10356905265234473,-0.24278107183586073,-1.2948693006573766,1.3214975229995694
2.096493409599602,0.09831545236570605,-0.2708736007718917,-1.582861292850243,1.608877965593583
2.0989803531459836,0.10263749784996956,-0.27023413256663886,-1.8038060384707713,1.82682160234451
2.101467296692365,0.11174680093082556,-0.2648047045536419,-1.9385500566720193,1.9597411056808256
2.1039542402387466,0.11606657007029786,-0.2641621440459745,-1.9775166728503581,1.9984557234114544
2.106441183785128,0.1299620302884813,-0.24436445505478543,-1.9254944219649168,1.9452847825521422
2.1089281273315095,0.14864479328057822,-0.22935367473440715,-1.7872718385751885,1.8080483974848505
2.111415070877891,0.14817285741675423,-0.21912982357748056,-1.5532722468791587,1.5756356647972822
2.1139020144242724,0.1429114475857451,-0.18975090541473882,-1.2665914071960636,1.2886748545462006
2.116388957970654,0.1615909985931513,-0.1603705538992064,-0.9990554993640632,1.0246669001162514
2.1188759015170353,0.17069270203629644,-0.15493080594349706,-0.7267226364108126,0.76240759665066
2.121362845063417,0.17021657271034552,-0.14470126187587384,-0.4639581575208549,0.5149459279806696
2.1238497886097987,0.16495102868627715,-0.1296819418853774,-0.2682230313552587,0.3405434516551853
2.12633673215618,0.17404969795138014,-0.13860328602162664,-0.15867099960479258,0.27327761410064966
2.1288236757025616,0.17357057856537705,-0.15231170106965441,-0.12093698030918176,0.26067480360125894
2.131310619248943,0.16351368514465003,-0.156441997073141,-0.16459790769990157,0.2798272590313562
2.1337975627953245,0.15345583890117898,-0.17493621057642894,-0.2705002956755429,0.35682177935807313
2.1362845063417057,0.14818545768147118,-0.18864074817903287,-0.4242790610429541,0.48739817744971425
2.1387714498880874,0.14291415264611884,-0.19276722637920596,-0.6163575235161858,0.6614229020736246
2.141258393434469,0.13764193823060816,-0.19689247157376455,-0.8323705990747943,0.8663444827125271
2.1437453369808503,0.1419456354655042,-0.21059331009697724,-1.0387995900018687,1.0693936103574577
2.146232280527232,0.1414600487341391,-0.20992774497820488,-1.2308562180861404,1.2566175365244652
2.1487192240736133,0.14576199897561204,-0.1996841991057945,-1.3893869947381567,1.4112110263406448
2.151206167619995,0.13569788716122916,-0.1894394986253478,-1.4760848176689496,1.494365293083395
2.1536931111663766,0.1304213407787586,-0.1744052596582999,-1.514891827334381,1.5304653440217155
2.156180054712758,0.14429758394948522,-0.1545815015830252,-1.5058081471685067,1.5205839041119609
2.1586669982591395,0.13901940422499282,-0.13954505035494602,-1.4057382703013843,1.4194714863002935
2.161153941805521,0.13374042895420796,-0.11971911858453588,-1.2769315624877873,1.2894857056086413
2.1636408853519025,0.1332490754786097,-0.10468053209964001,-1.119388145895348,1.1321409590186167
2.166127828898284,0.12318014781179987,-0.08964090670313629,-0.9426849489082905,0.954915574209429
2.1686147724446654,0.11311046652220125,-0.08417706809465653,-0.7659757061265307,0.7788443610927152
2.171101715991047,0.1221936587720075,-0.07871222862824157,-0.5844721351225708,0.6022745071098817
2.1735886595374283,0.12169931847332338,-0.07803481055437622,-0.44126998624529,0.4643483138076924
2.17607560308381,0.11641586273336724,-0.08214483273859186,-0.3507345894940723,0.3785699128419754
2.178562546630191,0.11113170861217558,-0.08625391066131716,-0.30328925783823557,0.3343267379129281
2.181049490176573,0.10105846648187156,-0.09993886969898291,-0.31329932041930064,0.3440306025625823
2.1835364337229546,0.09577295662812224,-0.12798813184262947,-0.3663996860267016,0.39975261229205744
2.186023377269336,0.09048678932815934,-0.14167129577588744,-0.4530136663391442,0.4831976789883941
2.1885103208157175,0.08519997813192748,-0.15535358999983995,-0.5683529759238173,0.5953308991149195
2.1909972643620987,0.08948934318229096,-0.16903503298912392,-0.6980525222745051,0.7237807048924629
2.1934842079084804,0.0842012846524427,-0.1827156431527528,-0.8325356157719721,0.8564989282647484
2.195971151454862,0.08848942923017156,-0.2011838421542711,-0.962225566362644,0.9870072735250471
2.1984580950012433,0.08798858031308221,-0.21007443831006167,-1.0727572802375018,1.096668337374323
2.200945038547625,0.07791034789131113,-0.20459904651110827,-1.1593424697925716,1.179832934955852
2.2034319820940063,0.07740835850836869,-0.1991228948634589,-1.2171928469871105,1.2357995015302246
2.205918925640388,0.06732901209698339,-0.18406919480531103,-1.227154913382238,1.2427082705866246
2.208405869186769,0.06682593510401003,-0.17859157763031508,-1.1652867667807119,1.1807852920989723
2.210892812733151,0.07589914064658931,-0.16832485132338704,-1.098626167632471,1.1140347352442568
2.2133797562795325,0.08018343183237076,-0.15805743708402442,-1.0223848261433286,1.0376330126234954
2.2158666998259138,0.08446722500161208,-0.14300094940431052,-0.8982556288367611,0.9134807925550117
2.2183536433722955,0.07438532316459256,-0.12794380935004668,-0.7645459149204079,0.7787382427200975
2.2208405869186767,0.07387975584527784,-0.12725124456063375,-0.6595630231604215,0.6757769447728317
2.2233275304650584,0.07337372927654806,-0.13134646600677202,-0.5593650487167174,0.5792450742183933
2.22581447401144,0.0776556596032405,-0.12586428127159266,-0.4831057161892254,0.5052359367494886
2.2283014175578213,0.08193715628050546,-0.12995832111305017,-0.445150346414124,0.47091580321589677
2.230788361104203,0.091006635354976,-0.1436286029403715,-0.440710646502275,0.4723740649122151
2.233275304650584,0.08571049622250171,-0.1429331274936385,-0.4649983231198558,0.493963165228034
2.235762248196966,0.08041396147182156,-0.14223712200774496,-0.4988598725268307,0.5249371167045854
2.238249191743347,0.08469385032198729,-0.15111741032947945,-0.5518722104591589,0.5784223860330179
2.240736135289729,0.0841849653410387,-0.15042039631586102,-0.6192470422454122,0.642791026187348
2.2432230788361105,0.08846412564905493,-0.14972290367778784,-0.6914076694468285,0.7129427850693594
2.2457100223824917,0.08795453703526968,-0.1442365460971251,-0.7779310064583029,0.7960633345559541
2.2481969659288734,0.09223301852049981,-0.1483265504687914,-0.8500867406641852,0.8678451255451237
2.2506839094752547,0.1012995824352011,-0.14762772369754762,-0.9030865756016428,0.920663300690088
2.2531708530216363,0.0960006277787745,-0.13735167926039393,-0.9369306176790424,0.9517986061525836
2.255657796568018,0.09548978006324871,-0.12228683720647826,-0.9468305695347485,0.9594584389414622
2.2581447401143993,0.09497864814915269,-0.1072216175163967,-0.9232097300366426,0.9342556526462142
2.260631683660781,0.08967884084701339,-0.10652124674269325,-0.8708566075628497,0.881918534468551
2.263118627207162,0.08916717687822961,-0.10103212812701079,-0.7849829033997402,0.7964649615495913
2.265605570753544,0.08865526495313536,-0.08596587480309514,-0.7038959482648757,0.7146463416391918
2.268092514299925,0.09771992369281424,-0.09005292307797408,-0.6371726525018726,0.6508822485962334
2.2705794578463068,0.1019959550665398,-0.09413967598656336,-0.5656595060799638,0.5824398082750005
2.2730664013926885,0.09190656431359223,-0.08386093981502496,-0.5132986283982426,0.5281618650623167
2.2755533449390697,0.10097058650570145,-0.07358194070225199,-0.47530171848058167,0.4914479473224089
2.2780402884854514,0.10045761350011662,-0.08245630803822701,-0.4516688782173919,0.4699952663544506
2.2805272320318326,0.09036765702548899,-0.09611884790145586,-0.4424002090448962,0.46165256559575996
2.2830141755782143,0.08506593872088164,-0.08583915634012929,-0.44270740862446445,0.45890568131440523
2.285501119124596,0.09412927685446848,-0.08513607249707,-0.47174419076409,0.4885192453947313
2.287988062670977,0.09840406972191673,-0.09400961220339665,-0.5151454455742428,0.5328189169130109
2.290475006217359,0.0835251188885342,-0.0980945812597267,-0.5729112726707299,0.5872191402798962
2.29296194976374,0.07822285575171184,-0.11654460863921745,-0.6450417712133181,0.6601366128119512
2.295448893310122,0.08249729173619391,-0.12541769336251285,-0.7171718299445242,0.7327147020622403
2.2979358368565035,0.07719482493465557,-0.12950225430236628,-0.7605711271892801,0.7753697920218836
2.3004227804028847,0.07189227331078818,-0.13358671026170077,-0.7896049706983508,0.8040459675117337
2.3029097239492664,0.07137805145705944,-0.1280942700126193,-0.7851198445230718,0.7986965246599017
2.3053966674956476,0.07086376727436794,-0.12260175553853037,-0.7614810554993987,0.7745361591674875
2.3078836110420293,0.07034943193293575,-0.12189758543252882,-0.7474191199663967,0.7605546691717238
2.3103705545884106,0.06983505655195754,-0.11640496825672342,-0.7285689239222233,0.7411070966221078
2.3128574981347922,0.06453224887924913,-0.11091232246405047,-0.690565352906674,0.7023862620061002
2.315344441681174,0.059229423252151636,-0.09584285647636293,-0.6621389218837752,0.6716561096199002
2.317831385227555,0.06350339727717513,-0.09992700520779652,-0.6193477088352637,0.6305629804191111
2.320318328773937,0.06777737522841076,-0.0992227669788095,-0.5717686145260181,0.5842587428843373
2.322805272320318,0.07205136796936773,-0.0985185599614371,-0.5385553459022621,0.5522129723965543
2.3252922158666998,0.06674857967169323,-0.10260280225737395,-0.500554382888259,0.5153032099142213
2.3277791594130814,0.061445827737014236,-0.09711029861668585,-0.4817078348313917,0.4952256435016831
2.3302661029594627,0.0705083328359708,-0.09161787032057589,-0.47722739069735987,0.49103079495403995
2.3327530465058444,0.06999408902538262,-0.10527914522040938,-0.4679595290308889,0.4847360020956196
2.3352399900522256,0.06469151023258468,-0.12372892785487055,-0.4586927445180944,0.47947145166092026
2.3377269335986073,0.06896581697415816,-0.1230252160514862,-0.46858074134568994,0.4893458887693901
2.3402138771449885,0.07324021311372086,-0.112744830809405,-0.49762360995867816,0.5154655981532533
2.34270082069137,0.0679379024634571,-0.11204139969780336,-0.5170910204195689,0.5334341170528261
2.345187764237752,0.06742410538566601,-0.1065497269730411,-0.5461366755332904,0.5605034546438064
2.347674707784133,0.07169883223023699,-0.11063503674269581,-0.5799722610423821,0.5947677340583047
2.350161651330515,0.08076209329556794,-0.11472053644209623,-0.6042326555878343,0.6203067138712677
2.352648594876896,0.0898254955082341,-0.1044410301155505,-0.6189179473105657,0.6340630677764013
2.3551355384232777,0.08452383910265748,-0.08458493501788222,-0.619239820570078,0.6306796698707622
2.3576224819696594,0.07443394086328048,-0.08388268493472184,-0.6195635725459816,0.6296314293380183
2.3601094255160406,0.08349782748391621,-0.0927574870184169,-0.6198892899957293,0.6323278978851993
2.3625963690624223,0.09256189572400181,-0.08726733838958989,-0.6058518492545844,0.6190636123491864
2.3650833126088036,0.07289573565075935,-0.08177746266054431,-0.5678745295168319,0.57834489964832
2.3675702561551852,0.07238339040480324,-0.07628787341181376,-0.5346878360779073,0.5449314423722181
2.3700571997015665,0.08623646655171174,-0.07079858415309559,-0.49671504720948434,0.509092335245511
2.372544143247948,0.08572455400388385,-0.07009801164353702,-0.44916784404214205,0.4626166690868459
2.37503108679433,0.07563606586427218,-0.06460936261048422,-0.40641152052641516,0.4184083032313655
2.377518030340711,0.08470143178576067,-0.05912105367134446,-0.3780229668311925,0.3918813531996958
2.3800049738870928,0.09376704816646819,-0.06799830801326401,-0.37836747598437626,0.395699350640492
2.382491917433474,0.08367931135286916,-0.0625107188696874,-0.3691379040291807,0.38363082424793776
2.3849788609798557,0.07838024752260253,-0.07138871924691381,-0.3790647530319724,0.3936113558176509
2.3874658045262374,0.08265826952040123,-0.07547870887722441,-0.412936507996422,0.4278387367340166
2.3899527480726186,0.07257137021748294,-0.07478070070324216,-0.47075325014472647,0.4821487109748757
2.3924396916190003,0.06727317231621233,-0.07408311091700881,-0.45195859051156795,0.4629044767269288
2.3949266351653815,0.06676368518605935,-0.06380914567872864,-0.42837865920190055,0.4382205750435396
2.397413578711763,0.06146611150422132,-0.05832402767927514,-0.42395555265670737,0.4323402429761037
2.3999005222581444,0.06095726717749406,-0.06720457621831555,-0.42432414029373255,0.43391614342225965
2.402387465804526,0.060448758100097755,-0.07129719060275841,-0.42948450103103575,0.43953871088854957
2.404874409350908,0.05515219011461503,-0.06102507670926283,-0.4346483100058638,0.44236294764905837
2.407361352897289,0.05464437897293606,-0.06511866690611967,-0.43981564521540406,0.44795563475550815
2.4098482964436707,0.05413693041439094,-0.06921276360795003,-0.4401981808763047,0.44888267100407253
2.412335239990052,0.053629853447008435,-0.06373057247884484,-0.4166423807842019,0.42488659724067174
2.4148221835364336,0.053123157027213486,-0.06303731571362503,-0.4026671447982544,0.4110189806868967
2.4173091270828153,0.05261685005983774,-0.07192140879567255,-0.3982725490756831,0.4081203808934517
2.4197960706291965,0.05211094139813177,-0.07122925053600859,-0.393881862673533,0.403648458548392
2.4222830141755782,0.04681703652346603,-0.08011446623737495,-0.394283564150415,0.40505517101808913
2.4247699577219595,0.05588875746721966,-0.09378866453019219,-0.3946893249651495,0.4095113307919966
2.427256901268341,0.0601724996467341,-0.09788664733351737,-0.3855224127972843,0.4022810661825538
2.429743844814723,0.05009146506845363,-0.1019852330972526,-0.37635970814887365,0.3931370913059596
2.432230788361104,0.044799275609197164,-0.10129603023967393,-0.37677809106345705,0.3927207541534423
2.4347177319074857,0.03950753649273031,-0.1053958570693303,-0.36283561788411234,0.37989316620919716
2.437204675453867,0.043793062852293896,-0.1190731285038189,-0.35368597437869553,0.3757525924832445
2.4396916190002487,0.04807905648843269,-0.1279626461088803,-0.34932923257603754,0.3751225762389779
2.44217856254663,0.047577122470580435,-0.11769921137967598,-0.3593422706880922,0.38110832376799697
2.4446655060930116,0.04228726913708414,-0.11222485230332158,-0.36935994986801823,0.3883418637902428
2.4471524496393933,0.0465747147358484,-0.11153958019485266,-0.37938234077297395,0.39817237786309406
2.4496393931857745,0.04607425754155681,-0.1108550029785218,-0.3846211102831525,0.40292067130989784
2.452126336732156,0.050362712379126484,-0.10538272850813657,-0.38028792482239915,0.39782009505771443
2.4546132802785374,0.04986328074092683,-0.10469957452803591,-0.37595966031946126,0.3934387040698016
2.457100223824919,0.04936437402899463,-0.0944403421106359,-0.36205957896612695,0.37741616070642436
2.459587167371301,0.04886600027381183,-0.08897025217989407,-0.3529529591003566,0.3672592859185621
2.462074110917682,0.043579764134340504,-0.09307771894886141,-0.34385146532381405,0.3588822757006287
2.4645610544640637,0.047870883499606665,-0.09239754327910221,-0.34433197174440267,0.35971298872355806
2.467047998010445,0.042585752965308865,-0.0869297359229182,-0.33045252877350073,0.3443387853786615
2.4695349415568266,0.03730118699790119,-0.08146271088277501,-0.31179000961068937,0.32440801763960264
2.472021885103208,0.041594000012757926,-0.07599647877072835,-0.2979212870019641,0.31026217763613684
2.4745088286495895,0.0458873930929653,-0.07053105012877214,-0.29363482991978174,0.3054532619225973
2.4769957721959712,0.05496977723152929,-0.060278032108597834,-0.2941423002431591,0.3052454919505051
2.4794827157423525,0.04968754676893372,-0.0548142417528692,-0.2946553593986856,0.30380130714864534
2.481969659288734,0.05398272587753583,-0.04935128607342465,-0.2999624750015695,0.30875098467751866
2.4844566028351154,0.05349011211630206,-0.043889175332571195,-0.29091009761385145,0.29902531113484077
2.486943546381497,0.04820971295428422,-0.048004726363451766,-0.28665190390891127,0.29461490829720083
2.4894304899278787,0.04771834245034634,-0.03775593268729338,-0.27761115018751603,0.2842015154212439
2.49191743347426,0.037650798011028,-0.03229641763846747,-0.2781531089017104,0.28254166626328286
2.4944043770206417,0.02758389359369695,-0.02204938455985639,-0.2787010354521495,0.2809293749456563
2.496891320567023,0.022306039784734222,-0.021380053326359505,-0.2888317980713673,0.29047973021926193
2.4993782641134046,0.026605647119884113,-0.030288433782452273,-0.2989686512617542,0.30167450027626497
2.501865207659786,0.02132910948274036,-0.029620922421937923,-0.28516963911633475,0.28749617915755643
2.5043521512061675,0.02084164394854271,-0.028954335591136804,-0.27616524180364266,0.27845999434832003
2.506839094752549,0.025143257581100253,-0.028288682926453923,-0.27674392244320956,0.27931994485313105
2.5093260382989304,0.03423395739377866,-0.03241237731538593,-0.26775212710607654,0.2718707921272577
2.511812981845312,0.02896013706830025,-0.026960218295026372,-0.24918991469811402,0.2523116257662012
2.5142999253916933,0.01889861015792038,-0.035874231895889785,-0.2449993602808611,0.2483320448875906
2.516786868938075,0.01362619016560429,-0.04478921751697884,-0.22166169862673968,0.22655166232518362
2.5192738124844567,0.01314288390345597,-0.05370518444930106,-0.19354219726645816,0.20128478421570214
2.521760756030838,0.017448698133393004,-0.04825693195406977,-0.18937133324737587,0.19620063813366834
2.5242476995772196,0.026543639567209176,-0.03802127582527204,-0.18999554996999812,0.19557221486002907
2.526734643123601,0.03085090822600478,-0.0325750317881881,-0.1906265003526002,0.1958350680318791
2.5292215866699825,0.03994731736210633,-0.022341402218227113,-0.20084104683178872,0.2059904184907497
2.5317085302163638,0.03946766357632714,-0.031262412664432304,-0.20148563148028664,0.2076812331598242
2.5341954737627455,0.0342003567008321,-0.040184458724571215,-0.19734871253093722,0.20428159353957814
2.536682417309127,0.04329901647887857,-0.034742339248334364,-0.1932187477757541,0.20103561738287828
2.5391693608555084,0.04761003604145608,-0.03408967625930037,-0.20346100120713118,0.21171962727045618
2.54165630440189,0.03755661511045627,-0.0478032850722081,-0.20892191313564723,0.21758680840186215
2.5441432479482713,0.04186917992061756,-0.04715275437116606,-0.20481313339381302,0.2143007934717098
2.546630191494653,0.05097093009459147,-0.04171489933474071,-0.21028832797732733,0.2203618601861839
2.5491171350410347,0.045708258564871596,-0.045854938393860234,-0.1918287259207112,0.20246031799960507
2.551604078587416,0.04044638145668478,-0.059572879950640534,-0.18295320230573964,0.19661310239268892
2.5540910221337976,0.039973708205231606,-0.058926715737878776,-0.1836618085355557,0.19698201717385494
2.556577965680179,0.0347134382354507,-0.05828166398317958,-0.17958938561655735,0.1919742758207652
2.5590649092265605,0.03424238420426984,-0.05763773288562701,-0.17073598408095592,0.1834268938522379
2.561551852772942,0.03856055207880149,-0.05220652725650021,-0.17146686398744748,0.18333936595967457
2.5640387963193234,0.047667947777029485,-0.05156486180062014,-0.17220526835938443,0.1859726395696912
2.566525739865705,0.05198777052727094,-0.055712744514885504,-0.16337443978704158,0.18027158889161307
2.5690126834120863,0.04194321950885671,-0.05028497336806037,-0.16412804035017103,0.17670830721440928
2.571499626958468,0.03189951045377426,-0.0496467661836828,-0.1553125051343418,0.16614558197795293
2.5739865705048492,0.031433455724863,-0.053798130757354734,-0.14171628539569525,0.15480893565342574
2.576473514051231,0.026179851034643264,-0.05316226817715819,-0.1424930419210586,0.1543239396654089
2.5789604575976126,0.020927105328194084,-0.04773918610500694,-0.12891240186458752,0.1390517205283082
2.581447401143994,0.02046362750198827,-0.0423172954564377,-0.12012802515477361,0.12899711614169324
2.5839343446903755,0.015212616443026739,-0.04168500708040668,-0.11613995801078936,0.12432840930810671
2.5864212882367568,0.009962480950792107,-0.04105392511876893,-0.11215984290418213,0.11985201773288257
2.5889082317831384,0.009501629776389131,-0.04042405696732443,-0.10339932187993739,0.11142623172007547
2.59139517532952,0.013830068302312148,-0.03021860331499049,-0.09464684319787153,0.10031181237958894
2.5938821188759014,0.013370995222211746,-0.0200143780657851,-0.10026766133338683,0.1031162584263963
2.596369062422283,0.01291281914253839,-0.005022985096754251,-0.10110820709544655,0.10205312743637908
2.5988560059686643,0.012455545301373938,0.0051787618200447305,-0.09238012083048552,0.09335977135468165
2.601342949515046,0.011999178888826734,0.0058024522986794835,-0.09802546238413967,0.09892744827553623
2.603829893061427,0.006755321726802377,0.006424885979849471,-0.11325587125830516,0.11363892777549632
2.606316836607809,0.0015123822300245893,0.007046055929210038,-0.10934096993223719,0.1095781999755866
2.6088037801541906,0.0106355754061207,0.002877551957568336,-0.10064601034775222,0.10124729709186134
2.611290723700572,0.014971292972894679,-0.006080632738612479,-0.1063246473475381,0.10754554542778828
2.6137776672469535,0.019307943202163336,-0.010251698257020436,-0.10243490547285994,0.10474160513895475
2.6162646107933347,0.01885712767765635,-0.02400086123178946,-0.09855363208939139,0.10317194871732414
2.6187515543397164,0.013618851256042008,-0.01859770834927188,-0.08510406086462119,0.08817056788423176
2.621238497886098,-0.0011952845736090678,-0.008407456113766365,-0.0668746350108691,0.067411652044389
2.6237254414324793,-0.0016432584475463141,-0.022160530925761535,-0.04386539400493383,0.04917277926297385
2.626212384978861,0.0026981277086886024,-0.021549712636786733,-0.03522999019044448,0.04138625637430007
2.6286993285252422,-0.007324734718085035,-0.030517024197920684,-0.03618005889600262,0.04789506411212971
2.631186272071624,0.0065953854557798675,-0.034697261933396284,-0.032350428396934916,0.04789519091151257
2.633673215618005,0.015728072882726374,-0.038878835384460686,-0.028529539838062945,0.05072347346966654
2.636160159164387,0.015284928770024075,-0.0430617507079476,-0.019929027312715064,0.04985087312343765
2.6386471027107685,0.024419570879863683,-0.04245761067640519,-0.03049094442611988,0.05769455640095184
2.6411340462571498,0.0239783903653894,-0.041854824639168786,-0.045850117811934155,0.0665509042272065
2.6436209898035314,0.023538198255169673,-0.04604180188186513,-0.042064567055021485,0.06665824854551004
2.6461079333499127,0.027887402211106305,-0.045441741665608326,-0.04307634453611975,0.06854363972158463
2.6485948768962944,0.027449199887906506,-0.04484305314900627,-0.03452027566714655,0.06289679977826088
2.651081820442676,0.02701199885505612,-0.04424574210705101,-0.04033841201710864,0.06568501549677243
2.6535687639890573,0.021787399995355727,-0.04843821757187916,-0.0413771748677334,0.06732772326563047
2.656055707535439,0.02614061742689533,-0.057420485192281934,-0.052001808339397826,0.08175959925136521
2.65854265108182,0.030494848620342185,-0.05203893727290687,-0.06263553954832979,0.08695514705514279
2.661029594628202,0.02527329100060427,-0.05623559593845995,-0.03975957860753532,0.07336215359164246
2.663516538174583,0.015264351907869789,-0.05564525668853415,-0.016892781713728766,0.06012288337336984
2.666003481720965,0.019621648597709207,-0.05026792492118659,-0.00840039138264892,0.05461171984982452
2.6684904252673465,0.02397997503805338,-0.04968041261276879,0.004871173510888838,0.05537969782848047
2.6709773688137277,0.028339335112421593,-0.04909432171650918,0.03249868784920551,0.06534167928159128
2.6734643123601094,0.023122926018467216,-0.05329806076421706,0.04575170034892828,0.07394978751625868
2.6759512559064906,0.017907558189949158,-0.04313802162424185,0.04463018004432229,0.06460203186253971
2.6784381994528723,0.007904832054665967,-0.03776782266568546,0.04828770964572904,0.06181098366430817
2.680925142999254,0.002691557956417512,-0.03718746891478908,0.04235904901509535,0.05643085469833333
2.6834120865456352,0.0070561428738756815,-0.01745494873479192,0.036420975008725875,0.040999412290629186
2.685899030092017,0.006633380459755145,-0.007300686951042135,0.025685054913763494,0.027514065715630334
2.688385973638398,-0.0033651290372105347,0.002852118234759171,0.010151259728424122,0.011068276556720501
2.69087291718478,-0.008574172131530222,0.013003462041292213,0.018549980762536222,0.024222061000065638
2.6933598607311615,-0.004205342022719716,0.013576533107470201,0.017362366550587538,0.022437890386202704
2.6958468042775428,0.00016455808449200582,0.014148133414157549,0.030530405858474552,0.03364970193554692
2.6983337478239244,-0.005041275058779715,0.014718258362142134,0.05326566791687526,0.05549119715832301
2.7008206913703057,-0.0006692248235969922,0.02007530673291802,0.04726089909984843,0.05135229679392457
2.7033076349166874,-0.0010844978671442629,0.025430870727591426,0.046034895970676004,0.05260339312837404
2.7057945784630686,-0.0062870909294917565,0.025996542607356066,0.04958763223392104,0.05634075798618955
2.7082815220094503,-0.0019117908334813638,0.021772318013638436,0.05791908197655893,0.06190564459631562
2.710768465555832,0.0024645989528881973,0.022334999288262214,0.05666400970595653,0.060956840774124665
2.713255409102213,0.002053678238451373,0.02768458219203307,0.05539919691131168,0.06196551221343053
2.715742352648595,-0.012721356531632977,0.028244255904585458,0.05891302214068794,0.06656061208671252
2.718229296194976,-0.022706889033578093,0.024014016305462516,0.05762865435931097,0.06643295561667552
2.720716239741358,-0.008749302986726937,0.024570665973960182,0.04675766622972333,0.05354014643618079
2.7232031832877395,-0.004367418676872514,0.029914200907712907,0.04545364739194824,0.05458908153722381
2.7256901268341207,-0.004772829870201334,0.025679407202222393,0.058504977899856314,0.06407061961843442
2.7281770703805024,-0.014753937016299457,0.02144308761318392,0.07154642489979324,0.07613393185570654
2.7306640139268836,-0.01515712400584579,0.026782044954770434,0.08936636919191265,0.0945164762495575
2.7331509574732653,1.9045905367513833,-2.338140174736475,-10.839113604927157,11.250811007652587
2.7356379010196465,1.8227867286625723,-2.275343448217436,-12.27698814814202,12.61840628824235
2.7381248445660282,1.6116971526706823,-2.0066469197650703,-12.91042090490866,13.164466093026029
2.74061178811241,1.3000522313564118,-1.5895114328175817,-12.74420029958853,12.908575586614697
2.743098731658791,0.9117939839377645,-1.0574558141535315,-11.811845176097847,11.894085401246208
2.745585675205173,0.48044123623166596,-0.458364100455253,-10.185181604549657,10.206803894839691
2.748072618751554,0.04430121733349668,0.14072605837103902,-8.017438511137648,8.018795838605378
2.7505595622979357,-0.3631072470232797,0.6919306257574034,-5.461844821692473,5.517459897448349
2.7530465058443174,-0.7178421377877208,1.1473655651933026,-2.7051482849223225,3.0248259980357837
2.7555334493906987,-1.0103266459106035,1.4735120501850942,0.09463377074293078,1.7891208019702511
2.7580203929370803,-1.2166187524236731,1.6464280609371018,2.774695613917915,3.4481621624403567
2.7605073364834616,-1.3175648417198813,1.6709019976316268,5.186596723534571,5.606128447547848
2.7629942800298433,-1.3227417181551533,1.5517222605073058,7.181896578882631,7.465730111413618
2.7654812235762245,-1.2417261861263391,1.312830863140019,8.664827096133152,8.851250612337676
2.767968167122606,-1.0601530334695137,0.9781698191616774,9.558773805091588,9.667000429626478
2.770455110668988,-0.8163294845848569,0.5812579489004546,9.825429462481422,9.876402115788952
2.772942054215369,-0.5389859572724576,0.16040247606040747,9.512678085144255,9.529285344035355
2.775428997761751,-0.24248765941187267,-0.23651256895841266,8.654038480312492,8.660665129132502
2.777915941308132,0.06358860439737901,-0.5855451723023299,7.321336682131493,7.344989957279721
2.7804028848545137,0.350512416234384,-0.8579649167423447,5.61034074169747,5.686377228978542
2.7828898284008954,0.5703997448569975,-1.025041384994645,3.655125937016839,3.838751271616578
2.7853767719472766,0.7471926087877541,-1.1011397896035304,1.584979143124004,2.069532438743896
2.7878637154936583,0.8713142032674412,-1.0814717297776726,-0.4803895712438333,1.4695385953705746
2.7903506590400395,0.9140341102158538,-0.9660372079917194,-2.4021165237223725,2.7456966393617814
2.792837602586421,0.8849291380758337,-0.7692014366271738,-4.0844336614873225,4.249396282369495
2.7953245461328025,0.798364498571186,-0.5196948379725632,-5.441149738013093,5.523909762901101
2.797811489679184,0.6591285967458738,-0.25582464090331314,-6.400438716394326,6.439372059157705
2.800298433225566,0.4767982409250925,0.012832345680567236,-6.909628172667464,6.926071232391769
2.802785376771947,0.27531544935602825,0.26233410297148696,-6.9591413124135535,6.96952405723497
2.8052723203183287,0.069045433606432,0.4687386122150219,-6.587285374079832,6.604302518665331
2.80775926386471,-0.13722340143524558,0.6272574679909773,-5.822790789137214,5.858086271736965
2.8102462074110917,-0.3291258442784323,0.718737054970997,-4.732695215284878,4.798261224270803
2.8127331509574733,-0.4779314735101746,0.7288121611996972,-3.398401519848731,3.508378336182451
2.8152200945038546,-0.5788518843570687,0.6766363980162344,-1.9013125698250013,2.09949894196655
2.8177070380502363,-0.6510406886856446,0.576574973491689,-0.3563500551190977,0.9398287291653752
2.8201939815966175,-0.6657674651971819,0.41905107914759965,1.1598715612544162,1.4014821309087766
2.822680925142999,-0.6278206158730439,0.2423719397605888,2.53721899336616,2.6249539240140027
2.825167868689381,-0.5515653493728685,0.06569116687745913,3.7134429888183096,3.754756782434569
2.827654812235762,-0.44179006775334584,-0.11577964450483558,4.631082698857238,4.653548146705051
2.8301417557821438,-0.3128599797491216,-0.2733100760960876,5.232677275054662,5.249141951738185
2.832628699328525,-0.1599866808508683,-0.402111726156563,5.499073095867516,5.516076004920185
2.8351156428749067,-0.01190058982871589,-0.48781938625488586,5.449423766636402,5.471227354627665
2.837602586421288,0.13139829443216433,-0.525644654549734,5.093306086382064,5.12204399670805
2.8400895299676696,0.2507563597284602,-0.506010725828955,4.454662064405117,4.490316215440542
2.8425764735140513,0.3461736071013951,-0.45764802139258753,3.590952533565927,3.6365117868723718
2.8450634170604325,0.4128616342352488,-0.3709797359281355,2.5596383270420286,2.6191275377031995
2.847550360606814,0.4412436354576185,-0.25558267735436013,1.4325454882859088,1.5205936428920752
2.8500373041531954,0.4361080150206934,-0.12103365354038242,0.2958652710255425,0.5407176755513364
2.852524247699577,0.4022431771405194,0.008725317733258908,-0.7881530873003708,0.8849073362486897
2.855011191245959,0.34922592931742946,0.1336942353369115,-1.7620487522624204,1.8012908437061175
2.85749813479234,0.26747946573469766,0.24429629154932853,-2.558784082480157,2.5842991164739995
2.8599850783387217,0.16658059382103846,0.3165894687373503,-3.1496286628279773,3.1698799188077644
2.862472021885103,0.070471330930584,0.36015057255863603,-3.5058520778725155,3.525006870251528
2.8649589654314846,-0.03521353218048012,0.3797680053990584,-3.622665928476261,3.642687491415668
2.867445908977866,-0.1313203815490686,0.36107655641154857,-3.5096470251581113,3.530615182004603
2.8699328525242476,-0.21784921652847133,0.3088646280784011,-3.181160581454165,3.203535279128026
2.8724197960706292,-0.2852232298664156,0.2470742362110112,-2.6515718105983153,2.678288826063073
2.8749067396170105,-0.31907721102504794,0.16134017010609192,-1.9591879421263636,1.9915467128989772
2.877393683163392,-0.33377636942318906,0.0756044456702285,-1.1710466251958662,1.2200298747871117
2.8798806267097734,-0.3293207045532377,-0.00534453442388072,-0.3446087020265036,0.4766926137544408
2.882367570256155,-0.3057102159420052,-0.07671836745645688,0.4866070020601807,0.5797679005347641
2.8848545138025368,-0.26294490315055025,-0.1241518440202154,1.2747164520769214,1.3074615618296572
2.887341457348918,-0.20102476577408723,-0.1620101745830338,1.9622588066890856,1.9791710076574551
2.8898284008952997,-0.13431501340267538,-0.1807165529647845,2.5061384348159947,2.516233067464697
2.892315344441681,-0.06281564569924686,-0.18027097957967841,2.901566932230388,2.9078401079901375
2.8948022879880626,0.013473337639541061,-0.1606734547958415,3.119813878392648,3.123977612870258
2.897289231534444,0.07539832360231352,-0.12192397893555107,3.1608792729737036,3.1641283384458796
2.8997761750808255,0.1229593124255744,-0.06881095559572437,3.029551519251571,3.032826461886942
2.902263118627207,0.15615630431258792,-0.010911191648180996,2.759349440711892,2.763786023091654
2.9047500621735884,0.16541249279296355,0.04698690940087191,2.335907827921062,2.3422285206550457
2.90723700571997,0.17466989460555898,0.10009494409022368,1.821475924853484,1.832567356124952
2.9097239492663514,0.1743517032142861,0.14841291232380538,1.235207345882218,1.2562492174244524
2.912210892812733,0.15488111205044286,0.1919408140502039,0.6058325123005925,0.6541119689538515
2.9146978363591147,0.11625812115348005,0.2258902459420522,-0.02834134767824459,0.25562782699486614
2.917184779905496,0.06327113385088817,0.23589599807558725,-0.5954881823216844,0.6436274804354132
2.9196717234518776,0.005496956758254901,0.2171696672116652,-1.076454376145156,1.098156138630789
2.922158666998259,-0.03791079690017668,0.20323007671741777,-1.456874716709482,1.4714698885099577
2.9246456105446406,-0.08131733717420753,0.1749236134801193,-1.703230378021158,1.714119161695634
2.927132554091022,-0.129511067504746,0.12746187439131962,-1.8298865670182458,1.838886754039897
2.9296194976374035,-0.15854997144232952,0.07999847298731533,-1.8033244571650648,1.812047722035582
2.932106441183785,-0.17801085581110992,0.03732181288638614,-1.6283324482196582,1.6384588320823799
2.9345933847301664,-0.1974705274664756,0.004220297749545576,-1.3767365861568432,1.3908328612000012
2.937080328276548,-0.1881985667324047,-0.024094475360298073,-1.0629020768415263,1.0797036951020633
2.9395672718229293,-0.1693485871669374,-0.05241090933793391,-0.6628868993113635,0.6861813817582787
2.942054215369311,-0.15528579903858442,-0.06157539043449045,-0.21499827550470485,0.2722672704535169
2.9445411589156927,-0.12206818608396974,-0.051587918140464595,0.25203337954284954,0.28475038148471016
2.947028102462074,-0.0792725553124416,-0.0416021051859472,0.7142660543759014,0.719854755916348
2.9495150460084556,-0.05084092372451815,-0.036406354298619714,1.1429693344788028,1.1446786106665032
2.952001989554837,-0.017619678468112798,-0.016847051563364523,1.4950475956323555,1.4952463306832708
2.9544889331012185,0.025179583317897658,0.007498997054085521,1.7657124404359053,1.765907887938383
2.9569758766476,0.04882644122261315,0.03184338894913008,1.9405986651034048,1.941473976591844
2.9594628201939814,0.05810929804761672,0.05618612487808594,1.9909758561412882,1.9926159767717257
2.961949763740363,0.06739336320556416,0.09010401227825948,1.935997633511267,1.939264663575868
2.9644367072867444,0.08625544275941871,0.109655035384979,1.8091828273866177,1.8145541411326203
2.966923650833126,0.08596511618040198,0.11005079175475618,1.6057430416274343,1.611803925327359
2.9694105943795073,0.06652238283253686,0.12002170222603814,1.3256782836620182,1.332761549638955
2.971897537925889,0.04708085533215978,0.12999096111430752,1.0025073844071262,1.0119957078471462
2.9743844814722706,0.022852129665294763,0.11601655281340939,0.6505955617435148,0.6612538433289485
2.976871425018652,0.0034130117502938484,0.10682889827973696,0.30825005039716835,0.3262547405429182
2.9793583685650336,-0.025601709124524974,0.09763959526636823,-0.010163931265644521,0.101450695279282
2.981845312111415,-0.05461522709756511,0.08366024156505247,-0.3046463745985566,0.32061078055125597
2.9843322556577965,-0.07405073633537446,0.06489083832630138,-0.5464668507940509,0.5552660186498619
2.986819199204178,-0.09348504431373611,0.04133138673885517,-0.7068949308066887,0.7142465822391391
2.9893061427505594,-0.10334134525500405,0.022558694670109514,-0.7859306052763433,0.7930165475287212
2.991793086296941,-0.10840804337014998,0.01336116670492693,-0.7883622679281928,0.7958931398975272
2.9942800298433223,-0.11347354289765188,0.008950400825145088,-0.7141899089333936,0.7232036923543498
2.996766973389704,-0.10896103814240754,-0.0050388115906612185,-0.587355534832442,0.5973980429777297
2.9992539169360852,-0.10444733671775902,0.00012395075604887396,-0.41264753865373827,0.42566095976517654
3.001740860482467,-0.08556722966254032,0.019650285958549674,-0.19485431319644775,0.2137196479073322
3.0042278040288486,-0.0714743312846351,0.02480977554528918,0.051658942327826196,0.09161196055986941
3.00671474757523,-0.06216864263741645,0.03475603428432539,0.3125270289338573,0.32054027182364475
3.0092016911216115,-0.038496551519571265,0.05427746701906333,0.5685963445412394,0.5724769261119301
3.0116886346679927,-0.01961167231869604,0.06422046202741027,0.781559674011989,0.7844389137949981
3.0141755782143744,-0.010302409487701503,0.06937342422467996,0.9753590455944359,0.977877333540766
3.016662521760756,-0.000991957544654254,0.07452475856181806,1.1452060678358382,1.147628799493325
3.0191494653071373,0.013108085646130863,0.07967446670486611,1.243216719620035,1.2458361266622555
3.021636408853519,0.02242091223362469,0.08003414703474476,1.2981214331738187,1.3007795421447157
3.0241233523999003,0.01258131102086646,0.07560380128765853,1.2859782044170789,1.2882601314920532
3.026610295946282,0.017108103988560275,0.06638343123456636,1.2259406593676019,1.2278558333351797
3.029097239492663,0.002482466607732603,0.061949845321589425,1.1227972142959182,1.1245076835693482
3.031584183039045,-0.01214198915229625,0.0623030453885427,0.9621826724035394,0.9642741272267332
3.0340711265854265,-0.02676526462844092,0.043501016707778284,0.8015578869074709,0.803183518200424
3.036558070131808,-0.036598957862129966,0.0294857777886528,0.6457112747106635,0.6474194506630656
3.0390450136781895,-0.041643070239775704,0.020257330572619914,0.4659124296817847,0.46820817685395805
3.0415319572245707,-0.061051216453536006,0.011027273714274699,0.2813149790992835,0.28807458975351563
3.0440189007709524,-0.07088138133712729,0.011372415862360263,0.12543776040743282,0.14452727700623935
3.046505844317334,-0.07592196967032028,0.011715952417386877,-0.00650761530822308,0.07709577210630505
3.0489927878637153,-0.08096138625691801,0.012057885453274686,-0.10494432679891474,0.133091887031192
3.051479731410097,-0.08121122928398133,0.007609813756200623,-0.16987235925587463,0.18844041887656793
3.0539666749564782,-0.07188309696227857,0.012736949425943056,-0.20129169767080057,0.21412089356426747
3.05645361850286,-0.05776539416676468,0.02265089131315845,-0.1896255201969197,0.199518774932272
3.0589405620492416,-0.06280013907704052,0.01819802833948092,-0.1252970047909212,0.14133069416484276
3.061427505595623,-0.05825691337251271,0.02332037934104525,-0.02745974913636573,0.06849632012695893
3.0639144491420045,-0.0489241219978504,0.033229543263594064,0.08952105259725585,0.10729301522880354
3.0664013926883857,-0.03480176660033574,0.04792552240443193,0.22085701307322303,0.22866096929705287
3.0688883362347674,-0.030255058810950197,0.057831512451280265,0.3617597451456387,0.3676002796841892
