Time (s),Acceleration x (m/s^2),Acceleration y (m/s^2),Acceleration z (m/s^2),Absolute acceleration (m/s^2)
0.0,-0.5161808151636882,0.36397416242528546,4.605706273645404,4.648811687297396
0.002486943546381497,0.024957800962282062,-0.010280700376050778,-0.8153782033322479,0.815824858102779
0.004973887092762994,0.5325772884348847,-0.3318628806650641,-5.81029098031992,5.84407844024248
0.007460830639144491,0.968370420210123,-0.591195564814871,-10.048632177269983,10.112480511756766
0.009947774185525988,1.2892415659302,-0.7787019392038204,-13.238309140775744,13.323713800295643
0.012434717731907486,1.476037111845423,-0.8656515769344117,-15.221304510479058,15.317184767734707
0.014921661278288981,1.509603444212654,-0.8616212776771974,-15.906638572587084,16.00132633452115
0.01740860482467048,1.399517369217193,-0.78097624442875,-15.323041696396853,15.406627781270604
0.019895548371051976,1.1792977096524724,-0.6285048735508789,-13.566281897772974,13.631939186847609
0.022382491917433474,0.8537328683966328,-0.3994187547707828,-10.79437643582843,10.835449127314082
0.02486943546381497,0.46591847489690286,-0.11765989774369823,-7.285052652769463,7.300884606019376
0.02735637901019647,0.058950158607109504,0.16888767126725623,-3.311249487568584,3.3160777034968723
0.029843322556577963,-0.33844166097325123,0.43149353927374534,0.83015210411246,0.994928112116479
0.032330266102959464,-0.6831613543771348,0.6797345198433109,4.813540746601271,4.909065386891046
0.03481720964934096,-0.9321132921308726,0.8705149900132878,8.365977500658943,8.46263617785478
0.03730415319572246,-1.080509071316669,0.9894697467359648,11.27198426679934,11.36680164091356
0.03979109674210395,-1.1235602890100909,1.0605408135190566,13.34960176868636,13.438712807508542
0.04227804028848545,-1.061266945600376,1.0645745839802419,14.474331569734456,14.552177877049614
0.04476498383486695,-0.9079942514310508,0.9872058550501381,14.622231702990337,14.683619749122244
0.04725192738124844,-0.6828958201593008,0.8571650535346538,13.826821041249051,13.870185966198132
0.04973887092762994,-0.39076005547471193,0.6840289929507728,12.198232910334154,12.22364410554034
0.05222581447401144,-0.08425939426333062,0.46779768016703605,9.904061475815393,9.91546105997204
0.05471275802039294,0.19351053323609607,0.241989945286202,7.116689306484148,7.123431205895005
0.05719970156677443,0.45212653331493063,0.04012461840291204,4.042017794274286,4.067423783718549
0.059686645113155926,0.643704572427469,-0.133009890318335,0.9625627841438718,1.165578963822412
0.062173588659537427,0.7586678435971934,-0.2726251707214544,-1.9445047520978012,2.1049940882459146
0.06466053220591893,0.8113815564558352,-0.37393281265891876,-4.482860229463093,4.5710175689272505
0.06714747575230041,0.7587500807980712,-0.41299079271066086,-6.460967466388663,6.518463291429016
0.06963441929868192,0.6295038362299596,-0.40895271734827854,-7.763904734541237,7.800111161508316
0.07212136284506342,0.4619500490048847,-0.3570301764508079,-8.353364758818596,8.373742961695479
0.07460830639144492,0.2608771221407446,-0.247646356586118,-8.229347490788177,8.237204969826141
0.0770952499378264,0.026285055341832675,-0.09995486425324307,-7.415794898727164,7.416515075088166
0.0795821934842079,-0.19394211847772946,0.05731388739872445,-6.003686597506318,6.007091741274256
0.0820691370305894,-0.37107397967835565,0.21937150181267517,-4.136674638630116,4.159074033975289
0.0845560805769709,-0.5098989318559364,0.3718527757811496,-1.9584110737143101,2.057582402046345
0.0870430241233524,-0.6104169752793356,0.49081569944619874,0.3491448189505366,0.8575610993579624
0.0895299676697339,-0.6438976902888272,0.5858370861820488,2.627975777562087,2.7684049585562107
0.0920169112161154,-0.5911874638585917,0.64255173275121,4.7296413468443514,4.809561582562883
0.09450385476249688,-0.5097471360811006,0.6609596458668308,6.476970651483873,6.530532797283136
0.09699079830887838,-0.3899999005577256,0.6362724289113144,7.778984075816712,7.814699980040035
0.09947774185525989,-0.22715735420343708,0.5732784918971072,8.573432423983316,8.595579807171182
0.10196468540164137,-0.0547383204889863,0.4815546481462465,8.807643306646398,8.820967734891354
0.10445162894802287,0.12246879704346969,0.37546611429022203,8.500770384153984,8.50993951408228
0.10693857249440437,0.2757335782569271,0.2550128969885863,7.700697736655625,7.709851244683127
0.10942551604078588,0.39069081298203706,0.13934861617100136,6.488828267421717,6.502072718162144
0.11191245958716736,0.4769173076577263,0.02847327847460246,4.970506896201911,4.9934156297189345
0.11439940313354886,0.5056826421671382,-0.06803630283427164,3.27023215590377,3.309797913256867
0.11688634667993036,0.47698681632200324,-0.13581491118052602,1.5268677892715754,1.6053932100762862
0.11937329022631185,0.4195602498626378,-0.17486253996169854,-0.14945288099751952,0.4784807987632465
0.12186023377269335,0.3381913459345033,-0.18996758590746587,-1.6342313223716447,1.679634807087861
0.12434717731907485,0.223303297728832,-0.16676483247822826,-2.8364878256882387,2.8501470238227453
0.12683412086545634,0.07489610508418809,-0.1100426764277378,-3.6891846985144117,3.691585371753582
0.12932106441183785,-0.06393460227135828,-0.02937791784229571,-4.1348610551869704,4.135459665034378
0.13180800795821934,-0.1740352112045912,0.06086423985910061,-4.178305253336758,4.1823710381187125
0.13429495150460083,-0.2601941251771669,0.16068380320588638,-3.829094054045889,3.8412864436434577
0.13678189505098234,-0.32241134432373864,0.26529237539453954,-3.120746235129877,3.1485530301185047
0.13926883859736383,-0.3558984654519546,0.36032475296812727,-2.1298762044198973,2.189262499442839
0.14175578214374532,-0.3606554886830945,0.436204135777126,-0.9426751765213996,1.0995375928161633
0.14424272569012683,-0.3127403975301938,0.4929305302995859,0.3498772305051805,0.6805888188728564
0.14672966923650832,-0.22651840206211216,0.5161387330394427,1.6424361885029288,1.7364637662561122
0.14921661278288983,-0.1402967289426007,0.51540555708889,2.8631756924206506,2.912576369144434
0.15170355632927132,-0.049286974945931816,0.49551941220636664,3.911539317147927,3.9431089920729727
0.1541904998756528,0.04651085983996939,0.4564803048164321,4.715701057357949,4.737971505943786
0.15667744342203432,0.13273156537289965,0.40307664465025317,5.242142134147283,5.259291074328466
0.1591643869684158,0.199798334937612,0.34488524474548354,5.457343768472432,5.471879586940111
0.1616513305147973,0.24292276514582195,0.2627524982039424,5.3565176010708715,5.368457055404332
0.1641382740611788,0.2621048559361932,0.19498563795711066,4.9875477090617135,4.998234738853471
0.1666252176075603,0.25255620393370865,0.1320078637191302,4.374376152819833,4.383648872638859
0.1691121611539418,0.2238536157309145,0.07860758515073751,3.5600986058578172,3.5679954704497328
0.1715991047003233,0.17120868796603805,0.05393842185914188,2.616541161465735,2.6226912547671644
0.1740860482467048,0.10898663056516872,0.029269960233830883,1.6346835260696437,1.6385740894501908
0.1765729917930863,0.03239904017974765,0.023755819852701254,0.6767749860275671,0.6779663844867654
0.1790599353394678,-0.039400469930611526,0.04697281363817041,-0.19493517244926473,0.20434912211620554
0.18154687888584928,-0.10641189978097576,0.08455573789613346,-0.9325628732586084,0.942415342514386
0.1840338224322308,-0.14948163609856324,0.12213938891738119,-1.497800847087258,1.5101887853480842
0.18652076597861228,-0.17818648552590122,0.150146966297807,-1.8427650181309563,1.8574384100582422
0.18900770952499377,-0.19731485137863658,0.19730889618045744,-1.924359714056033,1.9444856029727606
0.19149465307137528,-0.2020783303252338,0.24447157148979937,-1.7856805224455474,1.8136308690290672
0.19398159661775677,-0.18290011570729725,0.2820581917753353,-1.4410926111126319,1.4797828184151678
0.19646854016413826,-0.15414541746145183,0.3100687632114938,-0.9049611480231388,0.9689469165414728
0.19895548371051977,-0.11102583223654272,0.3189264853162519,-0.2539005444605369,0.42250008868324684
0.20144242725690126,-0.04875295667489743,0.30384296091195573,0.44505159477796674,0.5410806942542861
0.20392937080328274,0.02309640262673507,0.2887602127267641,1.1631648913025643,1.198694485107531
0.20641631434966426,0.07100342247654295,0.26888984355077916,1.8621321599268779,1.8827850156090802
0.20890325789604575,0.1045449095720195,0.23465505283749533,2.4892810053468857,2.5025012598439167
0.21139020144242726,0.1332976706171392,0.20520945994586492,2.996727435421402,3.0067016003671805
0.21387714498880875,0.14768489904109855,0.16618786097612226,3.34137586117129,3.348764231796377
0.21636408853519024,0.15249499824049212,0.11280185865247994,3.50407271005996,3.5092028355725997
0.21885103208157175,0.14293956497773935,0.06420507228394579,3.489606425992596,3.4931228176048768
0.22133797562795324,0.11423019602170009,0.029974314522030365,3.321919065995104,3.324017641083754
0.22382491917433472,0.07594369810859802,0.010109591360621728,3.0057990736508433,3.0067753025924895
0.22631186272071624,0.0376568779810742,-0.00017749454380666663,2.550823295701468,2.5511012441408307
0.22879880626709773,-0.0054186675727614375,-0.0008869372316877566,2.028817821889911,2.0288252519707157
0.2312857498134792,-0.0389177284771558,0.017558075879839485,1.4685131119128094,1.4691336343159078
0.23377269335986073,-0.0724171112515376,0.04079234075463267,0.9130048352634788,0.9167802802638981
0.23625963690624222,-0.09634000912771512,0.06881586329993361,0.41975387123125785,0.436131095903595
0.2387465804526237,-0.11068642197176604,0.09205184276469769,-0.02081654754458029,0.1454591159637795
0.24123352399900522,-0.1154563496434231,0.11528868834104378,-0.36561075206771676,0.4003659230752589
0.2437204675453867,-0.10107298535546239,0.1528916158438336,-0.5667446701885721,0.595643446829693
0.24620741109176822,-0.07711313559558974,0.18570701782775112,-0.6673138930112987,0.6969514789120944
0.2486943546381497,-0.0435768002045821,0.21852330343094417,-0.6385879620038377,0.6763475119157736
0.2511812981845312,-0.005252382337234129,0.22739846185148282,-0.4566248221236071,0.5101410355500258
0.2536682417309127,0.009129698256373886,0.23627451547225053,-0.17409687162287746,0.29363024156372564
0.2561551852772942,0.02829986167617704,0.2259978567749008,0.1898423143177439,0.2965063536305022
0.2586421288236757,0.057046511426799396,0.22529891142569047,0.6112507570261343,0.6539429576963051
0.26112907237005717,0.08100443773785326,0.22460087850974908,1.0470328643770639,1.0739111195281554
0.2636160159164387,0.09538523748579719,0.22390376373410215,1.4349394307914967,1.4554320351650718
0.2661029594628202,0.10497731419392592,0.21841916946663043,1.779758897001635,1.7961817562658684
0.26858990300920166,0.1049922647511024,0.20335869805627826,2.052760880323646,2.0654794522143813
0.2710768465555832,0.09064168605237155,0.1978759684345177,2.2395802078601577,2.250131178747866
0.2735637901019647,0.06671398163956588,0.19239417959180916,2.359370529780904,2.3681417973773513
0.27605073364834615,0.047574361701294476,0.18212493381968686,2.3738246562361063,2.3812761935492865
0.27853767719472766,0.023646019830739662,0.16706823671066262,2.287731027082444,2.2939451131723136
0.2810246207411092,-0.00028264041186110145,0.15680090047843143,2.139396905241796,2.145135361797624
0.28351156428749064,-0.029000022100792333,0.14653452735621686,1.9240339235756068,1.9298238023350993
0.28599850783387215,-0.03377570506206118,0.1410575261982343,1.6368537147671667,1.6432675094143006
0.28848545138025367,-0.03376330231872904,0.14036990251865689,1.3065867345631084,1.3145389172834898
0.2909723949266352,-0.04332802356748777,0.1636252750930831,0.985905455132233,1.0003300029165612
0.29345933847301664,-0.04810465857711521,0.1820932294740687,0.689175121900842,0.7144468846906374
0.29594628201939815,-0.03372799711036689,0.20056217443634106,0.4116073668333975,0.4591115202597657
0.29843322556577967,-0.02414005548649023,0.21424371209389115,0.196297854916331,0.2915749617086726
0.30092016911216113,-0.019340833417180403,0.2183494445405052,0.07197704099339752,0.2307189680077984
0.30340711265854264,-0.00017671732691126874,0.21287937716998506,0.019491346522924502,0.2137699067749507
0.30589405620492416,0.01419867980330114,0.2074103219963721,0.038840806061621436,0.21149291334300524
0.3083809997513056,0.023785358279628688,0.20194228437260398,0.12044864734215466,0.23633515636204167
0.31086794329768713,0.028583318414165393,0.19647526963104633,0.2547380979132363,0.32297219105770003
0.31335488684406865,0.033380963845221545,0.18143247644278393,0.43692078845936244,0.4742697625227106
0.3158418303904501,0.03817829489668151,0.14244870013784006,0.6430547361987191,0.6597488977783763
0.3183287739368316,0.03339850525767346,0.12261957586914818,0.8683515714451833,0.8776021149536366
0.32081571748321314,0.028618401904425328,0.12194510888590893,1.0888693110452472,1.0960501808972574
0.3233026610295946,0.01904958185806116,0.10690648117412449,1.285454374979068,1.2900328803712044
0.3257896045759761,0.004692045465830574,0.10144571454244833,1.45810679632093,1.4616390381236288
0.3282765481223576,-0.014454206919219947,0.10077441085647454,1.5733077847152455,1.576598170564309
0.3307634916687391,-0.033600771617954606,0.0809505586792798,1.64063417950109,1.6429736807846387
0.3332504352151206,-0.03838243830485366,0.07070458307602667,1.6600860131882484,1.662034271855257
0.3357373787615021,-0.03358760992990795,0.06524808584824893,1.6316633180973596,1.6333127758859138
0.3382243223078836,-0.038369899398325136,0.06458107209627295,1.5601545296797212,1.5619619459298915
0.3407112658542651,-0.03357569304711139,0.07349195021913735,1.4407712765558962,1.4430350880207705
0.3431982094006466,-0.028781797129465603,0.0680387086723222,1.2830903971167924,1.285215400194507
0.34568515294702806,-0.03356501789292332,0.07216336909267085,1.1158423428435036,1.1186770295073714
0.3481720964934096,-0.028771741657502736,0.09065433981393145,0.9486039517443636,0.9533600997053153
0.3506590400397911,-0.014401968018847633,0.0947812059057469,0.7813752549950888,0.7872345157539801
0.3531459835861726,-0.0048209065279363195,0.1084859889391927,0.6189446868992761,0.6283987399547429
0.35563292713255407,0.0047598465510850785,0.11740348390076871,0.485254294848934,0.49927744275158686
0.3581198706789356,0.014340291639322822,0.131110502356381,0.38030410944114834,0.4025255562697459
0.3606068142253171,0.023920429163426626,0.14481864588876814,0.3184593710402073,0.35065795033300373
0.36309375777169856,0.028711856235255517,0.13937430609742307,0.3188737231365302,0.3491847923314597
0.36558070131808007,0.028714573292485168,0.14350790776258115,0.34802837250250995,0.37754840004495954
0.3680676448644616,0.038293790739208744,0.14764264907952107,0.42028855891864403,0.44710987351467363
0.37055458841084304,0.03829589574279385,0.15177853486161785,0.5404427153293785,0.5626558698068242
0.37304153195722456,0.0191440821166744,0.14633876325902007,0.6701836446005291,0.6862416826470962
0.3755284755036061,0.019145576882826254,0.136111742360137,0.7999345693235362,0.8116577324964753
0.37801541904998753,0.014358363904562799,0.14025109019157167,0.9296955185338831,0.9403245652943063
0.38050236259636905,0.004782443652136981,0.1396031981946071,1.040312907788774,1.049648927415916
0.38298930614275056,0.004783026562092507,0.13895647438920244,1.1269983624089832,1.1355426403223705
0.385476249689132,-0.00958190348619059,0.14309932677236237,1.2089055241190856,1.217383175685767
0.38796319323551354,-0.023947136045522233,0.13766655003681683,1.2764576145236592,1.2840831694244936
0.39045013678189505,-0.014370654022796026,0.13702335877407945,1.2865590317865916,1.2939150122084622
0.3929370803282765,-0.009582876843074573,0.1459581609118783,1.2679402236776145,1.276349492531339
0.395424023874658,-0.014372207324611308,0.14052894443284059,1.22060121784539,1.228748256386327
0.39791096742103954,-0.0047966283585598735,0.14467773049942778,1.1589072516999774,1.1679129553990186
0.400397910967421,0.004778650606627521,0.15361612032887217,1.0732815458499942,1.0842296918036638
0.4028848545138025,0.004776823447992129,0.15297890847436113,0.9685125306647748,0.9805314306716265
0.40537179806018403,0.00956310064929422,0.14755450274685078,0.8493886363131082,0.8621628846527439
0.4078587416065655,0.028714289379114688,0.14691971425406258,0.7446403093644971,0.7595387437000808
0.410345685152947,0.02871156692833665,0.14149774079886068,0.6590559795856716,0.6746856667769748
0.4128326286993285,0.023920143796056115,0.14086539344169235,0.5830588665809326,0.6003106481209113
0.41531957224571003,0.028705230486435807,0.13544586993802454,0.5166489963934122,0.5348792007686107
0.4178065157920915,0.028701617586806782,0.1300275779804725,0.46940320150475756,0.4879245018140442
0.420293459338473,0.019120902330145517,0.12939892523780516,0.4604751208348574,0.47869304117199635
0.4227804028848545,0.019116698555988076,0.12877151271425902,0.48507637649935553,0.5022416168420769
0.425267346431236,0.014323796866658078,0.12335694139010878,0.5096881704890492,0.5245990252395387
0.4277542899776175,0.004742197830366113,0.11315521554192376,0.5534641411149543,0.5649328692373242
0.430241233523999,-5.1291339124182045e-05,0.10295474274250838,0.6164043132033203,0.6249431646315005
0.43272817707038047,-5.6670063771080414e-05,0.09275552722022562,0.6937203080563048,0.6998938897083847
0.435215120616762,-0.00963914772158947,0.08255757317925161,0.7902005534126761,0.7945599918645198
0.4377020641631435,-0.014433513763863814,0.07714928811983546,0.8771146535647336,0.8806193584488997
0.44018900770952496,-0.004862960957360052,0.07653067619762322,0.9400974225611645,0.9432198877752117
0.4426759512559065,-0.009657908626532707,0.06633653158297959,0.9743604808865332,0.9766637893026107
0.445162894802288,-0.019241549528555058,0.06093206834374909,0.9942690621016315,0.9963201905177698
0.44764983834866945,-0.0096718664549017,0.06510569388270593,0.9998231896010807,1.0019873785835571
0.45013678189505096,-0.004890875395436534,0.06928060561718974,0.98623448325373,0.9886769841235155
0.4526237254414325,-0.00011017241343680428,0.0686684042603054,0.9678681760040053,0.9703010708037674
0.45511066898781394,-0.004906563528430552,0.07763430378181457,0.944724290629507,0.9479214866194199
0.45759761253419545,-0.004914838153721068,0.07702469488464869,0.897649236420504,0.9009612149823456
0.46008455608057697,-0.004923398979223559,0.08120479148923643,0.8457966490234625,0.8497001997867466
0.4625714996269584,0.004644561270695902,0.09496300085064346,0.7843781472768061,0.790119371617575
0.46505844317333994,0.01900063991532297,0.10393411691790444,0.7133937531325749,0.7211754099976493
0.46754538671972146,0.009414417676944398,0.11769495021678544,0.6567855049375293,0.6673139681310236
0.4700323302661029,0.009404718446447191,0.12188029464662087,0.6001882142688864,0.6125105284805141
0.47251927381248443,0.018971542877044945,0.12127855736307636,0.5388134991372588,0.5526195750855568
0.47500621735886595,0.014172875024877851,0.11588974217654657,0.5061802039083805,0.5194705973940651
0.4774931609052474,0.00937392551304883,0.12007906283336345,0.4927115428576485,0.507219396588525
0.4799801044516289,0.004574695008160434,0.11948131313293997,0.4936191333730502,0.5078942418007419
0.48246704799801043,-0.00022481581877220602,0.10930809349023152,0.528056609236307,0.5392514185449746
0.48495399154439195,-0.00023620297203419405,0.11350142421694587,0.5625051674977062,0.5738420449502996
0.4874409350907734,0.004540534228137716,0.10333088907618881,0.5921764249212753,0.6011412540500738
0.4899278786371549,0.009316993145530583,0.10752691164961803,0.6314356113440169,0.6405932987189071
0.49241482218353644,-0.0002720354923843038,0.12130109225146501,0.6802827464336154,0.6910127669442658
0.4949017657299179,0.004503868928961152,0.11592301456912235,0.7004106230867269,0.7099531470983554
0.4973887092762994,0.014067900465894123,0.11533469878810765,0.7253380837960623,0.7345851443998888
0.4998756528226809,0.009266446538349182,0.1147477451467167,0.7598535509237223,0.7685247757223536
0.5023625963690624,0.009253121132967834,0.1237389638187989,0.7752266233807745,0.7850944331836831
0.5048495399154439,0.018816328279634864,0.1279431483512261,0.7906109330724647,0.8011174389024771
0.5073364834618254,0.018802455410827146,0.12257189890604359,0.7820644818121885,0.7918347406138962
0.5098234270082069,0.004423099924087515,0.12677883222137476,0.7543756911260875,0.7649673976545118
0.5123103705545884,-0.0003797208570642807,0.1453523550488911,0.7362749989326396,0.7504853931686124
0.5147973141009698,-0.005182812847219553,0.13998524423190117,0.7325508263394838,0.7458240029137805
0.5172842576473514,-0.005197771995982259,0.14419632639282431,0.7096843676823976,0.7242040452190754
0.5197712011937329,-0.005213000889558006,0.138831991605032,0.6820408502908499,0.6960468509638986
0.5222581447401143,-0.005228498789842773,0.133469049838133,0.659197097964519,0.6725935908326313
0.5247450882864959,-0.010032668275074652,0.12810750439544494,0.6315763210122878,0.6445159706155954
0.5272320318328774,-0.010048701958610073,0.12753576187490578,0.613543746135008,0.6267393999019407
0.5297189753792588,-0.01964180905145041,0.12696542220810603,0.585945776581708,0.5998653783918831
0.5322059189256404,-0.024446778838831618,0.1168196819805769,0.5631476386339376,0.5756559267415022
0.5346928624720219,-0.024463610563062677,0.10188694771301288,0.54514934840258,0.5551281207251286
0.5371798060184033,-0.014903900142302584,0.10132083586124807,0.541527728429422,0.5511264089816451
0.5396667495647849,-0.01970966341277447,0.09596773629279287,0.5379175844449033,0.5467664994273584
0.5421536931111663,-0.024515689644417527,0.09061605545087437,0.5391073352509324,0.5472193412751221
0.5446406366575478,-0.024533574744038944,0.1044194097137856,0.5498853994396207,0.5602492855252632
0.5471275802039294,-0.029340124575653825,0.0942821722698639,0.5750401953932673,0.5834562513470622
0.5496145237503108,-0.019781725077699375,0.08414636276590937,0.5954181246828085,0.601659929041792
0.5521014672966923,-0.015011988747437366,0.09316559750247011,0.6014423953099914,0.6088005775624441
0.5545884108430739,-0.019819318117542672,0.09260945955101674,0.6122666349886519,0.6195480204869538
0.5570753543894553,-0.010261695795193537,0.09205475851954237,0.6278908579415852,0.6346859935852565
0.5595622979358368,-0.005492734266786425,0.09150149734942081,0.6578918848224546,0.6642472628939871
0.5620492414822184,-0.005512432733900341,0.08616127563570108,0.6879045194736175,0.6933013632224053
0.5645361850285998,-0.005532387074261957,0.08082249958802867,0.689198355566786,0.6939432664579708
0.5670231285749813,-0.0007641931620858688,0.07548517206968919,0.6713502131265052,0.6755810120619018
0.5695100721213628,-0.0007846568290388323,0.07493769923822136,0.6487253152879919,0.6530396688938291
0.5719970156677443,-0.0008053739423921069,0.07439168058446022,0.626112078336261,0.6305165385665309
0.5744839592141259,0.013538866274638739,0.06427031225283697,0.6082989183467848,0.6118345756811625
0.5769709027605073,0.018306048039739786,0.058938806963237056,0.5952858478652594,0.5984765116775627
0.5794578463068888,0.0278613821364736,0.06318557076880138,0.5774960725873299,0.5816101673988553
0.5819447898532704,0.023051256109562268,0.06264539641529021,0.5453527979992874,0.5494228611788091
0.5844317333996518,0.018240880749236688,0.062106689903568935,0.5084328426593849,0.5125367559073094
0.5869186769460333,0.018218660208394577,0.056781050567722424,0.4715246215963518,0.4752804183373705
0.5894056204924149,0.02298459532288788,0.06103369099691802,0.45378175959072564,0.45844442236340854
0.5918925640387963,0.032538686931803895,0.055711000511961206,0.44562746129211916,0.4502736012503385
0.5943795075851778,0.04209253255712986,0.0503897883293436,0.4518501411021312,0.4565955125479936
0.5968664511315593,0.03728092308340919,0.04507005699873767,0.4580845999322509,0.46180372233115546
0.5993533946779408,0.03725747264052731,0.044540212363926024,0.454754041805538,0.458446494504491
0.6018403382243223,0.03723377875993389,0.04880025692216927,0.45622368713796035,0.4603345219100659
0.6043272817707038,0.03242143897617783,0.038696579863263025,0.4672819494963214,0.47000105885357596
0.6068142253170853,0.027608857467505632,0.042959603553906156,0.4783520322780568,0.48107010230601205
0.6093011688634667,0.022796035094893696,0.05680092709238149,0.4942223486332509,0.4979977253192711
0.6117881124098483,0.01319456940202235,0.051490132949176814,0.4909508915819387,0.4938199149466628
0.6142750559562298,0.013169671216809453,0.055757643412290836,0.48769128381892735,0.4910449504391676
0.6167619995026112,0.013144534768570582,0.05523825086067191,0.4844435345498681,0.48775975779024444
0.6192489430489928,0.017907564250491115,0.04514355428764949,0.4955728627335887,0.4979468682792088
0.6217358865953743,0.013093550577410906,0.04462716926187049,0.5115024705197335,0.5136125024284764
0.6242228301417557,0.013067704588921036,0.05368909804448441,0.5226555598504827,0.525568376516962
0.6267097736881373,0.008253220525898497,0.04838732626883013,0.5242437357810203,0.526536744679928
0.6291967172345188,0.0034385025929788426,0.05266387274512141,0.5258438131203125,0.5284855935496315
0.6316836607809002,0.003411954997590283,0.05694193301513861,0.517878993189095,0.5210112059821332
0.6341706043272818,-0.0061916313313239435,0.051644702594412895,0.5195028970231554,0.5221003463129091
0.6366575478736632,-0.006218642219895876,0.05113739357379332,0.5067735155688364,0.5093850219770678
0.6391444914200447,-0.0014574800931108634,0.06499681469757324,0.5084212760894573,0.5125611223546755
0.6416314349664263,-0.011061757334210554,0.06928095144161794,0.505292572438929,0.5101399773296806
0.6441183785128077,-0.011089456440971146,0.05920140253680861,0.492599008226021,0.4962676344592109
0.6466053220591892,-0.001540576510105529,0.06827699325029402,0.4703405901739188,0.47527296572436606
0.6490922656055708,-0.006357133237291923,0.07735411229955913,0.443305728120432,0.45004893113642197
0.6515792091519522,-0.020750722393763854,0.0768559550164909,0.4306480416588112,0.43794424997473036
0.6540661526983337,-0.020779326466963344,0.06678252334738666,0.4275791335754757,0.4332615853064052
0.6565530962447153,-0.01601975118400567,0.07586423913420948,0.4388874130923899,0.4456839424730714
0.6590400397910967,-0.01604880226951999,0.10888950759115712,0.45020767594540345,0.46346676299157874
0.6615269833374782,-0.011289672164428222,0.11797429738279686,0.46153992762667073,0.47651285012492295
0.6640139268838597,-0.011319166588472651,0.11748382031157201,0.4537305601426844,0.4688304520555949
0.6665008704302412,-0.020925687938681214,0.11220648151312629,0.4267795785770119,0.4417793426583394
0.6689878139766227,-0.011378815367519834,0.11171908941724862,0.4189942143717751,0.4337819545075709
0.6714747575230042,-0.0018321612282329314,0.11123324246663469,0.4207976655622687,0.435254944127074
0.6739617010693857,-0.011439337871746669,0.11553734571846119,0.4226131299803271,0.43827114248873383
0.6764486446157671,-0.01625832776388436,0.11026619092252199,0.4100754019342592,0.42495270484347336
0.6789355881621487,-0.011500726649456672,0.10499658640405318,0.40712650209191104,0.42060496736910297
0.6814225317085302,-0.006743340231977091,0.09972853382155833,0.41376643431686766,0.4256687858687511
0.6839094752549116,-0.01156297421275232,0.0896736314871327,0.4156299923093396,0.4253508587787223
0.6863964188012932,-0.0020176110487225563,0.08919709096803974,0.41271717952829157,0.4222507099689623
0.6888833623476747,0.0123159435631357,0.07914530056328895,0.41460480587141113,0.42227101027512437
0.6913703058940561,0.012284077287344597,0.06430666514740269,0.41650447107381794,0.421618571888932
0.6938572494404377,-0.002113208928228305,0.06862320285011814,0.3992625647083514,0.40512245704092154
0.6963441929868192,0.007431312428852199,0.06815289857202655,0.3963979126702153,0.40228267071486906
0.6988311365332006,-0.0021779875722514053,0.06289575378928003,0.40791051741164885,0.412736731694219
0.7013180800795822,0.0025777152646353496,0.05764017327235971,0.4098583645828473,0.4138996414704649
0.7038050236259636,0.01691001857517105,0.05717456176577862,0.41181826287601453,0.4161119571455976
0.7062919671723452,0.01208850339540779,0.056710517347476674,0.40900181082252907,0.41309163141882593
0.7087789107187267,-0.0023100226741702423,0.065824848030402,0.4061974133948212,0.4115028377443149
0.7112658542651081,-0.002343542070243565,0.06536394187971961,0.40340507204572695,0.40867296122903524
0.7137527978114897,0.007199542850508722,0.050539396895642685,0.4102015946697488,0.4133659544827519
0.7162397413578712,0.011954023092627386,0.045293230974391196,0.40264496572055997,0.4053607576718663
0.7187266849042526,0.0023430929827861213,0.049625445384778644,0.3855235893753868,0.38871147767881187
0.7212136284506342,0.0070971734119487095,0.04438242808854298,0.39235628953534274,0.39492230594310024
0.7237005719970157,0.007062652069718345,0.03914098694349688,0.3896242434194921,0.3916490124759419
0.7261875155433971,0.0022395299286844805,0.02911271982073771,0.3821158546120689,0.38322981655342786
0.7286744590897787,0.002204614603770083,0.01429762788592015,0.3841963331409399,0.38446860065245836
0.7311614026361601,-0.0026188995696695416,0.013849325560217451,0.381500468915446,0.3817607499942
0.7336483461825416,-0.0026542049733764284,0.008614200676597239,0.3740282616095634,0.3741368596383005
0.7361352897289232,0.0020986993719098734,0.00338065764390727,0.36656811402163214,0.3665897101700145
0.7386222332753046,-0.007513798834199004,0.012513907485967035,0.36390842875438345,0.36420104279363663
0.7411091768216861,-0.012338085328021497,0.012071934638466786,0.36126080157468365,0.3616729554581873
0.7435961203680677,-0.0075857558052669916,0.01641995007399588,0.3682020380154576,0.3686460351750797
0.7460830639144491,-0.012410422561688894,0.0111927448176945,0.37036692681355454,0.3707437883525907
0.7485700074608306,-0.012446874649364004,0.005967126470719286,0.3677554664726106,0.36801442146652613
0.7510569510072121,-0.0029067077595296142,-0.004045307352229965,0.3412140420212335,0.341250400635723
0.7535438945535936,-0.0029435341835493123,-0.004479345780686206,0.3242614748180763,0.3243057708140677
0.7560308380999751,-0.002980546289502395,0.009453415389728992,0.31689776278658144,0.31705274447299
0.7585177816463566,0.011347466876226897,0.018599363736402807,0.31912290365756135,0.3198657983822892
0.7610047251927381,0.0017332797451727888,0.008593290131637232,0.32136008832894447,0.32147963429235843
0.7634916687391196,-0.00788109008573945,-0.0014111913354422079,0.33797452410837003,0.33806934494006396
0.7659786122855011,0.0016579716614050222,-0.006625676561979432,0.3402357882291991,0.34030433445943414
0.7684655558318826,0.0016200460626718538,-0.007050164790731284,0.32335547433529577,0.32343638038326145
0.770952499378264,0.011158747398500202,-0.007473058610036443,0.3208524024423518,0.3211333498743496
0.7734394429246456,0.011120463388051172,-0.0031059539928444124,0.3183613591726857,0.3185706619738397
0.7759263864710271,0.011082001673556108,0.01562795638300507,0.30630553427908147,0.3069040959514802
0.7784133300174085,0.011043363257790317,0.015209849931691721,0.3038385372467669,0.30441936883720633
0.7809002735637901,0.011004549144670861,0.019581743886011083,0.31096036409070393,0.31177057723736207
0.7833872171101716,0.010965560339230684,0.03353204217240968,0.33245941395757583,0.33432604339898553
0.785874160656553,0.015714801167905135,0.03790713209070873,0.3587588758449556,0.36109809835642376
0.7883611042029346,0.020463869317567607,0.03749541751726326,0.36112832528143457,0.3636459041468967
0.790848047749316,0.01563595915581595,0.04666210894406353,0.34914456417078554,0.35259574915168473
0.7933349912956975,0.010807878332508514,0.055830400236585476,0.33238439422992094,0.3372139222396061
0.7958219348420791,0.005979627857863212,0.06978869519632491,0.3108478103486938,0.31864177241080865
0.7983088783884605,0.0011512087430562978,0.06459497767803013,0.2893232105512773,0.29644857325764623
0.800795821934842,-0.00846578132011555,0.06897966803504696,0.28696420263723255,0.29525974607251826
0.8032827654812236,-0.008506131357698954,0.06857755671311017,0.29898237761945623,0.30686429848126257
0.805769709027605,-0.0037582436761095517,0.0681770474144443,0.3110125196855744,0.3184195684797814
0.8082566525739865,-0.008587327221532659,0.07256654381655547,0.3039010095186985,0.3125627441919043
0.8107435961203681,-0.013416574337761888,0.06738083629102043,0.2920130508604011,0.29998633875401254
0.8132305396667495,-0.018245984008412264,0.07177353842696821,0.2801370406283539,0.2897604498249799
0.815717483213131,-0.018287151896008047,0.08095624718736838,0.2682729722371082,0.2808179508437133
0.8182044267595125,-0.013540076982633487,0.07577534954970311,0.2659976455595121,0.27691151064424746
0.820691370305894,-0.013581564890270847,0.07059605570912719,0.26852265032560574,0.2779796318517642
0.8231783138522755,-0.023200017919887572,0.07020676919570112,0.26627117276372303,0.2763468268631829
0.825665257398657,-0.02803022509052433,0.074607490194746,0.26403160888221144,0.27579822624649647
0.8281522009450385,-0.013706975420569534,0.0646446055859502,0.27138075782930215,0.27931044006006917
0.8306391444914201,-0.023325897771536708,0.06904853542778788,0.28831861193264174,0.29738765902158065
0.8331260880378015,-0.028156571199649538,0.0686656665513139,0.300479953379476,0.3095092383881121
0.835613031584183,-0.02341059136211887,0.07307280568520902,0.28392275753745544,0.2941085224305905
0.8380999751305646,-0.023453167196852753,0.07269314625270074,0.257800629478556,0.26887824219006595
0.840586918676946,-0.004342281078736465,0.07231509161379535,0.25084398073738967,0.2610958263784741
0.8430738622233275,0.00998005141472702,0.07193864178407594,0.23911078614764136,0.24989745428899685
0.845560805769709,0.005148621347133009,0.057198586794124484,0.23696624692850676,0.24382614465311792
0.8480477493160905,0.0051054463450300736,0.052036943213007,0.23004514420082778,0.23591243589882102
0.850534692862472,-0.004514682527105407,0.046876904343632564,0.24228948547197326,0.2468238669363969
0.8530216364088535,-0.014134957602831011,0.03693006678529942,0.25454564819103354,0.2575987458668887
0.855508579955235,-0.009390167895013457,0.03177323707437241,0.25723681627276385,0.25936170398389286
0.8579955235016165,0.004931284302586825,0.012252801801515556,0.25036298009811553,0.2507111296302371
0.860482467047998,0.00967578673560221,-0.002477625903880565,0.22913572655380143,0.22935330968270526
0.8629694105943795,0.009631743751534971,-0.00762964289708945,0.21270865895470514,0.21306326650256116
0.8654563541407609,0.004799156377857772,-0.017568459338306752,0.21544697712252692,0.21621536165752772
0.8679432976871425,0.009543235603240219,-0.022717268809791857,0.21819705746442253,0.21958393277762334
0.870430241233524,0.009498772494712537,-0.03744128151893911,0.2113820828563533,0.21488243574889263
0.8729171847799054,0.00945417140076632,-0.028221674493543514,0.21415565592487695,0.21621398944728085
0.875404128326287,0.01898623999039395,-0.02378886794893198,0.2169409592039191,0.2190656689843962
0.8778910718726685,0.018941366010876926,-0.01935445888166365,0.23410319165875748,0.23566432646834132
0.8803780154190499,0.028473163772138432,-0.019706850952289745,0.24170032552249587,0.24416823787571398
0.8828649589654315,0.03321642434203237,-0.015269237883735354,0.2445207527809714,0.24723850632980493
0.885351902511813,0.03317114874944466,-0.00604162006281328,0.2377760586108053,0.24015470083017382
0.8878388460581944,0.02354893470302022,0.007976002100460011,0.23583144130184408,0.2371384356059953
0.890325789604576,0.03308020315364074,0.021995224852599637,0.22911008237487707,0.23252853502919918
0.8928127331509574,0.0330345352084635,0.03601604773733191,0.22240037314469774,0.22770674602645785
0.8952996766973389,0.023411931896523908,0.04525006695502887,0.22049070475971,0.22630032699931227
0.8977866202437205,0.023366007528087818,0.05927408864400885,0.2281694682025055,0.23689806692371856
0.9002735637901019,0.018531553171191595,0.06372290231809385,0.22628303768884983,0.23581357019576177
0.9027605073364834,-0.35501008248900556,0.020289280866666815,0.29623425699637096,0.462815890614323
0.905247450882865,0.3105316777481937,-0.5259250917109002,-5.399040534167691,5.433476402319418
0.9077343944292464,0.9042472645990032,-0.9859466076098753,-10.27548678336905,10.36220934278903
0.9102213379756279,1.3782526458888598,-1.321468040884156,-13.926090221539388,14.056381006412455
0.9127082815220094,1.6798753861228193,-1.5085473755712906,-16.05396985614065,16.21195992590399
0.9151952250683909,1.804327083008759,-1.5280309990516383,-16.568146037569065,16.736007232274883
0.9176821686147724,1.7659729475357022,-1.3942841219703692,-15.50692600603142,15.669315327120717
0.9201691121611539,1.5648129807314937,-1.1312487616357172,-13.037903891543316,13.18011006442998
0.9226560557075354,1.2152123935846486,-0.7485017254173769,-9.477114327209922,9.583981008197068
0.9251429992539169,0.7937856402475338,-0.3274458705121557,-5.193264382820002,5.263773493478368
0.9276299428002984,0.3292631416690759,0.09361157574369505,-0.6460407914067758,0.7311265606832381
0.9301168863466799,-0.13525947124113646,0.4955169992729025,3.7383885370800396,3.773510444572837
0.9326038298930613,-0.556686567573936,0.8351747693745288,7.55779770913542,7.624153923034978
0.9350907734394429,-0.901499323060951,1.069489255325371,10.486575284220523,10.579450339614082
0.9375777169858244,-1.1457557200749315,1.1984604562630885,12.290089484727096,12.401425852615105
0.9400646605322058,-1.2655137409889985,1.2125115646626887,12.906091052421894,13.024549726438808
0.9425516040785874,-1.2559849814579014,1.1068541762975426,12.305849552158243,12.419201167610916
0.9450385476249689,-1.1363230537383826,0.9054303068410055,10.599498244923696,10.698616600623842
0.9475254911713503,-0.9256815700876776,0.636970375264994,8.012092071239675,8.090502888336848
0.9500124347177319,-0.6432141427634112,0.3349932038398733,4.826146811316731,4.880331743278568
0.9524993782641133,-0.3224395939846624,0.009075598212808345,1.3768506817362773,1.4141313439880916
0.9549863218104948,-0.011241955932041692,-0.28332160278746876,-1.9958196977514753,2.0158605552249957
0.9574732653568764,0.2808019657759361,-0.5278331902367261,-4.985406530791654,5.021128946557655
0.9599602089032578,0.52496175223889,-0.700517148591546,-7.309394037781383,7.361626879728324
0.9624471524496394,0.6972953878762059,-0.8013734789315263,-8.824130135557617,8.887839611511017
0.9649340959960209,0.7978028737082088,-0.820825375717007,-9.438635177630465,9.507790371012675
0.9674210395424023,0.8073305974734186,-0.7588728400702918,-9.114601954183197,9.181701338216861
0.9699079830887839,0.7498205767925026,-0.6203042764551974,-7.947798548516109,8.0071536803389
0.9723949266351654,0.620484409363636,-0.4290617026380401,-6.096242287242175,6.142740827325674
0.9748818701815468,0.4336873061655456,-0.21387553972649975,-3.7658345303244003,3.7967534994789993
0.9773688137279284,0.22773649477785923,-0.008264612169657681,-1.1768418478339182,1.1987030281438233
0.9798557572743098,0.021785589498245272,0.18777107880461408,1.4025851568088736,1.415265950995009
0.9823427008206913,-0.18416540865760778,0.3694431286272186,3.728237896639646,3.7510215857784535
0.9848296443670729,-0.3565976754325396,0.4888675028253693,5.603791817751953,5.636367276371043
0.9873165879134543,-0.48114599985141837,0.5508326034289515,6.866441189337435,6.905282951248488
0.9898035314598358,-0.5530219775805402,0.5601268324471351,7.425206330248955,7.466810860259118
0.9922904750062174,-0.5674372042869488,0.5119617852277845,7.275298818961431,7.315330666177997
0.9947774185525988,-0.5387568889197865,0.4207026703794572,6.483756283612477,6.519689046841668
0.9972643620989803,-0.45261582050714455,0.2959262931698614,5.146346772119593,5.1746805264545905
0.9997513056453619,-0.33295601464044267,0.14720945884623227,3.406722365462006,3.4261184462592786
1.0022382491917432,-0.18456587363079502,-0.015871027364485535,1.465995984323195,1.4776537744919938
1.0047251927381249,-0.04096421971198394,-0.16937315029483546,-0.498661467356035,0.5282315688815679
1.0072121362845063,0.11221415808437013,-0.294143298117854,-2.295713875812412,2.3171997101458217
1.0096990798308878,0.23187363088198581,-0.38539306898770187,-3.762355547343259,3.7891440277385535
1.0121860233772693,0.32280260300676533,-0.43354565775833365,-4.8076068381884935,4.837896946862946
1.0146729669236507,0.3850010754633387,-0.4338126626240508,-5.345276508045609,5.376653252891166
1.0171599104700322,0.4041038392944214,-0.39577089176005886,-5.322692139990883,5.352661592966416
1.0196468540164139,0.38011089550267496,-0.3337855566817778,-4.8068914002444005,4.833435840525121
1.0221337975627953,0.33217585837098434,-0.2382798523228571,-3.86012355184093,3.8817099227511243
1.0246207411091768,0.2602987288999938,-0.12361899023833978,-2.5733682778724862,2.589451945214451
1.0271076846555582,0.16447950808925504,0.0006202213174466564,-1.1046429080485591,1.1168213140685235
1.0295946282019397,0.05908340689822189,0.12007257075020261,0.36409321118597937,0.38790738282350523
1.0320815717483214,-0.041524363714746215,0.21079603980547956,1.7370719930194607,1.7503080734865475
1.0345685152947028,-0.12776699611266817,0.2775790301312142,2.904160140546871,2.9201918849975357
1.0370554588410843,-0.194856085980035,0.32042154003566736,3.7360707434512648,3.754845330720664
1.0395424023874658,-0.2332148256821246,0.32495835784681715,4.204073361011188,4.223058123447551
1.0420293459338472,-0.2572084241869321,0.29597788515464174,4.265072342414371,4.283059790383662
1.0445162894802287,-0.2572600738620535,0.2430569268502598,3.9334328765630158,3.9493231837518947
1.0470032330266104,-0.22379296707625773,0.18056069112596207,3.280980992074154,3.293557609279756
1.0494901765729918,-0.18553752276203728,0.10370077287383905,2.3651775074767567,2.3747089641725085
1.0519771201193733,-0.12812852997024282,0.012477170287228834,1.2722136610932733,1.2787103657369254
1.0544640636657547,-0.05635439103423101,-0.059591295217165996,0.13137632100305296,0.15487632993713293
1.0569510072121362,0.010631281750467014,-0.1220814321242818,-0.9280476448406425,0.9361032695784353
1.0594379507585177,0.06325168272768411,-0.1749932422971665,-1.8438090150941786,1.8531743291876572
1.0619248943048993,0.12066042616185474,-0.19438471101597132,-2.529716551936964,2.5400413751476894
1.0644118378512808,0.14933868979267362,-0.1994094534622466,-2.928309437594028,2.938887942181763
1.0668987813976623,0.17322849120229106,-0.18049066491418753,-3.0156456776559946,3.0260046006988603
1.0693857249440437,0.17317621808871697,-0.1472051539496646,-2.825244117679607,2.8343718324073284
1.0718726684904252,0.1348166614689385,-0.09476451920400786,-2.3571047801014213,2.362858182516794
1.0743596120368066,0.11082225884295133,-0.023168762651108565,-1.6830537372836076,1.686857506490147
1.0768465555831883,0.07246259126407778,0.04364009711534811,-0.8892822716698099,0.8932962800298451
1.0793334991295698,0.029314466346766876,0.09608525144446345,-0.038039649222145755,0.1074184732496482
1.0818204426759512,-0.00904530829595529,0.13416669830792882,0.7844828473770988,0.7959245305717748
1.0843073862223327,-0.05219353833371243,0.17703804894067998,1.4968823386472518,1.508218608813252
1.0867943297687142,-0.08097660951568653,0.19118047803631422,2.02254434831036,2.033173093308346
1.0892812733150956,-0.11933653747531703,0.2053244034346573,2.35189204645585,2.363851839266726
1.0917682168614773,-0.13854290132406522,0.19073940311403392,2.4561949897755984,2.4674824180136197
1.0942551604078588,-0.1385957000967416,0.15221387827727995,2.345029961408395,2.3540482902286803
1.0967421039542402,-0.1290717394702705,0.10890144007056834,2.042338954339078,2.0493090157392477
1.0992290475006217,-0.1147594218027671,0.06559048966161107,1.5768523647586044,1.5823827657906788
1.1017159910470031,-0.08608193949292675,0.0222810248803631,0.9916657987053608,0.9956443143505236
1.1042029345933846,-0.05740450154253929,-0.02581535978090077,0.3442400720659009,0.34994704858578446
1.1066898781397663,-0.023938703673693884,-0.05475664992531826,-0.28402198278369184,0.29024100149530996
1.1091768216861477,0.009527051749348425,-0.08369646105606199,-0.845236356821168,0.849423546412898
1.1116637652325292,0.03341595904041328,-0.10784639209184776,-1.3010958477750787,1.3059854040927754
1.1141507087789106,0.04772801915238689,-0.10805283200753024,-1.5941396402031538,1.5985101096909267
1.116637652325292,0.052463233036541324,-0.10346939635742736,-1.7100025486549706,1.7139332026685614
1.1191245958716736,0.06198681160347119,-0.10367289407213098,-1.6486845977496305,1.6531035468581259
1.1216115394180552,0.061933545840266,-0.07514450421623531,-1.4341278288156314,1.4374300296006375
1.1240984829644367,0.047515033372995785,-0.046614649035134015,-1.0950626866089053,1.0970838124337716
1.1265854265108182,0.018731275146385284,-0.032448540829939976,-0.6554312126714805,0.6565012132621001
1.1290723700571996,0.004312692025362441,0.0008726412847823717,-0.1679058685729533,0.16796351245599564
1.131559313603581,-0.010105925009642358,0.029406878334225173,0.3148408840121064,0.31637268601949364
1.1340462571499625,-0.029312978339274043,0.0340005546474762,0.759290196586127,0.7606161259447857
1.1365332006963442,-0.04852006370525719,0.038595684420096976,1.1127696072666247,1.1144954115177577
1.1390201442427257,-0.05336197021042599,0.04798066855014671,1.3465486706700354,1.3484594791474072
1.1415070877891071,-0.06299231020153329,0.04779029463825868,1.451050554591811,1.4532032395323582
1.1439940313354886,-0.07741108274583453,0.033236156909596914,1.435852040007287,1.438321312729214
1.14648097488187,-0.08225307695141171,0.018683462854562016,1.2913762945098863,1.294128036352778
1.1489679184282517,-0.053576275287496866,-0.0006561933336266534,1.0319885021946043,1.033378496256447
1.1514548619746332,-0.029687903389182813,-0.010417604196348407,0.7055726702995226,0.7062738074985055
1.1539418055210147,-0.02016476697147873,-0.029754385532945182,0.33128238604220606,0.33322659045651565
1.1564287490673961,-0.00585325182933738,-0.05387813655689033,-0.028633133574796688,0.06129413099255681
1.1589156926137776,0.008458239638889475,-0.07321205317693336,-0.3741739148097576,0.3813629046882126
1.161402636160159,0.02276970835333353,-0.07817933131736732,-0.6478791441738441,0.6529761503448339
1.1638895797065407,0.037081155232267626,-0.08314518351948275,-0.8210184281955506,0.8260504785135957
1.1663765232529222,0.04181577455147456,-0.08810961237898951,-0.9031686000607486,0.9084191669766816
1.1688634667993036,0.036973567225486725,-0.0834958138662536,-0.8895412830885494,0.8942160197208439
1.171350410345685,0.036919744127882015,-0.06930379060745784,-0.8088669239336426,0.8126695414083782
1.1738373538920666,0.03207749952877381,-0.06468715852515006,-0.6419919361402879,0.6460395038410824
1.176324297438448,0.01765843101667386,-0.05049230699440699,-0.4320119765087611,0.4353109705699989
1.1788112409848297,0.008027749459417977,-0.03150764200681744,-0.1789270720477525,0.18185728849236307
1.1812981845312112,0.012762262402591484,-0.002944762928208,0.08374392690135757,0.08476197415820297
1.1837851280775926,0.007919954147642572,0.016042714259249635,0.3416357831886909,0.3421039355363439
1.186272071623974,-0.006499174404379859,0.03503159348055984,0.5372876296925249,0.5384676859667045
1.1887590151703555,-0.0017647024325251337,0.04444506536486381,0.6659110357262801,0.6673949246975208
1.191245958716737,0.00296975767904728,0.04428312716739713,0.7514479904377005,0.7527575287868296
1.1937329022631187,-0.0018725998151936096,0.048910986089884645,0.7747448530048864,0.7762894939698177
1.1962198458095001,0.00286183925908734,0.04396342939781128,0.7262247891604847,0.727559906564093
1.1987067893558816,0.012384672472642078,0.03901726094394542,0.6106761745127525,0.6120466623398516
1.201193732902263,0.017119094073882457,0.029284074605919752,0.45682940118683746,0.45808702469744766
1.2036806764486445,0.02185350827011262,0.029129077528504688,0.25989603798184646,0.26243481007677866
1.206167619995026,0.02179951262595875,0.019398653600260385,0.04860647685600661,0.056693175114697326
1.2086545635414077,0.031322317985231884,0.004881203297359971,-0.13394368035405613,0.13764382752738205
1.2111415070877891,0.0264799086271697,0.004730337043060473,-0.2829660584557523,0.28424171384128055
1.2136284506341706,0.016849092071107408,0.004580842004656915,-0.40803749229844044,0.4084109096709981
1.216115394180552,0.016795079154597436,-0.0003556880236206261,-0.4708507836084799,0.4711503598879012
1.2186023377269335,0.01195266079120827,-0.0005024493002094843,-0.48577117071512,0.48591845905792386
1.221089281273315,0.016687047814264222,0.013717361902934044,-0.4623754887059892,0.4628798074429624
1.2235762248196966,0.016633031133084675,0.02315012937854455,-0.38151015282479506,0.38257363072135014
1.226063168366078,0.0022138049751608824,0.03258425350756777,-0.2719056115955798,0.2738599936578539
1.2285501119124596,-0.0026286131919796007,0.04680813465768363,-0.13356189369699933,0.14155101739434245
1.231037055458841,-0.002682625824845797,0.05624496322245509,0.0287325687962543,0.06321592266860417
1.2335239990052225,-0.007525038702431486,0.0656831395432893,0.18145892381262563,0.1931275279678497
1.236010942551604,-0.021944254285599873,0.07033425730795839,0.3246171424484938,0.3328734702835882
1.2384978860979856,-0.026786658435844712,0.07498671683193647,0.42468837248454605,0.43208881783143166
1.240984829644367,-0.03162905693873763,0.07485211177723583,0.4864609881912134,0.49320130668147827
1.2434717731907485,-0.031683045621125894,0.06993043911342678,0.5003581538059638,0.506213753047603
1.24595871673713,-0.036525430273016024,0.0650100991177256,0.45680303349501905,0.46284925348776024
1.2484456602835114,-0.04615621004602466,0.05530268541413941,0.4036796311978037,0.4100561271141096
1.250932603829893,-0.036633367492447166,0.04080819493449672,0.31225749765898314,0.3170363657877412
1.2534195473762746,-0.03189891836995706,0.021526624598218635,0.21126702339793724,0.21474331592669044
1.255906490922656,-0.0463180717978664,0.007034777953028648,0.1102849855845136,0.11982332795118444
1.2583934344690375,-0.04637200369463412,0.011697861854723435,-0.005053855280548802,0.04809099865696371
1.260880378015419,-0.027272309902876768,0.0019970499438266565,-0.12517272216175002,0.12812485109961827
1.2633673215618004,-0.017749409509690284,-0.022067660909013576,-0.21176441816775338,0.21364969458874733
1.2658542651081819,-0.013014898362284644,-0.02697745060293899,-0.27440577967566604,0.27603569033700115
1.2683412086545636,-0.0034919689898663675,-0.02230912893179582,-0.3083084331662356,0.30913424437053366
1.270828152200945,-0.0083342338458402,-0.0367931189824815,-0.3038956018636636,0.30622823170036845
1.2733150957473265,-0.013176482143751778,-0.0464874073301762,-0.2611673156958627,0.26559944561265325
1.275802039293708,-0.008441906419799361,-0.03702678720231578,-0.18012360465306898,0.18408357261782302
1.2782889828400894,-0.01807252245471691,-0.041930085041004705,-0.08949491870896509,0.10046934146368434
1.280775926386471,-0.01812631282846966,-0.032466884135744944,-0.013223304577735462,0.03946539707382899
1.2832628699328525,-0.008603276724954867,-0.023002397670226937,0.06784482084915489,0.07215293746646309
1.285749813479234,0.0009197800289314495,-0.01832503219879822,0.14413262069904498,0.14529578503853227
1.2882367570256155,-0.008710755036714146,-0.013646387646379932,0.215640064681331,0.2162469390416279
1.290723700571997,-0.013552864511382712,-0.013754870589627988,0.26800191248663374,0.2686966722866039
1.2932106441183784,-0.004029740947898874,-0.009073677655288659,0.2964297303890593,0.29659594652798216
1.29569758766476,0.0007050031766223652,-0.018756425402918442,0.3105002945673352,0.31106708834233204
1.2981845312111415,-0.004137034656414018,-0.023649503840423414,0.2862715579023991,0.28727655482394177
1.300671474757523,0.0005977596335277058,-0.018964512947414747,0.25247390974376493,0.2531858707930103
1.3031584183039044,-0.004244226437952081,-0.028643472636051825,0.21389572278528846,0.21584680263684664
1.305645361850286,0.0004906212048009229,-0.023955966305647447,0.1657485630268365,0.16747153542099358
1.3081323053966674,0.005225496713111788,-0.033632417209768395,0.0984555930953519,0.10417268891138488
1.310619248943049,-0.009193212404782436,-0.03373081208895767,0.04074720212840077,0.05369001135958874
1.3131061924894305,-0.014035085439988992,-0.019462750975344445,-0.002588237389115733,0.024134648777607657
1.315593136035812,-0.009300121607972112,-0.009981850512853274,-0.03633915966330825,0.038815771622105213
1.3180800795821934,-0.02371874004855623,-0.010076517394630002,-0.07965920891083833,0.0837239774293831
1.3205670231285749,-0.033348923380624895,-0.01495835168326387,-0.08945278623317954,0.09663179570206645
1.3230539666749563,-0.033402267506815186,-0.005473743490389094,-0.0992387459049553,0.10485228672367475
1.325540910221338,-0.028667174972902054,-0.0007763095000314912,-0.09944031236534379,0.10349292391600483
1.3280278537677195,-0.03350885496780287,-0.01044285976539383,-0.07569230677987981,0.08343393786099496
1.330514797314101,-0.043138903401717665,-0.015319784427530347,-0.04714837360217494,0.06571628348392046
1.3330017408604824,-0.05276891618737789,-0.0106186835980564,0.0005566659111853056,0.053829590690277596
1.3354886844068639,-0.057610489240060736,-0.005916367359073416,0.04826916721701302,0.0753915404871835
1.3379756279532453,-0.062452025118220456,-0.015578049122449755,0.10077750233004856,0.11957857680918953
1.340462571499627,-0.05771671642193321,-0.039603732348481024,0.15329323658143323,0.16851851931485523
1.3429495150460085,-0.06255817567571442,-0.044474597264565485,0.1818743219789205,0.19740765978302588
1.34543645859239,-0.06739959548478291,-0.03497905066979179,0.1769439204497445,0.19254970901405627
1.3479234021387714,-0.07224097509756233,-0.030270709333293677,0.16723242044293762,0.18466660979665717
1.3504103456851528,-0.07708231376506669,-0.035137980072286634,0.14795138712539568,0.17048745904395815
1.3528972892315343,-0.06755840077996933,-0.040004059751983956,0.12867759558571912,0.1507394637057899
1.355384232777916,-0.07239965532035997,-0.04486895188706841,0.09025740095217039,0.12410210054866853
1.3578711763242974,-0.07245246336381517,-0.04494425668067015,0.042267578237156656,0.09516246017257593
1.360358119870679,-0.06771682417177971,-0.03544157434459194,-0.010503500904249563,0.07714918663978602
1.3628450634170604,-0.06776954364894927,-0.03551452170078484,-0.06326746485320989,0.09928123894762045
1.3653320069634418,-0.04866860446046484,-0.035586295657821676,-0.07771711878421073,0.09836141545796398
1.3678189505098233,-0.03914442579754529,-0.02608009313268589,-0.07300610775027216,0.0868466988300272
1.370305894056205,-0.03919700693218209,-0.026149530972558566,-0.09223009344000488,0.10356926889033427
1.3727928376025864,-0.03446113717808341,-0.045371419392233214,-0.09708188113002159,0.11256565780475074
1.3752797811489679,-0.015360009171933031,-0.0502269387318397,-0.06840788941072873,0.08624566417950724
1.3777667246953493,-0.005835638795263054,-0.040716092581759344,-0.03493857010750112,0.053968125374446244
1.3802536682417308,-0.001099622010417578,-0.04078090114190802,0.008114448165359889,0.041594895546691574
1.3827406117881123,0.008424848537898821,-0.050421368018530366,0.0511743268022915,0.07233328521098943
1.385227555334494,0.008372563600730687,-0.045695480224112295,0.09902943712904744,0.10938467055422564
1.3877144988808754,0.02268554048892263,-0.040968451341349965,0.1421029404815286,0.14962049808124545
1.3902014424272569,0.032210166627808734,-0.03624028499963261,0.14687598156594817,0.15467193362729564
1.3926883859736383,0.036946442721264905,-0.026722581515580046,0.1468673515454615,0.15378281744912434
1.3951753295200198,0.05125957943138959,-0.012415344533579287,0.1612306315955916,0.1696378549383474
1.3976622730664012,0.0655727708159981,-0.01726059430694571,0.14687015970184447,0.1617669935405912
1.400149216612783,0.07030921093017861,-0.017316317893151467,0.12772792030886393,0.1468252758670268
1.4026361601591644,0.07025730378722328,-0.0077941156381116095,0.10859228455556647,0.12957284144074158
1.4051231037055458,0.0654170500773722,-0.00784760449641242,0.1038284301977157,0.12296876942736093
1.4076100472519273,0.05100004716780693,0.0016768251328360684,0.103859518366475,0.11571782969344352
1.4100969907983087,0.055736715665145264,0.011202362921714837,0.07037829024881326,0.09047197437059315
1.4125839343446904,0.06526184629043363,0.011152198535457014,0.03690353681479763,0.07579809458589022
1.4150708778910719,0.060421826441643955,0.011103134913784896,0.013012032412074603,0.06279641473006825
1.4175578214374533,0.04121665679522318,0.02063197498974567,-0.0012962552724733456,0.04611042688030684
1.4200447649838348,0.03158835462641263,0.03016190840854449,-0.02517497185261952,0.05041174540352294
1.4225317085302163,0.03632532392641452,0.0157509148479531,-0.029893729757713317,0.0496110426793633
1.4250186520765977,0.026697145441461845,0.010917813823065448,-0.02502936799757194,0.03818907560750278
1.4275055956229794,0.021857433118117053,0.015662601600462622,-0.02494712891957107,0.03668001789445411
1.4299925391693609,0.01222938097827142,0.010831661159230066,-0.010493431645427265,0.01941635265124051
1.4324794827157423,-0.0021870103183656564,0.006001795394165121,0.008754884765464155,0.010837553660426132
1.4349664262621238,-0.011814933474266542,0.010749807193995764,0.02322098123861771,0.028184481144659428
1.4374533698085052,-0.021442791155656726,-0.003654727121039869,0.04727003528672391,0.052034666895085416
1.4399403133548867,-0.026282179390956895,-0.02284660135379024,0.07132520780726459,0.0793725734476773
1.4424272569012684,-0.031121500852038908,-0.018095399351982788,0.0905980630050891,0.09748846246231034
1.4449142004476498,-0.03596075489329098,-0.013343141492514476,0.0955117617525083,0.10292575941159006
1.4474011439940313,-0.04079994087194039,-0.013378234876673112,0.03339383502749804,0.054394490175136485
1.4498880875404128,-0.04085065482774153,-0.013412279970684615,0.02874273664880711,0.05171856691682388
1.4523750310867942,-0.03611289612360813,-0.013445280566561024,0.03846280421415926,0.05444542353554431
1.4548619746331757,-0.04095187408624312,-0.008688837141392014,0.043400391913458236,0.06030046351635214
1.4573489181795574,-0.05057918476395529,-0.008719760138510502,0.04834387052950184,0.07050828296046302
1.4598358617259388,-0.055418020887600505,-0.01832645668615296,0.048504804196491946,0.07589289877128155
1.4623228052723203,-0.045891575190904144,-0.023143720636447096,0.0486715636819941,0.07078551821983592
1.4648097488187017,-0.060307073613581674,-0.018383152487191357,0.039267309786083615,0.07427519802085718
1.4672966923650832,-0.055568885652919175,-0.027986772663021853,0.02508041326392707,0.06708343779419956
1.4697836359114647,-0.041253817332516096,-0.02801256839033428,0.02526445482647155,0.055900573431822524
1.4722705794578463,-0.046092287960102896,-0.018460543501878757,0.030242595258362925,0.058136952480698195
1.4747575230042278,-0.04135387700256121,-0.01848431511636761,0.04959160862173917,0.06716502582561769
1.4772444665506093,-0.031826987171843624,-0.02808388707588927,0.059369445733528536,0.0729821410513174
1.4797314100969907,-0.02708842450311899,-0.02331724662551249,0.049999267369232214,0.06146058468413818
1.4822183536433722,-0.01756138175320765,-0.023338010897576034,0.05021146086521178,0.05808834378733797
1.4847052971897536,-0.0032458583224623805,-0.018569377106917972,0.06000599363499859,0.06289734998004223
1.4871922407361353,-0.003295466895396726,-0.009011349113293488,0.0602292198106138,0.06098871562752854
1.4896791842825168,0.0014434064030584004,-0.01860594738222021,0.06045791344638651,0.06327261649659432
1.4921661278288982,0.01097076216380466,-0.018622755859909024,0.06069204195715017,0.06442583810243387
1.4946530713752797,0.001344584373255464,-0.009061778418477662,0.06093157275954475,0.0616163963097006
1.4971400149216612,-0.003493109781978254,-0.009076632215250235,0.05638806995239953,0.05722063877025993
1.4996269584680426,0.025188100202095054,-0.009090514489549228,0.04227309763774123,0.05004090955773575
1.5021139020144243,0.029927375060906036,-0.009103429125111973,0.042528639843347094,0.052793990252652884
1.5046008455608058,0.015513118691008188,0.00046142663124548733,0.04757785735938391,0.05004520233715928
1.5070877891071872,0.0058873482672607835,0.014815645568142521,0.04305550766094868,0.04591231820723987
1.5095747326535687,0.005838467680326032,0.0052288038690986305,0.038538364830621674,0.03932726355308503
1.5120616761999501,0.005789670856977791,0.00521972087823519,0.04360320295759834,0.044294526556227405
1.5145486197463316,0.010529361681970828,0.014788392694114805,0.05346158617740748,0.05645976631646176
1.5170355632927133,0.005692330755854069,0.0004159921698230207,0.05853667531323303,0.05881426727968531
1.5195225068390947,0.0056437885980880065,-0.00916706468070716,0.07319364779845827,0.07398106178370875
1.5220094503854762,0.005595332443918077,0.0004044281923962778,0.07827885783358823,0.07847962086460335
1.5244963939318577,-0.004029843794691845,-0.009176759687482328,0.08336907955099448,0.08396937527784439
1.5269833374782391,0.0007102770334375119,-0.02354542227648171,0.09325268377337892,0.09618188204947893
1.5294702810246208,-0.004126321126615262,-0.023547950213312685,0.08877602473321211,0.09193864830809996
1.5319572245710023,-0.004174427770250233,-0.028337960701982468,0.07951587659682247,0.0845176933837953
1.5344441681173837,-0.004222445677100395,-0.037915457667971,0.08941422350413752,0.09721272726611277
1.5369311116637652,-0.018635584270403127,-0.028338428437832075,0.0993174197255815,0.10494904186495821
1.5394180552101466,-0.0186834230935794,-0.01876049022348436,0.070918206264313,0.07569952623145532
1.541904998756528,-0.013942768255536309,-0.0187584535986991,0.056888987224049004,0.06150314817487109
1.5443919423029098,-0.0283556358291146,-0.018755515858391636,0.06201813352069507,0.07072524544869753
1.5468788858492912,-0.03798000868702345,-0.03311689090134795,0.07194040280486647,0.08783297261600907
1.5493658293956727,-0.028450676345602055,-0.03790056606609449,0.0627137461031495,0.07860602930401009
1.5518527729420541,-0.02849805820700224,-0.042683351935493,0.06785695430316352,0.08507981018620378
1.5543397164884356,-0.03812215375450312,-0.04267684913354186,0.0730047851073099,0.09275942381997403
1.556826660034817,-0.04295775251345957,-0.037881061606543476,0.059003592916244685,0.08222996598851483
1.5593136035811987,-0.04300485397316778,-0.03787279994333925,0.040218555392034006,0.0700092753756514
1.5618005471275802,-0.028686650985322637,-0.042652068093972595,0.026226446896295386,0.05770571353211733
1.5642874906739617,-0.028733562967119375,-0.033065256728995074,0.017027235170532506,0.046998463601402835
1.5667744342203431,-0.03835718609659344,-0.033054386403440716,0.017409291297703078,0.053543903567492605
1.5692613777667246,-0.024038696632922796,-0.04261946107237424,0.003430566460682627,0.049051464648371894
1.571748321313106,-0.019296917322683127,-0.03303006477050063,0.013398255028835848,0.04053232579953512
1.5742352648594877,-0.024131847673287132,-0.03301662137770878,0.0329471148711562,0.05251624260796722
1.5767222084058692,-0.019389873913926214,-0.028213924892433795,0.03334669391940537,0.04779115779711095
1.5792091519522506,-0.019436205519005822,-0.023410382595634438,0.028962170012487576,0.0420073730443032
1.581696095498632,-0.014694035364401503,-0.018605998449154892,0.0293703176939637,0.037745376074753756
1.5841830390450136,-0.014740169610271914,-0.018589179736272055,0.03935950821266765,0.045956513032975675
1.586669982591395,-0.005209397818247696,-0.028148333741303322,0.04935290288271155,0.05705414569504057
1.5891569261377767,-0.00046692947487181335,-0.028129851147965734,0.06413887300600152,0.07003785818556421
1.5916438696841582,-0.005301167429099252,-0.013745332601806215,0.06456377331034346,0.06622323888571925
1.5941308132305396,-0.005346901251678027,0.0054284112898890235,0.04583916851257008,0.04646812210592534
1.596617756776921,-0.014969340438271583,0.000660956637845711,0.05106065656134895,0.05321380145516774
1.5991047003233025,-0.019803274565712514,0.0006827193958867106,0.06586299559092978,0.06877913911579116
1.601591643869684,-0.019848703174815685,0.005493695595381709,0.06630413712486849,0.06942903073563694
1.6040785874160657,-0.010317222489130362,0.0055170746265784665,0.06674925927976894,0.06776685625527624
1.6065655309624471,-0.019939251977441397,0.019906465801174722,0.07198673356277396,0.0773041458083009
1.6090524745088286,-0.019984371267833034,0.015143041907084154,0.08680493151279656,0.09035365486858624
1.61153941805521,-0.005664176593003223,0.01516881557570171,0.08247340145893034,0.08404783049342957
1.6140263616015915,-0.010497490751201322,0.024772186156976517,0.08293412828668778,0.08718903688962416
1.616513305147973,-0.015330700020293242,0.024799536399177757,0.09297548363391073,0.09743966300067937
1.6190002486943547,-0.020163803962449878,0.02961607229271701,0.0886554192507436,0.09562151479038945
1.6214871922407361,-0.029785205463206066,0.020068176585854136,0.09391592012522665,0.1005489444446553
1.6239741357871176,-0.029829694129908213,0.015309458589451985,0.09439174471826561,0.10016981404167749
1.626461079333499,-0.025085672854206487,0.015339914333309057,0.09008286148766764,0.09476036032069447
1.6289480228798805,-0.020341544530810163,0.020159539847480534,0.08098923892778842,0.08590368038019959
1.631434966426262,-0.02517411537780001,0.020191524521729676,0.0718992488904373,0.07880949015553551
1.6339219099726436,-0.030006578335066036,0.020224267707162902,0.07238966658546175,0.08093009067104623
1.636408853519025,-0.03962733630649595,0.020257765435056196,0.06330684733914005,0.07738513916244562
1.6388957970654066,-0.03967117891778804,0.015503610416929714,0.06380437307913134,0.07671481210762406
1.641382740611788,-0.02534970243832657,0.010750202005558762,0.073882212491311,0.07884640498769269
1.6438696841581695,-0.020604923062433,0.0012091329137984275,0.07438672102034083,0.07719720928226635
1.646356627704551,-0.030225243706239246,-0.013119600824410771,0.055741060792124486,0.0647514875591654
1.6488435712509326,-0.030268647367067802,-0.013082389893023016,0.041887217215929695,0.053309275973693816
1.651330514797314,-0.030311940287489625,-0.01783285153757319,0.028036755820908255,0.04497648268722996
1.6538174583436955,-0.03035512207251434,-0.03215939304166193,0.018978048819132454,0.04812303329827324
1.656304401890077,-0.020821385689590133,-0.04648521172688236,0.024287871785876547,0.056429652907092454
1.6587913454364585,-0.02086434403110382,-0.05123350491368717,0.029600983738294673,0.06274082495364443
1.6612782889828401,-0.03048399671125568,-0.04640427656193946,0.039705757018779764,0.06825817225184974
1.6637652325292216,-0.030526730066059105,-0.05115114391146802,0.05460216069396573,0.08080666262399039
1.666252176075603,-0.025780947036153412,-0.060685707599185346,0.07907856719590889,0.10296034249482977
1.6687391196219845,-0.02582345388555307,-0.06064276161994986,0.10355813904139133,0.12275456598102365
1.671226063168366,-0.021077443600086898,-0.05581071324837339,0.1040988288324538,0.11998191741381499
1.6737130067147474,-0.025908125770205848,-0.05576637307781018,0.09027741246007892,0.10922971458200158
1.6761999502611291,-0.016373483426924018,-0.05572134173903631,0.08603587582347849,0.10380332756440536
1.6786868938075106,-0.011627129487131072,-0.06046402650174132,0.08179738162750816,0.10238115198624208
1.681173837353892,-0.016457466909837626,-0.05562922135258308,0.08235030258632392,0.10073247153446695
1.6836607809002735,-0.021287688696179363,-0.04121693023730888,0.09727141478330203,0.10776701333041488
1.686147724446655,-0.026117794490976398,-0.031592367060677695,0.11219547774967609,0.11944890988639256
1.6886346679930364,-0.02137097730148252,-0.03154393908483666,0.11275725106664503,0.11902073950331005
1.691121611539418,-0.0070472367786348356,-0.026706440288621014,0.10853351096745989,0.11199294844778201
1.6936085550857995,-0.007088589177989935,-0.021868277929987467,0.09952422709576503,0.10214470840511956
1.696095498632181,-0.007129824195660439,-0.012241052624067716,0.08572936914671914,0.08689190121467397
1.6985824421785625,-0.0023825381714386307,-0.007401574944664535,0.07672571350816604,0.07711870663553053
1.701069385724944,-0.007211940729420774,0.002226957818005637,0.07730163330019657,0.07766925994938997
1.7035563292713254,-0.007252821574880941,0.007067735094876237,0.09224550169598622,0.0927997245864049
1.706043272817707,-0.012081987017706686,-0.0024560536806470523,0.09761527200042153,0.09839079193549838
1.7085302163640885,-0.0073342267692757535,0.002386007489877162,0.09819931749434829,0.0985017252153521
1.71101715991047,-0.016951557106508086,0.007228704724680846,0.0939976081928986,0.09578705448189491
1.7135041034568514,-0.0122035577859404,0.007283630785296147,0.0897985174866136,0.09091618031376456
1.715991047003233,-0.007455438449963103,0.007339185076615795,0.09517882214192852,0.09575205159365971
1.7184779905496144,-0.021860812064323887,0.0073953636860291105,0.09577328237980076,0.09851450718529418
1.720964934095996,-0.01711245175406162,0.012240566024110944,0.10115867507931675,0.10332349686992057
1.7234518776423775,-0.007575567170696629,0.012297981543436087,0.10175816389537218,0.10277817612391192
1.725938821188759,-0.017192174609407918,0.017144412980834023,0.0975717191810368,0.1005472135277794
1.7284257647351404,-0.022020257165289214,0.026779856435580562,0.10775292462866126,0.11319339734439342
1.7309127082815219,-0.01248300789740664,0.026839098049147303,0.11314813742659702,0.11695581932236866
1.7333996518279033,-0.007734039789730973,0.031687343888079145,0.11375732810343386,0.11834117132842159
1.735886595374285,-0.012561755868361613,0.0317477834206259,0.10479206392703766,0.11021386539228008
1.7383735389206665,-0.3717311949044839,0.06053923600116873,1.661637007927764,1.7037859685053909
1.740860482467048,0.18368452327281215,-0.38950905420781634,-5.716676350630943,5.732874131294262
1.7433474260134294,0.6912163315659159,-0.7916727258529037,-12.218709637659705,12.263824482245372
1.7458343695598109,1.107768600374164,-1.122009766209961,-17.49969784326551,17.570585698633867
1.7483213131061923,1.3806688934532496,-1.3374245492700219,-21.325009233860754,21.411468185124203
1.750808256652574,1.5242824210402255,-1.4427054822235987,-23.574933755483173,23.668171403447083
1.7532952001989555,1.5290323767675678,-1.442640972257495,-24.215952613873164,24.307026020913995
1.755782143745337,1.3661883409834963,-1.3276542165938052,-23.319891887755446,23.39757453152956
1.7582690872917184,1.0740575405175952,-1.1168988323726659,-21.04955731887656,21.106513826844257
1.7607560308380998,0.710100815477696,-0.8247400334100037,-17.64436910204431,17.677901467652408
1.7632429743844813,0.2934717794061288,-0.4799082434787252,-13.396419868525445,13.40822519580015
1.765729917930863,-0.12794553423589905,-0.1254990963086562,-8.607379056162454,8.609244699703293
1.7682168614772444,-0.5158438986308006,0.23848740425726733,-3.617223329295016,3.661594705007657
1.770703805023626,-0.8271276836436675,0.5593788178568126,1.2197054378419931,1.5763014375486537
1.7731907485700074,-1.0426432757441428,0.818021527374138,5.635256630845483,5.788987952586356
1.7756776921163888,-1.1623906746861024,0.9904735123773514,9.41874047522269,9.5417431320968
1.7781646356627703,-1.1767930735857774,1.0815231723607477,12.373832406508548,12.476628660609958
1.780651579209152,-1.0714852622420705,1.0911705035027226,14.356880296829859,14.438100484219444
1.7831385227555334,-0.8656208536990371,1.0050502920251216,15.315211681465637,15.37254482510817
1.7856254663019149,-0.5927186709646449,0.8471045507168258,15.27755695220949,15.312499729657459
1.7881124098482963,-0.27193232708889037,0.6173332757697043,14.325318937446864,14.341192775479392
1.7905993533946778,0.039277338312768695,0.35404368994274416,12.559054078913485,12.564104783102003
1.7930862969410595,0.3409103254656879,0.07160099939802134,10.151144868218973,10.157120098172134
1.795573240487441,0.5898710047093659,-0.21084118637723792,7.302704216965667,7.3295218594774605
1.7980601840338224,0.7717941663023604,-0.4645524512505457,4.224421843465246,4.319399857231042
1.8005471275802039,0.8675261971798718,-0.689532799006316,1.0934686428591185,1.5568335995266216
1.8030340711265853,0.8722786942351455,-0.8474750068616701,-1.8794656663997102,2.2386324394252544
1.8055210146729668,0.7956284643194025,-0.9383790785911152,-4.512421785706092,4.677128426768685
1.8080079582193485,0.6471523142808893,-0.9574566146439425,-6.666536046268726,6.765961287430251
1.81049490176573,0.4507922609260186,-0.8999192154643565,-8.255617215745225,8.316747192850203
1.8129818453121114,0.22570191773776976,-0.7801320947726378,-9.22699288496471,9.262664041200795
1.8154687888584928,-0.018541908444363764,-0.6028836596432483,-9.551932661284164,9.570957636262987
1.8179557324048743,-0.24842039418215667,-0.38253912378608357,-9.278320605112057,9.289525398249344
1.8204426759512558,-0.4495683293216066,-0.14782891086665506,-8.425310356861752,8.438591095618921
1.8229296194976374,-0.5884668904304409,0.08209336209563567,-7.098246816637393,7.123071000006663
1.825416563044019,-0.6699044806415942,0.3072276913676797,-5.450358917674099,5.499961199771901
1.8279035065904004,-0.7034579064114121,0.4940552499800899,-3.5630495433246105,3.6652783883780686
1.8303904501367818,-0.6603967476365181,0.6329992275703047,-1.5847592233526218,1.8298288669694491
1.8328773936831633,-0.5502978107789934,0.7192712171016677,0.3408599158735015,0.967659158251684
1.8353643372295447,-0.3923147089443296,0.7432944082229143,2.113251377945712,2.274253458728595
1.8378512807759264,-0.22475466852224268,0.714645603869632,3.665377489772565,3.741152916239079
1.8403382243223079,-0.047617689342788316,0.633324800342562,4.891893351777343,4.932949250927954
1.8428251678686893,0.12951942212055317,0.5136972039091154,5.7209728877026365,5.745449580306064
1.8453121114150708,0.2827146494303513,0.36055121420201486,6.1621928778127,6.179202684362331
1.8477990549614522,0.392814379466783,0.17388682753943385,6.201188085848338,6.216049665307942
1.8502859985078337,0.4598186123883297,0.0015880734487350168,5.857112098870234,5.875133855241774
1.8527729420542154,0.4789389450303597,-0.15634505173997004,5.1826373272591795,5.207067884536415
1.8552598856005968,0.4453869742253895,-0.3047009550107207,4.244801391435827,4.278966122970551
1.8577468291469783,0.3735279100843375,-0.429114430060308,3.1345839285006605,3.18579326047887
1.8602337726933598,0.2537849461137526,-0.505643463938688,1.9142341557118332,1.9960898061940175
1.8627207162397412,0.1340421156610398,-0.5342880602912226,0.6747317103280999,0.8710303674745947
1.8652076597861227,-6.579109310578257e-05,-0.5294134327179278,-0.5120973835916978,0.7365611429827875
1.8676946033325044,-0.14375037068980645,-0.4718659715703417,-1.5744271019109357,1.649891621722817
1.8701815468788858,-0.25391599311024293,-0.39037610039682846,-2.4547966303713933,2.4985782612919976
1.8726684904252673,-0.3401394648619871,-0.28494382281743613,-3.1196871712370218,3.151084874150372
1.8751554339716487,-0.39763238249445587,-0.15078073912542322,-3.5355799266906507,3.561063290776688
1.8776423775180302,-0.4120295359191739,-0.011828869529519448,-3.683321308794315,3.7063140887467134
1.8801293210644117,-0.3881193283317478,0.11275816908847558,-3.6012185693725822,3.6238275624144674
1.8826162646107933,-0.3259017596102052,0.22298037313462293,-3.2892717336053545,3.3128900889126185
1.8851032081571748,-0.2541072495573041,0.30447252906054434,-2.7905764564736675,2.8186150809671107
1.8875901517035563,-0.1631589914159821,0.36202303660596247,-2.143439989555241,2.1799120450921534
1.8900770952499377,-0.05305698507257561,0.40042029551726976,-1.4053231976263705,1.4622191171346162
1.8925640387963192,0.06183355962281023,0.3813570756648197,-0.6432637520214861,0.7503631540261093
1.8950509823427006,0.15278222285646903,0.33356379341018494,0.10921949925104357,0.38280035385538114
1.8975379258890823,0.21978900473381435,0.2666172518405383,0.8233961115867405,0.89295751419485
1.9000248694354638,0.262853905357465,0.17572904408910128,1.4561704305034144,1.4901024109673269
1.9025118129818452,0.27240011818675147,0.06568756993657221,1.9548699949632997,1.9748502167101534
1.9049987565282267,0.2532160466391846,-0.0443535608682355,2.3147063772152414,2.3289377873524613
1.9074857000746082,0.21966690077017575,-0.15918275517117664,2.5069491329918705,2.5215841552973304
1.9099726436209896,0.16217587403089184,-0.25485799988900615,2.5268098347119903,2.5448028518968506
1.9124595871673713,0.09031977315101636,-0.3265908952126426,2.403018878121875,2.4267919158568088
1.9149465307137528,0.008887001537216166,-0.3887466546070515,2.164306659053212,2.198960266736662
1.9174334742601342,-0.07733403740649436,-0.40301805500649124,1.82024996014224,1.8659351605563979
1.9199204178065157,-0.13961292367727463,-0.37898190654109465,1.3852139674313548,1.4428918149016419
1.9224073613528971,-0.19231486715775425,-0.3453686326148824,0.892717480330381,0.9763242290405388
1.9248943048992788,-0.23065146445195828,-0.292601430062045,0.3858561049766145,0.5363773193153406
1.9273812484456603,-0.2450459088463104,-0.206315092389052,-0.08748614908589758,0.33206511571030345
1.9298681919920417,-0.23070979695019156,-0.1152400429776339,-0.5273093054295952,0.5869943624149448
1.9323551355384232,-0.2020083386568854,-0.01937628528027524,-0.8761525476953302,0.8993475947325347
1.9348420790848047,-0.16851834054200543,0.07648777393785444,-1.1244390926400811,1.1395666210091662
1.9373290226311861,-0.11108618926192182,0.16277532459885968,-1.2817457702143304,1.2968069120749344
1.9398159661775678,-0.0488654980381823,0.22512115331208626,-1.3480726036399133,1.367613657160376
1.9423029097239493,-0.0010098800948941111,0.27789046661651584,-1.332996422691303,1.3616547265007974
1.9447898532703307,0.06121108454428159,0.306718051136901,-1.226940443773282,1.266177559559039
1.9472767968167122,0.10427857268903706,0.3116039034667111,-1.0346930931629963,1.0856154063096946
1.9497637403630936,0.12340418106832113,0.28775961688689655,-0.7993500236113658,0.858483924871938
1.952250683909475,0.1425299263303671,0.2543388012877936,-0.5209112578973372,0.5969518777459686
1.9547376274558568,0.13771379191768363,0.22091825992699432,-0.20895362535132733,0.333813695945779
1.9572245710022382,0.11374418119207197,0.15397916618719698,0.11258083482475101,0.22208504394622613
1.9597115145486197,0.0897747074736846,0.08225193662309715,0.42932689015937164,0.4462582859669418
1.9621984580950012,0.05622856415822236,0.010524971195823074,0.6790352750677311,0.6814406292790866
1.9646854016413826,0.0035289446388575563,-0.05162492680509967,0.8808595805002408,0.8823781429052718
1.967172345187764,-0.039593731131342236,-0.10898616404307271,1.0300113808962834,1.0365177722902743
1.9696592887341458,-0.07792786644403915,-0.1471935338921262,1.1121254441450041,1.1245273195004626
1.9721462322805272,-0.11626186459340537,-0.17582384631967152,1.1272017481871508,1.1467408718666776
1.9746331758269087,-0.135442112274632,-0.190088701324032,1.0752402710543798,1.1002817460294283
1.9771201193732901,-0.14983381942760654,-0.17562289225466188,0.9897598141115687,1.0163257663556131
1.9796070629196716,-0.14986017939317442,-0.15636843901526198,0.86597195225246,0.8926458335620915
1.982094006466053,-0.1307327888350165,-0.12753694157933948,0.7038766637823954,0.7271857337444322
1.9845809500124347,-0.1163936643411928,-0.07955159659177369,0.5082623304188374,0.5274528776505614
1.9870678935588162,-0.08290078929914857,-0.026777617290629774,0.2982825439319754,0.3107443606386383
1.9895548371051976,-0.04461937366131896,0.025996589735068465,0.11224450946523845,0.12355379835874684
1.992041780651579,-0.015914627382618063,0.06919421458444308,-0.0737938109098355,0.10240430276742325
1.9945287241979606,0.012790256181109572,0.09323844736508091,-0.23589042182616815,0.2539710413207713
1.997015667744342,0.03191847039031004,0.10770609147435461,-0.3548917311445301,0.37224660069300913
1.9995026112907237,0.041470015243573854,0.1221739503181758,-0.4307977599141388,0.4497031757144821
2.001989554837105,0.06059850401829392,0.11748840738917954,-0.46360852909140426,0.482087723144239
2.0044764983834864,0.06536192010659703,0.10801466943080751,-0.4581124628599973,0.4751908858973625
2.006963441929868,0.04618345685910408,0.09854113655453656,-0.4190979853103798,0.43299698448388285
2.0094503854762498,0.03179353418649966,0.06033738563834845,-0.35135352043965007,0.3579116165299395
2.011937329022631,0.022192152075163674,0.007768623451766654,-0.24530228219043337,0.24642656669259005
2.0144242725690127,-0.0017743027721949245,-0.020857926625361678,-0.1344631142944852,0.1360828069934192
2.016911216115394,-0.0305290237334066,-0.04469588104814459,0.005105979454020471,0.054367399229406525
2.0193981596617756,-0.06407201082932745,-0.08289885626285765,0.1303093488704974,0.16720636753561866
2.0218851032081573,-0.07846124748167305,-0.12110164546475488,0.24114697374742455,0.2810224881360789
2.0243720467545385,-0.07369673371608121,-0.14493904184014283,0.35677244725258284,0.39207794318037664
2.02685899030092,-0.08329729280277998,-0.14962264520708013,0.44366692612496017,0.4755688344332571
2.0293459338473014,-0.07853250485030772,-0.14951766865588922,0.5209840037214519,0.547674373776964
2.031832877393683,-0.06897917653207752,-0.14462411530697583,0.5504164336498985,0.5732647834598267
2.0343198209400644,-0.06421411452385417,-0.13015358495140772,0.546329406136465,0.5652780096458807
2.036806764486446,-0.04987210890220106,-0.09174087073057713,0.542241724783521,0.5522044030112084
2.0392937080328277,-0.03074156302728015,-0.06290479897992318,0.5094229501245007,0.5142118236151463
2.041780651579209,-0.0068224769412668085,-0.029280162822623357,0.46223827267085404,0.4632149553374419
2.0442675951255906,0.017096745990999918,0.009133034666328754,0.3911108664278533,0.39159088457680324
2.046754538671972,0.021862492441429904,0.052334790421107336,0.31519432541817594,0.3202567120920213
2.0492414822183536,0.026628375642118396,0.08595989142419658,0.23448863047877566,0.25116347494571983
2.0517284257647352,0.045759605502536105,0.10521993130791385,0.16335897250332998,0.19962797734168816
2.0542153693111165,0.045737358726728905,0.12448011699509642,0.10180533252041712,0.16718711445563944
2.056702312857498,0.031350038578949246,0.13895204213663037,0.04025088501395224,0.14802239248589355
2.0591892564038794,0.021751258282102004,0.13905889707241048,-0.006939178834505455,0.1409207092472473
2.061676199950261,0.007364211134939291,0.12480067879231038,-0.025399667747219468,0.12757187838364117
2.0641631434966428,-0.01659950624574602,0.12011940089714424,-0.02949581027203152,0.12479670229254897
2.066650087043024,-0.026197877323541396,0.09628464047371432,-0.024016028219755015,0.10263445025362497
2.0691370305894057,-0.045372918767423887,0.06766160450104763,-0.008960339984387389,0.08195780727769165
2.071623974135787,-0.07412463064704844,0.043827096647338415,-0.003482377144576887,0.08618237766314855
2.0741109176821686,-0.08372259311243524,0.015204307309023335,0.025936665341168563,0.08895703551286645
2.07659786122855,-0.08853201619864826,-0.022995169787631387,0.07929676936895014,0.12105648829415208
2.0790848047749315,-0.08855289998203708,-0.032464111023999376,0.12307909368958114,0.15506127144859838
2.081571748321313,-0.07899684122085437,-0.0275677292953187,0.1860140403149213,0.2039649573227078
2.0840586918676944,-0.07422904995681034,-0.05140165740910163,0.24415957483046924,0.2603189970464868
2.086545635414076,-0.07424952627287795,-0.051293461756986236,0.2831504695595104,0.29718378115659916
2.0890325789604574,-0.05032785033234766,-0.05118516184596045,0.29819830356319876,0.30671654921155134
2.091519522506839,-0.035982845464756386,-0.051076760571772795,0.3228218825625149,0.32881236062449487
2.0940064660532207,-0.036002915079941356,-0.03660305085952986,0.34265597917270973,0.34648104318892725
2.096493409599602,-0.026446042668039516,-0.026917648866806587,0.33375855946590427,0.33588499372563824
2.0989803531459836,-0.016889034963528005,-0.02202055746016862,0.32964842945551,0.330814497105765
2.101467296692365,-0.012120295382724189,-0.01712337617609716,0.3207487653697694,0.32143410220146834
2.1039542402387466,0.0022253859371516027,-0.0026493012209645173,0.29748274353462634,0.2975028635835577
2.106441183785128,0.002205992294248893,0.0070364546071188805,0.2742155569753528,0.2743146911536881
2.1089281273315095,-0.0026016697732269556,0.002357081840205222,0.24137038221350338,0.24139591117146755
2.111415070877891,-0.00740919704950016,0.0024661909420897743,0.21810081579042162,0.21824056485247786
2.1139020144242724,-0.012216589641226072,0.0073637791052116874,0.18525322778289066,0.1858015842482298
2.116388957970654,-0.021812250977473857,0.002684633570990247,0.15719281160792065,0.15872164808657332
2.1188759015170353,-0.026619374528472073,-0.0019944418076542902,0.13391955081965712,0.13655407350258691
2.121362845063417,-0.0314263637274792,-0.01625025644909117,0.11064502575005974,0.11616371591432685
2.1238497886097987,-0.026656412048890465,-0.03529440980076215,0.11131123675116861,0.11977667174195097
2.12633673215618,-0.01709792293012191,-0.044761694659475104,0.10718774774981554,0.11741022759960291
2.1288236757025616,-0.012327703130956436,-0.04944051709327013,0.09827454269299629,0.11069879284099027
2.131310619248943,-0.012345752772615404,-0.06369608980075547,0.09893681558697764,0.11831357887377116
2.1337975627953245,-0.01236366865805505,-0.07316320554859779,0.099597743934833,0.12419913665457223
2.1362845063417057,-0.007593047592271862,-0.0730534637339959,0.1146225219396193,0.13613517352643023
2.1387714498880874,0.001966110297392465,-0.07294367370497534,0.13922273062159185,0.15718655745645604
2.141258393434469,0.0019485949206339281,-0.06325703151818152,0.16860995109950672,0.18009598737460805
2.1437453369808503,0.006719616107006943,-0.048781943181047005,0.19320736127032134,0.19938384004272994
2.146232280527232,0.006702367082494887,-0.039095218011143906,0.18907292916861884,0.1931888463142967
2.1487192240736133,0.0018968477117065063,-0.019831648714295103,0.19451386609162213,0.195531420554033
2.151206167619995,0.01624507445882062,-0.0005680445876734552,0.19516494691173492,0.1958407047114734
2.1536931111663766,0.025805030582905564,0.004330381761460611,0.20539136652188184,0.20705135896996832
2.156180054712758,0.01621150598168586,0.009228837657965894,0.22519310995270558,0.22596442450280238
2.1586669982591395,0.011406517113407955,0.033280933757283915,0.23541654905230303,0.23803083991808832
2.161153941805521,0.011390063832803443,0.04775624752200924,0.2360616690487145,0.24111305299706104
2.1636408853519025,0.001796936031713492,0.047866373026602904,0.23670526190932506,0.24150320838735484
2.166127828898284,0.001780746842223957,0.05755332427771975,0.23734731305963308,0.24423206835172143
2.1686147724446654,-0.017388923808639434,0.062451888729849525,0.22841100138326098,0.23743251384351768
2.171101715991047,-0.031770059472339796,0.06256206380877405,0.21947311914382794,0.2304165760825597
2.1735886595374283,-0.041362660303821186,0.05788384695064286,0.2248988620240464,0.23588324981847655
2.17607560308381,-0.04616672645993791,0.05799404224261551,0.2255346025632008,0.23740373316568958
2.178562546630191,-0.05575906474007142,0.048527437180689414,0.23574553664154863,0.24706263073646928
2.181049490176573,-0.05098606202362166,0.043849239193157086,0.23637803699593896,0.2457578293209573
2.1835364337229546,-0.04142452511374939,0.03438263911718131,0.2417972997041815,0.2477177654061084
2.186023377269336,-0.04622806745611763,0.02491603776131157,0.24242650434128876,0.24804929583771723
2.1885103208157175,-0.046243075935757716,0.005872625983623259,0.23826563722165695,0.24278266760332382
2.1909972643620987,-0.04625795404112398,-0.008382388745755698,0.22452628143812703,0.2293951041534861
2.1934842079084804,-0.036695895301585346,-0.00827220226653358,0.20120842350259593,0.20469452301105506
2.195971151454862,-0.03192210984991661,-0.022527236970399933,0.18746566330694137,0.19149379212366702
2.1984580950012433,-0.03193659785979053,-0.02720547871508039,0.19766319752144845,0.20206638515442843
2.200945038547625,-0.027162552866081713,-0.027095333269648414,0.21264739967291568,0.2160807209143119
2.2034319820940063,-0.022388378366421158,-0.03177360971292842,0.2372066599883773,0.24037013396615892
2.205918925640388,-0.012825671219625079,-0.03166350383193395,0.22345693227010166,0.22605325898273093
2.208405869186769,-0.008051238247248738,-0.026765018043725775,0.2192822368252454,0.2210563005554873
2.210892812733151,-0.01764188627264096,-0.01707815475477714,0.215105754215827,0.2165026212724564
2.2133797562795325,-0.022444002199060287,-0.012179723001584097,0.19656226178213387,0.19821402988692519
2.2158666998259138,-0.008092376251854105,-0.016858128489714908,0.18280536020519556,0.18375930661963383
2.2183536433722955,0.0014709747793624217,-0.011959760312548084,0.17862344030361754,0.17902941953610624
2.2208405869186767,0.001457647384464078,0.0025153791659286995,0.1888048929944972,0.18882727421352394
2.2233275304650584,0.0062328513328247515,0.0026252709908147764,0.19419609269182558,0.19431382580836706
2.22581447401144,0.011008183110825465,0.002735122780374688,0.2187390437908281,0.2190329433454041
2.2283014175578213,-0.0033699707578244142,0.0028449322026067314,0.2528569275429078,0.2528953857795459
2.230788361104203,-0.012959593868328345,0.0077431002565067075,0.2534541020556258,0.25390330546024387
2.233275304650584,-0.0033954764582320163,-0.001723988649796393,0.24926097533951008,0.24929006242617632
2.235762248196966,0.0013803646707101214,0.007962486425968418,0.2594311488627117,0.2595569833330137
2.238249191743347,-0.0034204740037063752,0.017648909913348554,0.2552341909884408,0.25586651971890223
2.240736135289729,-0.0034327827241276143,0.008181666252615294,0.24145849342023595,0.24162145538976953
2.2432230788361105,0.0013434383041800446,0.0035027697775880107,0.24204606124096806,0.24207513293367905
2.2457100223824917,-0.008245424406972512,0.008400621551574172,0.24263167306904343,0.2429170357187553
2.2481969659288734,-0.01304575778494721,0.008510009367388882,0.24321531758178594,0.24371356704546743
2.2506839094752547,-0.008269158719690473,-0.0009574723307723687,0.24379698355442692,0.2439390598683063
2.2531708530216363,0.001295969256570606,-0.000848212486376454,0.23958825653973292,0.2395932629947781
2.255657796568018,-0.008292390671280292,-0.0007390199539911713,0.23537752882888974,0.23552471414085688
2.2581447401143993,-0.013092222116861008,-0.005418300257082009,0.23595319281079163,0.23637824234738639
2.260631683660781,-0.013103525296983443,-0.010097652267707868,0.2365268343313609,0.23710463579471253
2.263118627207162,-0.017903107070689317,-0.005200271526803579,0.21794482937315784,0.21874074315781214
2.265605570753544,-0.01791416101737986,-0.005091370166066422,0.20414918389905878,0.20499689876136237
2.268092514299925,-0.03229030063992677,-0.00019414370481296572,0.21429350064907204,0.21671272603986325
2.2705794578463068,-0.04187791288028975,0.004703002387525412,0.2292241558980539,0.23306563767711774
2.2730664013926885,-0.041888594642945254,0.014388469292968775,0.22978752601814456,0.23401707100828167
2.2755533449390697,-0.04189915279487744,0.019285448243436143,0.21598360075992318,0.22085376002255572
2.2780402884854514,-0.04669799088431825,0.01939393712230686,0.21654278989294795,0.22236817893834823
2.2805272320318326,-0.05149670582043109,0.024290740464432137,0.22188827672130707,0.2290771881463053
2.2830141755782143,-0.04671849119360494,0.024399049534264527,0.21286643800540084,0.2192944401180513
2.285501119124596,-0.04194015387701844,0.019718862247740443,0.2134192804852919,0.2183932217776757
2.287988062670977,-0.046738500745371225,0.024615386492591096,0.22833519771653954,0.2343658832261127
2.290475006217359,-0.0467483220733228,0.019935006925229537,0.2336721634294907,0.23913487842554185
2.29296194976374,-0.04196961809797517,0.010466124814499711,0.2437953780135409,0.24760285731931259
2.295448893310122,-0.037190792378243076,0.024939158041681342,0.2491280253529986,0.2531203066880132
2.2979358368565035,-0.037200248474531294,0.020258474694246242,0.2592469027097799,0.2626846414393471
2.3004227804028847,-0.037209583308101646,0.020366089354923123,0.27415200080142377,0.27741422138924154
2.3029097239492664,-0.042007200442313763,0.020473596695449015,0.26990129384007666,0.2739169243898522
2.3053966674956476,-0.037227890160741905,0.01579259139844913,0.265648386016732,0.2687087396088808
2.3078836110420293,-0.037236862670286364,0.020688281438686396,0.2757584782980089,0.27902925883076407
2.3103705545884106,-0.03724571489804851,0.016007051559631336,0.2667127385432284,0.2697761180666812
2.3128574981347922,-0.027677640452251406,0.01611410975783789,0.2624531745511778,0.2644000475534805
2.315344441681174,-0.03247465618473089,0.021009454079814915,0.2677681809349881,0.27054722171236734
2.317831385227555,-0.04205995570655907,0.025904679262662267,0.2587157324813898,0.26338929840660036
2.320318328773937,-0.037279925989588736,0.030799783374690026,0.2496610306349627,0.2543011005784852
2.322805272320318,-0.03728818056957384,0.026117957854488782,0.23581566365426987,0.24016990518668596
2.3252922158666998,-0.032507913061785465,0.02622441075311377,0.24112163981485502,0.2447123399381104
2.3277791594130814,-0.032515930364122925,0.03590754349190073,0.2560021442450555,0.2605450733848818
2.3302661029594627,-0.03252382941492682,0.03601374090152776,0.26609195884775794,0.2704805345620467
2.3327530465058444,-0.02295480383358517,0.0409082110657657,0.25702586562056773,0.26127131558906685
2.3352399900522256,-0.02296246716271655,0.05059095211835318,0.25274587321818665,0.2587802074411102
2.3377269335986073,-0.013393206383786493,0.04590834892268436,0.25804037710851446,0.2624343550230228
2.3402138771449885,-0.0038238284014648904,0.04601401291555529,0.2633325628928347,0.2673498639011164
2.34270082069137,-0.008619543442070832,0.04611953894310883,0.2686224229072316,0.2726890435826608
2.345187764237752,-0.01341514181135961,0.031859715221761675,0.2786983529021363,0.2808340780500015
2.347674707784133,-0.008633817136708744,0.03675336318195965,0.2791951354406237,0.28173618183904486
2.350161651330515,-0.00864077964835741,0.0320700611009852,0.28447797310139045,0.28641031593123145
2.352648594876896,-0.013436029616896383,0.02259821050920907,0.26581643867390703,0.2671134311100129
2.3551355384232777,-0.018231163993883803,0.017914616268210004,0.2615177515254654,0.2627638544007607
2.3576224819696594,-0.01823777973214935,0.008442469969211608,0.24763988795258207,0.24845403199366042
2.3601094255160406,-0.02303268374671774,-0.0010298268247268538,0.2241828409464759,0.22536528401397177
2.3625963690624223,-0.018250666352308764,-0.010502275859979981,0.23424223347414674,0.23518675252551766
2.3650833126088036,-0.032622147747690455,-0.019974878872027535,0.23472242882978733,0.23781887836204027
2.3675702561551852,-0.0374167082892185,-0.029447637585442443,0.22083501696328334,0.2259098894155315
2.3700571997015665,-0.5641471168106429,0.14782717577815285,3.199697276391454,3.2524110293521016
2.372544143247948,-0.05658229449125174,-0.33569782817930305,-3.058272879507749,3.0771622630967665
2.37503108679433,0.4318290279185299,-0.7521853464623149,-8.722483440586643,8.765499214311408
2.377518030340711,0.8723564302138631,-1.08727017079105,-13.46732298742534,13.539274375433216
2.3800049738870928,1.2219042822277872,-1.326587092874812,-17.0629481669184,17.158003483414166
2.382491917433474,1.4661073737140415,-1.4653477110526725,-19.341764869032794,19.452521250328893
2.3849788609798557,1.5953888977454902,-1.4987636236528439,-20.227158646729805,20.3452575568512
2.3874658045262374,1.6097488540345384,-1.4172580256723704,-19.75264832924696,19.868744995678536
2.3899527480726186,1.4900336290111413,-1.2447729353397312,-18.03315560217624,18.137374695595796
2.3924396916190003,1.255396835666585,-1.0100387741927208,-15.236274587540942,15.321235682780951
2.3949266351653815,0.9393572969519635,-0.7226323504771108,-11.601425457078635,11.661803560403733
2.397413578711763,0.5754338358174939,-0.40170727906867176,-7.435066028923381,7.468112190634986
2.3999005222581444,0.1827800652509598,-0.07599398147263603,-3.038865717794108,3.045305976130725
2.402387465804526,-0.21945040176069064,0.21141191085540623,1.3046596749586996,1.3397724964887892
2.404874409350908,-0.5881619356300977,0.4796640096347886,5.322571154715915,5.376409184732592
2.407361352897289,-0.8850473100912907,0.7048202967128301,8.77544855019038,8.848083275421667
2.4098482964436707,-1.1148949287621766,0.8485735439866997,11.481332530028265,11.566506146058929
2.412335239990052,-1.2585511786601562,0.9348657665284117,13.301359392847923,13.393434465006997
2.4148221835364336,-1.2968624468036758,0.958908559498878,14.17327989048189,14.264754490889361
2.4173091270828153,-1.2489823467746939,0.9207019213900676,14.116247631296824,14.2012709332193
2.4197960706291965,-1.11969928219535,0.8154574473844711,13.173358240350364,13.245982963134537
2.4222830141755782,-0.9042248500480344,0.6575403459564635,11.459533392592425,11.513943176077682
2.4247699577219595,-0.6265010672381128,0.48525784219279444,9.13279039294475,9.167106365812716
2.427256901268341,-0.3248351606328598,0.29382153130811384,6.379876966338928,6.39489476687972
2.429743844814723,-0.02316914713954421,0.10717342844963529,3.39711764443458,3.398886765291479
2.432230788361104,0.27849697293493647,-0.06510966118552819,0.395202168942113,0.4878366388968416
2.4347177319074857,0.5466443760408554,-0.23739294899130625,-2.415179718343772,2.487623073937647
2.437204675453867,0.7525426419476283,-0.37615761314768914,-4.895164325343651,4.966935549208953
2.4396916190002487,0.8961917703456546,-0.4766152517458915,-6.8963111532509425,6.970611831818311
2.44217856254663,0.9728033576040864,-0.5339774628664546,-8.298910123094103,8.372776572595788
2.4446655060930116,0.9632237901302156,-0.5434558445792568,-9.083807625541391,9.150885492821123
2.4471524496393933,0.8818182775726013,-0.5194156082247829,-9.217484841214292,9.274126527428008
2.4496393931857745,0.7381636262585963,-0.47143356181255625,-8.74303740377228,8.78679908647601
2.452126336732156,0.5466250458349654,-0.3851444967399176,-7.732291366711345,7.7611510102446735
2.4546132802785374,0.32156774594754883,-0.2653368176748221,-6.276226396722546,6.290057807760153
2.457100223824919,0.08214533956179665,-0.15989455915750783,-4.475398967053387,4.479007707200605
2.459587167371301,-0.1668537703189361,-0.04487570591279777,-2.4686727774263346,2.474711961351597
2.462074110917682,-0.3823339541293228,0.0701429341027211,-0.4092767374425428,0.5644525945518489
2.4645610544640637,-0.5642952121879332,0.1707961496228414,1.5735022599853519,1.6803302572420764
2.467047998010445,-0.7031607381735208,0.25229553603252786,3.34080051538856,3.423307778279823
2.4695349415568266,-0.7845653224451952,0.30985268872720617,4.79684995926384,4.870453876753635
2.472021885103208,-0.8037205620036196,0.34346760643319296,5.869824538794205,5.934540997809937
2.4745088286495895,-0.7654148604908548,0.3435634812467132,6.526205427809831,6.579912845948729
2.4769957721959712,-0.6744366215498045,0.33408232851666897,6.737262203543853,6.779172350517075
2.4794827157423525,-0.5355742488240598,0.2910821303993223,6.5365136864772,6.56487469462632
2.481969659288734,-0.36798135591898573,0.21935128898329515,5.947901890533112,5.963309665419865
2.4844566028351154,-0.1860231531203792,0.14762022296923227,5.024099249639571,5.02970870070576
2.486943546381497,0.010300359246149637,0.07588893114635376,3.870450634330563,3.8712082532538847
2.4894304899278787,0.19704716425271523,0.008945815634615606,2.5635704953002847,2.5711478559062977
2.49191743347426,0.35506364829090165,-0.0627859313964918,1.1800732833259904,1.2339308009522874
2.4944043770206417,0.47956140771267936,-0.13451790780621042,-0.20342655073473992,0.5380116846609937
2.496891320567023,0.5657520388691957,-0.18230809816209081,-1.4576421194183355,1.5741766611287653
2.4993782641134046,0.599270331470302,-0.21573331026350662,-2.5203241816645505,2.599557610829362
2.501865207659786,0.589693091826722,-0.23000514193853272,-3.3627423195742763,3.421794297692675
2.5043521512061675,0.5370203196078749,-0.22033519100490162,-3.903493678644179,3.9464162627986896
2.506839094752549,0.4508288211231359,-0.20108866855126406,-4.123424647454459,4.152868177754974
2.5093260382989304,0.33111859604059496,-0.18184238233564498,-4.056054051028491,4.073607816361564
2.511812981845312,0.19704325730894384,-0.14344272018389548,-3.7301123109893366,3.73806630650379
2.5142999253916933,0.04860280459498556,-0.10025489315377234,-3.1647530422396883,3.166713611077127
2.516786868938075,-0.10462595579448053,-0.042702095691203645,-2.4126486828449583,2.415293714320443
2.5192738124844567,-0.23391260427204397,0.014850461166573403,-1.5312600741115014,1.549094269953301
2.521760756030838,-0.3488339478133211,0.04846075975190489,-0.5972016705486549,0.693313351731281
2.5242476995772196,-0.4350247767930724,0.09164762225113288,0.33685409001530964,0.5577782005853144
2.526734643123601,-0.4781198815866263,0.1300458376576792,1.208657963189884,1.3062789185479553
2.5292215866699825,-0.4876960691713802,0.15407859829542225,1.9799027212634215,2.0448966858998525
2.5317085302163638,-0.4637533398847403,0.15895749981874774,2.6027043299620605,2.648472102214055
2.5341954737627455,-0.4062916940646232,0.15904775117343384,3.0339671584101424,3.065179578121083
2.536682417309127,-0.320099535369895,0.159137754674759,3.2736912056912857,3.293150869262963
2.5391693608555084,-0.22433047742078682,0.14486229936686668,3.3170880676465337,3.3278194808914603
2.54165630440189,-0.11419611723656242,0.12579819090555855,3.1545809368730957,3.1591528651380827
2.5441432479482713,0.010303544842676593,0.10194542831608899,2.814900232607256,2.8167645185430854
2.546630191494653,0.12043808855453347,0.06851560731344275,2.3315647774815726,2.3356784952584753
2.5491171350410347,0.2162075135578665,0.03508553358360267,1.728516587564135,1.7423393116927837
2.551604078587416,0.2880350128704574,0.016020416142882965,1.0823701155223198,1.1201544042445557
2.5540910221337976,0.32634377950966326,-0.0030449559042908803,0.4266441842154176,0.5371543484939407
2.556577965680179,0.35028742641419564,-0.022110583482558344,-0.20035398010143268,0.40414338587722176
2.5590649092265605,0.34071233995981937,-0.041176467506600645,-0.7603171510984232,0.8341837749151204
2.561551852772942,0.2928301164827777,-0.055454205560835135,-1.2197265056916295,1.2556103673992236
2.5640387963193234,0.24494798220172076,-0.050578588579133665,-1.5498516240429892,1.5699037435957794
2.566525739865705,0.17312392017075395,-0.045703230727641486,-1.7363272962017984,1.7455352063392136
2.5690126834120863,0.08693473668578328,-0.04082813288137155,-1.7743651187841145,1.7769626219014767
2.571499626958468,-0.013619568598329579,-0.026376489264840597,-1.692695511574887,1.6929557899545136
2.5739865705048492,-0.10459697942557711,-0.011925107373968569,-1.5104720876453284,1.5141362765109592
2.576473514051231,-0.18599749614184824,-0.011839198015158203,-1.213329636751899,1.2275601991760625
2.5789604575976126,-0.2530327157731891,0.01218846453843403,-0.8204217718204543,0.8586419495903829
2.581447401143994,-0.30091423534596085,0.03621586285937717,-0.37484412230643116,0.4820467630678296
2.5839343446903755,-0.3200652485665897,0.04587778617063121,0.08030768240668351,0.3331604094988535
2.5864212882367568,-0.33442777238404364,0.0603278469470907,0.5210916262882517,0.6221076008591763
2.5889082317831384,-0.3248481938648232,0.06998923775150345,0.9044120800977051,0.9635279202415112
2.59139517532952,-0.28174970671638944,0.07486195779694782,1.2206922379076595,1.2550206172202802
2.5938821188759014,-0.2194975212480922,0.0701576029858737,1.4555668905411387,1.4736947526304012
2.596369062422283,-0.16203365441022244,0.07024138251164391,1.6234012488134688,1.6329789868910771
2.5988560059686643,-0.09020449327056645,0.07511329561632563,1.6906764904069629,1.69474654535696
2.601342949515046,-0.023163651459708334,0.06083132495004451,1.6526042129956373,1.653885633789427
2.603829893061427,0.04866567731335414,0.05133748637565194,1.533126434244915,1.5347574886724826
2.606316836607809,0.10612987941746871,0.027478165882764305,1.3418199619285254,1.3462909830847551
2.6088037801541906,0.14444055118215005,0.008406976033055624,1.0930500072094258,1.1025842681320777
2.611290723700572,0.1779629022179019,0.00848912607742136,0.8011817813191904,0.8207527682226652
2.6137776672469535,0.18275491557247547,0.003782598713771179,0.4997341088389309,0.5321163845964269
2.6162646107933347,0.18275860749650408,-0.0009242034286156553,0.19828379781642447,0.2696628028530138
2.6187515543397164,0.15403196103726158,-0.010419684351620884,-0.07443873035189874,0.1713929386508516
2.621238497886098,0.13009379908554075,-0.015127038086737876,-0.3088566674832709,0.3354782629182678
2.6237254414324793,0.09657891132882251,-0.005469458656045756,-0.48102799536675533,0.4906580616050346
2.626212384978861,0.04391049077463338,-0.0006005599940785977,-0.5909527123264819,0.5925821462703726
2.6286993285252422,-0.018334656288388707,-0.0005203427447608711,-0.6434192199400837,0.6436806063305707
2.631186272071624,-0.08057972357182586,0.009136402418287837,-0.6336391130785248,0.6388075542156655
2.633673215618005,-0.11888269482649727,0.01879286822921644,-0.5711891965077793,0.5837322718787212
2.636160159164387,-0.1523971836862067,0.028449054072110513,-0.46085787160793146,0.48623474587495075
2.6386471027107685,-0.1763347871833586,0.04289336266065513,-0.3217987496547252,0.36944313907648
2.6411340462571498,-0.2002723123114497,0.05254898675686048,-0.1252814086558054,0.24200377361217007
2.6436209898035314,-0.2002677428219357,0.057415925772604126,0.0808101203208551,0.22345924213061596
2.6461079333499127,-0.1858978857085969,0.06707098576960524,0.29168743615443304,0.35233237355284225
2.6485948768962944,-0.16673954796534252,0.07672576285784061,0.4881969278272269,0.521560312793973
2.651081820442676,-0.1427927299455778,0.08159185315645257,0.6655501943461992,0.6855684177535298
2.6535687639890573,-0.1044806253621946,0.08166925611404485,0.8045936248207948,0.8154489374403295
2.656055707535439,-0.05659163788912602,0.09132318114928184,0.8861736084235705,0.8926624228456411
2.65854265108182,-0.018279381161337982,0.08661161112742466,0.92944376095239,0.9336495122534222
2.661029594628202,0.024821354428303577,0.08189975548531159,0.9439808916269818,0.9478520946545832
2.663516538174583,0.0487685519243547,0.06282240374695514,0.9202081964479998,0.9236385390830248
2.666003481720965,0.07750422757442538,0.04374476536726801,0.8533372747982746,0.8579656253889731
2.6684904252673465,0.10623997770418919,0.02945524316954007,0.743368129442505,0.751498982090869
2.6709773688137277,0.10624538203770234,0.019953836665727476,0.623819586448823,0.6331169822704177
2.6734643123601094,0.09667405350209995,0.010452142056417202,0.49469164870401805,0.5041576610462187
2.6759512559064906,0.09189120170416254,-0.003838244448865158,0.3559843191555849,0.3676731708402854
2.6784381994528723,0.06795480968815781,-0.0133405166707532,0.21727440745196347,0.228043841570866
2.680925142999254,0.02965328042017351,-0.02284307838194799,0.08813872330143013,0.09575780811425942
2.6834120865456352,-0.008648176493046833,-0.027557526705662472,-0.017057520207581334,0.0335435124937779
2.685899030092017,-0.03258435144481142,-0.013118652115663654,-0.083949109927417,0.0910016046562715
2.688385973638398,-0.06130885807058706,-0.01783368160034904,-0.12690125257318385,0.14205894615259193
2.69087291718478,-0.0900332934042749,-0.01297219565496599,-0.1411255415200383,0.16790083457402774
2.6933598607311615,-0.10918085115944909,0.0014658053121228143,-0.12662197340504022,0.1671996740251055
2.6958468042775428,-0.12353993501058613,0.0015383042997174634,-0.09775575476809806,0.15754576958083927
2.6983337478239244,-0.13311054531183308,-0.007966295762802833,-0.0449500754897727,0.1407209594478743
2.7008206913703057,-0.13310427909697387,-0.0031059786561318248,0.03179506796620224,0.13688434009890568
2.7033076349166874,-0.11873273339974966,0.011330851925812624,0.12290287255259891,0.17126285723302961
2.7057945784630686,-0.10436111853508667,0.0018253723758738793,0.22837334191969383,0.2510955163792743
2.7082815220094503,-0.08998943485692668,-0.012468804381081,0.32426446317263036,0.3367506667331141
2.710768465555832,-0.06604087607850229,-0.0028212587709739445,0.42015304671498654,0.4253209840557535
2.713255409102213,-0.042092249194238596,-0.0027508143752439373,0.48730867644365716,0.48913093396270274
2.715742352648595,-0.008566747917200246,0.00210773843631884,0.5305197595533517,0.5305931087073587
2.718229296194976,0.029747224078685464,0.0021775927008587104,0.5785167198955321,0.579285106358729
2.720716239741358,0.044119246518031896,-0.002541251895383567,0.602569141532836,0.604187500865529
2.7232031832877395,0.058491335648999665,-0.0024719890170969983,0.5978886251840709,0.600747996417968
2.7256901268341207,0.0776518944385986,-0.0024030222814896973,0.5836287882238995,0.5887768284075775
2.7281770703805024,0.07765890593210506,0.007242454663558107,0.5597896347996905,0.5651971284864211
2.7306640139268836,0.06808917641709805,0.012099231576968794,0.5072175558312271,0.5119103205575325
2.7331509574732653,0.06330791550159964,0.012167308186943337,0.4307009588931425,0.43549885366685664
2.7356379010196465,0.0441615095515957,0.021811894190927106,0.3637586715350132,0.36707815076763894
2.7381248445660282,0.025015168175398173,0.031456182693091694,0.2968138914762495,0.2995225137476971
2.74061178811241,0.010657294340860546,0.03631177012617792,0.22507821980900466,0.2282374369045419
2.743098731658791,-0.013277322265267566,0.03159025293116269,0.18207048423992767,0.18526708449736112
2.745585675205173,-0.037211875354495216,0.031656840838476974,0.15342547932431927,0.1610163250890054
2.748072618751554,-0.05635796195847165,0.04608834026641828,0.12956640298921407,0.1486196749027164
2.7505595622979357,-0.07550398574928596,0.055731137719556845,0.10091645321274711,0.13780762716404765
2.7530465058443174,-0.08507314043791481,0.060585232991845483,0.09141765126600632,0.13879912335327815
2.7555334493906987,-0.08027702305543549,0.055862222565013386,0.10107000186899917,0.14064186296528322
2.7580203929370803,-0.07548084391398291,0.060715719530426426,0.1155082998309318,0.15075119809108284
2.7605073364834616,-0.07547300668485968,0.06556891706561752,0.1443093566123963,0.1755581044244169
2.7629942800298433,-0.07546510839852882,0.0656334116764472,0.192261580403164,0.2167192714389147
2.7654812235762245,-0.06588034276492116,0.060909203197076156,0.23063455620005513,0.24747211784466264
2.767968167122606,-0.04671871013436624,0.04660788814931216,0.26900509561120245,0.2769813614291581
2.770455110668988,-0.027557017497586545,0.04667148298477164,0.3073732036527055,0.3121152076735251
2.772942054215369,-0.01797207184506544,0.041946374280162235,0.34095048206856937,0.3439908791006609
2.775428997761751,-0.003598663565479332,0.03243256190131927,0.3745253392913348,0.37594421291227487
2.777915941308132,0.005986400351183974,0.022918449042243605,0.39852097384019913,0.3992243215113619
2.7804028848545137,0.005994716235506015,0.027769245545380183,0.412937390922254,0.41391346492060666
2.7828898284008954,0.010791493699581267,0.03261974133909673,0.4081977891509254,0.4096412319689035
2.7853767719472766,0.01079992575421046,0.03268153300015397,0.3986673837878474,0.4001504765607351
2.7878637154936583,0.0012316087307813195,0.02316621711305178,0.3939229868206535,0.39460551189903514
2.7903506590400395,0.006028558882836765,0.02322740687156255,0.37002258704080404,0.3707999067860594
2.792837602586421,-0.0035396440592317946,0.018499892234956405,0.3509082064885636,0.351413352725521
2.7953245461328025,-0.017896193802240723,0.01856047977172315,0.32221464068706496,0.32324455112972633
2.797811489679184,-0.02746428405270951,0.018620766097041663,0.2839418951654249,0.2858741325456044
2.800298433225566,-0.0322439151574796,0.018680751154002362,0.2648203954193633,0.2674293969600733
2.802785376771947,-0.04181189410370911,0.02352883821358054,0.2600617437468351,0.2644502812947363
2.8052723203183287,-0.06095662455792983,0.023588220593355747,0.23135871924770335,0.24041416597237952
2.80775926386471,-0.06573609026447924,0.02364730157936279,0.2265953608312561,0.23711998225685713
2.8102462074110917,-0.056150291568934696,0.018917677824498824,0.2361948676064891,0.24351334513984
2.8127331509574733,-0.06571805205872472,0.02855296259068041,0.23621522876462286,0.24684361109702874
2.8152200945038546,-0.07049735547719904,0.03818794590506469,0.23623325678188678,0.24946813013189395
2.8177070380502363,-0.07527660548924064,0.028669014481904842,0.2362489575364144,0.24960378535268446
2.8201939815966175,-0.05611378583750826,0.03351499156626181,0.255415950229791,0.26364620090661545
2.822680925142999,-0.04652772010806738,0.04793747384803515,0.2841574341835784,0.2919045692331321
2.825167868689381,-0.0465184086444288,0.05757125138383001,0.30810820544063766,0.31687391433906387
2.827654812235762,-0.036932238508505466,0.04805111423753905,0.32726827004598746,0.3328324208961794
2.8301417557821438,-0.017769210043086514,0.03853067572249591,0.341637634085604,0.34426244468544126
2.832628699328525,0.0013938697687914114,0.048163549159265795,0.3560047070064023,0.359250639180035
2.8351156428749067,0.006191790624135718,0.04821931467250229,0.365581091654974,0.36879936978560773
2.837602586421288,0.006201358821909919,0.04348637563621294,0.3655783909179249,0.36820793259156026
2.8400895299676696,0.006210977341147228,0.0531183453924875,0.3751502243230984,0.37894303749566227
2.8425764735140513,0.006220645840959826,0.04838480408740553,0.3799313881955122,0.383050447640287
2.8450634170604325,0.01580717062147241,0.043650961756950935,0.36555667889925125,0.3684928202736295
2.847550360606814,0.01102853474103177,0.04849362512384792,0.35596811939963224,0.35942532226471924
2.8500373041531954,0.011038351141193725,0.03897077767566781,0.28891647293478684,0.2917418294342449
2.852524247699577,-0.0033169937985755293,0.029447629469479875,0.28890023227316064,0.2904160972410409
2.855011191245959,-0.012883887135895944,0.019924180608384745,0.2840933540881885,0.2850824465969851
2.85749813479234,-0.008085522568599735,0.0056120278821243375,0.269707441575175,0.2698869662899332
2.8599850783387217,-0.017652320356592366,0.005664784688899527,0.26010771124786203,0.26076755099157667
2.862472021885103,-0.022430667556232353,0.000928837871306154,0.2648709763365549,0.26582067581790775
2.8649589654314846,-0.031997371145322306,-0.008595812439954553,0.26963203350656784,0.271659995664804
2.867445908977866,-0.04156402814029325,-0.013332359466729837,0.27439088942041145,0.27784110646396737
2.8699328525242476,-0.04155383223682563,-0.008492399744386425,0.2791475507765355,0.2823511943157372
2.8724197960706292,-0.036755187091094155,-0.013229546403078718,0.27911362098871706,0.28183395483434165
2.8749067396170105,-0.0319564963588308,-0.02275539596466336,0.2982311234279269,0.30080031364033505
2.877393683163392,-0.017580953734374405,-0.02749314162397587,0.3029812416564308,0.30473364692176463
2.8798806267097734,-0.01757057615380031,-0.037019589850418644,0.28857557919306487,0.2914704789265674
2.882367570256155,-0.027136960630849694,-0.03696953050518026,0.2885329661535625,0.29215481063201165
2.8848545138025368,-0.027126494217860952,-0.03691977004439062,0.28369979616431173,0.2873751736882544
2.887341457348918,-0.012750773927653891,-0.04165871159727086,0.27886447948704074,0.28224710522390994
2.8898284008952997,-0.0031634133741272885,-0.03682114500523426,0.288392233057575,0.2907505528655221
2.892315344441681,-0.007941219530084975,-0.027195473384403535,0.2979178539230549,0.29926193280526925
2.8948022879880626,-0.00314217612567369,-0.017570099844400833,0.29307613916347464,0.2936191496246716
2.897289231534444,-0.003131493453052414,-0.01273342748836992,0.2930207091335877,0.2933139655863639
2.8997761750808255,-0.0031207685226490867,-0.007897052772386726,0.28338636097821457,0.2835135485777298
2.902263118627207,-0.01268680830533453,-0.00784937878673242,0.2833267151163188,0.2837192192131467
2.9047500621735884,-0.012675999849623087,0.0017748046659455952,0.2880533753969523,0.28833761111129336
2.90723700571997,-0.017453553445714642,0.006610287867483855,0.28320113905989075,0.2838154463703359
2.9097239492663514,-0.017442662781749774,0.01623387770760809,0.29271202993844625,0.2936802985238017
2.912210892812733,-0.012643328185992564,0.025857171121413725,0.3022208453341815,0.3035883502384899
2.9146978363591147,-0.02220916326745359,0.030691765050254283,0.3021507858994017,0.3045165492950531
2.917184779905496,-0.03177495839244082,0.03552606308235129,0.30207866559779895,0.30581574411452295
2.9196717234518776,-0.03655231056738539,0.03557166217151586,0.3020044917822755,0.3062811251352743
2.922158666998259,-0.026964413477884253,0.035616965918362276,0.3115050784758875,0.3146920109753422
2.9246456105446406,-0.036530090691828554,0.04523878124996861,0.32579202976998367,0.3309402385878479
2.927132554091022,-0.04130732593284492,0.05486030181828827,0.3448653531051633,0.35163626045057544
2.9296194976374035,-0.04129611952558854,0.05011631796104288,0.35914824931002265,0.36497188904941463
2.932106441183785,-0.05086168175513128,0.054948846584522926,0.363852322561808,0.3714765121048055
2.9345933847301664,-0.041273593023200106,0.06456948467917378,0.3589775803861226,0.36706624886068445
2.937080328276548,-0.03168546693411434,0.07418982924144357,0.3493124336566087,0.35850700953371895
2.9395672718229293,-0.02688570713071947,0.07902147727375297,0.31570327667279585,0.3265513650566859
2.942054215369311,-0.022085910614697224,0.08864123574540095,0.29166894028479184,0.30564002821784586
2.9445411589156927,-0.01249767438718774,0.09826070167066536,0.2819978354476742,0.29888816730522005
2.947028102462074,-0.012486208730036696,0.10309147206969893,0.2675363565415214,0.2869833777302435
2.9495150460084556,-0.012474707322980394,0.09834514396852256,0.2530729145742008,0.27179640497266366
2.952001989554837,-0.007674767165517848,0.09359852435990756,0.2529727272201665,0.2698421511376714
2.9544889331012185,-0.007663195217533114,0.09364001692211721,0.25765899557798555,0.27425414369225637
2.9569758766476,-0.017228395118043083,0.07452760541729919,0.26234332409190664,0.2732676366918908
2.9594628201939814,-0.017216753903944837,0.05541490349615108,0.2766025271921979,0.2826237537674201
2.961949763740363,-0.017205078533450213,0.04587871817445466,0.2717061927714006,0.2760889832988682
2.9644367072867444,-0.01719336932358395,0.031553839872095146,0.26680794194968804,0.26921689145891103
2.966923650833126,-0.021970029911118738,0.017228672295861003,0.28106139587143986,0.2824447160287759
2.9694105943795073,-0.031535060611945664,0.017268425798778964,0.29052454582212306,0.29274079029496025
2.971897537925889,-0.03152325178045523,0.012519487497276494,0.3047742063530201,0.3066557839469553
2.9743844814722706,-0.03151141037201721,0.002981857794590148,0.31902198207780863,0.32058834275187625
2.976871425018652,-0.026711133380499685,0.003020747060420881,0.31890267099258374,0.3200336281166059
2.9793583685650336,-0.031487631080437284,-0.0017290542519092789,0.32356989435838557,0.3251029638049468
2.981845312111415,-0.02668729050360208,0.0030976642382611885,0.32344685353684177,0.32456074017206676
2.9843322556577965,-0.026675321923371853,0.0031356929951562584,0.3137451532320732,0.31489272228314913
2.986819199204178,-0.03145172565160237,0.007961839089968503,0.30883001145133093,0.3105295121259611
2.9893061427505594,-0.02186288871832065,0.00799929631801799,0.3087014362625311,0.3095780214990119
2.991793086296941,-0.017062424715456603,0.008036468440910216,0.2989942257939653,0.29958848145465317
2.9942800298433223,-0.017050333953107843,0.01286175922556776,0.2892851947965305,0.29007251277354007
2.996766973389704,-0.02661502006109162,0.01768676580357864,0.30351636800279813,0.3051939819574641
2.9992539169360852,-0.007449256785817204,0.022511488632100285,0.30338052700175133,0.30430577173454104
3.001740860482467,0.0021397290018946302,0.017759121532898714,0.29845448660567087,0.2989900423306375
3.0042278040288486,-0.012213272966607347,0.013006471614180448,0.29831506164673627,0.2988481359247593
3.00671474757523,-0.021777843076569714,0.02261874930963792,0.2933854536954925,0.2950608525533503
3.0092016911216115,-0.026553981634511725,0.01786553517528855,0.29324247762307465,0.2949837995047608
3.0116886346679927,-0.012176478985412298,0.022688846295694454,0.2883093350384236,0.28945694508339204
