Time (s),Acceleration x (m/s^2),Acceleration y (m/s^2),Acceleration z (m/s^2),Absolute acceleration (m/s^2)
0.0,0.6698668780507582,-0.24011194746528197,-3.5735215021876856,3.643683755243143
0.002486943546381497,-0.06172991414248637,-0.20332338445398168,1.1275868889713685,1.1474332979071113
0.004973887092762994,-0.7789611602756034,-0.3915898981984043,5.804750838981874,5.869859916578053
0.007460830639144491,-1.419577626641797,-0.7857579486314252,10.079686581864589,10.20944159983887
0.009947774185525988,-1.902176466260403,-1.3427319790790846,13.60284077160805,13.800669604557559
0.012434717731907486,-2.21718088196264,-1.9954744162589697,16.158735355213487,16.431753938308322
0.014921661278288981,-2.3310720599851544,-2.662582476919231,17.59414152288801,17.946505462698102
0.01740860482467048,-2.2534268164541813,-3.2818069910791525,17.842021724644056,18.280752959505833
0.019895548371051976,-1.9938219675025248,-3.814840805347852,16.92631807361751,17.465067418636362
0.022382491917433474,-1.5905647491912185,-4.194646346399233,15.014624782589078,15.670478982936936
0.02486943546381497,-1.096327607548376,-4.406858477415688,12.284112871013345,13.096631814739201
0.02735637901019647,-0.5446293753267981,-4.427535254922416,8.993356214821345,10.03893149676376
0.029843322556577963,-0.007296111847503797,-4.266253558668631,5.42487070657468,6.901463239281429
0.032330266102959464,0.4629997368442315,-3.9421670750243862,1.8659606421820776,4.385984395993299
0.03481720964934096,0.8231625313384571,-3.4983715069399084,-1.3769160691417488,3.848648803804955
0.03730415319572246,1.0588270521420167,-2.9971161706236744,-4.08349277792518,5.174817227103656
0.03979109674210395,1.1556280797568803,-2.476708365657997,-6.052656447957413,6.641100109488136
0.04227804028848545,1.0896235880397391,-1.975455391598985,-7.164696899454694,7.511496870056313
0.04476498383486695,0.8943323906865865,-1.5651833712171164,-7.400460422343713,7.61685262252339
0.04725192738124844,0.5936964947485631,-1.2602575874097166,-6.759946919818436,6.902000222635699
0.04973887092762994,0.22123471391341443,-1.0798317263634138,-5.3389243614672415,5.451522236345527
0.05222581447401144,-0.1799573314942887,-1.0430594742322272,-3.300198363353213,3.4657851845466965
0.05471275802039294,-0.5811492311145056,-1.1451525005344085,-0.8257281548131266,1.5267402084036041
0.05719970156677443,-0.934456961309317,-1.3669572647914707,1.8498545982981707,2.482688867166103
0.059686645113155926,-1.2015733050845903,-1.679743419846905,4.51586024673063,4.965713456494737
0.062173588659537427,-1.3729214653710153,-2.0404154085442805,6.966387544555635,7.387744162492453
0.06466053220591893,-1.4245594351410742,-2.42503128696783,9.014688859124742,9.4432389334301
0.06714747575230041,-1.3708524339322685,-2.780918691237746,10.483593364426941,10.932450548415487
0.06963441929868192,-1.2309540846047102,-3.084135677352341,11.325217124094326,11.802020324614002
0.07212136284506342,-1.0144412033799768,-3.305951897944275,11.491676201751483,12.000709597042077
0.07460830639144492,-0.7356790098018307,-3.4224254089196027,10.982970694216494,11.527352885858047
0.0770952499378264,-0.42818633669694295,-3.4383446860577545,9.89008036138161,10.479467890769156
0.0795821934842079,-0.1254820168934227,-3.348921398447457,8.337503786367328,8.98582159055211
0.0820691370305894,0.12454990681845016,-3.1780976350476635,6.459316358918721,7.199901741119739
0.0845560805769709,0.3266978281708218,-2.925873468162542,4.42311229200484,5.313321877160591
0.0870430241233524,0.4665965276137906,-2.6305561966039614,2.391697395254088,3.585771137919699
0.0895299676697339,0.5155155756359338,-2.3256647158071195,0.5278774782723836,2.439903135606139
0.0920169112161154,0.4686665593270188,-2.0303527111883417,-1.02948366596058,2.324180951247323
0.09450385476249688,0.35956829233917126,-1.778139078065431,-2.1750410677338925,2.8322908720906614
0.09699079830887838,0.19779757172300494,-1.5881775017341737,-2.8321801772875808,3.2531025518748757
0.09947774185525989,-0.011857208790897078,-1.4891984740683895,-2.9865356880566667,3.337251579459367
0.10196468540164137,-0.22630042890896285,-1.4716252603152369,-2.6524727134311954,3.0417929394387313
0.10445162894802287,-0.43595529157910407,-1.525881125656169,-1.868298383438023,2.4513076256248802
0.10693857249440437,-0.6216681931076838,-1.6519661418460116,-0.7297806679851471,1.9099851568774604
0.10942551604078588,-0.773862336440556,-1.8355151706098516,0.6625240596596189,2.0992658209307393
0.11191245958716736,-0.8685957145612883,-2.0334326536805647,2.188905812905573,3.111368755094842
0.11439940313354886,-0.8962915304128231,-2.245718662601966,3.705712588516744,4.424804697129579
0.11688634667993036,-0.8761034068581972,-2.453219655563197,5.107599609773736,5.733534479857165
0.11937329022631185,-0.7936661435162713,-2.6319936873581464,6.270068486627967,6.846243900465586
0.12186023377269335,-0.6681333632458847,-2.7580988127042323,7.1260816688245265,7.670368387664292
0.12434717731907485,-0.513870285583146,-2.826746699522123,7.613390009376609,8.13746072239615
0.12683412086545634,-0.35003053338184453,-2.8427258222935907,7.731993604407187,8.245443382476651
0.12932106441183785,-0.1909793261726035,-2.791671042138123,7.477104146662513,7.983544747201937
0.13180800795821934,-0.05108188348299633,-2.6783708333739114,6.867875345431932,7.371837724765786
0.13429495150460083,0.05050817184237076,-2.541132493477274,5.990498556428564,6.50737876409554
0.13678189505098234,0.12336763688425272,-2.389532899917075,4.91679992534188,5.468090028470492
0.13926883859736383,0.14355448548491268,-2.1996301068329394,3.7569128243591408,4.355843714715084
0.14175578214374532,0.13022232137333908,-2.0001546047993473,2.6161822222803712,3.295752678260272
0.14424272569012683,0.07379432836076809,-1.8581441108632175,1.528127038032018,2.406931113264022
0.14672966923650832,-0.016152696455978555,-1.7400798722533568,0.6028806435945073,1.84163078325841
0.14921661278288983,-0.12525355265521965,-1.645961959347713,-0.08773081568732,1.653050489275412
0.15170355632927132,-0.2535082497714526,-1.628462878953148,-0.5149768244265918,1.7266612031684319
0.1541904998756528,-0.3673979740920169,-1.6588522813352102,-0.6309732540324084,1.8124291461908784
0.15667744342203432,-0.47649954178188825,-1.708399816661971,-0.44050841251658746,1.8274926561786478
0.1591643869684158,-0.552082542438143,-1.805835974846297,0.003745358824563283,1.8883465596724465
0.1616513305147973,-0.5989353888944501,-1.932007212497525,0.6682693318926125,2.130248663691824
0.1641382740611788,-0.6170580906583499,-2.0725483894434205,1.4620839386599123,2.6103461374918706
0.1666252176075603,-0.6016622539110497,-2.2083059620881054,2.3133632242925692,3.2542682891065557
0.1691121611539418,-0.5575362914681501,-2.32491479005123,3.1838000571093366,3.9815396897371786
0.1715991047003233,-0.4798918094981863,-2.403221329525897,3.991991675454579,4.6842039285678325
0.1740860482467048,-0.39745923740523154,-2.4432256498787783,4.675688930860291,5.290500203174911
0.1765729917930863,-0.3150269879849339,-2.440139417047115,5.1774310780831545,5.732304505701628
0.1790599353394678,-0.21344145742433093,-2.3987511034982236,5.454122581743064,5.962131938238284
0.18154687888584928,-0.13579828506722005,-2.3286375849077428,5.524917149524374,5.997141292747795
0.1840338224322308,-0.07730907704681614,-2.244164140158226,5.370661262447188,5.821189893597078
0.18652076597861228,-0.03318543948863531,-2.1309656280955185,5.015297031310729,5.449341253196829
0.18900770952499377,-0.017792591791549267,-2.0177725373320317,4.501920180089755,4.93345800596634
0.19149465307137528,-0.031130543385392895,-1.9189501464015866,3.8927800459325255,4.340169957630297
0.19398159661775677,-0.07319930369169048,-1.8249217171173835,3.230972352596388,3.711452512818916
0.19646854016413826,-0.11526846220158346,-1.7644177377346533,2.550016017086313,3.1030691998419457
0.19895548371051977,-0.17170323828030487,-1.7326498731445805,1.926525586176428,2.5967399598604985
0.20144242725690126,-0.242503641323225,-1.710464578154165,1.4083851866033195,2.228911376214585
0.20392937080328274,-0.3037276641150305,-1.7218039373285765,1.0051717184234104,2.0167373344258874
0.20641631434966426,-0.36495212267326027,-1.761879615185098,0.7456156948547861,1.9476530991586496
0.20890325789604575,-0.411811816404358,-1.8115380661526763,0.6632360323142636,1.9725975696554028
0.21139020144242726,-0.42994154470503076,-1.8755677611330603,0.7388792105716933,2.06120029261595
0.21387714498880875,-0.43849493020423247,-1.9348151542963055,0.9725453225526879,2.2094415334035347
0.21636408853519024,-0.4278951755989017,-1.9988571196028504,1.3355040411335564,2.441740180644099
0.21885103208157175,-0.40293069353656974,-2.0581169175990444,1.7846598291003213,2.753762715977112
0.22133797562795324,-0.36838989665422595,-2.098229405376727,2.2960707623889194,3.1321268651575593
0.22382491917433472,-0.3194843909374876,-2.133559859814079,2.807487690239583,3.540640490406977
0.22631186272071624,-0.265790992321966,-2.144954734410217,3.266238268398004,3.9166041528620035
0.22879880626709773,-0.22167492005244058,-2.118048885846359,3.6627457823555902,4.2368593933689755
0.2312857498134792,-0.18713618340140903,-2.086361203867318,3.9539146942225845,4.474523933708479
0.23377269335986073,-0.15259798498920166,-2.0307381415536065,4.111014675929272,4.587769088597335
0.23625963690624222,-0.12284873738534782,-1.9703333784060653,4.1292574158647,4.576906405074485
0.2387465804526237,-0.11704206310837492,-1.9147237871414275,4.032585022195104,4.465602757390559
0.24123352399900522,-0.13038956806311428,-1.8495442237300743,3.8353627962995125,4.260026179993661
0.2437204675453867,-0.1485260515014406,-1.7987367705588055,3.5519560394085294,3.9842070307183657
0.24620741109176822,-0.1810283292642653,-1.7670898965857873,3.1967300526023923,3.6571110166117564
0.2486943546381497,-0.22310800721883758,-1.7450268606595851,2.8079921534107495,3.313565430306899
0.2511812981845312,-0.2508230779382421,-1.7325477281194388,2.4144728525685446,2.9823334827662595
0.2536682417309127,-0.28811556718557585,-1.729652564153358,2.0592678706157646,2.704679784315943
0.2561551852772942,-0.31583187082781783,-1.7554950470781066,1.74716570137213,2.496818098900585
0.2586421288236757,-0.33876040132001173,-1.7861332251738702,1.5116852584196359,2.3643652061590967
0.26112907237005717,-0.352112764462886,-1.8167787598470646,1.3719802452179053,2.3036923089677837
0.2636160159164387,-0.3558889693635977,-1.8426433123478305,1.3184739451414291,2.2935485342742745
0.2661029594628202,-0.3453006217949188,-1.868515350409416,1.36553165800116,2.3399271020976227
0.26858990300920166,-0.32992453747629336,-1.8943949382859948,1.4939998601989801,2.435080689609097
0.2710768465555832,-0.3097607254720871,-1.915493736751428,1.6895134312883515,2.5728434847620796
0.2735637901019647,-0.27523238819139406,-1.9270234064183622,1.9377072506522657,2.7466127258177715
0.27605073364834615,-0.2407047446300388,-1.9146188010963718,2.2050625842201494,2.9301885481870897
0.27853767719472766,-0.22054301376882582,-1.897433597673556,2.4772143110285914,3.1281758616272692
0.2810246207411092,-0.1955935913311622,-1.870679456271584,2.739797309938327,3.3232796723465303
0.28351156428749064,-0.17064488962661986,-1.8295680368460498,2.964081249671537,3.487436957775548
0.28599850783387215,-0.1600621275898164,-1.788464612466528,3.1261242020912823,3.6051183172864776
0.28848545138025367,-0.15426850753803692,-1.7473692460731942,3.2307146588013707,3.6762229612925372
0.2909723949266352,-0.15805244173355135,-1.7062820004365755,3.258699094621133,3.681779274839323
0.29345933847301664,-0.16662553578186765,-1.6795681481173115,3.200500790825876,3.618275631488274
0.29594628201939815,-0.1847762019127975,-1.657650944902481,3.084850255067014,3.50688608256904
0.29843322556577967,-0.20292764237871114,-1.6357420497263129,2.9165359782063094,3.3500766847127625
0.30092016911216113,-0.22107986605591753,-1.623418331309653,2.719500064196933,3.1749085002208557
0.30340711265854264,-0.24402128512417,-1.6158914482369395,2.512896213480211,2.9975488219213555
0.30589405620492416,-0.26217510178523523,-1.6227382688769234,2.291936109702668,2.820458545030005
0.3083809997513056,-0.26596451822365125,-1.6248052414987222,2.0709850495971347,2.6456961793468476
0.31086794329768713,-0.2649663498877969,-1.6364576374347477,1.8739851363404245,2.5020034086539966
0.31335488684406865,-0.2783342188490868,-1.652907114556141,1.71530166627044,2.3982976614763203
0.3158418303904501,-0.2773377139580465,-1.6502117172716533,1.6188767421657007,2.328277652198974
0.3183287739368316,-0.26197684396913185,-1.6523135230109056,1.5703452400405862,2.2945056151639425
0.32081571748321314,-0.2466168275796156,-1.6687893990592193,1.5936492622686735,2.32064557595238
0.3233026610295946,-0.22168086686691413,-1.6709089859549495,1.669635281135756,2.3725010470162364
0.3257896045759761,-0.20632258381184423,-1.6586723439727722,1.7743613654007282,2.437646653696483
0.3282765481223576,-0.19575358377501606,-1.6464447431616542,1.912616003536126,2.5312447007012007
0.3307634916687391,-0.1851854720982192,-1.634226243421899,2.0652456672030555,2.640119076796743
0.3332504352151206,-0.18419506406518776,-1.6220169044650126,2.2274620378120913,2.76160348165522
0.3357373787615021,-0.1688403516983029,-1.6050283824923217,2.375323183279458,2.871721330141973
0.3382243223078836,-0.15827495688342105,-1.5784723335142314,2.484887171306708,2.9480994087328476
0.3407112658542651,-0.16686409816657882,-1.5519256233101055,2.580096102582229,3.0154954263111415
0.3431982094006466,-0.18024257415225908,-1.534965117466283,2.6370080443734185,3.056536720451013
0.34568515294702806,-0.18404518342509782,-1.5228024714141037,2.6604114836501056,3.0709264495953392
0.3481720964934096,-0.183060337830965,-1.5058609370694978,2.63594129387985,3.041268609291128
0.3506590400397911,-0.19165325583617174,-1.4937173794335243,2.573174364909205,2.9814675735818845
0.3531459835861726,-0.20982394592574102,-1.4863718566694746,2.462533973079336,2.883990456494752
0.35563292713255407,-0.21363039996261565,-1.4790360234221707,2.3279622177479515,2.766332155333234
0.3581198706789356,-0.20786102971093273,-1.4812867440982114,2.1934011980455406,2.654887086393917
0.3606068142253171,-0.2212462635155434,-1.4883356729430992,2.0444857863113564,2.5385064732837974
0.36309375777169856,-0.22026728653622574,-1.495394464001182,1.9051580812169355,2.4319435838254164
0.36558070131808007,-0.20492410715377293,-1.4976747711146787,1.784994971241094,2.3390661933947423
0.3680676448644616,-0.20873555696982693,-1.4951766512430003,1.7079385545903447,2.279512635942581
0.37055458841084304,-0.20297122440047213,-1.4879001611414764,1.6596237026739438,2.2381677868150613
0.37304153195722456,-0.19720792440263302,-1.4854221640010126,1.6352620933055393,2.217983788163173
0.3755284755036061,-0.19144566527079168,-1.492531119486197,1.6492190173423156,2.232537559045592
0.37801541904998753,-0.19047285859776503,-1.4804966638124837,1.6727641355194827,2.241938923008952
0.38050236259636905,-0.17992430267298593,-1.4684724661905504,1.7298395448550385,2.2762093466103694
0.38298930614275056,-0.17416521568546828,-1.4612469856613073,1.8156569222030345,2.337132074702416
0.385476249689132,-0.17319560584083948,-1.4492434710949667,1.9014859275724545,2.3970715652958803
0.38796319323551354,-0.16743867468149715,-1.4276735744713696,2.0016918506101318,2.464357484177563
0.39045013678189505,-0.16647123700832916,-1.4156909641603264,2.101909560794657,2.539668754092995
0.3929370803282765,-0.1750817042789961,-1.40371888839727,2.168620314075585,2.589207289391445
0.395424023874658,-0.17890487464684252,-1.3869689985245355,2.2018241893954764,2.608394087949059
0.39791096742103954,-0.1875175628435553,-1.379806558951413,2.2398284920087974,2.6373965667139494
0.400397910967421,-0.19134297029620012,-1.367866413950133,2.234749267152427,2.6271229407343846
0.4028848545138025,-0.19516950836925906,-1.3463602142174893,2.191374996333323,2.5793218756060154
0.40537179806018403,-0.1989971850832301,-1.3440184334755303,2.148012984045921,2.541642226754767
0.4078587416065655,-0.19324920179416583,-1.3512643186660096,2.0615676780832715,2.4725132566301133
0.410345685152947,-0.20186758307633784,-1.334579099910461,1.9703463824263014,2.3883292825226823
0.4128326286993285,-0.20569872359708952,-1.3370584602359141,1.898291190836244,2.3309969404064845
0.41531957224571003,-0.20474263128075237,-1.349125645925613,1.8118833569704709,2.268255023762661
0.4178065157920915,-0.1942109107069384,-1.342050289760368,1.7350649740686883,2.202105202374193
0.420293459338473,-0.18368037639164364,-1.3301976541817893,1.677412925146915,2.1486922537469253
0.4227804028848545,-0.1827278428261691,-1.3231445980883443,1.629350479675887,2.106865937266611
0.425267346431236,-0.17698810787541497,-1.335256383475162,1.595666116821949,2.088153432177369
0.4277542899776175,-0.1664611793402369,-1.3330142389097976,1.5859367188051223,2.078420448662389
0.430241233523999,-0.1607238716369946,-1.3212066192970529,1.5953739576166033,2.077651837635362
0.43272817707038047,-0.15977619251616004,-1.3094103826359973,1.6144011016580855,2.08479612885403
0.435215120616762,-0.15882974638249164,-1.3072023866988736,1.6525950323421128,2.1130724807845533
0.4377020641631435,-0.16267294425583295,-1.2906406657881275,1.6908022108876528,2.1333138379810546
0.44018900770952496,-0.16172898716941303,-1.2645136738997063,1.7385995181626432,2.155894102530445
0.4426759512559065,-0.16557468941189651,-1.2575518814019735,1.7864102214796187,2.1909160621982644
0.445162894802288,-0.16463325196474937,-1.2506017252302741,1.8390227978366793,2.230047899432762
0.44764983834866945,-0.1636930857442903,-1.2436632553705564,1.8868605139944057,2.2657749928778474
0.45013678189505096,-0.15796579499999575,-1.2367365215773836,1.9011930231543426,2.273544661422787
0.4526237254414325,-0.17139340387686391,-1.2298215733732016,1.9059624147624943,2.2747592241188763
0.45511066898781394,-0.18482230661059967,-1.2372836700085488,1.901168761383139,2.2758455185600326
0.45759761253419545,-0.18867570405091605,-1.2303924406175852,1.8676585220179742,2.244462615882557
0.46008455608057697,-0.19253041030203222,-1.2235131439830078,1.838950591909632,2.217158463411003
0.4625714996269584,-0.19638643280066787,-1.2214342320119047,1.795891429493646,2.1807556581715923
0.46505844317333994,-0.1906669723159155,-1.2145789464147474,1.738481106202002,2.129289193141085
0.46754538671972146,-0.184948842870988,-1.2125241419468895,1.6762964998213672,2.0771111729025784
0.4700323302661029,-0.1888088584618408,-1.205693059845383,1.6237028911716642,2.031195613029973
0.47251927381248443,-0.1783050098148607,-1.1988741510704912,1.575911947503375,1.9881122636596629
0.47500621735886595,-0.1630141108711159,-1.1920674630237706,1.5329237390980035,1.948705628521977
0.4774931609052474,-0.1573013788643558,-1.1804846395474105,1.4995267392669867,1.9149068253512203
0.4799801044516289,-0.16595522435995202,-1.1784909375251398,1.4900862276709006,1.9070235950862642
0.48246704799801043,-0.1602452346532135,-1.1717211936784615,1.4854486604355852,1.898727682879832
0.48495399154439195,-0.14974822357395412,-1.1601754544488236,1.490402509994813,1.8946586123541962
0.4874409350907734,-0.15361781156449517,-1.153430572676673,1.5049478451673624,1.9023323933237823
0.4899278786371549,-0.14791198915611214,-1.151486594319587,1.533873137796573,1.9236855606589514
0.49241482218353644,-0.14699597341422677,-1.1447667584516572,1.5388712295461966,1.9235964775859136
0.4949017657299179,-0.1460813680945407,-1.1284827072238146,1.5390958016259235,1.9140608331999551
0.4973887092762994,-0.14995658356479397,-1.1265765024647902,1.54891213162629,1.9211429890456675
0.4998756528226809,-0.1490448202030873,-1.1198945758758363,1.558743480236437,1.9251128425848416
0.5023625963690624,-0.14813448831964282,-1.1132253755145127,1.5685899144852726,1.9291679250765252
0.5048495399154439,-0.147225594875441,-1.10178054255192,1.5784515010998703,1.9305711282045177
0.5073364834618254,-0.1463181468024205,-1.0951369278736873,1.5883283065044704,1.9348180018078371
0.5098234270082069,-0.14541215100336685,-1.1028713821184701,1.5886435901788918,1.9393964101678154
0.5123103705545884,-0.13971921103148932,-1.0962535291148945,1.579397417938818,1.9276383119817702
0.5147973141009698,-0.14839294701218642,-1.0800718156856952,1.5558014519739025,1.899761498642832
0.5172842576473514,-0.1474913491585626,-1.0830567050065465,1.5322209674483833,1.8821441542625557
0.5197712011937329,-0.14180282757600826,-1.0812662234805246,1.503867625937664,1.8576497313249807
0.5222581447401143,-0.1361157923402178,-1.0699120105422693,1.470741492028937,1.8238200995719152
0.5247450882864959,-0.13521865349708417,-1.0729361252980847,1.4472078399608908,1.8066229671039553
0.5272320318328774,-0.13432301442196903,-1.0663965934004298,1.4236899270603125,1.783854639546744
0.5297189753792588,-0.12864047846022403,-1.0598702634927237,1.3953994136630605,1.7569897187478998
0.5322059189256404,-0.12774785888802564,-1.0533571773260308,1.3767015730741257,1.7381565176299603
0.5346928624720219,-0.1268567589903985,-1.0372805697585714,1.358019661683926,1.7135521641375087
0.5371798060184033,-0.12117878202205201,-1.0164288853567989,1.3489305488502676,1.6933474545472045
0.5396667495647849,-0.11550233784790531,-1.0099557783949273,1.3350690870146682,1.6780229234023636
0.5421536931111663,-0.11461583630236388,-1.0082844829716455,1.3355889515452564,1.6773706316799653
0.5446406366575478,-0.12330768718922142,-0.9970498296112162,1.3409133975718799,1.6755183938815692
0.5471275802039294,-0.11763588035968808,-0.9906170685052129,1.3414656799071434,1.6717327977672134
0.5496145237503108,-0.12154243883729404,-0.9841978363089456,1.356399472967471,1.6802492302334677
0.5521014672966923,-0.13023896569279508,-0.9682153661019557,1.3713496276082289,1.6837467103106396
0.5545884108430739,-0.11978345068470325,-0.9618233106297684,1.3719509943651236,1.6797921558538706
0.5570753543894553,-0.11890632006388163,-0.9602333057800325,1.3773572466955954,1.683240832295027
0.5595622979358368,-0.12281917680782722,-0.9490801805430404,1.3779916378139827,1.6777063787136965
0.5620492414822184,-0.11236841390183006,-0.9331523769331849,1.3690658239329299,1.6606448293599743
0.5645361850285998,-0.11628445750294536,-0.9220267400276234,1.3553682675829535,1.6433741281745728
0.5670231285749813,-0.12977891049459273,-0.9109149046846268,1.3368990276507482,1.622931772847917
0.5695100721213628,-0.11933295580677977,-0.904605312144755,1.299292952737824,1.5876754397975255
0.5719970156677443,-0.10410021286132815,-0.907886403389849,1.276068924323834,1.5695370258145924
0.5744839592141259,-0.10802270436866246,-0.9016046025410924,1.2720154036408537,1.5628764989857657
0.5769709027605073,-0.11673522644491091,-0.8761831401008364,1.2488252217117424,1.5299962230258901
0.5794578463068888,-0.1158725751743257,-0.8651408761944155,1.220863645755685,1.5008008631620098
0.5819447898532704,-0.11979996653106967,-0.8732662507651185,1.202495942664072,1.4909535434847618
0.5844317333996518,-0.11415219653538805,-0.8670404769332078,1.1745685557576184,1.464377412004486
0.5869186769460333,-0.1037176744566497,-0.8656172040815191,1.156235154590389,1.4480781169216193
0.5894056204924149,-0.09807321285233112,-0.8642080647301307,1.1858030216678923,1.4705790493613324
0.5918925640387963,-0.09721881760699941,-0.848447884496975,1.177080952837029,1.4542471869445108
0.5943795075851778,-0.10115449457285924,-0.8422787153006448,1.1875298432229595,1.459415223493966
0.5968664511315593,-0.11945705621030084,-0.8504889955163337,1.197996134494101,1.4740407925276768
0.5993533946779408,-0.12339608838469784,-0.8347715333739725,1.1989030746271379,1.4660964122153024
0.6018403382243223,-0.10818319353039652,-0.8190683800048015,1.1998275245470218,1.456764463853632
0.6043272817707038,-0.10254879729126493,-0.8177447796363979,1.2007695382045025,1.4563894617609399
0.6068142253170853,-0.10649290535655753,-0.8164355563111432,1.2065175725364519,1.4606821725959482
0.6093011688634667,-0.11043871674209477,-0.8199291470890753,1.1835528575824803,1.4440491276592753
0.6117881124098483,-0.10002102711050181,-0.8186487788054313,1.1606058662109202,1.4237963357120513
0.6142750559562298,-0.09439345533364002,-0.8125944846719473,1.1568302643135748,1.4168543260903383
0.6167619995026112,-0.09834441028941204,-0.8065547009562919,1.1434956842426676,1.4027774194616451
0.6192489430489928,-0.0975086875413817,-0.8148946703021323,1.1158137746149812,1.3851359671358605
0.6217358865953743,-0.1062515025418313,-0.8232492151663937,1.1168802169128966,1.3915638939681783
0.6242228301417557,-0.11978445742857113,-0.8124647544205912,1.1179646424760303,1.3871886083888259
0.6267097736881373,-0.11895394434518641,-0.8016949332334105,1.0855482789850974,1.3547250174315477
0.6291967172345188,-0.10854837200347317,-0.8005165898673705,1.0435731936254697,1.3197176100102441
0.6316836607809002,-0.1125097623630627,-0.8041413523582954,1.025558259883569,1.3080793193132576
0.6341706043272818,-0.11168450746729619,-0.807780848476046,1.0219267210229273,1.3074087163215509
0.6366575478736632,-0.11564941924785227,-0.7970698990836937,1.0231018199665325,1.3020877644062578
0.6391444914200447,-0.11482769632156115,-0.7911621480201463,1.0242952026166634,1.299347377111248
0.6416314349664263,-0.10921934391222105,-0.7804808189359034,1.0255069178544254,1.293345898195358
0.6441183785128077,-0.10840117385054004,-0.7698143451756896,1.0267370142190035,1.2878485302619267
0.6466053220591892,-0.11237319129282858,-0.7783163697782873,1.023197136586889,1.2904791691095967
0.6490922656055708,-0.11155859472094298,-0.7676796956716845,1.0148873328120924,1.2774089922593799
0.6515792091519522,-0.10595738922348108,-0.7570579653604197,1.0113844570460309,1.267778470869816
0.6540661526983337,-0.10514638649572788,-0.7560280144410529,1.0126885564558847,1.2681373086497747
0.6565530962447153,-0.10912559155835189,-0.7454362583207774,0.9996460645835548,1.2517491219847647
0.6590400397910967,0.3848873392348344,1.328942298993657,-1.182524466232838,1.8200522001297312
0.6615269833374782,-0.2846835512171367,1.2245822875523196,1.3135937581875243,1.818289048768016
0.6640139268838597,-0.9063722277935888,0.9574014773216009,3.680443850039678,3.909449467302012
0.6665008704302412,-1.4322946621755892,0.5561302606062011,5.779162158477806,5.979921748655284
0.6689878139766227,-1.8289320359709011,0.0782294499008005,7.513980662193026,7.733758312156075
0.6714747575230042,-2.0675539340733105,-0.4427821586332743,8.760400919608335,9.01196202736011
0.6739617010693857,-2.1577371679047688,-0.973385768566394,9.456173731964244,9.747950101908394
0.6764486446157671,-2.099481742212223,-1.4609089699192885,9.615664353279367,9.950029123535298
0.6789355881621487,-1.9071528716691302,-1.8670445624051506,9.238872827264203,9.61664487190222
0.6814225317085302,-1.5807505609535473,-2.153485345468625,8.383260037125478,8.798597633666864
0.6839094752549116,-1.163370444591831,-2.291500924926365,7.135017285644011,7.583724609103828
0.6863964188012932,-0.698108157075789,-2.285879729568531,5.56597066529158,6.057444228708544
0.6888833623476747,-0.2136941229017002,-2.150986994557171,3.7766766881134863,4.351516636238068
0.6913703058940561,0.2563528301484738,-1.8963995514652405,1.891633882407941,2.69078553166105
0.6938572494404377,0.6641486643665016,-1.5508478448781229,0.03055237280395673,1.6873517516590542
0.6963441929868192,1.0049049719616694,-1.1286971091514033,-1.6868577164185936,2.2647914081259164
0.6988311365332006,1.2498913285764428,-0.6969850148952199,-3.193558697852656,3.4995476280327185
0.7013180800795822,1.384742519849001,-0.27965360256798766,-4.3889940611986,4.610746886670705
0.7038050236259636,1.3998817347726469,0.08498987767986366,-5.206126119748831,5.391719700187421
0.7062919671723452,1.3096741789770814,0.38736859588872585,-5.635378026989546,5.798515878329272
0.7087789107187267,1.133273461447227,0.5987521090866372,-5.643230920155627,5.786956717028113
0.7112658542651081,0.8754679812419285,0.6904099745706254,-5.248838373355843,5.3659495328207525
0.7137527978114897,0.5554113474159219,0.6671305731487811,-4.495295977651114,4.578343684473073
0.7162397413578712,0.19704557237928022,0.5337022858981335,-3.473583357656471,3.519864547131775
0.7187266849042526,-0.14216850818083576,0.31406710744580213,-2.245949718415768,2.2722544246517833
0.7212136284506342,-0.4526540917453145,0.027378629367455165,-0.9273167018475572,1.032260423364786
0.7237005719970157,-0.7296227790802723,-0.29284434653143476,0.44879690622343915,0.9052766837182836
0.7261875155433971,-0.934767347674637,-0.6226598248173376,1.8153534963792524,2.1347139313117833
0.7286744590897787,-1.0680878015446884,-0.9381258097879543,3.0526430223267464,3.3674205274303124
0.7311614026361601,-1.1247957413512706,-1.2057234988316627,4.112781487225654,4.431016381944766
0.7336483461825416,-1.100102767720097,-1.4206645089901806,4.909577667321731,5.228046156846171
0.7361352897289232,-1.0035856912026302,-1.5446416337944535,5.419089581672724,5.723603227917857
0.7386222332753046,-0.8352445156745512,-1.577654893069473,5.612586845664097,5.889631521811202
0.7411091768216861,-0.6429632781794103,-1.5244927096921754,5.4996463008917935,5.743134095065567
0.7435961203680677,-0.4075883692411728,-1.3995203129118126,5.094633191919868,5.299063383769351
0.7460830639144491,-0.15785021255171838,-1.2027377217485362,4.455008392843093,4.617206352029534
0.7485700074608306,0.08230917155271689,-0.9532985682355979,3.6190791641225477,3.743432509890848
0.7510569510072121,0.28894776277113365,-0.6751448874586052,2.639517975828042,2.7397749129064053
0.7535438945535936,0.46685396075971497,-0.40658392419621325,1.6073045242394972,1.7224084712206282
0.7560308380999751,0.6016625519287047,-0.16198090635775264,0.5559576654406833,0.8350596183387717
0.7585177816463566,0.6694315160830457,0.05387574505570614,-0.4570617282354963,0.8123709583978068
0.7610047251927381,0.6845260596255176,0.2218323993496618,-1.3599275748476414,1.538567043888128
0.7634916687391196,0.6421577757129988,0.3131586194563587,-2.0999674060880613,2.2181744828756593
0.7659786122855011,0.5519034674986651,0.3374311951377664,-2.6340855606421325,2.712353957298444
0.7684655558318826,0.4281283414913743,0.2946501097823133,-2.957493604110164,3.00281217899745
0.770952499378264,0.27562079759473673,0.17523854040472342,-3.0270958758823863,3.044664975312405
0.7734394429246456,0.10395763906806216,0.02229210080992461,-2.8668343621857995,2.868805219719245
0.7759263864710271,-0.06770752415332076,-0.16897762813368322,-2.5150162595607046,2.5215956324302624
0.7784133300174085,-0.225009485418997,-0.3698402420490918,-1.9860067482981592,2.032642092807605
0.7809002735637901,-0.367948248004083,-0.565930546253985,-1.3181130256430418,1.480906899424289
0.7833872171101716,-0.48215860518734843,-0.7380949424796741,-0.5879495157549304,1.0596913219172552
0.785874160656553,-0.558063753532462,-0.8863334454728524,0.16138818009666345,1.0597491562843688
0.7883611042029346,-0.5860868895676756,-0.9914924564332925,0.9251116868526736,1.4772903460182216
0.790848047749316,-0.5758048230670734,-1.0344183762952959,1.6361833859380042,2.0195714010413823
0.7933349912956975,-0.5320059604490067,-1.0294764289700926,2.241930868386625,2.523708794291269
0.7958219348420791,-0.4546903047760953,-0.9766666281429268,2.7279889514432387,2.9330094945263703
0.7983088783884605,-0.3486462623958519,-0.8568353739529666,3.06083883871964,3.197570244881934
0.800795821934842,-0.22345064294068484,-0.713078309438842,3.2309037500776547,3.316195094907508
0.8032827654812236,-0.09825706264821277,-0.5693374640935658,3.228606905027691,3.279893618026846
0.805769709027605,0.022146072240294412,-0.4112476405835199,3.0443715227288735,3.07210238091176
0.8082566525739865,0.13775875883928707,-0.2388088512721369,2.7165048551923174,2.730458893916239
0.8107435961203681,0.22942738101736748,-0.0855399315013976,2.2833141540781465,2.296405349509392
0.8132305396667495,0.29236353263947146,0.019828686970411624,1.778318267375349,1.80230005052579
0.815717483213131,0.3265672109262376,0.09645060585125309,1.215882429440999,1.2626634329244517
0.8182044267595125,0.33682681645399865,0.14432581383069332,0.6151602776020102,0.7160338064364069
0.820691370305894,0.3087771365532108,0.1251470732983866,0.033612675397501235,0.3348655281759078
0.8231783138522755,0.26636018515219595,0.06285639007036181,-0.4904531272647503,0.5616430753163106
0.825665257398657,0.209575959613067,-0.018604229775324832,-0.9283066874675061,0.9518516198495252
0.8281522009450385,0.12884765069265586,-0.11923479650044166,-1.2512175626432267,1.2634730083592507
0.8306391444914201,0.048117272425309277,-0.23903532010531725,-1.454397327175423,1.4746947960369687
0.8331260880378015,-0.03740358104116609,-0.36364060036817536,-1.5522111690780998,1.5946764648422047
0.835613031584183,-0.11813810556274384,-0.47868543680642883,-1.5159286468315027,1.5940941069086563
0.8380999751305646,-0.1988747069210302,-0.5889582419581947,-1.3551265458271358,1.490902718163998
0.840586918676946,-0.25567137094047343,-0.6705170081794893,-1.0937468617660322,1.3081449100919968
0.8430738622233275,-0.288528100011839,-0.7089965342070879,-0.7605199940177609,1.079034388383836
0.845560805769709,-0.31659850977188697,-0.7283388450806827,-0.3841763422999467,0.8822151390824169
0.8480477493160905,-0.3063637792987182,-0.6998135290573031,0.025707306603225177,0.764368109179486
0.850534692862472,-0.27697752415865956,-0.6425742073381997,0.44518895559925475,0.8293439377079522
0.8530216364088535,-0.2428049565625353,-0.5757745008660664,0.8407498006077745,1.0475355602560301
0.855508579955235,-0.18948086876413417,-0.47547240044259764,1.1884478438420931,1.293980401993468
0.8579955235016165,-0.13137047290395643,-0.3656099298147337,1.473917893809622,1.5242581079404944
0.860482467047998,-0.07326217444675609,-0.26534070915161934,1.6875831619917427,1.7098859513943612
0.8629694105943795,-0.005579168861253259,-0.16987634176371857,1.815078456203505,1.8230191718109563
0.8654563541407609,0.04773652517674465,-0.08400523734533127,1.8276733739534023,1.8302255646765533
0.8679432976871425,0.09626171226866609,-0.02209261197500867,1.7588867555686232,1.7616574637731057
0.870430241233524,0.13999639041034356,0.011073125165332431,1.627872231070432,1.6339184814791339
0.8729171847799054,0.15978694435137936,0.005915161829096238,1.425053010213551,1.433995445823772
0.875404128326287,0.16999858211853786,-0.01841289405321156,1.1552175123693331,1.1678039447931825
0.8778910718726685,0.16584289849229192,-0.05712264425717173,0.851884576487107,0.8697552501272261
0.8803780154190499,0.14731989160835335,-0.10063728698362295,0.5150542179303628,0.5450796835351495
0.8828649589654315,0.11442955963733442,-0.15853363346061444,0.19261048492255384,0.27445552637744436
0.885351902511813,0.06238349746440536,-0.24517689798288478,-0.10586980121820844,0.27424774724760154
0.8878388460581944,0.02470052657207661,-0.3222598580685201,-0.38517502947718185,0.5028134201351715
0.890325789604576,-0.017772968045769166,-0.37541730758437586,-0.597421152658228,0.7058088033387964
0.8928127331509574,-0.05546018143859566,-0.4190144600668182,-0.7426081571099861,0.854468152991426
0.8952996766973389,-0.09793792190237027,-0.45305131883933747,-0.8207360295223278,0.9425788901756145
0.8977866202437205,-0.13084098109678494,-0.4727394836536081,-0.8365931602462577,0.9697886870397436
0.9002735637901019,-0.14938095728747675,-0.46371374736961535,-0.7806027300122427,0.920155276028052
0.9027605073364834,-0.1631346586663746,-0.4355509191982865,-0.6527647265313448,0.8015106413992319
0.905247450882865,-0.15773687678923548,-0.3930394047800667,-0.4818095577760282,0.6414837067092378
0.9077343944292464,-0.13797601645849183,-0.3409676095056864,-0.2773140187766021,0.4606510141742943
0.9102213379756279,-0.12300569240297626,-0.2793355351963078,-0.04885490490202038,0.30910442138528005
0.9127082815220094,-0.10324909939514365,-0.2129315867445989,0.19399098814061766,0.3059946742008007
0.9151952250683909,-0.07391783549330039,-0.1513325721152241,0.42249325102519464,0.4548251762478219
0.9176821686147724,-0.030223498721334674,-0.09453849238436796,0.6366518940102193,0.6443420058975413
0.9201691121611539,0.0038918930093841397,-0.04733775170114152,0.8077365070956066,0.8091318028988395
0.9226560557075354,0.02363993510307949,-0.014518753967761366,0.945323906507463,0.9457308966947124
0.9251429992539169,0.04817423959983341,0.003918500480269316,1.0302604882141875,1.0313936133127701
0.9276299428002984,0.07749480529274505,0.007974011553372407,1.0529694544895332,1.055847385655521
0.9301168863466799,0.08765961440756909,-0.01192902723323197,1.0278160238740135,1.0316163475929419
0.9326038298930613,0.08824547244642517,-0.055790615478781724,0.9643770112535286,0.9700117916897105
0.9350907734394429,0.07925237830493914,-0.09488033261621265,0.8626524245395952,0.8714656749111777
0.9375777169858244,0.06546873423313981,-0.13398658107674555,0.7178538679901614,0.733179878924102
0.9400646605322058,0.05168294251509675,-0.17310935972789743,0.5491349621319959,0.578089252285605
0.9425516040785874,0.023529792187629628,-0.22182547383492635,0.36128411719876574,0.42460146643950036
0.9450385476249689,0.009739702204321188,-0.2609813084988657,0.1638781464127934,0.30832150761259247
0.9475254911713503,-0.004052538330151123,-0.2905768618601674,-0.023929330694027584,0.29158866333052846
0.9500124347177319,-0.032212140277258494,-0.29624692185706225,-0.1877730982407364,0.3522195297168392
0.9524993782641133,-0.060373894542786744,-0.2875682927885732,-0.32765315063723577,0.4401103467110325
0.9549863218104948,-0.06459578535813237,-0.2836945853541333,-0.43399267598220703,0.5224986852150774
0.9574732653568764,-0.07839663676473818,-0.26068378013068694,-0.48763805606257904,0.5584737590968242
0.9599602089032578,-0.08741123956726032,-0.2281126806982381,-0.5173197061966448,0.5720977174551601
0.9624471524496394,-0.08206278785705917,-0.1859812837575867,-0.4895187988663068,0.5300490482045076
0.9649340959960209,-0.07671649229350297,-0.13907798909184255,-0.4186005400837072,0.4477214752477494
0.9674210395424023,-0.07616075686182805,-0.09697959956695357,-0.3428721527890133,0.36437181117109707
0.9699079830887839,-0.05645356559194609,-0.06447451449166408,-0.2336032137638835,0.2488261030675733
0.9723949266351654,-0.05111374232412147,-0.041562729618095595,-0.10515892999811349,0.12409059475251032
0.9748818701815468,-0.026622464380898714,-0.009090627181360666,0.01851868455326766,0.033679916713765023
0.9773688137279284,-0.006921748895284574,0.01378818425609607,0.15179484217366834,0.1525768617562254
0.9798557572743098,0.00320000031419726,0.007920096366421436,0.2707275282605899,0.27086225740503744
0.9823427008206913,0.018107992743450985,0.006823937579202521,0.3657399378496997,0.3662515087526384
0.9848296443670729,0.02822542131993766,-0.003865496645684363,0.4464088789357703,0.4473170057863852
0.9873165879134543,0.038340688965118774,-0.024148200654602547,0.5079459492311447,0.5099629705826723
0.9898035314598358,0.04845379531315103,-0.04923576524138662,0.535985939486725,0.5404191504625099
0.9922904750062174,0.0585647400311326,-0.06955137764792774,0.5257404467738116,0.5335449749379764
0.9947774185525988,0.04951990953780305,-0.09946024148666233,0.5011514877660783,0.513319953603375
0.9972643620989803,0.035684513526913986,-0.1293855435380613,0.4382770456152105,0.4583675076785978
0.9997513056453619,0.036212165045294675,-0.14017366371217754,0.3419055230765782,0.37129417394571496
1.0022382491917432,0.022372443969363776,-0.15097820825237518,0.2503441458302671,0.2932015296135849
1.0047251927381249,0.01331896341129879,-0.16179916989222276,0.158804509356683,0.22710182376233948
1.0072121362845063,-0.0005250834060099852,-0.1534829278561025,0.048132998859200526,0.16085418998286813
1.0096990798308878,-0.009582889945904616,-0.1356062810629659,-0.0720935808523766,0.15387780750830052
1.0121860233772693,-0.018642859600208395,-0.11295762488478056,-0.15877960204080033,0.19574969542228873
1.0146729669236507,-0.032493395728351915,-0.09032535446747847,-0.22629027712661198,0.24580842123018032
1.0171599104700322,-0.04155769169650142,-0.06770946141128142,-0.29856762548427973,0.3089566958184729
1.0196468540164139,-0.031470537518248964,-0.03553313045103401,-0.3420928269571277,0.345370091853445
1.0221337975627953,-0.021385546417173884,-0.01294996601933418,-0.35207748162225094,0.3529640155609768
1.0246207411091768,-0.02087952494410461,0.009616847596532807,-0.3476752064694377,0.3484343374484676
1.0271076846555582,-0.015587263016240138,0.032167319691482454,-0.3240976021973445,0.3260628083276896
1.0295946282019397,-0.010297163800033926,0.04033624982163131,-0.28613307645494146,0.2891456070452518
1.0320815717483214,-0.01937443707063491,0.048488857686460385,-0.2385700372001196,0.244217527588026
1.0345685152947028,-0.009300259368210384,0.056625153245339455,-0.16704327941775432,0.17662491331353034
1.0370554588410843,0.010348562916056125,0.05516834003717097,-0.08112961500167515,0.09865420886715642
1.0395424023874658,0.015630013461761183,0.048906831781281745,-0.019136276074295466,0.0547939100419844
1.0420293459338472,0.02569770586296649,0.023475429134560244,0.04287874810011694,0.05522730210959598
1.0445162894802287,0.0261864305031268,0.007604562854845565,0.10970385467088484,0.11304200214238515
1.0470032330266104,0.026672994398769356,0.006082647315856171,0.1621854238814162,0.16447662128144694
1.0494901765729918,0.031945801277543096,-0.005032322813774748,0.1907466423120745,0.19346870559730533
1.0519771201193733,0.02285123829690483,-0.020951932727478972,0.2001759062014088,0.20256247431415808
1.0544640636657547,0.028119725848725463,-0.027310960762662262,0.20005001480620876,0.2038543989801336
1.0569510072121362,0.03338605447328341,-0.03847460496391042,0.18079215380077507,0.18783164466176916
1.0594379507585177,0.014708208101377851,-0.04486604656024662,0.1567675251605145,0.16372339620363427
1.0619248943048993,0.0008166072183163897,-0.041696869887709376,0.10882250731900811,0.11654026731124803
1.0644118378512808,0.0012880590591530794,-0.04812067567129974,0.05611070497351811,0.07393016796834344
1.0668987813976623,0.006545757608612202,-0.04977224118194634,0.017785722523251835,0.053258378313826335
1.0693857249440437,-0.012140716398986118,-0.032286343479395185,-0.03488286913291283,0.04905730861853325
1.0718726684904252,-0.021252539034489426,-0.0100281793348036,-0.09710667615027013,0.09990966594447667
1.0743596120368066,-0.011212902939619407,0.012213861331054066,-0.16888570830002436,0.1696976430860148
1.0768465555831883,-0.010752227287979699,0.029651388806426926,-0.23106636236685318,0.23320908873209076
1.0793334991295698,-0.005505301339827295,0.023130803626941976,-0.278860245390252,0.2798720759175199
1.0818204426759512,-0.005048930926520312,0.03574774969986949,-0.30747896470281155,0.3095911934258113
1.0843073862223327,-0.004594711888101732,0.048348627975277836,-0.33128774121057347,0.3348287154364607
1.0867943297687142,0.005434163285998828,0.056145049570299754,-0.34070977950940495,0.3453475793678271
1.0892812733150956,0.015460888855322097,0.054348625807459694,-0.34053349444663716,0.3451896189797627
1.0917682168614773,0.030273869070486625,0.04774777485456427,-0.33554730115926645,0.3402768703090567
1.0942551604078588,0.03071949161060794,0.050707721723964205,-0.31617440511215733,0.3216849618108931
1.0967421039542402,0.035951370747279776,0.053651675029624535,-0.2872032220190537,0.2943750907094869
1.0992290475006217,0.03639270086011742,0.04221444026762944,-0.2390569579198445,0.24546836206096612
1.1017159910470031,0.04640869296011313,0.03554964637793612,-0.19088923906248922,0.1996402908476105
1.1042029345933846,0.05163413816611634,0.0288689058998699,-0.13791167537871374,0.15006374698033118
1.1066898781397663,0.04728063426725082,0.022172234893251375,-0.09448949036595522,0.10795985442048814
1.1091768216861477,0.057290199004078446,0.020248052937633876,-0.06541110116456217,0.08927912804935273
1.1116637652325292,0.05293241362320955,0.018307973170620162,-0.036311311916339406,0.06674978401972834
1.1141507087789106,0.04378408596314731,0.025928818888650618,-0.011978540326083476,0.05227652686371128
1.116637652325292,0.03942202389170951,0.04311060694468383,-0.00198960769980161,0.058451509284676705
1.1191245958716736,0.035057825345003624,0.06027654774743141,-0.015921335623481525,0.07152483662550163
1.1216115394180552,0.030691491608591692,0.0726382552215239,-0.0346201260403074,0.08612105959539901
1.1240984829644367,0.02632302399709091,0.08019574680674113,-0.058085994452881096,0.10246092986998745
1.1265854265108182,0.017164020533775026,0.09252584677755138,-0.09589576328169613,0.13435636694316302
1.1290723700571996,0.017579692552050108,0.10484016964076792,-0.14326104526264416,0.17839348040294237
1.131559313603581,0.013204831492242164,0.11235033009571582,-0.1906050500867309,0.2216466768664038
1.1340462571499625,0.008827842104633998,0.1294215563146972,-0.23313939103976544,0.2667992610363367
1.1365332006963442,0.009237129168127356,0.14168865673907938,-0.27565248832173417,0.3100730467514987
1.1390201442427257,0.014432694169841498,0.14915164996133212,-0.28941393916309543,0.32590634472051605
1.1415070877891071,0.010049328664398727,0.1470221514429806,-0.30315418090975044,0.3370741156253169
1.1439940313354886,0.005663840836336309,0.14487698679506567,-0.3072964246158669,0.3397830380956827
1.14648097488187,0.010853038898453293,0.14271617517579216,-0.31141749488669035,0.34273393650416434
1.1489679184282517,0.0160401178104706,0.1405397359303553,-0.31551740995571187,0.3457744044025071
1.1514548619746332,0.016436675880502294,0.13834768859014668,-0.3195961883243488,0.3486430421558553
1.1539418055210147,0.012042714764965767,0.1361400528719483,-0.3188654454406823,0.34692119172943575
1.1564287490673961,0.007646639468488425,0.138705251997449,-0.30853679701880843,0.33836751194738285
1.1589156926137776,0.012825258343817925,0.13167809609088588,-0.3077638756394592,0.33499583787015436
1.161402636160159,0.022790169810480432,0.12463541206103601,-0.3069698942255812,0.3320901891662554
1.1638895797065407,0.013599359034372593,0.12715402699885825,-0.2917896626429428,0.31858169497548744
1.1663765232529222,0.013983247732359039,0.1344455582157389,-0.28137681426165884,0.31216029687506097
1.1688634667993036,0.014365031086239433,0.1369332198833093,-0.26136615947083897,0.29541382862394133
1.171350410345685,0.0051679043051557905,0.1441938396341933,-0.23654612220106408,0.27707875875230753
1.1738373538920666,0.010333885867686188,0.14186222867837817,-0.2260703366030885,0.26709451176420035
1.176324297438448,0.025074574357687562,0.14909202164614266,-0.22515042048436662,0.2712008057547768
1.1788112409848297,0.030236358425138388,0.1658832400638075,-0.2194211852689847,0.27672575458335336
1.1812981845312112,0.03060764334854399,0.16829388903259357,-0.21367105591856905,0.2737060120903866
1.1837851280775926,0.03576523775359086,0.18026600703249107,-0.23184207093127185,0.2958474799228648
1.186272071623974,0.045709143652113204,0.18743440615580775,-0.23562702589549467,0.3045341980086078
1.1887590151703555,0.04128574980137251,0.18022230198915423,-0.23460274985605345,0.2987022623130823
1.191245958716737,0.041648671547710236,0.1682065235735526,-0.2431344754303737,0.2985672781086235
1.1937329022631187,0.04679791098270203,0.1705407067629796,-0.26601062884656734,0.3194304803786071
1.1962198458095001,0.04715666358368564,0.1680712610204127,-0.29365442662208174,0.3416205818976371
1.1987067893558816,0.052301738135536124,0.17516341922167777,-0.31648908552366706,0.36549013187914453
1.201193732902263,0.052656330168072585,0.17266359117024654,-0.329726225886656,0.37590529240758663
1.2036806764486445,0.048220441877830145,0.16057180011982863,-0.34294267825458213,0.381730526126797
1.206167619995026,0.04378247880765357,0.14846487613291526,-0.3561384667765868,0.38832117172990005
1.2086545635414077,0.044130846526281686,0.14113124611898353,-0.35973680920641016,0.3889423249586402
1.2111415070877891,0.05405395062824886,0.13378253051336308,-0.34894932686231606,0.37760459182423034
1.2136284506341706,0.054398180132229135,0.13599555987793854,-0.3525064645479059,0.3817260298385171
1.216115394180552,0.0499519406840534,0.13819355165812608,-0.36561984406674597,0.3940438103477607
1.2186023377269335,0.05029204127536341,0.135588126783583,-0.3691358775025737,0.39645267762990194
1.221089281273315,0.05541848428257323,0.14733292294861,-0.38220820374169406,0.4133537342182978
1.2235762248196966,0.0509660621464566,0.15427435144723667,-0.3761064287063256,0.40970008630632276
1.226063168366078,0.05608839057517068,0.16120084033643467,-0.36519578843951983,0.4031123694163305
1.2285501119124596,0.046843455419154634,0.16811241451338965,-0.35426471258065817,0.3949171809493535
1.231037055458841,0.03759646911634085,0.18458590567558053,-0.36246684096597725,0.40849438412779354
1.2335239990052225,0.03792424080924106,0.19146772575742776,-0.37064858710408544,0.4189015554637315
1.236010942551604,0.038249966383906764,0.20312311009349537,-0.3644447680577283,0.41897738214261115
1.2384978860979856,0.03378524507138919,0.21955208421451156,-0.3773742343255453,0.43789938707454407
1.240984829644367,0.02931848276794896,0.2168126572058804,-0.38549499679416144,0.44325353276631607
1.2434717731907485,0.02963808539432805,0.2140584681911979,-0.3888070831824262,0.44482624904902995
1.24595871673713,0.025167248934711395,0.22565475312825845,-0.40167573139973634,0.461407467672371
1.2484456602835114,0.02069437935849433,0.22765952156601443,-0.4001589530215348,0.4608517145243042
1.250932603829893,0.01143107601862009,0.22964960644838772,-0.38904517977261754,0.4519134465195201
1.2534195473762746,0.011742551573348858,0.23162503423059722,-0.38748805356514104,0.4515916691608468
1.255906490922656,-0.002313207857596089,0.22879742819860205,-0.3859107966147466,0.4486432402530046
1.2583934344690375,-0.006794182927507497,0.23074362174948337,-0.38910184132230086,0.4524257097249515
1.260880378015419,-0.006488774187799307,0.2230984318280731,-0.4114264269525094,0.4680670029702096
1.2633673215618004,-0.0013969788459239907,0.21543869212921107,-0.4337309697500409,0.4842915813190973
1.2658542651081819,-0.005884004046727231,0.2221296398156225,-0.4416502895009433,0.49439981452717713
1.2683412086545636,-0.0007962336694311567,0.23359449559517076,-0.43039601285188134,0.48970169515656714
1.270828152200945,-0.0004988748121100284,0.24025648032154878,-0.43348699323093953,0.49561517179458653
1.2733150957473265,-0.0002035212683635934,0.23732721831371606,-0.44134645440121467,0.5011097113267277
1.275802039293708,0.004878233191329073,0.2391719473159588,-0.430032410381628,0.49209236076229596
1.2782889828400894,0.005169584858565057,0.2505790985751388,-0.4186985052895782,0.48798058115263765
1.280775926386471,0.010247343329099379,0.25239508687887735,-0.42649838345704083,0.49569058798545845
1.2832628699328525,0.020111511580859998,0.2589851503984262,-0.42949005954667996,0.5019357451650293
1.285749813479234,0.03476209261446778,0.26556091416435423,-0.4324619683554385,0.5086790307144621
1.2882367570256155,0.03504547617188336,0.26733400334691426,-0.4402025448915765,0.5162111343962105
1.290723700571997,0.04011527858004177,0.25951604325516264,-0.4383466110923333,0.5109848958027068
1.2932106441183784,0.04518309958668709,0.251683869297016,-0.4268941990650088,0.49761927188155936
1.29569758766476,0.045460538961826225,0.253414317017429,-0.4154221477655593,0.4887341174158603
1.2981845312111415,0.05052440645855605,0.25034220549595343,-0.3943536830756216,0.4698284398116778
1.300671474757523,0.05558630189108443,0.24246756390834934,-0.3876308543248541,0.46058445016108884
1.3031584183039044,0.05585782509555459,0.2441556315257043,-0.4191957110476565,0.4883207073132076
1.305645361850286,0.060915785890876095,0.25061803447135844,-0.4220106398961061,0.494583776885687
1.3081323053966674,0.06597178415674076,0.24748959236064305,-0.42001769081074336,0.4919534888845185
1.310619248943049,0.07102582311476308,0.23955873822187446,-0.4323705106132092,0.4993769268353449
1.3131061924894305,0.07607790600805636,0.2364023085345237,-0.4447039230832708,0.509348091651156
1.315593136035812,0.08112803610112773,0.23802033326739203,-0.447441155520206,0.5132631147312297
1.3180800795821934,0.09575302332038882,0.23004763255740945,-0.45494745202294773,0.518717397840516
1.3205670231285749,0.1055876610118604,0.22206104327124532,-0.4720112502467835,0.5322165738270475
1.3230539666749563,0.10584354918324973,0.22363740240286045,-0.48905577808192824,0.5480803761607654
1.325540910221338,0.10609749782415179,0.22998833711167688,-0.5012926669336686,0.5616454862040736
1.3280278537677195,0.10156110698406651,0.24111387800293338,-0.49914514508061103,0.5635569505160829
1.330514797314101,0.08744597673321897,0.24743724916587073,-0.49219005427513096,0.5577840448139013
1.3330017408604824,0.10684774036558253,0.2537468847743849,-0.499581043101637,0.5704254024677158
1.3354886844068639,0.11667077143000926,0.2552544124845859,-0.49737613045200213,0.5710953503070495
1.3379756279532453,0.11212667005825255,0.24717146007452673,-0.48078694868851635,0.5521070646558869
1.340462571499627,0.11715745632421948,0.24386326872456277,-0.4881207602443123,0.5580833629368243
1.3429495150460085,0.12218632707980742,0.2405414664539567,-0.5002239878956853,0.5683429718711549
1.34543645859239,0.11763647919697579,0.24199448804185986,-0.5027314579250426,0.5702092530535972
1.3479234021387714,0.10350791620825756,0.24822236506548379,-0.5147968200416422,0.5808132205463861
1.3504103456851528,0.09895425494727467,0.25922512921951846,-0.5220549008960962,0.5912114103606925
1.3528972892315343,0.11355230562674973,0.2606376023543011,-0.5245057372823734,0.5966006657021727
1.355384232777916,0.10420644195558032,0.2524598163967964,-0.5221493661757286,0.5892664100709126
1.3578711763242974,0.09007028082623253,0.24905701334970365,-0.529351034692505,0.5919075682205934
1.360358119870679,0.0902974391505535,0.2504292253686833,-0.5317455702062102,0.5946610596548544
1.3628450634170604,0.08573430729717108,0.24699967808177847,-0.5436982201901159,0.6032967487548129
1.3653320069634418,0.06680408229449991,0.2531336138307059,-0.5508438123723902,0.6098920539662345
1.3678189505098233,0.05744878443219198,0.26883106510746213,-0.5579707879380802,0.6220143925921578
1.370305894056205,0.052880014096961137,0.26536164459249534,-0.5507139749654861,0.6135951275344473
1.3727928376025864,0.04352096837403252,0.2714558049194302,-0.5530154282687629,0.6175827010335965
1.3752797811489679,0.03894845764859206,0.2823251755882379,-0.5457215729514768,0.6156594207098334
1.3777667246953493,0.02958567904317,0.2883929828862186,-0.5336208508898377,0.6072866188932955
1.3802536682417308,0.015432636339412442,0.2896592598480363,-0.5310785107706337,0.6051322480932998
1.3827406117881123,0.020431349938887566,0.29570084625483295,-0.5237293815275859,0.601788081978546
1.385227555334494,0.015851403737988934,0.30172937203176353,-0.5307271155042947,0.6107070918850183
1.3877144988808754,0.00648120489343551,0.3173216771689784,-0.5329181386483981,0.6202715496608541
1.3902014424272569,0.0018975639002879463,0.3281125851582276,-0.5350908936744965,0.6276812358047212
1.3926883859736383,-0.0026879186894173124,0.3245253229138436,-0.5468222267817602,0.6358761340243697
1.3951753295200198,-0.007275238985532395,0.32571353737340747,-0.5441701610903049,0.6342423840706667
1.3976622730664012,-0.002287586439600031,0.3316772622937294,-0.5319231398040962,0.6268630361039245
1.400149216612783,-0.011666973727780472,0.3376281282108917,-0.534023219569205,0.631909542794073
1.4026361601591644,-0.016259783625966362,0.33398936243935706,-0.5361052306288876,0.6318402433320184
1.4051231037055458,-0.01127760885364748,0.33033780567263493,-0.5285924067052648,0.6234261646294061
1.4076100472519273,-0.011085655394337923,0.33146189538082993,-0.5210615949591109,0.617652868192407
1.4100969907983087,-0.015683919253503653,0.3325732624894333,-0.5230896427074647,0.6200594604986195
1.4125839343446904,-0.0059187831383642475,0.3336719413393654,-0.5346765907818547,0.6302785520395936
1.4150708778910719,0.0038445470185495267,0.3347579663657725,-0.5462456735271566,0.640673093265405
1.4175578214374533,-0.0007591346985195147,0.3310429687768206,-0.5434317221207596,0.6363238641361771
1.4200447649838348,-0.0005762109464992893,0.3225269831934341,-0.5262347778526788,0.6172090637122649
1.4225317085302163,0.00918172567328257,0.3187868509687064,-0.523385302085325,0.6128960228911838
1.4250186520765977,0.014149469294669315,0.32939941354639,-0.5300949330883249,0.6242634213310453
1.4275055956229794,0.014327024028741475,0.33042268921781925,-0.5319985026389258,0.6264238373318138
1.4299925391693609,0.028868007284015507,0.33143351960539036,-0.5386728592630234,0.633127150791346
1.4324794827157423,0.03861880992258693,0.34679714973979836,-0.545329641671529,0.6474133869739512
1.4349664262621238,0.04357943610375248,0.35257159817633577,-0.5663341020014041,0.6685358735187464
1.4374533698085052,0.05332669664327583,0.35354530347837887,-0.5729558626504456,0.6753639305826299
1.4399403133548867,0.06307219241170758,0.3592951076149329,-0.5747717727214479,0.6807596246319265
1.4424272569012684,0.06802752429520753,0.3410906260769333,-0.5813586814585676,0.6774573608475545
1.4449142004476498,0.07298109983605122,0.3276623142826156,-0.5975050349258524,0.6853474300645355
1.4474011439940313,0.07314451995126853,0.33337541777192703,-0.6040572627248544,0.6938115497915498
1.4498880875404128,0.06851778889346016,0.32949955228377803,-0.605803811196596,0.6930100287949518
1.4523750310867942,0.059100910930371064,0.32561156020046234,-0.6123215301391767,0.6960269118941893
1.4548619746331757,0.05447069698539897,0.3073462673827074,-0.6092452528847527,0.6845498981570037
1.4573489181795574,0.05941555467654114,0.3034341296531746,-0.5822098128999471,0.6592198005315769
1.4598358617259388,0.06435868167565018,0.31866358631118485,-0.5838876902690817,0.6682913705828445
1.4623228052723203,0.064511678989572,0.3290926568115431,-0.609490525364901,0.6956597113552837
1.4648097488187017,0.06466295428033764,0.3299329739667636,-0.6111343288083653,0.6975114571208599
1.4672966923650832,0.06960091522442147,0.3259729773055686,-0.6079727578346681,0.6933495104221433
1.4697836359114647,0.07932556619231568,0.3315779130720098,-0.6143710664874273,0.7026295362606241
1.4722705794578463,0.07947170160778866,0.3323826076620855,-0.6303292989768945,0.7170139290009564
1.4747575230042278,0.07961613251026184,0.33317550082598446,-0.6414822896788142,0.727216728959195
1.4772444665506093,0.08454726663282625,0.33395662906564816,-0.6334648730942227,0.7210776767008203
1.4797314100969907,0.07989989844118367,0.3347260289542042,-0.6206423037701612,0.7096635663886763
1.4822183536433722,0.5301491544460311,2.1742306121350876,-4.175163503368846,4.73712224463
1.4847052971897536,-0.15924326656268073,2.0696317922742935,0.21429306531004144,2.0867811795629243
1.4871922407361353,-0.7768113200784105,1.8453112711922768,4.30209683973707,4.745170885549529
1.4896791842825168,-1.2746709684169806,1.5108458923788586,7.815308785582328,8.061420023931483
1.4921661278288982,-1.6240917871624543,1.094966112671738,10.55281591820408,10.733058684481763
1.4946530713752797,-1.7867665452449306,0.6407675989356036,12.370966092685844,12.515746876212985
1.4971400149216612,-1.7722720447846338,0.176980808139243,13.193144810479696,13.31282616116736
1.4996269584680426,-1.6045502978498005,-0.24851018940311675,13.000198412766508,13.101202148805426
1.5021139020144243,-1.293178106534919,-0.5973981299545497,11.863952903699284,11.949166190244785
1.5046008455608058,-0.8716742895233489,-0.8601061696375523,9.918483530482401,9.993793785871071
1.5070877891071872,-0.39749968208743547,-1.0126922545520962,7.340961170091537,7.421136200103131
1.5095747326535687,0.07188488051289127,-1.0407911373780554,4.332498715993831,4.456339164805485
1.5120616761999501,0.517325789592744,-0.9539795873370069,1.1277278847880208,1.5650792975954624
1.5145486197463316,0.8909390165571998,-0.7714111802322121,-2.0291428003918934,2.346543850984554
1.5170355632927133,1.1639941461050607,-0.5074510884884065,-4.913058429802863,5.0744982130287415
1.5195225068390947,1.331702779548506,-0.18604129111374856,-7.342059723689061,7.464173406431121
1.5220094503854762,1.3605460982897464,0.14972261965877243,-9.167706225641787,9.269322520447766
1.5244963939318577,1.2792545269068123,0.49026387489389656,-10.303806722519933,10.39448333428288
1.5269833374782391,1.1117700866690612,0.8068520924297973,-10.707265631167584,10.795025721185338
1.5294702810246208,0.8533043789354693,1.065968486838178,-10.36371778845185,10.453280039141582
1.5319572245710023,0.5373762316390595,1.2580362893451826,-9.368931307707589,9.468278743688497
1.5344441681173837,0.2118696826847707,1.3686903279089329,-7.828251109008169,7.9498249919001385
1.5369311116637652,-0.09927324661245596,1.3787770272183169,-5.866175725807634,6.026848174156428
1.5394180552101466,-0.3721105349269318,1.3122384418955302,-3.640722514897403,3.8878395554694496
1.541904998756528,-0.5922769675625157,1.1642862066904263,-1.3146972364855518,1.8533168107523814
1.5443919423029098,-0.740618926491966,0.9588623763234145,0.9251523325242239,1.5244147366716545
1.5468788858492912,-0.7979827936773155,0.7246974088831486,2.954327658298274,3.144839389544904
1.5493658293956727,-0.7739453709919151,0.47615655254422684,4.60044617370877,4.689330602229094
1.5518527729420541,-0.6780834602986094,0.2276050555274658,5.791681781262756,5.83568154510192
1.5543397164884356,-0.5295506700905731,0.002984972739675129,6.475361996658572,6.496979745237453
1.556826660034817,-0.34271220553034953,-0.18812685082892688,6.627544755428037,6.639065661147204
1.5593136035811987,-0.11756806180943413,-0.33136516682411776,6.272172026218071,6.282019344877449
1.5618005471275802,0.11236294264834418,-0.40757632352854567,5.423608970949116,5.440062330538261
1.5642874906739617,0.3087735861089792,-0.42154868578456384,4.211142431142834,4.24343787480586
1.5667744342203431,0.4716638734105743,-0.36370540843243093,2.7305404249950502,2.7947449697845093
1.5692613777667246,0.5866685994399927,-0.26277687283465534,1.077570970618316,1.2547473559186897
1.571748321313106,0.6442109624139509,-0.11397463707212951,-0.5897486707927477,0.8807959336258571
1.5742352648594877,0.6442909671992112,0.0827013374925527,-2.1948040945698555,2.2889113952222258
1.5767222084058692,0.5916970219921758,0.2697902496907383,-3.608308459600532,3.6664399741830445
1.5792091519522506,0.4960059383187251,0.45208054155486854,-4.734493748093888,4.78182284883496
1.581696095498632,0.3715829310341484,0.619995445192477,-5.511110765578232,5.558310003694255
1.5841830390450136,0.22321640836206752,0.7687465960666984,-5.9094291409005875,5.963400847272574
1.586669982591395,0.07005998849588835,0.869603613073552,-5.9198721162645125,5.983811888652976
1.5891569261377767,-0.06873271036226336,0.9273549383848629,-5.54722814390862,5.624629005347145
1.5916438696841582,-0.18358487664222956,0.9276354009240011,-4.86332332262921,4.954404564063011
1.5941308132305396,-0.27449650540603865,0.8848102495681842,-3.916041734692609,4.0241297664309155
1.596617756776921,-0.33667918838698085,0.8084563299054692,-2.781997882358101,2.91658477173253
1.5991047003233025,-0.36055611398977105,0.6842084709526692,-1.5521714779154685,1.7341794139918407
1.601591643869684,-0.3317620672906676,0.5360087283186648,-0.32711904036418105,0.710195953730766
1.6040785874160657,-0.2742390599203728,0.3925875609612679,0.8165449278309911,0.9466137935684465
1.6065655309624471,-0.19277549022042395,0.249156604624039,1.7974175208181187,1.8248153735108263
1.6090524745088286,-0.08737135320423173,0.1152927050385344,2.558037849281625,2.56212486025822
1.61153941805521,0.018031339520926892,0.010149514603196685,3.055310233802672,3.0553802982003626
1.6140263616015915,0.118644189636607,-0.06627292753933123,3.2605042048602364,3.263335136722927
1.616513305147973,0.20489039551151916,-0.11397458222176127,3.2023501327150257,3.2109214646368156
1.6190002486943547,0.28155836548267055,-0.12337860361233854,2.871271161004284,2.88767994643061
1.6214871922407361,0.33907129793335167,-0.08011974253597076,2.295997659868041,2.322282018262588
1.6239741357871176,0.3582755846133785,-0.0033515730375284214,1.5579324359110096,1.5986012956442566
1.626461079333499,0.34874803720144437,0.09734913750019691,0.7097478757581595,0.7967710431278938
1.6289480228798805,0.3296422740237653,0.20761721839471114,-0.19588363402186637,0.43604969473114974
1.631434966426262,0.2961698968117822,0.3226643056239822,-1.0919244969550288,1.1764896807672394
1.6339219099726436,0.2339657006629831,0.4472788418256406,-1.9065487133013619,1.9722389073392417
1.636408853519025,0.16697170724391508,0.5527304464133742,-2.591872299975762,2.6554081638787514
1.6388957970654066,0.09997632494632097,0.6246539487792604,-3.1047996772656585,3.168590989260721
1.641382740611788,0.037767962168276936,0.6869914048945391,-3.4213888787908733,3.489883303103298
1.6438696841581695,-0.024441779326539237,0.7253776441838218,-3.5224863415415975,3.596481635377195
1.646356627704551,-0.07707608780742614,0.7254474960868191,-3.4080921158383024,3.485298647595286
1.6488435712509326,-0.09619294157671543,0.6967778066590875,-3.121301881932138,3.199574632980912
1.651330514797314,-0.10094594881369012,0.644157018649405,-2.6956345134805,2.7733686699615756
1.6538174583436955,-0.09612350773091816,0.5723735748192853,-2.1598204808662356,2.2364426546323877
1.656304401890077,-0.07214880657436995,0.4766391113015809,-1.5617438677981461,1.6344522633951657
1.6587913454364585,-0.048175453506342336,0.3952608941231395,-0.9253467414271075,1.0073820728072005
1.6612782889828401,-0.014626636761816747,0.3138737527977735,-0.3128783955090295,0.4434225542015479
1.6637652325292216,0.023709245468599316,0.23726613013020836,0.25171910272097264,0.34672734461289156
1.666252176075603,0.05246698835890906,0.17980327557461706,0.7349268793469825,0.7584190930887156
1.6687391196219845,0.08122340368976888,0.1319084219917288,1.0697072371713183,1.080865693023881
1.671226063168366,0.09561328664526364,0.10315841553085425,1.2752137387235507,1.2829472470476881
1.6737130067147474,0.10042504569561822,0.11270690898847624,1.327504316613254,1.3360597845019984
1.6761999502611291,0.1052354926361358,0.14140032860439344,1.2170021133745959,1.229700250385448
1.6786868938075106,0.10046782598553444,0.1892387139046714,0.9820143047097929,1.0051155006033943
1.681173837353892,0.08133364758739298,0.24664529777905386,0.6512712596461476,0.7011442924159536
1.6836607809002735,0.04783296261004599,0.3088317164411034,0.24871494385764237,0.3994047379415051
1.686147724446655,0.019119389507410156,0.37100960610714884,-0.18734746705288963,0.4160682062956161
1.6886346679930364,-0.014383873184250606,0.4379674096361619,-0.6281856041542717,0.7659239524769137
1.691121611539418,-0.04788841696362112,0.48576314996650094,-1.0450690985453068,1.153442048426777
1.6936085550857995,-0.07660583332538229,0.5335504799198536,-1.4188443879943886,1.5177825818164319
1.696095498632181,-0.08617090711969477,0.5573874224348576,-1.7159927003368889,1.8063048224294518
1.6985824421785625,-0.10052564975543188,0.5620624203710505,-1.9317256833569605,2.0143444805675697
1.701069385724944,-0.11009324939560072,0.5667291265471865,-2.03252456494274,2.1129265329242033
1.7035563292713254,-0.09093168423870057,0.5474455638967486,-2.027966202890017,2.10252518098901
1.706043272817707,-0.07177136900320347,0.5185769819125143,-1.9324158583387039,2.0020749898884898
1.7085302163640885,-0.047823895162044106,0.475335016802088,-1.7506619858109307,1.8146756987710455
1.71101715991047,-0.009512450864598954,0.4177197080887125,-1.4970698464912324,1.5542838757834596
1.7135041034568514,0.024009355821032474,0.36967311189177776,-1.2051583148660914,1.2608097488176275
1.715991047003233,0.04795312679070918,0.32640686440268407,-0.9036578621215146,0.9619971285155815
1.7184779905496144,0.08147248054478168,0.2879210051262815,-0.5925685395403608,0.6638326177072381
1.720964934095996,0.10541380902392189,0.25900397688014554,-0.30062081834509513,0.41057034427140193
1.7234518776423775,0.1341423274136921,0.23965581915323897,-0.05654516977500279,0.2804040511170551
1.725938821188759,0.15808123430071286,0.23466497474579606,0.15402356479782675,0.3221499426098231
1.7284257647351404,0.16765372827409541,0.2248778698467513,0.2975665107833496,0.4089298928799336
1.7309127082815219,0.17243662120659675,0.2294481571970719,0.3549300035387315,0.4564604611423464
1.7333996518279033,0.18200672497326464,0.2531642795656124,0.33090239500997676,0.45465920798638604
1.735886595374285,0.18199883484976453,0.28166106642807875,0.23027203713131428,0.40679447306063515
1.7383735389206665,0.17720135939509485,0.31015015388820455,0.07219249178717924,0.3644244717342518
1.740860482467048,0.16761430384991227,0.34820838799736187,-0.13375948578846497,0.40894405040935194
1.7433474260134294,0.1580260767770575,0.38147059819134066,-0.3732187370500757,0.5565826838047168
1.7458343695598109,0.1388598767801983,0.4051484205318445,-0.6078780868583831,0.7436014231572369
1.7483213131061923,0.1244809190662261,0.42403029770578815,-0.8521027966043917,0.9598835182276322
1.750808256652574,0.12925441884358962,0.42853946242303076,-1.0627972878412315,1.153208936267445
1.7532952001989555,0.12923836475969136,0.41867595401725444,-1.239961612009644,1.3151033832575947
1.755782143745337,0.12922116538515965,0.4135934250858795,-1.3835958205544632,1.4498603469001925
1.7582690872917184,0.14356803593249512,0.3989267049659526,-1.4506043350405005,1.511293232207039
1.7607560308380998,0.16270217501378137,0.3698874296162602,-1.4601408201987098,1.5150247269113797
1.7632429743844813,0.16746997460151958,0.3312640416166448,-1.4457241507219933,1.4926152811900515
1.765729917930863,0.17223664991133847,0.28784498352669674,-1.3786239581392792,1.4188460861100398
1.7682168614772444,0.1770022061987676,0.2683607144866351,-1.2540518905801665,1.294601636931878
1.770703805023626,0.18176664872007287,0.24886925709162355,-1.1007384194146166,1.1430660915658601
1.7731907485700074,0.18174157941184366,0.22937065051609862,-0.9330488060488573,0.9778655180925893
1.7756776921163888,0.1817154068518292,0.21465333723184088,-0.7509831019244704,0.8019178035485879
1.7781646356627703,0.17689973297758765,0.20950575968699336,-0.5736949717596111,0.6358554076925249
1.780651579209152,0.18165977300825809,0.21392795698507738,-0.4251264835870874,0.5094094335172279
1.7831385227555334,0.16726511228040264,0.22313156488432684,-0.3004892855113752,0.4099501478729347
1.7856254663019149,0.15765777265415215,0.23711662243764486,-0.20936023559034744,0.3534288813339265
1.7881124098482963,0.14804935606779623,0.2558831686716343,-0.16610459519379184,0.33909518484640655
1.7905993533946778,0.12886306113924578,0.27943124258592933,-0.15635720576028334,0.34515950465322126
1.7930862969410595,0.11446410308780613,0.3077608831525471,-0.1753297153587603,0.37223554529667846
1.795573240487441,0.0856988738903412,0.33129532267459494,-0.21823377204697003,0.40586557759187397
1.7980601840338224,0.0665093954061492,0.34524619674657675,-0.3090114437924445,0.46808814174251256
1.8005471275802039,0.05689567289251479,0.36397875421465375,-0.40456715206529914,0.5471674621574004
1.8030340711265853,0.042492501645219505,0.373127823972899,-0.5192661581655074,0.6408333080722205
1.8055210146729668,0.028088290240647962,0.38227025148606186,-0.643531706776546,0.7490344149947947
1.8080079582193485,0.023259850574730623,0.3818292689061402,-0.7677870425662494,0.8578062450080344
1.81049490176573,0.01843038126130575,0.38138172163422146,-0.8680902002247386,0.9483524093270109
1.8129818453121114,0.0040230809132582035,0.37135084175735233,-0.9444412310262429,1.0148334206737053
1.8154687888584928,0.008768374704925863,0.361313474610399,-0.9968401862264944,1.0603370540569057
1.8179557324048743,0.018301057926699837,0.36563486881448615,-1.039652327022786,1.1022253613023594
1.8204426759512558,0.013467522547416844,0.3651614497138582,-1.0441472847093785,1.106240394618936
1.8229296194976374,0.0038445804564555264,0.34552804593775566,-1.0103251104812685,1.0677833301739812
1.825416563044019,0.0037974468620819435,0.3402535192826046,-0.9669162754333556,1.0250433950251965
1.8279035065904004,0.008537723689787224,0.3397611016254496,-0.9043440240750833,0.9660996909138606
1.8303904501367818,-0.0010881970974936372,0.33447402480615374,-0.8369736174937099,0.9013317335051826
1.8328773936831633,-0.010715100296346147,0.34354594054865206,-0.7456514935097047,0.8210571091069561
1.8353643372295447,-0.010766174025483632,0.34782327397596724,-0.6638965264413663,0.7495702356973759
1.8378512807759264,-0.010818219686761,0.35209446677365275,-0.591708767338524,0.6886267586690844
1.8403382243223079,-0.020448038684030334,0.3515711539469999,-0.5003578473018369,0.6118646696208051
1.8428251678686893,-0.030078819141982516,0.37498379370324475,-0.4425162538491456,0.5808082435896853
1.8453121114150708,-0.02055694254686158,0.3983904076853304,-0.42297244126625344,0.5814148182608463
1.8477990549614522,-0.025401226910621078,0.3978490174947642,-0.41299604056690953,0.5740163696046119
1.8502859985078337,-0.03982326368507716,0.41645529117536473,-0.4077986993357552,0.5842265665462524
1.8527729420542154,-0.035092627722946745,0.4302672502439435,-0.4361108883681002,0.6136400460418137
1.8552598856005968,-0.02557452376230529,0.42013131949438254,-0.4787790452237388,0.6374902007334031
1.8577468291469783,-0.025634156543863695,0.41956636020016624,-0.5358032207105232,0.6810125783839096
1.8602337726933598,-0.030483117529816917,0.42857241034817806,-0.5976066589616025,0.7360280227010605
1.8627207162397412,-0.020967788224243722,0.41841908795842464,-0.6594010073955765,0.7812322765127396
1.8652076597861227,-0.016241776696635957,0.4130484475287628,-0.7163979133952534,0.8271026451615648
1.8676946033325044,-0.011516674417916262,0.4028837202686857,-0.7685974276273022,0.8678651574999949
1.8701815468788858,0.007572733778507201,0.3831365406612717,-0.8016343907599808,0.888520484589912
1.8726684904252673,0.01708443649356417,0.3633837531032018,-0.8298740633452777,0.9061073838143431
1.8751554339716487,0.017018438926470647,0.3436253953026336,-0.8533164959352195,0.9200636292102556
1.8776423775180302,0.02173995623401581,0.3286499082395933,-0.8575965290810412,0.9186703405328808
1.8801293210644117,0.026460590288297114,0.32803413616537336,-0.8283490032933543,0.8913296969052816
1.8826162646107933,0.03596874959850416,0.3178361000394925,-0.7943043889240986,0.8562902543530901
1.8851032081571748,0.05026443934987723,0.3124210473338125,-0.755462736361137,0.8190588322645516
1.8875901517035563,0.05019405144271405,0.31178901550854077,-0.7214009025898385,0.7874967271357085
1.8900770952499377,0.05012280101569078,0.3063632353319923,-0.6777537279501615,0.7454668623722223
1.8925640387963192,0.05483909656297492,0.30572055080190674,-0.6436748759796309,0.714695548931052
1.8950509823427006,0.05476613661382723,0.3146494025433366,-0.619164396889035,0.69668366323278
1.8975379258890823,0.054692329654387195,0.31878461784716494,-0.5802803242413859,0.6643343572333702
1.9000248694354638,0.05940608416664883,0.32291463723205016,-0.5461763214355173,0.6372687971896592
1.9025118129818452,0.06890740530807066,0.30309748124077274,-0.5264292451817933,0.6113461080463864
1.9049987565282267,0.07361949159116443,0.3024288168459339,-0.5210391455014189,0.606930646734717
1.9074857000746082,0.07354234816467575,0.30654347112129976,-0.5108524590849832,0.6002896064516227
1.9099726436209896,0.07346438349317597,0.3058646744053264,-0.5054460424948335,0.5953368093481183
1.9124595871673713,0.06859719939604558,0.305180866941253,-0.519185155562754,0.6061304835336337
1.9149465307137528,0.07330601096926237,0.3044920855953235,-0.5616466547485714,0.6430677773179717
1.9174334742601342,0.08759082334313295,0.30379836717657405,-0.5993117665768821,0.67759884429549
1.9199204178065157,0.08750962504158805,0.3078881517566212,-0.6226037341207,0.7000631815829674
1.9224073613528971,0.08742763114615204,0.30718466938789124,-0.6650414302819261,0.7377574911759321
1.9248943048992788,0.09213325009274359,0.3016879567046695,-0.6978944847437258,0.7658726204983445
1.9273812484456603,0.0920496803512833,0.3009748569225783,-0.7211629470557366,0.7868513229057031
1.9298681919920417,0.08717692702716812,0.30504540655681955,-0.739635270031771,0.8048060942502152
1.9323551355384232,0.09188020518150436,0.3091112387419721,-0.7724651163896503,0.8370747195201081
1.9348420790848047,0.09179430994821752,0.31796079319242976,-0.8004989222271082,0.8662123214508036
1.9373290226311861,0.08691924641678106,0.3172288962800178,-0.8093715269038206,0.8736540485771936
1.9398159661775678,0.10119703627275567,0.3164923909163049,-0.8134481896422532,0.8786957555892526
1.9423029097239493,0.10110886135241565,0.3301165232708585,-0.7887869430425614,0.8610370272496127
1.9447898532703307,0.09623153336920659,0.33415931288793566,-0.754541449527169,0.8308163175208388
1.9472767968167122,0.09614186403087166,0.32862079585004755,-0.7298653714572652,0.8061875376963482
1.9497637403630936,0.086474648437807,0.327866218136851,-0.6908167412492645,0.7695465494744661
1.952250683909475,0.09117190824703875,0.3318956157027819,-0.6565492211397128,0.741298790202236
1.9547376274558568,0.09108003522684066,0.33113221779688473,-0.6414280699814778,0.7275809834239552
1.9572245710022382,0.09577584106133857,0.33036446356389204,-0.6262997233211536,0.7145383362346757
1.9597115145486197,0.09568252414731176,0.320015582121874,-0.6015874232811722,0.6880934137732194
1.9621984580950012,0.09080008951598656,0.3096624158039458,-0.5912332351606882,0.6735667794482003
1.9646854016413826,0.09070534883296427,0.31367021019686137,-0.5856604009505055,0.6705330463991762
1.967172345187764,0.09539830711689029,0.3224621942186672,-0.5609269526136469,0.6540043959099345
1.9696592887341458,0.10009056605969613,0.33125000004010685,-0.5553401652096408,0.6543297204283115
1.9721462322805272,0.10478213066714043,0.32566845312322235,-0.5641116838469884,0.6597433047174505
1.9746331758269087,0.11426140925874384,0.3152943954630749,-0.5632995402840386,0.6555704367498807
1.9771201193732901,0.10937479354583468,0.309704668985729,-0.5720573960923776,0.6596434581489802
1.9796070629196716,0.12364111175646192,0.3136877122274848,-0.5951737028123976,0.6840459354738594
1.982094006466053,0.1331183522681666,0.312878350373488,-0.6278601052729709,0.7140179757095846
1.9845809500124347,0.12822971341255368,0.29769981185883143,-0.6509630382704312,0.7272007388451418
1.9870678935588162,0.13291721675649915,0.27772893832906265,-0.6692709531304555,0.7366980103134736
1.9895548371051976,0.1376040606176907,0.2673309746787833,-0.6827838977855212,0.7460526647605881
1.992041780651579,0.12792503998643284,0.2521407458090281,-0.6771367101336345,0.7337941780658015
1.9945287241979606,0.1278221764083846,0.24173509315026598,-0.6762714545610944,0.729463806022151
1.997015667744342,0.12771866817980232,0.23132564809945722,-0.6753997754574854,0.7252506258930619
1.9995026112907237,0.11803771358965437,0.22570084862119266,-0.6553681071759812,0.703122415231678
2.001989554837105,0.11314452752111276,0.2248607292863154,-0.6544837238373837,0.7012224871260179
2.0044764983834864,0.10825071156866978,0.23359372791212163,-0.6535930596419917,0.7024728705702347
2.006963441929868,0.09377946399900455,0.2279578623197489,-0.6574845653142791,0.7021718653491016
2.0094503854762498,0.08409599967278841,0.23189518345875593,-0.6565814815397744,0.7013891610035763
2.011937329022631,0.07920032348211453,0.24540572560201035,-0.6652490655269325,0.7134794885505664
2.0144242725690127,0.07430403699105398,0.2445475063452771,-0.6739105578033886,0.7207496185859106
2.016911216115394,0.06461874175589899,0.2388973664505536,-0.653835585535667,0.6991055044811865
2.0193981596617756,0.054932845965720845,0.252397356564408,-0.643331422294187,0.6932512979271341
2.0218851032081573,0.0548231611219801,0.26589389737383673,-0.6376097116854567,0.6930016508578217
2.0243720467545385,0.04992448211660516,0.2698102161292639,-0.631882097234314,0.688886776943473
2.02685899030092,0.030660007153774038,0.26893474996449074,-0.6692442555864151,0.721909834683354
2.0293459338473014,0.02097175767173859,0.2728443392556459,-0.6491397636951444,0.7044616958315619
2.031832877393683,0.016071335178693413,0.2719622110192339,-0.6242411046804115,0.6811010856029498
2.0343198209400644,-0.0031948687863607717,0.2758652054742403,-0.6041251316952074,0.6641377820329594
2.036806764486446,-0.008096429489612533,0.28455335611987076,-0.6031571011281898,0.6669592590937797
2.0392937080328277,-0.008210148768134529,0.28366148641484523,-0.6021834460405628,0.665699743204969
2.041780651579209,-0.02747803842838481,0.28276643633951837,-0.6012042126889483,0.6649499270403455
2.0442675951255906,-0.02759286712127118,0.2866566424736203,-0.6050078505638741,0.6700506669156744
2.046754538671972,-0.022919840029719918,0.29533213799587266,-0.5944407924673367,0.6641582993153036
2.0492414822183536,-0.027824162345294168,0.2896393427226869,-0.5886566976762584,0.6566443790836598
2.0517284257647352,-0.02794061934639136,0.2935203062718399,-0.5780788054575883,0.6489298526979991
2.0542153693111165,-0.04242281956236449,0.28782144829648804,-0.5674955649505193,0.637724155068332
2.056702312857498,-0.04254033832827386,0.2916964149301089,-0.5569070218847063,0.6301126168334158
2.0591892564038794,-0.033081574230262145,0.3051452389423881,-0.5415248185797008,0.6224605501881524
2.061676199950261,-0.028411732504053933,0.30901433973885517,-0.5357142105459651,0.619101610471988
2.0641631434966428,-0.023742405113142517,0.29851534660271195,-0.5490520498827678,0.6254064817687479
2.066650087043024,-0.019073587350417975,0.29280190533510586,-0.5767499786370038,0.6470991387415584
2.0691370305894057,-0.023982081158531954,0.306239258332893,-0.5852892188417425,0.6610000705395968
2.071623974135787,-0.019314268567468096,0.3053086147054871,-0.5794582190000188,0.6552543160867799
2.0741109176821686,-0.009858548218035224,0.2995868133604418,-0.5688338308421521,0.6429785197212965
2.07659786122855,-0.0004033187603658117,0.3034390964406062,-0.577358115965815,0.6522406319651586
2.0790848047749315,0.004263021146023893,0.30250028608159996,-0.5858775059917836,0.6593762571217542
2.081571748321313,0.013717282793112462,0.30155881761459513,-0.5800268357665157,0.6538784401841489
2.0840586918676944,0.032747874143064015,0.305403126284733,-0.5789597632835211,0.6553914100037391
2.086545635414076,0.04220118654691973,0.29966803396953745,-0.5874647364797188,0.660830301466512
2.0890325789604574,0.037288821307040254,0.2891419757410896,-0.6055417998755512,0.6720672657751242
2.091519522506839,0.05631800959892197,0.29297859654538483,-0.6188257879338366,0.6869887423028279
2.0940064660532207,0.06576993278364024,0.29202431467856904,-0.6177399383405344,0.686444838164597
2.096493409599602,0.07043299877497583,0.28149075831006387,-0.6214379086057935,0.6858446825504686
2.0989803531459836,0.07509561547686561,0.2757431688025447,-0.6251313395400278,0.6873593225382394
2.101467296692365,0.07496938414271676,0.26999317414914037,-0.6288202751752898,0.6884269468268899
2.1039542402387466,0.08920792261753469,0.25945240225436494,-0.6372931627647773,0.6938416085822684
2.106441183785128,0.09865762217381208,0.2536976908947368,-0.626608029540165,0.6831789424905604
2.1089281273315095,0.10331848735522042,0.2479406677966045,-0.6063417258751738,0.6631738634129676
2.111415070877891,0.10797892601561404,0.23739296059678194,-0.6052247153241623,0.6590233852023797
2.1139020144242724,0.11742734599867183,0.23641981012348356,-0.6041034281372646,0.6592605403740701
2.116388957970654,0.11729854185658434,0.23544444051322833,-0.5934011011036784,0.6490900548316281
2.1188759015170353,0.12195772805312821,0.23446688245272318,-0.6066366007933794,0.6617071647043924
2.121362845063417,0.11703969911986639,0.2334871665379472,-0.6294447604707294,0.6814801938369462
2.1238497886097987,0.11690966949983644,0.23729372659417303,-0.6330952033361807,0.6861382659426533
2.12633673215618,0.11677924034438142,0.23630978639443034,-0.6319531823695872,0.684722228957291
2.1288236757025616,0.12622522275528059,0.24011218290140945,-0.6260187404859785,0.6822654400429139
2.131310619248943,0.12609400790188624,0.24870094634530515,-0.615291920496059,0.675526466520402
2.1337975627953245,0.12117400354450947,0.2477108969032198,-0.5949843617854391,0.6557821424442942
2.1362845063417057,0.12583042407343115,0.23235366130045731,-0.5842497202360768,0.6412248085797688
2.1387714498880874,0.1256980639463518,0.236148092732122,-0.5926648449836325,0.6502442183213575
2.141258393434469,0.1255653308914651,0.23994060777690995,-0.5771341485342223,0.637512331634893
2.1437453369808503,0.11585542266522103,0.22457762292027805,-0.5568112864514774,0.6114706831870265
2.146232280527232,0.11093355361477586,0.223577991077621,-0.550849914192062,0.6047553219090421
2.1487192240736133,0.11079972811544292,0.22257653186744264,-0.5496732671833566,0.6032889796313377
2.151206167619995,0.1010887405706436,0.21199646813453654,-0.5341277741042916,0.5834842885984862
2.1536931111663766,0.0865889986540444,0.20620303923097927,-0.5233670900880387,0.5691488900658809
2.156180054712758,0.07687731334858028,0.20519627445337507,-0.5126028535575564,0.5574740512639044
2.1586669982591395,0.07674209230576401,0.20897620300354536,-0.5066235094673406,0.553378516476968
2.161153941805521,0.07181812988471886,0.20796604734765722,-0.5245827126233422,0.5688538854686768
2.1636408853519025,0.07647064035524781,0.21653104645816246,-0.5425384878387849,0.5891362013176613
2.166127828898284,0.08112282137435073,0.2298828259307446,-0.5509140697775372,0.6024394891476562
2.1686147724446654,0.07619787058774041,0.23365620462470327,-0.5640747095943244,0.6152898629472524
2.171101715991047,0.06648419559073393,0.23263961458459015,-0.5628668350905723,0.6126666406638207
2.1735886595374283,0.05677020396726945,0.2364098910790431,-0.5520788905577803,0.6032442242226608
2.17607560308381,0.047055899969548176,0.2401786593193047,-0.570018143417748,0.6203392055478835
2.178562546630191,0.0517064977992398,0.2343691410996147,-0.5831658111753164,0.6306225650404517
2.181049490176573,0.04677998508400044,0.2237697680782409,-0.5819451278242234,0.6252370813608232
2.1835364337229546,0.03706476936180314,0.2275341817772527,-0.5950865538076648,0.6381799178347516
2.186023377269336,0.03692606479964439,0.22650879705886418,-0.6034365162522821,0.6456046766817384
2.1885103208157175,0.031998665630997125,0.22069364196897023,-0.5926298454912367,0.633198019559963
2.1909972643620987,0.017494172718281076,0.22445395441661864,-0.5770317916653891,0.6193959253376822
2.1934842079084804,0.01735460683404444,0.23300135893161178,-0.5662192014807577,0.6125316316467655
2.195971151454862,0.02200316549688186,0.2319706733049225,-0.5745573248487634,0.6200085903459642
2.1984580950012433,0.007497836252644996,0.22615032851036654,-0.573315781682755,0.6163531245644226
2.200945038547625,-0.0022193601615725367,0.22990556206376267,-0.5624946117023306,0.6076690556721949
2.2034319820940063,-0.0023600163018005493,0.2336595947805611,-0.556459064472044,0.6035305015846864
2.205918925640388,0.002287468623353439,0.22783564737720052,-0.5552091794791831,0.6001429393956399
2.208405869186769,-0.0074305145676336615,0.22201055375216328,-0.5443797861334172,0.5879568437179272
2.210892812733151,-0.017148751826118025,0.22097274438422154,-0.5431245369695752,0.5866065939863817
2.2133797562795325,-0.012502029115516844,0.21514543969162014,-0.5370782611629288,0.5787027903560695
2.2158666998259138,-0.012643955653535321,0.21410547327407725,-0.5310294010522956,0.5727069478209994
2.2183536433722955,-0.022362930709081186,0.208276065350105,-0.548920012139698,0.5875305947736396
2.2208405869186767,-0.027293740281991052,0.2120224526396428,-0.5524429066447265,0.5923610670731022
2.2233275304650584,-0.017859573704631204,0.21097945184043443,-0.5511749298713902,0.5904448295908207
2.22581447401144,-0.01321404024349826,0.20993549283098423,-0.5403277170437288,0.5798289090890802
2.2283014175578213,-0.018145539216445183,0.20889060206881904,-0.5294781132273556,0.5694836403382714
2.230788361104203,-0.023077259992718313,0.20784480591063037,-0.5186261567275654,0.5592004235645788
2.233275304650584,-0.018432391953932425,0.2115865339324179,-0.5077718857296674,0.5504006743747141
2.235762248196966,-0.02336454441598218,0.21053900564807781,-0.4969153382986402,0.5401827730236312
2.238249191743347,-0.01872010014470371,0.2047022471108022,-0.4716913424179001,0.5145349109959794
2.240736135289729,-0.004499055199660762,0.21322989755354405,-0.45125354919212235,0.4991162152914606
2.2432230788361105,0.004933384386131723,0.22175677286542728,-0.4403903996437908,0.4930964496846512
2.2457100223824917,0.004788819207735384,0.21112928551346322,-0.4343135280332291,0.48293555328169857
2.2481969659288734,0.009432463128877577,0.20528947774551964,-0.4378113751395478,0.48364402326017397
2.2506839094752547,0.023652723360042316,0.21381418174643985,-0.45567238161970813,0.5038980799816797
2.2531708530216363,0.02829599049749809,0.2031845997160029,-0.47353137472699913,0.5160587248471132
2.255657796568018,0.023362268406078357,0.19734277359535435,-0.49138839155292224,0.5300495422395467
2.2581447401143993,0.03758198085975756,0.2106539385824724,-0.5140318723862727,0.5567910316757881
2.260631683660781,0.0422247117760311,0.2095992965695741,-0.5318850474316399,0.5732508134214787
2.263118627207162,0.042078868301769046,0.20854408254917267,-0.5353711467700091,0.5760933347276883
2.265605570753544,0.046721260891346095,0.21227672477023773,-0.5340670136397723,0.5766037280113278
2.268092514299925,0.056151893345656456,0.20164363477711067,-0.52797268451455,0.567951006835913
2.2705794578463068,0.07037076945270909,0.20058685389375785,-0.5314534057044877,0.572389599471602
2.2730664013926885,0.07501268302665937,0.20431800341895734,-0.530144003473179,0.573084124326034
2.2755533449390697,0.07965444447027681,0.19368349458711442,-0.5431981272014532,0.5821703633770027
2.2780402884854514,0.07950765421241451,0.18304856177126894,-0.5514621995824189,0.5864629575797354
2.2805272320318326,0.07936071930954036,0.19156684256109813,-0.5549362564649805,0.5924105229294317
2.2830141755782143,0.524535152273832,1.3397247381143824,-7.209500948806674,7.351659909893202
2.285501119124596,-0.00233642599725431,1.2907814522193592,-0.7342621959926436,1.4850128581072617
2.287988062670977,-0.5004777178611945,1.1843769991072115,5.401001426463832,5.551940492364278
2.290475006217359,-0.9172162831110025,1.0157229993502166,10.861101650799723,10.946986251494858
2.29296194976374,-1.2190332948337446,0.7848194767368253,15.33958062929623,15.407943330232584
2.295448893310122,-1.3963519427313265,0.5299736815136566,18.597018160847025,18.6568956508295
2.2979358368565035,-1.420441803237604,0.2751276538619387,20.48976211087936,20.540781423858537
2.3004227804028847,-1.3296100992841153,0.025069820577320545,20.998658831275712,21.040726323592907
2.3029097239492664,-1.1238568272530758,-0.20583458500878926,20.176380723851494,20.20870508366024
2.3053966674956476,-0.8127587901807436,-0.4032203296694621,18.123484223753202,18.146179870537654
2.3078836110420293,-0.439411614358653,-0.5383569703217921,15.031505429340076,15.04756014331252
2.3103705545884106,-0.056487732732650064,-0.6160328872297118,11.144652875625388,11.16180877368373
2.3128574981347922,0.32164764830082293,-0.631459654121606,6.7454423243112505,6.782565197257627
2.315344441681174,0.6662641123706783,-0.5942140547918164,2.135543150513554,2.314636636288853
2.317831385227555,0.9534196464130791,-0.5090844698194321,-2.416894093769872,2.647556057966944
2.320318328773937,1.1495954307098588,-0.38564768320905807,-6.610200033166418,6.7204939006256685
2.322805272320318,1.2404262588106802,-0.22390367242992015,-10.190589325377909,10.26824721929604
2.3252922158666998,1.2211237308923275,-0.062159641619090156,-12.995256291061889,13.052650805778043
2.3277791594130814,1.1108414637195674,0.09958443154362273,-14.866183654068426,14.907961036071155
2.3302661029594627,0.9191562674031432,0.27569377923359406,-15.736333801199766,15.76556554033495
2.3327530465058444,0.6604333553603117,0.4182843903569289,-15.634437185536987,15.653969469645405
2.3352399900522256,0.377768360916742,0.5369330935577556,-14.613166276631066,14.627906026152022
2.3377269335986073,0.0807380941423072,0.6268515074136527,-12.787442787066782,12.803052545572823
2.3402138771449885,-0.206715424946043,0.673674443755953,-10.296130445898228,10.320216600538624
2.34270082069137,-0.4654385796650255,0.6821903275914019,-7.316400208612809,7.362861449673585
2.345187764237752,-0.6523357367437006,0.6523991805007117,-4.07330706376843,4.176481418598285
2.347674707784133,-0.7674068928076043,0.5938778305993693,-0.7919059997918101,1.252485261115795
2.350161651330515,-0.8202288511366351,0.501837895936045,2.3458436249048518,2.535270982467392
2.352648594876896,-0.7916479951025754,0.3858562044144267,5.143617242080284,5.21846623939071
2.3551355384232777,-0.696029531333175,0.2842400037541113,7.443397510187786,7.481271013864673
2.3576224819696594,-0.5381618598293265,0.15868208844367926,9.130262717695878,9.147485746734734
2.3601094255160406,-0.3611406071683715,0.042701302670446584,10.137175186407887,10.143695909249226
2.3625963690624223,-0.16017736673817579,-0.049337122765708674,10.464134884745198,10.465477047255867
2.3650833126088036,0.06472786473905506,-0.14137518373340807,10.09198816798002,10.09318591039014
2.3675702561551852,0.26569105732433307,-0.20468243968404742,9.078195844642112,9.084389161233377
2.3700571997015665,0.42834700430660144,-0.23925887009692692,7.537679563239541,7.553630859467355
2.372544143247948,0.5383304989612223,-0.2498928578779296,5.5901493757320235,5.6215670599511105
2.37503108679433,0.5956415445104033,-0.22700757607815403,3.3744689474950604,3.4341464684477336
2.377518030340711,0.6146453541233656,-0.18975661777678976,1.03907875067806,1.2220806583226014
2.3800049738870928,0.5666115110725471,-0.1285631562373748,-1.2532155324749414,1.3813494345957802
2.382491917433474,0.4706936318195236,-0.05779238143124932,-3.382703849468885,3.4157836271635476
2.3849788609798557,0.3460453328118873,0.022555726524921216,-5.22967614767439,5.241161010951142
2.3874658045262374,0.19266661720184336,0.1029043807676624,-6.679210777649772,6.682781333340037
2.3899527480726186,0.03928790804967647,0.1832536009677148,-7.669058526339831,7.671348258449242
2.3924396916190003,-0.10930238820019833,0.2683918100100091,-8.170489003799542,8.175626687719783
2.3949266351653815,-0.2483158651173238,0.33437701075127,-8.183502239870098,8.194094072205104
2.397413578711763,-0.3633873096446481,0.3812092225434971,-7.71767507089916,7.735624041287254
2.3999005222581444,-0.43536310541902984,0.39452325467153804,-6.8065263497006665,6.831836545264106
2.402387465804526,-0.4546664427319849,0.39826114287644776,-5.560189382078976,5.592945509895085
2.404874409350908,-0.44523933513136615,0.3780576962305391,-4.055278650461138,4.097127117885564
2.407361352897289,-0.4166585862182314,0.34827814362175813,-2.4162926703421688,2.476564618891113
2.4098482964436707,-0.3401937730452951,0.3137109071912021,-0.7533647471208749,0.884140700745091
2.412335239990052,-0.23021010256225372,0.2552023923721882,0.8568906371814968,0.9232478088159881
2.4148221835364336,-0.11543799169392416,0.20627144101528172,2.299551774116683,2.311668704453134
2.4173091270828153,0.004122562542576258,0.14776445834142127,3.502792585254987,3.50591032771635
2.4197960706291965,0.11410635315490647,0.08446986606700024,4.394786992301768,4.3970794996006735
2.4222830141755782,0.21451338309756102,0.03554129576315335,4.951592950302274,4.956364788906852
2.4247699577219595,0.28619004202947385,0.000978765613706578,5.154056817757322,5.161996452808709
2.427256901268341,0.33392473619691787,-0.024006109623912142,4.983024953303875,4.9942586745174244
2.429743844814723,0.357717468511597,-0.053778521938947055,4.505534975480488,4.5200331118232135
2.432230788361104,0.3432030319100222,-0.0596080335438387,3.764682486360849,3.780763899252015
2.4347177319074857,0.30474663923628925,-0.036706223358569545,2.7844094748728683,2.8012772059760285
2.437204675453867,0.237559890038968,-0.023380300291869993,1.650907173245395,1.6680754882409146
2.4396916190002487,0.16558480377420554,-0.00047663351461713077,0.46473202380450473,0.4933501883752353
2.44217856254663,0.08403297996196907,0.05115840769645397,-0.7070783542294006,0.7138897137647264
2.4446655060930116,0.0024812280688631394,0.09321761411503982,-1.797486341499157,1.7999035607359786
2.4471524496393933,-0.06470523913257592,0.12570100297160192,-2.744242721832034,2.7478820255693948
2.4496393931857745,-0.1223148221653067,0.16776220467209058,-3.513828698839295,3.519956988064545
2.452126336732156,-0.17034751824637245,0.21461283291526012,-4.048783459394638,4.058044411547541
2.4546132802785374,-0.19443811464621047,0.23752248469268666,-4.320376610156591,4.331267385506223
2.457100223824919,-0.18500980196993155,0.26043319341381066,-4.357338597490496,4.369033500470912
2.459587167371301,-0.16121619075886812,0.2737681691404079,-4.140515834421562,4.152687207784012
2.462074110917682,-0.1278456816078144,0.26316221850849475,-3.6986387670413885,3.7101923940164507
2.4645610544640637,-0.07532146516497479,0.25255737461120287,-3.098745067866651,3.109932402193494
2.467047998010445,0.0011448645867660479,0.24674205715509823,-2.350411569433045,2.363327632641899
2.4695349415568266,0.07282289040790563,0.2169858624993175,-1.5158875406629484,1.533069167985938
2.472021885103208,0.12055900168517675,0.1872308234212685,-0.6669990569823305,0.7031910097133288
2.4745088286495895,0.17787202431440124,0.15268855267134107,0.14358141960226867,0.2748961171162201
2.4769957721959712,0.22560834765349114,0.11814746953555755,0.8775466371813927,0.9137538243514852
2.4794827157423525,0.24461436104601003,0.09318439651524946,1.506166150624491,1.528743271668221
2.481969659288734,0.2588320837038875,0.05385733276469873,1.9863443049768765,2.003860862874739
2.4844566028351154,0.2586847115824568,0.033685117177122414,2.2845622520620132,2.2994080000453145
2.486943546381497,0.2345954406226311,0.02309095865819799,2.40560837040327,2.4171304981086474
2.4894304899278787,0.1961410800321428,0.022074872649583632,2.3494826353410936,2.357758952278201
2.49191743347426,0.15768684232463737,0.021060067847751718,2.120973425673837,2.126931343300643
2.4944043770206417,0.11923273003835194,0.010469752844703084,1.7488111369386399,1.752902294002049
2.496891320567023,0.08077874569711946,0.014245959370243977,1.2617261648102769,1.264389602963275
2.4993782641134046,0.04711329513064377,0.04196550908894947,0.6932373084212902,0.6961025300330095
2.501865207659786,0.008659574193255914,0.0648979969986958,0.09601698032295936,0.11621531202896973
2.5043521512061675,-0.02500560799390039,0.07825503459481764,-0.5012044233974926,0.5078927100321423
2.506839094752549,-0.04909384564443209,0.1059786531905158,-1.0553312965544013,1.0617748471777944
2.5093260382989304,-0.05402832966607235,0.12891525411226867,-1.537633242785553,1.5439735076964733
2.511812981845312,-0.04459746094193129,0.1374880452233711,-1.9385334788724844,1.9439145929827442
2.5142999253916933,-0.030378043689871626,0.14127384756466688,-2.210147994896743,2.2148668774647025
2.516786868938075,-0.016158478821883204,0.14506107875308727,-2.3524768140055254,2.3570004186339113
2.5192738124844567,0.01242644601685955,0.12969613970050986,-2.3750967658491664,2.3786677263461984
2.521760756030838,0.04101152324484891,0.1382746743794856,-2.2827962766203003,2.2873479558574212
2.5242476995772196,0.06959675522710207,0.1324894702139936,-2.061210159092819,2.0666360318167225
2.526734643123601,0.09818214431420097,0.10755213776703121,-1.7438572591062265,1.749927237326705
2.5292215866699825,0.11719088620164231,0.09698151406105637,-1.3690448256831669,1.3774697283817725
2.5317085302163638,0.11704617657051114,0.07683559617185098,-0.9511380911072749,0.9613881550362735
2.5341954737627455,0.11211322768901733,0.05190280099424838,-0.5140790941651439,0.5287159839001965
2.536682417309127,0.10239204185001233,0.03654835196105077,-0.0913866801474299,0.14202618622511898
2.5391693608555084,0.10224783129284953,0.025983859121214703,0.2786319024729025,0.2979354242358421
2.54165630440189,0.07816177503934307,0.005844125780644749,0.5863998252816227,0.591614884848039
2.5441432479482713,0.03971068197970623,7.118170542907976e-05,0.8271286633220445,0.8280813782588282
2.546630191494653,0.020413377591273374,0.01345344327821607,0.9816647818138602,0.9819691670181798
2.5491171350410347,0.0011162508135659777,0.007683696896791048,1.0547965627151807,1.0548251390299914
2.551604078587416,-0.032545906107990574,0.01628077866169164,1.0513123881213264,1.051942031280996
2.5540910221337976,-0.06620788102052644,0.0248794913685515,0.9472702203427055,0.9499070180539271
2.556577965680179,-0.080716058465231,0.019114637711343363,0.7618236517094807,0.7663261236399075
2.5590649092265605,-0.09043564623987743,0.02771665016533653,0.5284914846496402,0.5368892512934049
2.561551852772942,-0.10015504551599747,0.03632033122161138,0.23769689184513076,0.26048034857776675
2.5640387963193234,-0.09072064087794568,0.04013728991063248,-0.08661813064291657,0.1316963829372269
2.566525739865705,-0.08128604348693963,0.04874434512271453,-0.38699276337483823,0.39843045936737376
2.5690126834120863,-0.07663965455763233,0.05735310568628105,-0.6682154299381722,0.675036944314925
2.571499626958468,-0.062416262037785,0.06117518032895353,-0.920709343823038,0.9248480352242192
2.5739865705048492,-0.0481926704910689,0.06499898431832163,-1.120532508422155,1.1234502676497615
2.576473514051231,-0.024392071214267785,0.06403612618084553,-1.267684943593295,1.269535629593556
2.5789604575976126,-0.000591268799726874,0.06786342430356962,-1.3478014590971288,1.3495090096406728
2.581447401143994,0.008844528825549758,0.06690408369209067,-1.3513052678782955,1.3529893972609157
2.5839343446903755,0.01828053364211657,0.06115811589258424,-1.3069268093078072,1.3084846876969012
2.5864212882367568,0.03250515097559037,0.05062553235133782,-1.190724086097184,1.1922430031574
2.5889082317831384,0.04194157617634764,0.04967155437585369,-1.036215940665718,1.0382532614039837
2.59139517532952,0.04658981122109568,0.043930983252186806,-0.8481907953749506,0.8506045891940112
2.5938821188759014,0.04644985807225649,0.03340383012792314,-0.6362254757709476,0.6387928155529902
2.596369062422283,0.04152171867797744,0.02287850937171987,-0.4194736139047013,0.42214404185694177
2.5988560059686643,0.0318053949721408,0.031508645214095576,-0.2027236317307004,0.20760840237005407
2.601342949515046,0.012512485554061814,0.030563828583535457,-0.0051291610288863865,0.03342182229149978
2.603829893061427,0.007585008930687143,0.02962087687228543,0.1685213765171003,0.17127283220166586
2.606316836607809,0.007446160352542641,0.02867980073339771,0.28470913943700715,0.28624686959522255
2.6088037801541906,0.007307538376244926,0.03252901404184083,0.353010916278544,0.35458178729803896
2.611290723700572,0.0023807415442005375,0.04116852725404874,0.38300349572445747,0.385217072965
2.6137776672469535,-0.0025458249747573047,0.04980994740809619,0.3842636665924086,0.38748687403400023
2.6162646107933347,-0.0026837560259816984,0.039299671483256304,0.33284939459269935,0.3351721739730572
2.6187515543397164,0.011543756851312426,0.04315653288454424,0.23833746881243378,0.24248813103485048
2.621238497886098,0.025771505502186154,0.04222692839603104,0.12466988843420879,0.13412630263975373
2.6237254414324793,0.025634281757551503,0.041299271306022955,-0.008153363826428617,0.0492871540395684
2.626212384978861,0.03986250731699792,0.05473878144630806,-0.16492070844020468,0.1782812209859563
2.6286993285252422,0.044514167342555255,0.06818025862984056,-0.3312669524622116,0.34112732601571827
2.631186272071624,0.04916607022433256,0.057681695932180865,-0.49282690281364694,0.4986209348230461
2.633673215618005,0.06339502433834482,0.056761926176056576,-0.6352353662818082,0.6409093664078085
2.636160159164387,0.07283582144496425,0.06063255552530178,-0.7297619395593244,0.7358898369351751
2.6386471027107685,0.07270005993112222,0.06929359336786245,-0.7955602524083574,0.8018746884693821
2.6411340462571498,0.08214135477126266,0.0827450489956778,-0.8326303211763957,0.8407539455983917
2.6436209898035314,0.0820060943632942,0.08183331832362706,-0.8361837587573184,0.8441711733470262
2.6461079333499127,0.06271747373173053,0.08092362041315848,-0.8062205812321892,0.8126953546406133
2.6485948768962944,0.05300591444958158,0.08959277090999018,-0.752317611189719,0.7594855361836533
2.651081820442676,0.052871418153993766,0.08389876212243408,-0.6888400744061354,0.6959418346752416
2.6535687639890573,0.05752558314782913,0.07341840950597334,-0.6014227766031155,0.60861220147799
2.656055707535439,0.033449587798119185,0.06772852842127275,-0.5044309432917515,0.5100554921145164
2.65854265108182,0.018950660262644137,0.06682912749376291,-0.3882877832492291,0.39445235761314457
2.661029594628202,0.023605608763388186,0.061143408613839156,-0.26735852172215324,0.2752749903632078
2.663516538174583,0.013895611625619253,0.05545978353863301,-0.1512199805048322,0.1616674305990044
2.666003481720965,0.008974283684156259,0.05456666393128495,-0.04944898125976138,0.0741839627403507
2.6684904252673465,0.008841626478699627,0.04888725140021588,0.028377654482195425,0.057213888018274185
2.6709773688137277,0.003920834894474701,0.03842155410090209,0.07268310532163369,0.0823068804231698
2.6734643123601094,0.0037887170841217066,0.03753479005639271,0.0882557599513909,0.09598069600872108
2.6759512559064906,0.013233677866161753,0.04622696723566433,0.08946081383597004,0.1015642650830823
2.6784381994528723,0.022678912084373504,0.05013288355381462,0.04756783268803488,0.07273470817558808
2.680925142999254,0.017759211248458695,0.039675740153547245,-0.008692777805347163,0.044329655163020606
2.6834120865456352,0.012839786776234374,0.034009158006946816,-0.05537901514682453,0.06624438294250207
2.685899030092017,0.022285850071778357,0.033133144712567564,-0.1260097165525238,0.13218514688728503
2.688385973638398,0.03652059592389301,0.027470901136289694,-0.21579649254590372,0.22058225343619633
2.69087291718478,0.03639041246705943,0.031387644653723346,-0.291220533598608,0.29515901738874434
2.6933598607311615,0.03626051106426986,0.0305181726269943,-0.36664706325568197,0.3696975148917681
2.6958468042775428,0.031342489783615035,0.029650895608095862,-0.4468644982919603,0.44894254321675015
2.6983337478239244,0.03600155996079707,0.023997417417239486,-0.5079308354311642,0.5097702638876738
2.7008206913703057,0.031084109675722005,0.013557745104020302,-0.540269281228765,0.5413325508096519
2.7033076349166874,0.026166946916579836,0.007908692267959427,-0.5630334620332373,0.563696670110315
2.7057945784630686,0.026038476337676197,-0.007314944183456351,-0.5714349874627889,0.5720746940347846
2.7082815220094503,0.025910295939149675,-0.012959544190788819,-0.5511086603665287,0.5518695939733201
2.710768465555832,0.025782407027921672,-0.004236697745545914,-0.5164197033871751,0.5170802569876735
2.713255409102213,0.016078004256794398,-0.0050884148508818505,-0.45779132243789,0.45810183265951726
2.715742352648595,0.015950702186955212,-0.015514688997922299,-0.408742353186776,0.40934758062509946
2.718229296194976,0.020612098764579645,-0.025938707126467175,-0.3501191946509348,0.35168327456092163
2.720716239741358,0.025273791922408362,-0.026783656265377598,-0.29149866564197424,0.2938155899065442
2.7232031832877395,0.020358976259460593,-0.022837933493276008,-0.23288077820373765,0.2348819192218827
2.7256901268341207,0.02023286296293264,-0.02846674261798876,-0.16947714093289434,0.1730382197023067
2.7281770703805024,0.015318646605096742,-0.048458480895059,-0.13959499218220905,0.1485585647036873
2.7306640139268836,0.019981538346449168,-0.04450591578531249,-0.11450392369368068,0.12446359691021384
2.7331509574732653,0.029433136052926523,-0.03576265468117468,-0.08462714036435237,0.09647294881987814
2.7356379010196465,0.03888503757717271,-0.03659390174237087,-0.0786950735278431,0.09510033853599609
2.7381248445660282,0.04354884075857063,-0.03742284461441825,-0.09191933114986561,0.10837958419134525
2.74061178811241,0.03384774010295882,-0.023884267709646245,-0.09556950446912538,0.10416169131968658
2.743098731658791,0.03372375334514105,-0.024708585410045725,-0.10879921780223434,0.11655503218234493
2.745585675205173,0.03360007496455403,-0.02074217898110753,-0.1459736920205401,0.15122011039744498
2.748072618751554,0.019111496107159898,-0.016773446376245893,-0.17836251798787117,0.1801659945987712
2.7505595622979357,0.023776841108910596,-0.012802382314672123,-0.21075410968578723,0.2124771373948224
2.7530465058443174,0.033230901089526976,-0.013617384921765563,-0.24314847765138303,0.24578630585025393
2.7555334493906987,0.023531660515025477,-0.0144300457678872,-0.2946992455789985,0.29598920691857766
2.7580203929370803,0.023409540361798153,-0.020028763149368523,-0.31752239055500375,0.31901352077460365
2.7605073364834616,0.018499331710403466,-0.016048322166381634,-0.33555993934702677,0.3364524436122701
2.7629942800298433,0.013589438909648976,-0.007277121285182986,-0.36317711195892777,0.36350411826402446
2.7654812235762245,0.008679862975054076,0.0014964409434057302,-0.36685509506859937,0.36696081553015153
2.767968167122606,0.003770604909198727,0.0054839658842396055,-0.37532431839537317,0.37538331785276796
2.770455110668988,0.0036500690220555576,-0.009679751822497362,-0.3885847916144112,0.38872247281733824
2.772942054215369,0.0035298529700846237,-0.005687481096973368,-0.38269450767725743,0.38275304506895474
2.775428997761751,-0.0013784456031137315,-0.006481234106947564,-0.3624418793355595,0.36250244468709736
2.777915941308132,0.008078787534792575,-0.01206100650187647,-0.33261531921947984,0.33293195290531535
2.7804028848545137,0.003171133400208137,-0.01284998737358567,-0.2980032398379784,0.29829701509816503
2.7828898284008954,-0.001736197120421279,-0.013636575857571387,-0.2633940535790913,0.26375253182175423
2.7853767719472766,0.0029336035262902405,-0.019209171171787,-0.23357617271023656,0.23438307691622862
2.7878637154936583,0.0028153262794572975,-0.024779365975759138,-0.20376120273783904,0.2052816864247543
2.7903506590400395,0.007485778667069343,-0.0351355596515619,-0.18831436232952825,0.19171031139158284
2.792837602586421,0.012156558243524962,-0.026335731741049084,-0.1728704501113043,0.17528703658955977
2.7953245461328025,0.016827665870911612,-0.012745088429957363,-0.1526410712303239,0.15409381637201178
2.797811489679184,0.011922295758098278,-0.013517239305449014,-0.15156825063645307,0.15263614085654484
2.800298433225566,0.021382465343578905,-0.0047101641527098614,-0.17444039987944038,0.1758091254190575
2.802785376771947,0.011689352209565906,-0.0006890693999888065,-0.1925271071482797,0.19288287316037797
2.8052723203183287,0.006784973769521141,-0.00624235491519709,-0.20103997711525956,0.2012512739399293
2.80775926386471,0.021034540783812006,-0.002216404044696141,-0.21434422761595862,0.21538526473544348
2.8102462074110917,0.0257076341175545,-0.002976423456765964,-0.23243986640736125,0.23387610618442403
2.8127331509574733,0.020804254545335576,-0.008522409938206632,-0.23138488452754657,0.2324745432647799
2.8152200945038546,0.01590120946999113,-0.009277553714371223,-0.22075609613973057,0.22152240394232262
2.8177070380502363,0.025363709602325424,-0.01960706169107196,-0.2197071219310356,0.22203372279941516
2.8201939815966175,0.025249739078334887,-0.02514572093086409,-0.21866116255029233,0.22154584313974895
2.822680925142999,0.020347701943616514,-0.02110512521526342,-0.2415602417724081,0.24333270575465693
2.825167868689381,0.02981121219245625,-0.031427288325715175,-0.254885543412783,0.2585401768869221
2.827654812235762,0.0344866572444284,-0.03217019091830897,-0.25384867109321974,0.258192560945138
2.8301417557821438,0.029585634467871103,-0.02333383032818359,-0.26239164824226613,0.26508329723304724
2.832628699328525,0.024684951179907988,-0.014495010608297498,-0.2709376749314707,0.2724457300905272
2.8351156428749067,0.019784608044931817,-0.005653729247903527,-0.19329549799290469,0.1943876151256175
2.837602586421288,0.010096202394941745,-0.0015983871331908261,-0.2018476434413632,0.20210630694527784
2.8400895299676696,0.019561751471768474,0.0024594214139375126,-0.2295564711621907,0.23040157188433472
2.8425764735140513,0.024239239302106252,0.0017312953549013521,-0.2476915674897402,0.24888079618780393
2.8450634170604325,0.01455185986161811,0.010582446856601813,-0.25146453524677703,0.2521074320478921
2.847550360606814,0.019230033676515712,0.00985926476829091,-0.2696058003854347,0.2704704917332796
2.8500373041531954,0.014331744737673902,-0.0052266521750308215,-0.2877501588625595,0.2881542481477808
2.852524247699577,-0.00014300637434322416,-0.005944882071064139,-0.2771671965619156,0.277230981175722
2.855011191245959,0.00453620083106826,0.002916173665702182,-0.25222212913827846,0.25227977250242384
2.85749813479234,0.009215753629582657,-0.0025854997347720676,-0.2368569787755863,0.23705029702267455
2.8599850783387217,-0.0004695573945734388,-0.012873093874355312,-0.21670654098416442,0.2170890645227578
2.862472021885103,-0.0005777151064063069,-0.023158203748943063,-0.1965592244448242,0.19791959193059314
2.8649589654314846,0.004102877695509155,-0.023864021107541156,-0.18120343772795877,0.1828141431980461
2.867445908977866,0.008783818200939708,-0.019778947733219532,-0.18021599261420285,0.18151078819051777
2.8699328525242476,0.008676703588030799,-0.020479788802189258,-0.16965487753228992,0.17110664629123298
2.8724197960706292,0.0037815343436546356,-0.016389736281942735,-0.17346211400470324,0.17427572536748925
2.8749067396170105,0.0036751175837593797,-0.017085595493457895,-0.17727249688242885,0.1781318674846005
2.877393683163392,0.003569050451843525,-0.02256736518902347,-0.18108603086873742,0.18252171012922236
2.8798806267097734,0.0034633334002425187,-0.02804664087225106,-0.19926793051954306,0.20126181176765676
2.882367570256155,0.008146370190165841,-0.023946614797778043,-0.20787618372031602,0.2094094349967808
2.8848545138025368,0.008041354610483553,-0.024632495892839223,-0.20212239153021372,0.20377655506896591
2.887341457348918,0.003148287079330181,-0.0301042831944609,-0.21073697814335723,0.21289963253885621
2.8898284008952997,0.0030439746441340843,-0.03557357248979365,-0.21456633444391215,0.21751656653693646
2.892315344441681,-0.0018483889402119424,-0.03146355631580455,-0.2279756744517396,0.23014404198118546
2.8948022879880626,0.0028364066714962055,-0.027351040560534834,-0.23659979215872617,0.23819233042250237
2.897289231534444,0.012309958531998677,-0.04717804114248647,-0.22128507813070009,0.22659300176398148
2.8997761750808255,0.007418653721922852,-0.04784892756500447,-0.21555035935156397,0.22092196293885133
2.902263118627207,0.0025277025529501507,-0.0389405059237915,-0.20024202617679343,0.20400887561374545
2.9047500621735884,0.0072139120053466566,-0.04439479234408328,-0.19451369541973662,0.1996459762167453
2.90723700571997,0.011900475767072816,-0.049846576456926694,-0.19357696718793704,0.20024571089948115
2.9097239492663514,0.01179899083538044,-0.050507454601981916,-0.18785503816476457,0.19488390010206028
2.912210892812733,0.01648626415747778,-0.04637742650690946,-0.19171312153166653,0.19793075446400304
2.9146978363591147,0.016385489388382135,-0.04703329860737826,-0.18120920380447458,0.18792921801529214
2.917184779905496,0.021073473453455227,-0.06684028072642301,-0.16592009463850665,0.18011438647657083
2.9196717234518776,0.03055021662657542,-0.07227954955073468,-0.16978781354766248,0.1870442478358626
2.922158666998259,0.02566210588954415,-0.06813950839594485,-0.18323555670171032,0.19717202013194698
2.9246456105446406,0.025562754775879437,-0.06399696396414178,-0.1775329068875937,0.19043896359809992
2.927132554091022,0.020675356886480534,-0.06942872302324243,-0.18141028663482572,0.19533947389084233
2.9296194976374035,0.030153525733417674,-0.07006957580512596,-0.18529089180962188,0.20037887901490808
2.932106441183785,0.03005524493528544,-0.07070792588812891,-0.18438632149810097,0.1997529576429901
2.9345933847301664,0.029957321342242604,-0.0713437735951743,-0.1739081746863711,0.1903455498706162
2.937080328276548,0.03464815847355285,-0.0671887159934581,-0.17301006686248854,0.18880493022752548
2.9395672718229293,0.02976254655668764,-0.06303115685507343,-0.17690359681372492,0.19014104890228417
2.942054215369311,0.02487729241017972,-0.07323630665669478,-0.17601195990820884,0.19225671983341425
2.9445411589156927,0.02956920284209974,-0.07386214937614444,-0.18470036801720902,0.20110738627129923
2.947028102462074,0.024684664728231276,-0.0744854922967626,-0.18860361299207717,0.20427614659842566
2.9495150460084556,0.0198004848558459,-0.0703179328039707,-0.19729850318810982,0.21038861716979582
2.952001989554837,0.02449347000188229,-0.06614787498651431,-0.20599663690242842,0.21773857226746843
2.9544889331012185,0.02439841033142559,-0.07155212631584051,-0.19554440237438797,0.20964875985079226
2.9569758766476,0.019515305960241536,-0.07695388104421541,-0.19946062427036182,0.21467949974045392
2.9594628201939814,0.019420963634510957,-0.06798793016534743,-0.189014883996645,0.20180723190442487
2.961949763740363,0.024115383449616612,-0.07338469461719077,-0.1689955861061314,0.18581273704010517
2.9644367072867444,0.014444952209568762,-0.08835577215663815,-0.15855634501742166,0.18208655541531926
2.966923650833126,0.009563283270788259,-0.07459393735919173,-0.15769716177308446,0.17471149564052943
2.9694105943795073,0.009470376698403449,-0.0799832246264649,-0.15684123068067102,0.17631272188326247
2.971897537925889,0.004589425906917133,-0.0853700219358644,-0.1464117459537544,0.16954498762485362
2.9743844814722706,-0.0002911657381878263,-0.08117752396527056,-0.14077391831390962,0.1625028345970324
2.976871425018652,0.004405408438964753,-0.08655934537396792,-0.15429295838955426,0.17696961576407597
2.9793583685650336,0.004313938502820802,-0.09672708427889676,-0.16302685015388363,0.18961142573589743
2.981845312111415,-0.010142382171694664,-0.08295032225432308,-0.17176399740963966,0.19101438344886873
2.9843322556577965,-0.005444730336630121,-0.07874788409714695,-0.18050440054734906,0.1970094235187092
2.986819199204178,0.004041684043095961,-0.084119771420335,-0.1844596565457497,0.20277533392079414
2.9893061427505594,-0.0008367523274447342,-0.08470077593384717,-0.18362976561281386,0.20222465828199643
2.991793086296941,-0.0009264261903426108,-0.07570249604588364,-0.17801472786587524,0.1934450038388813
2.9942800298433223,-0.005804144219174023,-0.07149014350318428,-0.1867681566132955,0.20006717130241863
2.996766973389704,-0.005893099815836245,-0.07685212346883485,-0.18115963187050177,0.19687506121031217
2.9992539169360852,-0.005981696352690191,-0.07263482456100645,-0.17076596012604028,0.18566801439136563
3.001740860482467,-0.0012815305709579228,-0.07320345869638611,-0.16995235109981266,0.18505185848856479
3.0042278040288486,-0.0013694091822332166,-0.07376962456641456,-0.16435359450131948,0.18015531303761842
3.00671474757523,-0.0014569289465701796,-0.06475651759790413,-0.17312330319414215,0.18484373757910733
3.0092016911216115,-0.0015440899536852126,-0.07489455983552906,-0.16274265343075456,0.1791556601183044
3.0116886346679927,-0.0016308923026012168,-0.08024173685556502,-0.15715366122011787,0.17646152378971458
3.0141755782143744,0.007859470539021307,-0.07122124424994025,-0.1611447292031194,0.1763571962229216
3.016662521760756,0.012561788492741421,-0.08135190754779353,-0.15556224333269597,0.17599870153640915
3.0191494653071373,0.0028992547912570776,-0.08669171248857932,-0.14040620275706495,0.1650386635464707
3.021636408853519,0.0028138859003251637,-0.07287545150612473,-0.14440702646080084,0.1617780537567813
3.0241233523999003,0.0075172783547435285,-0.06384514365018301,-0.16756471342149482,0.17947324320244198
3.026610295946282,0.0074326253599585335,-0.06438919474235405,-0.1572068260086379,0.17004469548627632
3.029097239492663,0.007348330073360165,-0.060142397375767764,-0.1516405895934252,0.16329719632992298
3.031584183039045,0.007264392323076463,-0.060681560797568146,-0.1700196161819978,0.18067012233163063
3.0340711265854265,0.007180811928331199,-0.05642988102577862,-0.15967146789245135,0.16950183831293308
3.036558070131808,0.0023091853791769035,-0.05696416741147736,-0.13974975656463506,0.15093125311171635
3.0390450136781895,0.007014722438102028,-0.052707616075970964,-0.1437733039168574,0.1532907761167142
3.0415319572245707,0.006932212936951954,-0.04366022983235318,-0.16216530170254728,0.16808288527240164
3.0440189007709524,-0.0027267466605259694,-0.04897562482578888,-0.16619532831230366,0.1732828154412939
3.046505844317334,-0.002808543297696864,-0.059076997330083536,-0.16544018861802634,0.17569415340005445
