Time (s),Acceleration x (m/s^2),Acceleration y (m/s^2),Acceleration z (m/s^2),Absolute acceleration (m/s^2)
0.0,-0.07753210558862866,0.5978547330236023,-4.515450269946097,4.555516726953377
0.002486943546381497,0.12032440188130833,0.460853819653296,-4.3509284189230435,4.37692155645601
0.004973887092762994,0.39479531719855965,0.4675053480860836,-5.235069471360028,5.270709341534284
0.007460830639144491,0.7315154600747941,0.6082325819298834,-7.062529136522734,7.126315986979674
0.009947774185525988,1.0730240203392143,0.8686703814634065,-9.651348670482289,9.74958973183369
0.012434717731907486,1.4001674143832192,1.229665203634608,-12.776473699344656,12.911654638015069
0.014921661278288981,1.6890036552769399,1.6433330854575852,-16.179331025878447,16.350046771255773
0.01740860482467048,1.8964371428076507,2.0809436772141567,-19.625289469345887,19.826214645765756
0.019895548371051976,2.027256309963488,2.5281318391320093,-22.90844826881034,23.13651271966195
0.022382491917433474,2.0623075731281104,2.9370136081800324,-25.813329856561026,26.06160316911531
0.02486943546381497,2.0063793652831716,3.2788586345902178,-28.153187084662793,28.414405063753925
0.02735637901019647,1.8498949094451684,3.5440901818561175,-29.81788725814643,30.084698551467177
0.029843322556577963,1.6407382684694711,3.7135547068094326,-30.764335328355287,31.031062482963357
0.032330266102959464,1.3932746819637336,3.7872522795403514,-30.949436246448133,31.21140974293283
0.03481720964934096,1.112292582888811,3.755606163474136,-30.38755580323018,30.63895102870695
0.03730415319572246,0.8504644374018479,3.628193235291469,-29.174462645741915,29.411500243606927
0.03979109674210395,0.6221554850900117,3.4241671782862872,-27.439444244043298,27.659267863311953
0.04227804028848545,0.44173096553233715,3.148316465762695,-25.306999664638482,25.505906273655814
0.04476498383486695,0.31876771497876155,2.838948394236551,-22.920781587064706,23.09812696742261
0.04725192738124844,0.27720777963072685,2.5295818568714474,-20.481903530442125,20.639379853911272
0.04973887092762994,0.30268597911709416,2.2202169235552986,-18.14359498041424,18.281439243202605
0.05222581447401144,0.39520234301692914,1.9347956807425744,-16.02556659909621,16.146776893244493
0.05471275802039294,0.5356032876166689,1.687683408210583,-14.257105854944962,14.366635428212168
0.05719970156677443,0.7095236325110333,1.5076105956595112,-12.924404586223172,13.03136782542888
0.059686645113155926,0.897809793961754,1.3945773128280943,-12.075347404306946,12.18872114876253
0.062173588659537427,1.0813081882172404,1.3485836294139697,-11.738665306954484,11.86525045635893
0.06466053220591893,1.2552304414728679,1.3600528084315373,-11.890416855051278,12.033592983386558
0.06714747575230041,1.3908461633078342,1.4337733228120055,-12.487506995839746,12.646263873664115
0.06963441929868192,1.4737901732470164,1.5649568388003199,-13.467687062906673,13.638172245812529
0.07212136284506342,1.494485694119697,1.748815022594273,-14.759131582811328,14.937329297833621
0.07460830639144492,1.4720863686604853,1.9470407171008126,-16.22297743522917,16.405578401714436
0.0770952499378264,1.3970154196649263,2.1500571850985954,-17.7538803226659,17.938078617664686
0.0795821934842079,1.2836380865122943,2.348287689314616,-19.236919140562215,19.422184218811754
0.0820691370305894,1.1511080118837063,2.5225786857820696,-20.59548001048445,20.78129567046409
0.0845560805769709,0.9946368218396029,2.668141840440423,-21.73858384358872,21.924285867795206
0.0870430241233524,0.8429549656628624,2.7897656258136068,-22.584828357210075,22.77208460474682
0.0895299676697339,0.7056392793347237,2.8491428844850812,-23.115060511373535,23.300677338077797
0.0920169112161154,0.592266598815396,2.855850492182286,-23.30533886229738,23.48713437702179
0.09450385476249688,0.5219905666840603,2.829042131212649,-23.174817595583878,23.352689869059354
0.09699079830887838,0.480446002255403,2.754352660579294,-22.74743929964449,22.918623030865838
0.09947774185525989,0.4772097414227451,2.646147359143618,-22.04714656236726,22.2105041934242
0.10196468540164137,0.5074934100949068,2.523579909022246,-21.131400794346703,21.287604483591547
0.10445162894802287,0.576085440797138,2.3818619756636856,-20.06245180894968,20.211558908026845
0.10693857249440437,0.682985862709546,2.235358837729663,-18.92170303226412,19.065522402055244
0.10942551604078588,0.7994642850649077,2.08885896717178,-17.809711503086824,17.94960441767482
0.11191245958716736,0.9159439303511637,1.956727642511294,-16.769573419786298,16.908173438669184
0.11439940313354886,1.0180596177092305,1.8437533355564066,-15.873115400056207,16.012234830000686
0.11688634667993036,1.0914461662526826,1.7643013246820543,-15.129914817817363,15.271487690873865
0.11937329022631185,1.1552572183093184,1.7231600815471972,-14.592644676252423,14.739375107325673
0.12186023377269335,1.1903391896158502,1.7107528677730577,-14.294824364629807,14.44595397945539
0.12434717731907485,1.1871153025204066,1.7318681548635406,-14.231666045010398,14.385719601883336
0.12683412086545634,1.1599507959428497,1.7625639943209785,-14.374439862196441,14.528476831209362
0.12932106441183785,1.1088456988116542,1.8172056641290601,-14.699204363641513,14.852554801569108
0.13180800795821934,1.0385884433445434,1.9053700388685757,-15.191594902758803,15.345802573641892
0.13429495150460083,0.9587558650478676,1.993538363153487,-15.784574395745166,15.938826709295205
0.13678189505098234,0.8741363960753638,2.081710704754494,-16.41589416141302,16.570431950192102
0.13926883859736383,0.7847300652275503,2.1603103247147857,-17.056824341100274,17.210984822998714
0.14175578214374532,0.7192673211932882,2.23412569395019,-17.68821188205704,17.843248097816968
0.14424272569012683,0.6825365960257449,2.288791670005555,-18.22386608430876,18.37970942567973
0.14672966923650832,0.6458074985011557,2.329096723615839,-18.630268683652282,18.786395878351794
0.14921661278288983,0.6378104772041527,2.345464115462505,-18.89784343172225,19.053516486245826
0.15170355632927132,0.6681223674021594,2.34268231609399,-19.03137928933877,19.1866606158194
0.1541904998756528,0.7175895844041593,2.315962989322735,-19.006934796612914,19.160954823344603
0.15667744342203432,0.7622701401616608,2.2653062021847243,-18.838875719419498,18.98988958177409
0.1591643869684158,0.8165292731508976,2.2146540382193365,-18.560721436104252,18.710205578549196
0.1616513305147973,0.8851554151691146,2.14964135430389,-18.167684097628452,18.315818396466984
0.1641382740611788,0.9585717880136493,2.0798450238163175,-17.69807148400276,17.845625498949058
0.1666252176075603,1.0032595968407159,2.0004767100712826,-17.171037761111656,17.316263300138196
0.1691121611539418,1.0335840799694958,1.9306900928812984,-16.639255917225412,16.7827500060043
0.1715991047003233,1.0495452657174824,1.8752736419928553,-16.117091713183957,16.25973068006743
0.1740860482467048,1.055931585681139,1.8246506170850454,-15.633276118908952,15.774779351804478
0.1765729917930863,1.0527430680946832,1.7931862943307006,-15.221328506751833,15.362702449896402
0.1790599353394678,1.0256145311888787,1.7713039331919036,-14.905191441521598,15.04507011278896
0.18154687888584928,0.9745460031123133,1.7637920029811303,-14.694442277153128,14.831970063971527
0.1840338224322308,0.923479528571457,1.7706505695786465,-14.579504753375751,14.71563715008446
0.18652076597861228,0.8676267323066285,1.777514488790537,-14.546014205662907,14.679879535466918
0.18900770952499377,0.8165644489742332,1.7987490362301726,-14.617913195103869,14.750785123994566
0.19149465307137528,0.775081109864933,1.8295658741137486,-14.7808370552676,14.913792477735596
0.19398159661775677,0.7383883395827621,1.860388261219883,-14.991690698832276,15.124716586831328
0.19646854016413826,0.716062972646108,1.891216262849234,-15.231321054097702,15.364979212047771
0.19895548371051977,0.712893440205892,1.9268383475028552,-15.499728661653988,15.635296980210969
0.20144242725690126,0.7145145600840609,1.9481009669590064,-15.744241624565921,15.8803895659632
0.20392937080328274,0.7209263600152052,1.9693693961155865,-15.950495271448,16.087773308926455
0.20641631434966426,0.7417056743256799,1.9858552964653873,-16.1328553498129,16.271532512452943
0.20890325789604575,0.7864293372924145,1.9879819260557254,-16.25780357293565,16.397765709298252
0.21139020144242726,0.8120017466189157,1.970960946127772,-16.301398459686624,16.440183260205664
0.21387714498880875,0.8423649464425147,1.9491576310761896,-16.292370964403577,16.430159640597484
0.21636408853519024,0.8679421576072486,1.9273604485259752,-16.211568007154398,16.348791366278004
0.21885103208157175,0.8791566009054921,1.8864158493702314,-16.07335533017173,16.207536291973277
0.22133797562795324,0.8855851103586516,1.855054317573582,-15.87294506131895,16.005495069771722
0.22382491917433472,0.8920161166150511,1.8236991104052693,-15.6438565539233,15.775037847096373
0.22631186272071624,0.8792960336681324,1.7827734850003853,-15.395667143601335,15.523466417337675
0.22879880626709773,0.8522132920590314,1.751431118280487,-15.1188005515687,15.243749820019922
0.2312857498134792,0.829921532235407,1.72967207374921,-14.846776127793742,14.970213646478197
0.23377269335986073,0.7884787647071473,1.707919608131642,-14.59395960782308,14.71469827026726
0.23625963690624222,0.7518270331317666,1.6957505912949533,-14.360351516091546,14.479658477372237
0.2387465804526237,0.7199663645091768,1.6931650863252778,-14.150740779193121,14.269850180555316
0.24123352399900522,0.683319979142089,1.6905863495264803,-13.99385833915192,14.112160699742324
0.2437204675453867,0.6514647105573549,1.697591250340798,-13.889704716888536,14.008216140704384
0.24620741109176822,0.6387657955444931,1.714179851425743,-13.857434045412976,13.97765762306268
0.2486943546381497,0.6356464542332879,1.725987005332568,-13.877893229970795,13.999249910613978
0.2511812981845312,0.6277415033745094,1.7378011777472442,-13.893621948033044,14.01594603169205
0.2536682417309127,0.6246277762612625,1.7496224308876833,-13.918985925653402,14.042418157428582
0.2561551852772942,0.6310937028065883,1.761450826822857,-13.977927694294134,14.102604401455498
0.2586421288236757,0.642350906222631,1.7637096208309673,-14.036928944331752,14.161873481342617
0.26112907237005717,0.6536110096607451,1.765975681320136,-14.105566994773682,14.230702642631968
0.2636160159164387,0.6792392494922251,1.7730374732256524,-14.169477146764056,14.296122217307111
0.2661029594628202,0.6905052321437356,1.7609530414072374,-14.233448313456737,14.358579455555613
0.26858990300920166,0.6921973872217931,1.7488760604525508,-14.273538986802391,14.396930919660223
0.2710768465555832,0.6986809509106975,1.760748608113528,-14.2897496740623,14.414761062171749
0.2735637901019647,0.714744352690776,1.743898308859904,-14.282080881197125,14.405897233369542
0.27605073364834615,0.7116571987363144,1.7126904334874329,-14.217014289615088,14.337477455975028
0.27853767719472766,0.7037847250400557,1.700643865913611,-14.123280822568681,14.242702120419622
0.2810246207411092,0.6911269575689509,1.6790282467312234,-14.020034595340446,14.1371200171514
0.28351156428749064,0.6784723255449105,1.6478436362931412,-13.883334091991347,13.997238258172622
0.28599850783387215,0.6658208548036876,1.6310321113908777,-13.741910231757654,13.85437403770973
0.28848545138025367,0.6531725711146954,1.6238053287300247,-13.605340319236873,13.717458341672524
0.2909723949266352,0.6357390968602067,1.602221331569757,-13.449682834417512,13.559691948604101
0.29345933847301664,0.6326740709567393,1.5854337928857807,-13.31324549907604,13.42223463177252
0.29594628201939815,0.6248239056905129,1.5782311755254748,-13.176875193759901,13.285753965373885
0.29843322556577967,0.6169770298810272,1.56624832888648,-13.030995604262719,13.139278554070417
0.30092016911216113,0.6234986789196437,1.5494853121577883,-12.894760834896456,13.002481006499753
0.30340711265854264,0.6348120715269234,1.537518990998342,-12.801690198521424,12.909307609347465
0.30589405620492416,0.6461288296740253,1.535137827575012,-12.727842166732579,12.836358394632159
0.3083809997513056,0.6574489785822353,1.542341880561521,-12.6684288229756,12.778894571862303
0.31086794329768713,0.6735609467224983,1.5447659984967494,-12.652181072498907,12.76392072328722
0.31335488684406865,0.6896763558540099,1.5471986430258584,-12.655157382579192,12.768025904369624
0.3158418303904501,0.6818532143831335,1.5352746623367282,-12.648627815715782,12.759693480459347
0.3183287739368316,0.6931871771285589,1.532936131002661,-12.64695806282498,12.758367837898493
0.32081571748321314,0.718889865633346,1.5353947034969566,-12.659725410028269,12.77273999546504
0.3233026610295946,0.7254424814457169,1.5330736307934394,-12.672565125362413,12.785557805894586
0.3257896045759761,0.7176334526029784,1.530761373646671,-12.69026608865371,12.802385775947304
0.3282765481223576,0.7098280137091955,1.5236695859893652,-12.688886758306309,12.799737184076731
0.3307634916687391,0.7116029959738057,1.516586728212615,-12.668427607817188,12.778711679295933
0.3332504352151206,0.699016407289299,1.4999360505633184,-12.633677512486482,12.741594860257713
0.3357373787615021,0.6816450787151485,1.4832944163853579,-12.579848539448186,12.685321896367991
0.3382243223078836,0.6786426478758072,1.4762386888373509,-12.502152754302461,12.607285988738763
0.3407112658542651,0.6660671224368349,1.4596153109697787,-12.410167431068276,12.51344788356736
0.3431982094006466,0.6582837365497742,1.4477895488880637,-12.332623455495552,12.434751036941371
0.34568515294702806,0.6552925143282815,1.4407614585484598,-12.264732888533562,12.366441472260732
0.3481720964934096,0.6475166731680086,1.4241658857570811,-12.17297736964314,12.273096771150664
0.3506590400397911,0.6445330436680528,1.4123680960517435,-12.071722569913643,12.171141782433038
0.3531459835861726,0.641553246388344,1.3957913381775664,-11.960968948890864,12.059212338457863
0.35563292713255407,0.6337889018101632,1.3935892806094563,-11.855082174491006,11.953524702740264
0.3581198706789356,0.6403936469372822,1.3866083650667838,-11.76363950971155,11.862377556609696
0.3606068142253171,0.6613675054127404,1.3748486463561902,-11.662699392701553,11.762064993109181
0.36309375777169856,0.6631916775574909,1.3822521956909635,-11.580992696519486,11.682030481492149
0.36558070131808007,0.6506545901746811,1.394453857526051,-11.52809667932082,11.630342471494654
0.3680676448644616,0.6524866865883032,1.3875116694790108,-11.465704564428515,11.567770254801585
0.37055458841084304,0.6495343768381069,1.3853677021728463,-11.41297041337227,11.515078472742985
0.37304153195722456,0.651374490804195,1.3928104127507217,-11.384259882716913,11.487627372541946
0.3755284755036061,0.6484302450035002,1.3906862415547512,-11.360419804133032,11.463577457810585
0.37801541904998753,0.6263364525503258,1.3885720486485396,-11.327085410952035,11.429054798761085
0.38050236259636905,0.6186119596793891,1.381679483933481,-11.289045548119693,11.390095185752493
0.38298930614275056,0.61089157933918,1.3700086004291272,-11.260665865548193,11.360136787137712
0.385476249689132,0.5983869310353254,1.3631362575926254,-11.208427978265126,11.306859206691925
0.38796319323551354,0.5858864408302012,1.3562741047162876,-11.156274339453148,11.253674933363476
0.39045013678189505,0.5686017280613049,1.3494221942079798,-11.118570593958436,11.214582481582301
0.3929370803282765,0.5561096219424357,1.3425805782699538,-11.080951965002345,11.175834508950729
0.395424023874658,0.538833338321132,1.326172502257374,-11.0242652707759,11.116811576736627
0.39791096742103954,0.5263497062407992,1.3193516312399773,-10.958087747675002,11.04977012547593
0.400397910967421,0.5234471513387745,1.322118016798113,-10.91115024365287,11.00341731509593
0.4028848545138025,0.5253372925256478,1.3153180970219167,-10.864299571728775,10.956233209983145
0.40537179806018403,0.5176549419848955,1.3037403263933018,-10.793594139864085,10.884364011449351
0.4078587416065655,0.5099769284147063,1.3017499658242078,-10.708611177517978,10.79948993204316
0.410345685152947,0.511880080426058,1.3045586627339194,-10.633293122359456,10.725242055416185
0.4128326286993285,0.5185760165814252,1.2930128543685797,-10.572428797018528,10.663819859438853
0.41531957224571003,0.5204879520350498,1.2766893976832068,-10.502076602439,10.592188465556447
0.4178065157920915,0.5080391018529052,1.2699535527393466,-10.431813761035983,10.521103749135188
0.420293459338473,0.5051715042545345,1.2680169661027325,-10.366429090126926,10.455903469125227
0.4227804028848545,0.5070967774486442,1.2565144774831358,-10.305923001925185,10.394615177842523
0.425267346431236,0.4994497329140134,1.2498113462960996,-10.24071910021336,10.328785317088988
0.4277542899776175,0.4918071986413389,1.2479076217793688,-10.185183003579153,10.273125160803218
0.430241233523999,0.48416919589071494,1.2412265463124512,-10.144103522166935,10.23122179497443
0.43272817707038047,0.47653574583192493,1.2345565720174347,-10.093539044390326,10.179918795707508
0.435215120616762,0.4736952728644209,1.2278977474769994,-10.038278376769796,10.124186528275605
0.4377020641631435,0.4708593946560614,1.2116733144133736,-9.987898727325025,10.072138887927341
0.44018900770952496,0.46323972878341235,1.2002485309297988,-9.942400495607943,10.025293771126487
0.4426759512559065,0.469989909332985,1.2079886549082484,-9.906572482657705,9.991011233074092
0.445162894802288,0.4815331503774841,1.2013749108055918,-9.880415084354178,9.964827047689246
0.44764983834866945,0.4739274559364274,1.199560959379453,-9.844775081451136,9.928904780141611
0.45013678189505096,0.46153805649927193,1.1929700412422037,-9.794864462812667,9.87803445740948
0.4526237254414325,0.46351858578291505,1.1816022034227731,-9.740260425407447,9.822611994844253
0.45511066898781394,0.460715450848578,1.1750342993659635,-9.671386551060863,9.753393365971558
0.45759761253419545,0.45312867194525064,1.1732663756505255,-9.549935999808785,9.63240142342577
0.46008455608057697,0.4599118825093891,1.171510075308804,-9.505196046024812,9.588154497586546
0.4625714996269584,0.4619114893208712,1.155400234505765,-9.460552619430405,9.54203163853873
0.46505844317333994,0.4639159156667626,1.1536673190617743,-9.406429294347241,9.488260026445
0.46754538671972146,0.47550198805977184,1.1519461646863296,-9.352403256488728,9.435069092431984
0.4700323302661029,0.4679393063551547,1.1550252201414808,-9.293686479712473,9.376868285135792
0.47251927381248443,0.4603815035160471,1.138962514038069,-9.225490935975937,9.306925902086993
0.47500621735886595,0.4624054057694348,1.1277001079601048,-9.152605401971881,9.233401969858287
0.4774931609052474,0.4644342259652485,1.1308148533000784,-9.09418386244351,9.175980683644664
0.4799801044516289,0.47125638681827486,1.1147879713364763,-9.055015090257518,9.135542298514352
0.48246704799801043,0.4732951009860057,1.1131383296003614,-9.011157436438097,9.09197687731972
0.48495399154439195,0.4753387909902427,1.1067123588669618,-8.972188073326016,9.052674634306845
0.4874409350907734,0.48217587925589145,1.095510102959767,-8.938107364690902,9.017893280970053
0.4899278786371549,0.4650759648685092,1.079531605468693,-8.904127269046695,8.981378878751588
0.49241482218353644,0.4623462933006036,1.0779305230307537,-8.870248146287448,8.947457766546096
0.4949017657299179,0.4644100767238738,1.0715532854857406,-8.822105144401334,8.899069745870657
0.4973887092762994,0.46647893053239253,1.0651883390397188,-8.759698619387832,8.83654619705923
0.4998756528226809,-1.3031563551732517,-0.7990647619386531,1.9424380424812604,2.471798237858208
0.5023625963690624,-0.8222369728128748,-0.8054049984733598,1.3390520721274655,1.765732511705896
0.5048495399154439,-0.2503328014282924,-0.6776575237003254,-0.04015797920514785,0.7235322343838144
0.5073364834618254,0.3503069341365349,-0.4349759089616978,-2.0467519567420993,2.121582560710001
0.5098234270082069,0.9222214122588026,-0.09172532251731402,-4.465252057252343,4.5604146525086735
0.5123103705545884,1.4223150211772282,0.31378705053290035,-7.094545685489257,7.242514812966746
0.5147973141009698,1.7979153423902536,0.733677218209354,-9.69042461434258,9.883071943741896
0.5172842576473514,2.025080377218312,1.1440032048944706,-12.042199437959203,12.264756873684387
0.5197712011937329,2.0942333368426604,1.5160346314103093,-13.948757555137403,14.18633185868642
0.5222581447401143,2.010162642305152,1.8258295216586995,-15.290389219127457,15.52966225528066
0.5247450882864959,1.7872335211877035,2.063811109261378,-15.97611510110413,16.20770723074967
0.5272320318328774,1.4445996042917582,2.206037417637629,-15.962839903443939,16.179175717190272
0.5297189753792588,1.0349333455599445,2.2333548732850694,-15.312813199564966,15.509390997216787
0.5322059189256404,0.606118795513361,2.1601287257010457,-14.102649770837033,14.27999533139851
0.5346928624720219,0.19646319793105216,2.01030103078062,-12.456848429820074,12.619547568197909
0.5371798060184033,-0.17009141347051315,1.7838718275739265,-10.528638406979127,10.680044779450332
0.5396667495647849,-0.45523779511577167,1.5143599781294732,-8.485614140719681,8.631695947995619
0.5421536931111663,-0.6446107201327685,1.2257075376108941,-6.4953700674230905,6.641363885606788
0.5446406366575478,-0.7190565584314833,0.9370681576168272,-4.706347008161755,4.852302672698379
0.5471275802039294,-0.6833636966258997,0.6580186828601791,-3.2621973786565004,3.3973381147852506
0.5496145237503108,-0.5471089247529519,0.4220779744098935,-2.258689559390307,2.36202381819597
0.5521014672966923,-0.3150806296320906,0.23403447316710446,-1.7532847022454892,1.7966789320654963
0.5545884108430739,-0.03516282806859605,0.09388821646629197,-1.7411947138987962,1.7440786832531707
0.5570753543894553,0.2495488663493629,0.030369661317073415,-2.198477885700923,2.2128040959246182
0.5595622979358368,0.5342660664927319,0.043478844560063346,-3.062885280392015,3.109436746514064
0.5620492414822184,0.8094119818085802,0.11406218950711344,-4.229072328778143,4.307343810448318
0.5645361850285998,1.017525788437113,0.22775452254249862,-5.591694459610995,5.68808208294478
0.5670231285749813,1.1490306956177467,0.3845558797631725,-7.011888276342615,7.1158085952366115
0.5695100721213628,1.2087151224467523,0.5653126837362166,-8.374732396966166,8.480372244095136
0.5719970156677443,1.1726370679942746,0.74608295345942,-9.574882244052002,9.675230615036483
0.5744839592141259,1.0647385644291611,0.9172899176421905,-10.50220483478385,10.595819713233514
0.5769709027605073,0.904173240495397,1.0885104180254817,-11.099239620799565,11.189079691328722
0.5794578463068888,0.7053063215118762,1.23101406953779,-11.346833278227727,11.435185966588422
0.5819447898532704,0.4777146293723068,1.3352241001384981,-11.225832481122067,11.315049693170694
0.5844317333996518,0.250128599146635,1.3915637375363283,-10.741025918060615,10.833681356039
0.5869186769460333,0.05127866579955198,1.4048214191499835,-9.969028325345972,10.067655063261707
0.5894056204924149,-0.10446994577049507,1.379785582146873,-8.991242840518519,9.0970967918037
0.5918925640387963,-0.21711722073147444,1.3116678568022104,-7.893861002354024,8.005039286511462
0.5943795075851778,-0.2675095310757616,1.219621889740879,-6.76307434754046,6.877369666777503
0.5968664511315593,-0.2652236688233516,1.0940709074137274,-5.675497604035401,5.786070151524677
0.5993533946779408,-0.21504802277984303,0.9637453625816759,-4.736475917626148,4.838311161371462
0.6018403382243223,-0.10740577189591816,0.8286452878310147,-3.993893592161484,4.080364571749645
0.6043272817707038,0.024184274888763402,0.6887707154950631,-3.5100001393545117,3.57702263844446
0.6068142253170853,0.17493372845009925,0.5824289042163973,-3.303949438936563,3.3594504212542557
0.6093011688634667,0.33047739291698897,0.49046627254031616,-3.347011335334761,3.398861184365755
0.6117881124098483,0.4716616689914555,0.427248062000569,-3.6439744941153336,3.6991290529315344
0.6142750559562298,0.5936981672298114,0.38798590059565474,-4.1708971588175245,4.230767505106509
0.6167619995026112,0.6726448848003495,0.3822566260307827,-4.85116513435006,4.912471315939274
0.6192489430489928,0.7037134320457298,0.41006026911607973,-5.608164223512727,5.666998145106211
0.6217358865953743,0.7108458391234956,0.4618200537663699,-6.365280226994525,6.421477395212681
0.6242228301417557,0.6701001028809666,0.5279592036415868,-7.065052556653132,7.116371455795566
0.6267097736881373,0.5958414466207596,0.6036893454668797,-7.65480902555225,7.701660150449222
0.6291967172345188,0.5072234968584995,0.6794337023917805,-8.086665847959924,8.130994426776628
0.6316836607809002,0.38988105676022267,0.7551923039509543,-8.317527639346931,8.360836602019402
0.6341706043272818,0.2725445592672794,0.8405419860640055,-8.356971449588347,8.40355657899424
0.6366575478736632,0.17436763057280535,0.8971755511915482,-8.209785923118272,8.260503189496289
0.6391444914200447,0.08577347684038061,0.9490350447022249,-7.880759702248719,7.938160875794188
0.6416314349664263,0.021127320727381216,0.9817552851459683,-7.389046637129127,7.454012342977601
0.6441183785128077,-0.014782421857293171,0.9761826874960318,-6.801684608987221,6.871394667714596
0.6466053220591892,-0.021955738432987815,0.9514708930316444,-6.161769480323038,6.234836168126394
0.6490922656055708,-0.00039261662705813993,0.926773542775365,-5.517185514829556,5.594483475601773
0.6515792091519522,0.04511855250474128,0.8877254542507504,-4.91581697407123,4.995532873325092
0.6540661526983337,0.10978937779849496,0.8343266546853485,-4.405548117482834,4.485198868461951
0.6565530962447153,0.18404306466174558,0.766577171049627,-4.0198979924074685,4.0964731511613905
0.6590400397910967,0.25830281839373737,0.6940538366974804,-3.7732320307752154,3.8452192437223522
0.6615269833374782,0.32778024750566503,0.6215450814051735,-3.689492469024078,3.7558105460551685
0.6640139268838597,0.4020521703612357,0.5634161413321714,-3.763891121536549,3.827004059416122
0.6665008704302412,0.4667533886141112,0.5292438490600964,-3.95812097731843,4.020532234498177
0.6689878139766227,0.4883650905281632,0.49508621367075945,-4.248240233201193,4.30478290969507
0.6714747575230042,0.49561770742273187,0.4705200672304437,-4.610307083880253,4.660682080259706
0.6739617010693857,0.4885112505866381,0.4603338382273221,-4.996437705312731,5.041323261569087
0.6764486446157671,0.4574689245593849,0.4741043582120026,-5.392267094560562,5.43236570735934
0.6789355881621487,0.4120675470529879,0.49746644187558253,-5.74991142330553,5.786082776800384
0.6814225317085302,0.352307129030056,0.525631710291772,-6.035852071051842,6.06893064976446
0.6839094752549116,0.2973412946256276,0.568176994237146,-6.240512431766275,6.273374877472207
0.6863964188012932,0.24238165126432065,0.6011603009879707,-6.330373880674612,6.3634720115264845
0.6888833623476747,0.1970050162227983,0.6389468641248441,-6.295859807464399,6.3312648646883805
0.6913703058940561,0.17078820666879924,0.6767483036889061,-6.160912422925222,6.200322472342651
0.6938572494404377,0.14936602305954572,0.7001994328224286,-5.949473935706262,5.9923976475378895
0.6963441929868192,0.1279500723839052,0.7188770810109781,-5.651967729073876,5.698938031696644
0.6988311365332006,0.12569397812330385,0.7136276575599598,-5.287547604075492,5.336967591726172
0.7013180800795822,0.14738615368920516,0.7083932013992875,-4.908886182859787,4.961925751395294
0.7038050236259636,0.17387299578246718,0.6888085246380651,-4.544714068832864,4.599903800051019
0.7062919671723452,0.2147313209167664,0.6740272623692667,-4.199819846658231,4.258979811525765
0.7087789107187267,0.26517273553576093,0.6496842261853777,-3.917299325420954,3.979653273636923
0.7112658542651081,0.3108320393334153,0.6109910340612017,-3.716306295463582,3.7790023924418996
0.7137527978114897,0.3373440318945954,0.5818897236351384,-3.5920525283863913,3.6544819076052555
0.7162397413578712,0.36386233593725686,0.5480151057248306,-3.5541150036099953,3.6144778066135625
0.7187266849042526,0.38081015414839,0.509367200850622,-3.6024938917740545,3.658200863686177
0.7212136284506342,0.37861068910588297,0.48509964255591687,-3.708458941456305,3.7591668541819647
0.7237005719970157,0.38120596652071637,0.4608472408837785,-3.862433512375997,3.9084639957234306
0.7261875155433971,0.3694423821119707,0.4366100155800958,-4.059629365433423,4.0997203031542035
0.7286744590897787,0.3385315414505792,0.4219647927733332,-4.266527839468081,4.30068804912113
0.7311614026361601,0.30762706659997197,0.416911591693335,-4.449610271181047,4.479674235119452
0.7336483461825416,0.281517369553575,0.4214504313120129,-4.6040884150574755,4.631900541794902
0.7361352897289232,0.25062565223483835,0.42600452370279385,-4.706020410163962,4.731904603080367
0.7386222332753046,0.2245287297394406,0.4401506939625697,-4.755406410032016,4.781007833966362
0.7411091768216861,0.19843820709311355,0.46388896028991145,-4.761823372697862,4.788479145019306
0.7435961203680677,0.17714249585323616,0.46848892070390047,-4.720483044101577,4.746980250886864
0.7460830639144491,0.15106479750729918,0.47310420616922677,-4.612231958087895,4.638893380769624
0.7485700074608306,0.139358733355735,0.4825232374322308,-4.461012276250756,4.489195925784989
0.7510569510072121,0.14202431130883597,0.4919576283413183,-4.276400948090496,4.306947675780988
0.7535438945535936,0.1399079258867817,0.501407395808013,-4.063186517655378,4.09639698778736
0.7560308380999751,0.1473747947431131,0.5012957498461339,-3.8405227368238126,3.8759039785577816
0.7585177816463566,0.16442492546164555,0.4916227068531738,-3.6227749520241623,3.659675777308747
0.7610047251927381,0.17669311555651068,0.47717668629011367,-3.41952010423579,3.457171646056445
0.7634916687391196,0.18417937239407456,0.47232291400187654,-3.2642771489120683,3.3034097961373488
0.7659786122855011,0.18688370323204706,0.45790779233464995,-3.1618346194581104,3.2002817416
0.7684655558318826,0.1991713251804672,0.4339313366594708,-3.0882506272320214,3.1249412087762853
0.770952499378264,0.20188863199862905,0.4147587720520689,-3.072255717991462,3.106692623266044
0.7734394429246456,0.19982403393888493,0.39560171005083644,-3.099484805488716,3.131012043571564
0.7759263864710271,0.19776594114513835,0.3764601652585524,-3.1555728013548645,3.1840969407595154
0.7784133300174085,0.17656074705133973,0.36212255534255755,-3.2453082283824415,3.270218943693821
0.7809002735637901,0.15536207154561021,0.36695410435523756,-3.325595574042506,3.3493848106882558
0.7833872171101716,0.13895832444686673,0.36222440621076846,-3.410800163533027,3.432793860974578
0.785874160656553,0.12734951214551304,0.3622986844509284,-3.510498916616367,3.5314417563600364
0.7883611042029346,0.12053564092381919,0.37675375904216724,-3.5815963144177694,3.60337402931423
0.790848047749316,0.11372831363568003,0.37207081981330337,-3.604938852551996,3.625872992110708
0.7933349912956975,0.09735072970668746,0.3769802995026015,-3.614045461046901,3.6349574832865934
0.7958219348420791,0.09055650837639373,0.3914822106720468,-3.6232814545404466,3.6454941093490647
0.7983088783884605,0.09334565549526441,0.39642295234818015,-3.5799744990794,3.6030656367331266
0.800795821934842,0.09135296684506988,0.40137934322544533,-3.4841246951289335,3.5083579681849417
0.8032827654812236,0.08936685138115485,0.41592820174454204,-3.3788277709339116,3.4055043398542977
0.805769709027605,0.10654092791221126,0.42570432949108916,-3.2592954194348334,3.288705182380558
0.8082566525739865,0.11414478193630229,0.41634252779742953,-3.111162524832338,3.1409715674639855
0.8107435961203681,0.1026016121253257,0.4069964209850552,-2.9535827924719698,2.9832573622622434
0.8132305396667495,0.1197954568876064,0.39766601984141703,-2.8344403455259712,2.864706143249742
0.815717483213131,0.13220749807892762,0.38835133490142937,-2.729793255268767,2.7604468475916835
0.8182044267595125,0.13504933736981473,0.39341758640866553,-2.610911187563506,2.643836785840594
0.820691370305894,0.13789778628469618,0.38413436447186955,-2.5352550659501816,2.567896660470683
0.8231783138522755,0.13596444628012883,0.36529008219022785,-2.4884597620775395,2.5188003418845666
0.825665257398657,0.13882612866677546,0.3464615557317643,-2.441794935549094,2.4701560296616654
0.8281522009450385,0.1369060313673226,0.34201400433361995,-2.443144697011398,2.470763617005881
0.8306391444914201,0.13020415883846237,0.33279382373984046,-2.458990298586089,2.4848215510653313
0.8331260880378015,0.12829732207100253,0.3188010227251006,-2.4941202168800842,2.5176834493619564
0.835613031584183,0.13597392862904134,0.3096124164543723,-2.548534523105239,2.5708708589014697
0.8380999751305646,0.1340803693688314,0.3100164165222892,-2.5839260598386176,2.605908978970011
0.840586918676946,0.12740505164202232,0.31522462763313897,-2.6146601041109694,2.636673296614494
0.8430738622233275,0.12073638269421516,0.3156602509214874,-2.6407367209249486,2.662275173110276
0.845560805769709,0.12365117298539685,0.31132329391342894,-2.662155973218642,2.68314856682545
0.8480477493160905,0.11699581294787575,0.30700216720659323,-2.650187501946368,2.6704741426176755
0.850534692862472,0.11513551615046747,0.31227368447047255,-2.6096197692454304,2.6307577579717547
0.8530216364088535,0.1324354960564369,0.2984074325639403,-2.554818041837283,2.5755934041153328
0.855508579955235,0.1305885295001894,0.28934543462151874,-2.4762055677881527,2.4964711411346987
0.8579955235016165,0.12874823305459016,0.28987610024903665,-2.388147609714947,2.4091187739083106
0.860482467047998,0.13649141654672303,0.285634225523975,-2.3097978315068985,2.3313907523226525
0.8629694105943795,0.13945287309708831,0.27183141291769175,-2.2172142651253477,2.2381640954896933
0.8654563541407609,0.14242100900255567,0.2724096845770232,-2.134338973692616,2.1563612022757015
0.8679432976871425,0.14060742381462715,0.26821543251996083,-2.06596040501063,2.0880379213379583
0.870430241233524,0.14837733026145417,0.2592486618000791,-1.988136584923316,2.0104508899973643
0.8729171847799054,0.14657711772454818,0.25508618386627946,-1.9248095704446584,1.947163499841564
0.875404128326287,0.1399951920826727,0.2509395999616002,-1.890344609918083,1.9120596436517094
0.8778910718726685,0.13820836243074414,0.24680891440484842,-1.8607997230977062,1.8821774095860326
0.8803780154190499,0.14121663111904503,0.24269413127067052,-1.8265981376749743,1.848053931792988
0.8828649589654315,0.12507798379243884,0.238595254389943,-1.8212587092037662,1.841074545828482
0.885351902511813,0.12331124583583697,0.23451228735016283,-1.8208394513770916,1.8400157564431396
0.8878388460581944,0.1263396126477933,0.23044523349584667,-1.8253403924757095,1.8441622086379297
0.890325789604576,0.11979787620316307,0.22639409592893323,-1.844338365410545,1.8620391574667565
0.8928127331509574,0.11326284497513905,0.21757047418887776,-1.8634681844838763,1.8795422468979701
0.8952996766973389,0.11152292401353836,0.20876277421400458,-1.873153065314618,1.8880470504136295
0.8977866202437205,0.10500130830434307,0.20475940170129592,-1.8542394148808654,1.868463404787054
0.9002735637901019,0.11285161265267907,0.19598355214587837,-1.8354576713671396,1.8493376929513194
0.9027605073364834,0.10634341855798546,0.18722363076332504,-1.8215962543632145,1.8342776574163722
0.905247450882865,0.09984193730012281,0.17847963920883636,-1.7695595482661464,1.7813378087594296
0.9077343944292464,0.10292397673642129,0.16496317557767393,-1.722443195252609,1.7333830376336117
0.9102213379756279,0.10601273134091738,0.17061625764778698,-1.6706703989935097,1.6827026441570805
0.9127082815220094,0.11389660544671892,0.1810736763958838,-1.6046643611810936,1.6188600387496548
0.9151952250683909,0.10742198668368191,0.1771818192400625,-1.543578701454548,1.557423541582827
0.9176821686147724,0.10574248914265566,0.15894068664183392,-1.4730482142397054,1.4853668426873703
0.9201691121611539,0.10406971021160155,0.15029229542688682,-1.4026497085965826,1.414512100928899
0.9226560557075354,0.09761524717734005,0.1512366455824261,-1.351536798262277,1.363470929835163
0.9251429992539169,0.11032111714761195,0.13783172025763912,-1.3101326750923388,1.3219742653858604
0.9276299428002984,0.10866849728564154,0.12444272892822505,-1.2497069157052731,1.2605801086194441
0.9301168863466799,0.09265738789626532,0.1302232841546851,-1.1894131279708766,1.2001029473579572
0.9326038298930613,0.08144140246518194,0.13123136837967841,-1.1531933211313898,1.1634900987908505
0.9350907734394429,0.07023213777634285,0.12267857709256269,-1.1266822759226987,1.1355155381290223
0.9375777169858244,0.06381799715432424,0.11893011882988924,-1.1098799811018125,1.1180566543678547
0.9400646605322058,0.062198980503592516,0.11519758861339024,-1.1171516334509484,1.1247964125654688
0.9425516040785874,0.05100987766807785,0.11148098455204014,-1.1149783946175678,1.1216981938116746
0.9450385476249689,0.044615898314187,0.11256870784255435,-1.1177254575247968,1.1242653115553911
0.9475254911713503,0.043017042048194565,0.12324915944957793,-1.1253928032115255,1.1329385608813476
0.9500124347177319,0.05579011501800901,0.1195803201843284,-1.1236152008366567,1.1313368682493776
0.9524993782641133,0.049416293389944244,0.1207158005097817,-1.1076042242848754,1.1152584418863722
0.9549863218104948,0.0334723831145497,0.11707879073650762,-1.0869366554912752,1.0937363195589005
0.9574732653568764,0.03668880332525781,0.11824609422631527,-1.0472472578831713,1.05454019659425
0.9599602089032578,0.025546729893286102,0.10985249750996706,-0.9933244062672646,0.9997067483535517
0.9624471524496394,0.023988178435660812,0.11105161013145226,-0.9586868934746491,0.9653954902202114
0.9649340959960209,0.027224744549805724,0.10747821816415071,-0.9193926705996027,0.9260537980310931
0.9674210395424023,0.020891217095014514,0.10870912405511346,-0.8754417034493613,0.8824127677809636
0.9699079830887839,0.024141208075473708,0.1243211300240441,-0.8411991659079696,0.8506788924277259
0.9723949266351654,0.027397909476426285,0.13037221482165506,-0.8022998100579777,0.8132850330974063
0.9748818701815468,0.011507706545642149,0.1268623735739678,-0.7587435960677986,0.7693622902850492
0.9773688137279284,0.005201017637390781,0.12336840782192438,-0.7201072888759885,0.7306170831053073
0.9798557572743098,0.013266244407980299,0.12467871556100585,-0.6816024415942916,0.6930387173469705
0.9823427008206913,0.016549771815982717,0.12600488792148212,-0.6575942187544577,0.6697621094586882
0.9848296443670729,0.005474791364652787,0.11777011248928204,-0.6193521531488582,0.6304735223198127
0.9873165879134543,-0.0008050856165944253,0.12391639986906355,-0.5860298089211202,0.5989881962639033
0.9898035314598358,0.00249854214523626,0.1205017272394735,-0.5624155384068139,0.5751853152002182
0.9922904750062174,0.005808865866955837,0.10752608815840503,-0.5245672721772685,0.5355057661657902
0.9947774185525988,-0.00045092332963891923,0.10414308924326843,-0.5012153754896929,0.511920735071607
0.9972643620989803,-0.001915617815965942,0.1007759169684439,-0.49235979184667933,0.5025710095695463
0.9997513056453619,-0.008162026659544352,0.08784775758774455,-0.46927004300105324,0.4774915920208403
1.0022382491917432,-0.014401749061253466,0.07972381373656834,-0.4510996820857631,0.45831672458094186
1.0047251927381249,-0.011057980995720085,0.07161567454967388,-0.4378486471344303,0.44380459842407827
1.0072121362845063,-0.00770753181263395,0.058734928943029896,-0.4199400677269072,0.4240976991296521
1.0096990798308878,-0.00913880763494268,0.05065837557534891,-0.402162281595821,0.40544332471910055
1.0121860233772693,-0.0057750047179813135,0.05217440956744346,-0.3701500113893843,0.3738536486711951
1.0146729669236507,-0.002404529371099584,0.05370621586220459,-0.3334799945592408,0.3377855031746707
1.0171599104700322,0.0009726153238373003,0.03610017254552789,-0.29215216012334366,0.294375700598947
1.0196468540164139,0.009144829512698127,0.028086690690676264,-0.24616643531165217,0.2479322568259642
1.0221337975627953,-0.001829906672844328,0.02487735791358192,-0.21946476217281408,0.22087782444320123
1.0246207411091768,0.0063556299708639186,0.026472164935969378,-0.188105047774636,0.19006493244947054
1.0271076846555582,0.019336226032231507,0.02808269894535398,-0.1568756173342436,0.16053811675494692
1.0295946282019397,0.01795826468778916,0.020132143595664953,-0.14014160094203376,0.1427146481302792
1.0320815717483214,0.01658695226495277,0.016985698929755877,-0.11874930368409231,0.1210992901673206
1.0345685152947028,0.015222285039156569,0.0138549514972226,-0.10706385213179814,0.1090245205268212
1.0370554588410843,0.01386425919505152,0.010739890956601439,-0.08114314454245708,0.08301670221723664
1.0395424023874658,0.007724467506454613,-0.0019362998849290491,-0.06971751395051484,0.07017085154779641
1.0420293459338472,0.01116811593817535,-0.005020018508402835,-0.044056451805715824,0.04572634191735213
1.0445162894802287,0.02419520040409162,0.0014887241144543317,-0.03289028766596047,0.04085823105364138
1.0470032330266104,0.01807529680648423,0.0032247068421882297,-0.0074885095151859815,0.019829091346291832
1.0494901765729918,0.011962014161295387,-0.00938888835448326,0.032148976465588675,0.03556399436386409
1.0519771201193733,0.02500896139527703,-0.01719845979045953,0.05729184589283243,0.06483510449627247
1.0544640636657547,0.028485714143138774,-0.024992422589021235,0.08709380930003263,0.09498099133775814
1.0569510072121362,0.022392267872816063,-0.027982385438989343,0.11676656232752691,0.12214277560761562
1.0594379507585177,0.016305424604493912,-0.026168360554998937,0.14152180231855205,0.1448415358146985
1.0619248943048993,0.005436776309319158,-0.024338763676829522,0.1757248415949526,0.17748564422940047
1.0644118378512808,0.00415152815186326,-0.02728201074842307,0.20022217092818018,0.20211496982575583
1.0668987813976623,0.01723807856852355,-0.030209711276586226,0.21501389605715104,0.21780898398786183
1.0693857249440437,0.02075440598655598,-0.023545071650624916,0.2392537376826347,0.24130368161716642
1.0718726684904252,0.005123698707160784,-0.021653315063542955,0.25857659493817486,0.25953222110463237
1.0743596120368066,0.003864774827638251,-0.024534454948854645,0.27298257858755903,0.2741101314734984
1.0768465555831883,0.007400822476050561,-0.027400101620530304,0.30162541433945833,0.3029577995655291
1.0793334991295698,-0.008210180266618017,-0.03982707555355347,0.33014000631827223,0.33263497527919045
1.0818204426759512,-0.009449415561501251,-0.042661777500424325,0.3681032769021648,0.3706876598702221
1.0843073862223327,-0.0011052922178018676,-0.045481028334210194,0.3963617301938651,0.3989641171477684
1.0867943297687142,-0.011908235731573735,-0.0434964391650392,0.41970388853834173,0.4221197701511758
1.0892812733150956,-0.017916235160432614,-0.041496427940963976,0.4381298725951357,0.44045513991144813
1.0917682168614773,-0.019129296248266536,-0.04905781612694904,0.45163980465285114,0.4546989250536722
1.0942551604078588,-0.02033582814369561,-0.05660381210260068,0.4650222119436265,0.4688957187390172
1.0967421039542402,-0.02632424007946743,-0.06413443108333716,0.49264242995758245,0.4974964870837344
1.0992290475006217,-0.032306134731539426,-0.06686128515874223,0.5201353758744425,0.5254092947697239
1.1017159910470031,-0.03349311485940998,-0.06957279325278964,0.5331359684795043,0.5386985457475824
1.1042029345933846,-0.029885186626135207,-0.07226897116219178,0.5651631613608288,0.5705482692392352
1.1066898781397663,-0.026270759598033988,-0.07494983487599427,0.5970634731767337,0.602322522872639
1.1091768216861477,-0.027438243424075692,-0.07761540057485661,0.6288370374545043,0.6342026705108958
1.1116637652325292,-0.028599241194960656,-0.08026568463033046,0.6556955859828548,0.6612088915036628
1.1141507087789106,-0.029753759403754132,-0.08290070360413582,0.6872160620871579,0.692837447636383
1.116637652325292,-0.03569020794558786,-0.0855204742474327,0.7186102007015549,0.7245606689650178
1.1191245958716736,-0.04162019015641988,-0.08333661017978011,0.7355129316832141,0.7413882272454491
1.1216115394180552,-0.04754371277366992,-0.09071433848996602,0.7570780096890815,0.7639742198443337
1.1240984829644367,-0.04388397597497751,-0.09328846653215139,0.7737287710057199,0.7805669429442388
1.1265854265108182,-0.05937140658102191,-0.08627060848762991,0.7902537634260103,0.7971628393353567
1.1290723700571996,-0.06048718832865385,-0.079237588684403,0.8018647296414656,0.8080373382804816
1.131559313603581,-0.04723132827683851,-0.07697782831518873,0.8037734138767121,0.8088313082948393
1.1340462571499625,-0.048334253486035095,-0.07949134543667613,0.8247103851254991,0.8299411385111803
1.1365332006963442,-0.054219164533511,-0.08677815828909319,0.8407337773789152,0.8469376901428926
1.1390201442427257,-0.06009766539584849,-0.08447307533452708,0.8470553394238554,0.8533757542190702
1.1415070877891071,-0.0611813601283171,-0.09172972845929195,0.8724056447977553,0.8793458426497242
1.1439940313354886,-0.06225865950518844,-0.0989713298091166,0.9024196386573387,0.9099630042161108
1.14648097488187,-0.07290637769911068,-0.09183268838995318,0.9131554610145507,0.920652745907396
1.1489679184282517,-0.06439410239798121,-0.10383264659065627,0.9285552865740332,0.9365589886100324
1.1514548619746332,-0.051087051249950555,-0.12060601377597457,0.9677728882033954,0.9765961603989067
1.1539418055210147,-0.07129245858184186,-0.11342238952798667,0.9925012004034759,1.001501815225126
1.1564287490673961,-0.0723378957113559,-0.11101221345001244,1.0266824023098167,1.0351971975926493
1.1589156926137776,-0.07337698383735491,-0.12295231204085777,1.0655282546004052,1.0751055362823903
1.161402636160159,-0.07919813427393663,-0.12530068873310674,1.0803085028096273,1.0904306801957848
1.1638895797065407,-0.07064774180948258,-0.12284576705641603,1.0901769271265689,1.0993488610744029
1.1663765232529222,-0.0764562345110244,-0.1251643740351822,1.09513369590427,1.1049115295932836
1.1688634667993036,-0.07268160399736451,-0.11789132026589533,1.1095441888954838,1.1181544106541828
1.171350410345685,-0.0736890685246876,-0.11539183643980122,1.1238317706837755,1.1321409821816433
1.1738373538920666,-0.07469023314248963,-0.12245434677962574,1.1332082105989656,1.1422497741479374
1.176324297438448,-0.075685106294816,-0.12471366239817572,1.1376736827106573,1.1469887275976398
1.1788112409848297,-0.06709688985900003,-0.12695820786005685,1.1611703791030372,1.170015824028923
1.1812981845312112,-0.06807920570783754,-0.13397640789963994,1.2036984766652488,1.2130434777244141
1.1837851280775926,-0.07384365918582342,-0.13619147745934246,1.226950927123962,1.2366930023675482
1.186272071623974,-0.07481345239007448,-0.13360343829040255,1.240504716802496,1.2499195509274907
1.1887590151703555,-0.0709885941309395,-0.1549427322333421,1.2539368334111636,1.2654660062419048
1.191245958716737,-0.07194589993167089,-0.1619021548109294,1.2864010726813628,1.2985438922289694
1.1937329022631187,-0.08247378206715622,-0.14969332495395005,1.3091671985152598,1.3202760203580626
1.1962198458095001,-0.07384182964171793,-0.16141189496135055,1.3318122027448496,1.343588537841827
1.1987067893558816,-0.07478047167471108,-0.16832746749163885,1.3591246752425654,1.3715488099623907
1.201193732902263,-0.07571291069395086,-0.1656516619683317,1.391104803914688,1.4029773673987558
1.2036806764486445,-0.07185075261818791,-0.16296130793853392,1.3990223580931733,1.410312900381125
1.206167619995026,-0.06798241007709083,-0.16504483179089346,1.3972427383337251,1.408598123812147
1.2086545635414077,-0.07368469909059622,-0.16232545011417843,1.40013134652634,1.4114342967919211
1.2111415070877891,-0.07938082246701383,-0.16437999293866445,1.40768837592773,1.4194747834238217
1.2136284506341706,-0.07549398308394345,-0.1664200804931406,1.4151256177953009,1.4268761329610058
1.216115394180552,-0.07638940048949777,-0.16365733316504594,1.4272316713414153,1.4386136753436793
1.2186023377269335,-0.08206708433946835,-0.16088017814028843,1.4487951370860923,1.4600084887748912
1.221089281273315,-0.08295023771730031,-0.1533002361211837,1.460662600248737,1.4710258108196366
1.2235762248196966,-0.08861567705562978,-0.160071144567838,1.4867762772258244,1.4979917249653842
1.226063168366078,-0.07990979893282041,-0.17161612117390268,1.5031943524982276,1.515067962302294
1.2285501119124596,-0.07598622655699921,-0.15920477050638882,1.5051286251088865,1.5154313721513524
1.231037055458841,-0.0816333732422796,-0.16593274709078498,1.5213097186170002,1.5325080567953124
1.2335239990052225,-0.0729092324474836,-0.1774348657618119,1.5517378379272166,1.563550192804512
1.236010942551604,-0.07375583090080107,-0.17934594150635608,1.5772595759234962,1.5891358214982871
1.2384978860979856,-0.07938477547444872,-0.1860312093845291,1.6026635433451615,1.615376113049177
1.240984829644367,-0.08500767310620244,-0.1879138880054083,1.6327383521785475,1.6457133591445865
1.2434717731907485,-0.08104772747874167,-0.19935921272934776,1.6531190023689746,1.6670678647922308
1.24595871673713,-0.0770817556208706,-0.2060019991437172,1.6638057050561281,1.6782812174597328
1.2484456602835114,-0.07789817130560805,-0.21263067626520993,1.6695870759266382,1.6848741595985797
1.250932603829893,-0.07870858172953521,-0.21445686661714314,1.6848285385275563,1.700245274280749
1.2534195473762746,-0.07951299747338603,-0.21626899950988676,1.7047419043376557,1.7202440400480936
1.255906490922656,-0.08509983250170172,-0.21806710107909844,1.7149621794012244,1.7308640960056503
1.2583934344690375,-0.09068069420154778,-0.21027439096458478,1.739431597524339,1.7544402498410927
1.260880378015419,-0.08189038338216764,-0.20725610555166707,1.7685735704633325,1.7825581623948046
1.2633673215618004,-0.0826709274777605,-0.20422386808753545,1.7688694945585572,1.7825378423266403
1.2658542651081819,-0.09302233738307092,-0.20117770528198742,1.7690500104931415,1.782880692581677
1.2683412086545636,-0.09379101077335805,-0.21248285394722144,1.7691153402001687,1.7842967252828221
1.270828152200945,-0.08976536198685081,-0.21419732447357287,1.778642513418303,1.7937412033410076
1.2733150957473265,-0.09052220874315814,-0.21110954731305576,1.7880549477629994,1.8027484592871537
1.275802039293708,-0.0912731588616656,-0.20800795305665343,1.7877760620008702,1.8021490909263709
1.2782889828400894,-0.09201822354243627,-0.21446937575380165,1.8017480992849517,1.8167995706398292
1.280775926386471,-0.09275741404554877,-0.21134022966936294,1.8156060773431104,1.8302169430486521
1.2832628699328525,-0.09827914501105661,-0.2081973491265492,1.8293502249945588,1.8437806735658853
1.285749813479234,-0.09421821785708168,-0.21940597190451205,1.8669227887835431,1.8821309073395638
1.2882367570256155,-0.0997282573028907,-0.2210241093547083,1.8948051765271083,1.9102575845195955
1.290723700571997,-0.10044406488417773,-0.21305178956411464,1.9225744270347187,1.9369492772643289
1.2932106441183784,-0.1011540554761422,-0.22900786399501927,1.9550191768981664,1.9709836952015651
1.29569758766476,-0.1066466440118905,-0.24016194107793343,1.9729860472033884,1.9904083016005965
1.2981845312111415,-0.09776822888052306,-0.23693724265606875,1.9956288866875633,2.0120220020958364
1.300671474757523,-0.09846083841114756,-0.2432758139454303,2.008582721927459,2.0256559947772366
1.3031584183039044,-0.09914767774753463,-0.24481247372929005,2.002270983894956,2.019616919676565
1.305645361850286,-0.09982875873057195,-0.23675884756046894,2.0006359278719446,2.01706833024067
1.3081323053966674,-0.1052924965775982,-0.24784538436206027,1.9988893902792846,2.0169463649180686
1.310619248943049,-0.10596209660079875,-0.24934169334064604,2.001820015232318,2.020069954070585
1.3131061924894305,-0.10662597412872582,-0.2508246103917062,2.0142164478932596,2.032572257633364
1.315593136035812,-0.10728414122469321,-0.24271735825502638,2.012136914542319,2.0295606829608475
1.3180800795821934,-0.11751341664735843,-0.23938517639666435,2.0099468690550895,2.0275603769542734
1.3205670231285749,-0.12294860260817958,-0.24561649776591699,2.026800169653349,2.045327052225375
1.3230539666749563,-0.11401290469293435,-0.24225773883353652,2.048331852335555,2.065756793950746
1.325540910221338,-0.11943675510355195,-0.24367413943464333,2.0697537607526435,2.087468048821009
1.3280278537677195,-0.1248549562124413,-0.2450773262444388,2.076700932919759,2.094836132187845
1.330514797314101,-0.130267520405891,-0.2416789260586083,2.0979040377326843,2.1157929203276584
1.3330017408604824,-0.1260976534821407,-0.24305577575341397,2.1094213085545714,2.127118940098291
1.3354886844068639,-0.11713377125259411,-0.24920790568328322,2.1160413996542164,2.133882870654685
1.3379756279532453,-0.1177410962211432,-0.2553469430002724,2.1225529662771656,2.1410969435527516
1.340462571499627,-0.12791964098244502,-0.2471077083330968,2.128956261319617,2.1470632074251363
1.3429495150460085,-2.2832972990409144,-2.33617609664472,16.141331250549516,16.46856823923404
1.34543645859239,-1.7619519395388477,-2.351852846764623,15.496295913393277,15.772472015683805
1.3479234021387714,-1.159198174832271,-2.20949931775328,14.041912907955298,14.261870345725637
1.3504103456851528,-0.5181316476009152,-1.9426343639022394,11.921834590548428,12.090179017717501
1.3528972892315343,0.12772880606639653,-1.5656232263346517,9.318020544982545,9.449497214743992
1.355384232777916,0.7113455267893373,-1.1119847595668753,6.426795565955692,6.560962110131406
1.3578711763242974,1.1848344684196608,-0.6200262215469112,3.449272852407736,3.6994254206995496
1.360358119870679,1.5290420046826092,-0.1376316769734265,0.591354007510656,1.6451782556274086
1.3628450634170604,1.7056608959737234,0.2968916159859023,-1.9650013812577,2.6189032345700127
1.3653320069634418,1.7338447424844157,0.6787552222970259,-4.071352548762634,4.47692280692356
1.3678189505098233,1.6135935310772844,0.9648634802556382,-5.631931165500621,5.9374484647870975
1.370305894056205,1.3592724585286629,1.1504279546130278,-6.598852934286052,6.834907910396841
1.3727928376025864,1.0139771414899141,1.221083403373799,-6.943387170336408,7.122486905474184
1.3752797811489679,0.5872843733237698,1.1720413910779812,-6.6703220112402715,6.797924660599495
1.3777667246953493,0.13665498054976966,1.0320323054033986,-5.851483240206333,5.943367847737587
1.3802536682417308,-0.29960382363917665,0.8010561140026025,-4.563485042907182,4.642935395389185
1.3827406117881123,-0.6927616327365391,0.5078432043472461,-2.9116720240866956,3.0357301223663784
1.385227555334494,-1.0140880402807797,0.18112396380715712,-1.034907610887922,1.460210329637301
1.3877144988808754,-1.244429446495497,-0.1647364303095924,0.9375215770218084,1.5667448567516329
1.3902014424272569,-1.3694206549690673,-0.5010075908342015,2.881117324124877,3.2291111116996096
1.3926883859736383,-1.3890616792947323,-0.7893823240564783,4.647439399123714,4.914398210457238
1.3951753295200198,-1.2985641297890262,-1.0298606629271345,6.1502968146995345,6.369696436497009
1.3976622730664012,-1.1266584400539126,-1.2080774305335038,7.327440600942781,7.5113378355026645
1.400149216612783,-0.8877098337733016,-1.2857254334580654,8.09746817546327,8.246824206436028
1.4026361601591644,-0.6104487446345639,-1.3011119315041597,8.46037981310971,8.581582983937329
1.4051231037055458,-0.29966358976567103,-1.2446601513670152,8.420964192837666,8.517723586527467
1.4076100472519273,0.006338390421415874,-1.1211585297969624,7.988798397702514,8.067089714591246
1.4100969907983087,0.2740383587936046,-0.9449723102782681,7.2309203513758336,7.2975529334992935
1.4125839343446904,0.489071091457983,-0.7256783330673322,6.2191563816148525,6.280422412112423
1.4150708778910719,0.6322829611605398,-0.4920070517935269,5.0396980268966365,5.102980392309415
1.4175578214374533,0.7276159704898424,-0.23917009693457958,3.750006406526559,3.827424118747465
1.4200447649838348,0.7367628788302613,-0.015051535581865227,2.469791883719915,2.5773858921850237
1.4225317085302163,0.6693004787297238,0.16119498500624596,1.2852459991859897,1.4580137970686677
1.4250186520765977,0.5539591759780694,0.3087230440456268,0.22031105120034766,0.6713550817980765
1.4275055956229794,0.3859505530841048,0.4083789941021583,-0.6244562081124094,0.8400457059588757
1.4299925391693609,0.18442820911959348,0.4457975909756011,-1.1915946557949262,1.2855532194964696
1.4324794827157423,-0.017089046921010154,0.4257672036612421,-1.4954692179852103,1.5549912955317398
1.4349664262621238,-0.21860122932322773,0.3530762010695181,-1.5408680134783008,1.5958457118982006
1.4374533698085052,-0.41053154576946005,0.2325129520268674,-1.308637143772514,1.3910893562216604
1.4399403133548867,-0.5641495906979848,0.09759624519844934,-0.8322951462014032,1.0102004742386308
1.4424272569012684,-0.6603017652244781,-0.05646235739540906,-0.18845618730005675,0.6889863231537203
1.4449142004476498,-0.7229301003838154,-0.2440281004564011,0.5702075836719374,0.9525304889242666
1.4474011439940313,-0.7376694006844567,-0.4124285822825775,1.4293312446851107,1.6604942900301918
1.4498880875404128,-0.6901544706705298,-0.542510224493892,2.3075122278855797,2.468854637055087
1.4523750310867942,-0.6043273414840034,-0.6677918853126976,3.1185595627524574,3.2460085157296503
1.4548619746331757,-0.4849764310205704,-0.7643315831956952,3.8337431192548808,3.939161232058169
1.4573489181795574,-0.3512553671714675,-0.803398933356533,4.443486381282564,4.529172264302694
1.4598358617259388,-0.2127409712216154,-0.8089359876087139,4.885540396833962,4.956625981651364
1.4623228052723203,-0.08379846781008643,-0.7761543779194509,5.140751844415908,5.199689156808934
1.4648097488187017,0.04993733831238384,-0.7242077529322368,5.213909419755125,5.26420193805064
1.4672966923650832,0.16452441579927424,-0.638730938122329,5.128955432470977,5.171192253531314
1.4697836359114647,0.22644392663070967,-0.5197239689989352,4.885890176185826,4.918669806930437
1.4722705794578463,0.2596378725980607,-0.41028251102627333,4.513444365041309,4.539484948765049
1.4747575230042278,0.2593178355386822,-0.29604138989634343,4.040348713770154,4.059470898186655
1.4772444665506093,0.2254838005785021,-0.18178904465278078,3.5096991476491306,3.5216300640595586
1.4797314100969907,0.17250096277297403,-0.08189072104966177,2.9454379792508814,2.951621175212895
1.4822183536433722,0.09558090386525203,-0.0059232615896176455,2.385872731678761,2.387793853325666
1.4847052971897536,0.009088818849045222,0.031748087836352745,1.9028297518412494,1.903116289721037
1.4871922407361353,-0.08697530727322306,0.05027690451221645,1.4963093373981513,1.4996780002345493
1.4896791842825168,-0.17824627956814437,0.0496631523743023,1.1711001898788407,1.1856280275102706
1.4921661278288982,-0.2695125164132397,0.005964778691818218,0.9798750445578825,1.0162812986745113
1.4946530713752797,-0.34162041961371165,-0.05208783280731888,0.9034805874406429,0.967313199178891
1.4971400149216612,-0.39457000428494277,-0.11970631506065255,0.9227635050609422,1.0106965797998801
1.4996269584680426,-0.4235728822505724,-0.2064675110297367,1.056877711036715,1.1571660709574394
1.5021139020144243,-0.4334174720030797,-0.28842944049617714,1.3010351028990854,1.4013331460284923
1.5046008455608058,-0.41452698210186917,-0.3703805432248717,1.6121403521245732,1.7052890900484814
1.5070877891071872,-0.35253621781354255,-0.442744049080372,1.9710401472923138,2.050683627501928
1.5095747326535687,-0.31448284087717543,-0.5055199946276159,2.339427564194371,2.413994873707666
1.5120616761999501,-0.2668480433320651,-0.5395548032092572,2.707726099032219,2.7738254976253587
1.5145486197463316,-0.18568982388463795,-0.5640021247885274,3.0519940385266313,3.1092196317826084
1.5170355632927133,-0.11889223107205343,-0.5740735927844272,3.343501266552125,3.39450976902076
1.5195225068390947,-0.05687847361350573,-0.5601924373521081,3.577459684051556,3.6215008654757157
1.5220094503854762,-0.009225373534833936,-0.5271470986633178,3.7395043857873196,3.776488080541048
1.5244963939318577,0.02406705375369561,-0.4749376136243275,3.8344240802564036,3.863800329618719
1.5269833374782391,0.042998792817114107,-0.42271763247668304,3.8382770564804645,3.86172368966175
1.5294702810246208,0.04756982819609856,-0.3800639988744994,3.7654288304834322,3.784860077893357
1.5319572245710023,0.03778014440732552,-0.31824632996180524,3.635033322042627,3.6491335023818814
1.5344441681173837,-0.0007354840171328036,-0.25641827613726953,3.466244451361492,3.4757159650737113
1.5369311116637652,-0.03445824936536784,-0.21852189117070475,3.249485719141304,3.2570073114399705
1.5394180552101466,-0.06817657051095322,-0.1901920023193231,3.013487853058434,3.020253314383348
1.541904998756528,-0.12104407631100184,-0.16664024353011442,2.777404774554771,2.7850310448706668
1.5443919423029098,-0.16433036244177412,-0.14786665211870398,2.55081359883087,2.560374783270905
1.5468788858492912,-0.19803544452331512,-0.14344807208885646,2.3480798448003,2.360778334412394
1.5493658293956727,-0.24131295147851278,-0.16774975081135768,2.1835690317624348,2.2032579594592367
1.5518527729420541,-0.2654324790483495,-0.19682970914039988,2.0716466793959514,2.097836099314319
1.5543397164884356,-0.2751824462368795,-0.22111117793619695,2.00273629115052,2.033609643863981
1.556826660034817,-0.27056286874839097,-0.25495940470482914,1.9768381774822856,2.011491422786656
1.5593136035811987,-0.26115056894798816,-0.2935860237146124,1.9987410525269658,2.0369973411958635
1.5618005471275802,-0.24694556258001588,-0.3274142659562145,2.0684452274524956,2.108707630611843
1.5642874906739617,-0.21837105876768986,-0.36602097574347603,2.181162610452497,2.2224148143916516
1.5667744342203431,-0.1850038799346551,-0.409406190790675,2.3273167067395546,2.3702832991264255
1.5692613777667246,-0.16120925184369383,-0.4288395289305069,2.5021194251792593,2.5437164508476036
1.571748321313106,-0.13262198035419942,-0.4434746412382853,2.6768406583617423,2.7165666303908362
1.5742352648594877,-0.09924208130464612,-0.453311565546767,2.8419039124778696,2.8795413200572693
1.5767222084058692,-0.08022318383257021,-0.45356193640630105,3.002097903992321,3.0372266979163665
1.5792091519522506,-0.07556530381171278,-0.43943738840434365,3.1239041231136984,3.15556529070063
1.581696095498632,-0.06132644053138614,-0.420514766125605,3.197746076951889,3.225860129252215
1.5841830390450136,-0.06144862650081312,-0.396794107549701,3.257142902792844,3.2817984987958653
1.586669982591395,-0.07114347432379126,-0.3730638540112987,3.2829413016857645,3.304836096302333
1.5891569261377767,-0.0808341932999187,-0.3445356402383939,3.2655647816006352,3.284684507990278
1.5916438696841582,-0.08573239606487981,-0.31120950431247296,3.2241672707029903,3.2402864053632374
1.5941308132305396,-0.11456851851198824,-0.2922390976286353,3.1539606808239284,3.169542177002882
1.596617756776921,-0.14340056002622226,-0.2732592483714016,3.059733730695851,3.0752568738553028
1.5991047003233025,-0.16265172996826716,-0.2638468013576687,2.9462751393053246,2.9625340363170434
1.601591643869684,-0.17232204435386378,-0.2592133914734358,2.837527239167925,2.854548528630999
1.6040785874160657,-0.186776729173796,-0.2545706536339605,2.7287019431185477,2.7469084547234957
1.6065655309624471,-0.20601580047167273,-0.2594954327439174,2.634164777508208,2.654920801968263
1.6090524745088286,-0.22046246766391348,-0.27877617041537706,2.549127655635056,2.573785472327366
1.61153941805521,-0.21575153685972748,-0.2884708883654672,2.4783792976598367,2.5044217141209586
1.6140263616015915,-0.21103663742328194,-0.3029448348999759,2.4602272472010647,2.487776144109037
1.616513305147973,-0.20152938212962102,-0.32698645170945406,2.4611529982817375,2.4909452648370802
1.6190002486943547,-0.18722978708620958,-0.34144216390751536,2.4620032550886073,2.4926086280307005
1.6214871922407361,-0.1729262717326086,-0.36546562319411535,2.4867203518876737,2.5193742726487383
1.6239741357871176,-0.15861885219951533,-0.38469165805011496,2.535304606533469,2.569224992085408
1.626461079333499,-0.13951914130843396,-0.3895435002990082,2.5790259171424177,2.6120077355760136
1.6289480228798805,-0.11562715521198053,-0.39917480170771746,2.6322498118911524,2.6648544488474073
1.631434966426262,-0.10609652335448799,-0.39443198750145925,2.7093418191274425,2.73995732775258
1.6339219099726436,-0.11092726190918084,-0.38968030616767324,2.786360240801363,2.81566315278803
1.636408853519025,-0.11096577377785044,-0.3801313929318262,2.863305395623091,2.8905589541551846
1.6388957970654066,-0.10621207515302966,-0.3705736896785323,2.9306007958144393,2.9558462221195643
1.641382740611788,-0.10624298887704325,-0.3610072349898594,2.983458357063549,3.0070978641761696
1.6438696841581695,-0.1158469344807464,-0.3370668575039515,3.002724785237393,3.023804013909487
1.646356627704551,-0.11587031490195648,-0.3226946124377079,3.036284432820863,3.0555819248977945
1.6488435712509326,-0.13025516296949724,-0.30352532846105396,3.041041989340237,3.058926349788113
1.651330514797314,-0.13984788163726042,-0.27955904421960565,3.012209371005426,3.028385045527783
1.6538174583436955,-0.1494368904682562,-0.279526218294877,2.992882527344408,3.0096199284013436
1.656304401890077,-0.16381060903273154,-0.26990806611759277,2.9495429548689325,2.9663930829214062
1.6587913454364585,-0.16381544030628842,-0.2554930296935076,2.877402570115236,2.893364432146506
1.6612782889828401,-0.1733934171539409,-0.26501156764172906,2.833922532880093,2.8515633134233176
1.6637652325292216,-0.17817934588448237,-0.26494489542835264,2.7951611466053228,2.8133377885361273
1.666252176075603,-0.18296164609392251,-0.2648698584125948,2.737176714816968,2.756041976090552
1.6687391196219845,-0.17816352742297964,-0.2791517052835628,2.6886999776426608,2.70901743937579
1.671226063168366,-0.17336181279895635,-0.28863686149701406,2.654519658680555,2.6757877670460557
1.6737130067147474,-0.1637681151932333,-0.2933253657980708,2.6298476749541324,2.651218316026836
1.6761999502611291,-0.1589592575428332,-0.30758246690016966,2.619472750187474,2.642255193670303
1.6786868938075106,-0.15414685282823304,-0.31225459028120905,2.618606801517932,2.6416596605816784
1.681173837353892,-0.14933091735429777,-0.32649538798751365,2.6272501494510587,2.6516678353529883
1.6836607809002735,-0.1445114674296603,-0.33593968882841896,2.6310379045733594,2.656331962321461
1.686147724446655,-0.13968851936640808,-0.34537593489898866,2.6587008073900513,2.6846764054661487
1.6886346679930364,-0.1348620894797734,-0.35480416497772627,2.6862971619128375,2.7129810579444444
1.691121611539418,-0.13482059740813696,-0.3498592078852356,2.7042504821383133,2.7301188122447844
1.6936085550857995,-0.1347756561517819,-0.34969471568662147,2.750868315284235,2.776279409516451
1.696095498632181,-0.13472728203352285,-0.3543107271673427,2.783055352135139,2.8087514352391585
1.6985824421785625,-0.13946389469839954,-0.3349768611918744,2.8008119133645613,2.824217953611807
1.701069385724944,-0.14419710715243322,-0.3347887864295571,2.8137151262869544,2.837229132291948
1.7035563292713254,-0.14413853240294627,-0.33459292838514054,2.8169769082502576,2.8404378616445385
1.706043272817707,-0.1488649934191954,-0.32960092252307094,2.834539596512842,2.8575185526244518
1.7085302163640885,-0.15358810321019184,-0.3246012109464753,2.837673091792352,2.8603048486967237
1.71101715991047,-0.1630962814259609,-0.3148054291152098,2.8407429246661327,2.862782426112065
1.7135041034568514,-0.16781273775568167,-0.3193672290873386,2.8341726090810324,2.857042337809009
1.715991047003233,-0.15816068188831672,-0.3239214396746939,2.832327675550748,2.855174243731371
1.7184779905496144,-0.16287055007481566,-0.32846809964529466,2.830420041267221,2.8540665231513787
1.720964934095996,-0.16757714868250212,-0.3234304411210909,2.80450801009488,2.8280655101483565
1.7234518776423775,-0.16270368739790209,-0.32317371281946095,2.7737455157289714,2.7972447023056395
1.725938821188759,-0.15782698918737892,-0.3372747601306427,2.75249808848669,2.777572564211423
1.7284257647351404,-0.15773547369527852,-0.3370032018748552,2.7407660486608485,2.7659085616172816
1.7309127082815219,-0.15764075392331833,-0.32714748010630057,2.7289729098344973,2.753029099673299
1.7333996518279033,-0.15754284619122905,-0.33643805347185074,2.7075421855158766,2.732909621366585
1.735886595374285,-0.14307655685521636,-0.3457213474056804,2.6956278090546206,2.721470822206653
1.7383735389206665,-0.13818391883109382,-0.3454205939723365,2.6932301004329986,2.718804618953348
1.740860482467048,-0.14765335175024913,-0.3403242351863667,2.690772572900916,2.71622516305517
1.7433474260134294,-0.14754285531872519,-0.34479751969132844,2.688255546251561,2.7142903502929037
1.7458343695598109,-0.14742925248099087,-0.3492636795169335,2.685679340175188,2.712304190270819
1.7483213131061923,-0.14731255953683908,-0.3489343500002451,2.6830442742535485,2.7096462404550414
1.750808256652574,-0.14240438946140999,-0.34859797310531704,2.689927474594965,2.716157096997863
1.7532952001989555,-0.14228156518615315,-0.33867778082096933,2.6967524539069085,2.721657671469094
1.755782143745337,-0.13736729635635275,-0.33832742504291957,2.70830793473268,2.732813036045536
1.7582690872917184,-0.1420268092136534,-0.3427585410497018,2.7054406228833967,2.7307625301270035
1.7607560308380998,-0.14668331339264962,-0.3280291508223021,2.7120928539168956,2.735793626442634
1.7632429743844813,-0.1513368251627888,-0.3276581161685046,2.733053349968209,2.7567813278375737
1.765729917930863,-0.16077576410777494,-0.3224918623550437,2.7395920097831734,2.7631891407714875
1.7682168614772444,-0.15105812988309908,-0.3173188312319475,2.7364975551973814,2.7589723936385147
1.770703805023626,-0.15091435866107006,-0.31213906131001146,2.733347111208901,2.755248149913111
1.7731907485700074,-0.1507676600445958,-0.30695259108045825,2.734929399332251,2.75622742164325
1.7756776921163888,-0.1506180502700284,-0.31133626565491124,2.7412447375930284,2.762976434709598
1.7781646356627703,-0.15525394888657257,-0.31571331684287385,2.7187746206006835,2.741443802943842
1.780651579209152,-0.15509856547475953,-0.3248721863932724,2.7058265925900526,2.729669403365867
1.7831385227555334,-0.1453635129274154,-0.3196592994313092,2.6832473577676295,2.7061280460411474
1.7856254663019149,-0.14520242073063955,-0.3096515009812659,2.6654024433921606,2.68725472932636
1.7881124098482963,-0.1450384984400898,-0.3140024426846142,2.661868973206894,2.684246659784302
1.7905993533946778,-0.1448717622432084,-0.3183469529165639,2.6774356674343114,2.7001841350500766
1.7930862969410595,-0.14949063163863635,-0.3178966666682421,2.683372422849004,2.7062692584687564
1.795573240487441,-0.14452991283438077,-0.31744002554606565,2.6844679592568346,2.707032561643682
1.7980601840338224,-0.1395664286303514,-0.31697706781017354,2.685510996247534,2.7077523078163166
1.8005471275802039,-0.14417700181653137,-0.31650783169411145,2.6912902531895133,2.71367047415293
1.8030340711265853,-0.14399643857114497,-0.31603235540420993,2.677864029302829,2.7002902035554417
1.8055210146729668,-0.13902475502288764,-0.3107622737986482,2.6595978501384243,2.6812985282856157
1.8080079582193485,-0.14362717725065938,-0.29590922170714373,2.6508572410104687,2.671186093433768
1.81049490176573,-0.14822691472079613,-0.29062685053190407,2.646854113710022,2.66688430265758
1.8129818453121114,-0.14324717688837407,-0.2949151983641891,2.6332235731405627,2.6535563144685343
1.8154687888584928,-0.13826478647818446,-0.30398589994464453,2.6243311438754144,2.64549400514525
1.8179557324048743,-0.13327975956260452,-0.29868538002206213,2.615388736949571,2.635760743297969
1.8204426759512558,-0.13308051552226635,-0.29816728987621044,2.601608263135925,2.6220182514965304
1.8229296194976374,-0.14245547372548684,-0.29764326415316456,2.6117204561824323,2.6324833932870075
1.825416563044019,-0.14703944024674992,-0.2923249374662724,2.6122068064008577,2.632622051389015
1.8279035065904004,-0.14204402778833541,-0.30615436431741117,2.6078560303883966,2.629604547428008
1.8303904501367818,-0.14183446232067165,-0.3104011626510923,2.6034568444601938,2.6257291249181764
1.8328773936831633,-0.1416223565195852,-0.3098537736194822,2.5942211580037986,2.6164956849815297
1.8353643372295447,-0.14140772636760524,-0.30451223501931013,2.594514493396126,2.6161477983469257
1.8378512807759264,-0.1411905878333954,-0.31831860121315136,2.6043371627563765,2.627514713809415
1.8403382243223079,-0.1457593601918114,-0.3225424900038334,2.590170654659908,2.614242427397034
1.8428251678686893,-0.15511405938302408,-0.3123955357588537,2.5759572972193228,2.5994628943837266
1.8453121114150708,-0.14531268473101688,-0.30224298608948663,2.576062611595245,2.597800065024816
1.8477990549614522,-0.13550886542770518,-0.30166168524862913,2.5761216987102724,2.5972611404174297
1.8502859985078337,-0.1400678273295653,-0.3010748641692933,2.5809232724473006,2.6021971501689616
1.8527729420542154,-0.13504756971519777,-0.30048256038589427,2.5904676430431834,2.6113311212551635
1.8552598856005968,-0.1300249150897651,-0.2903080047524331,2.5856015071230454,2.605095078841539
1.8577468291469783,-0.12978828262224223,-0.2849164446841028,2.5615367709377326,2.5805993504656173
1.8602337726933598,-0.13912609146548593,-0.2938847242348501,2.5517925669606614,2.5724248492931214
1.8627207162397412,-0.14367314747474075,-0.2932708641749313,2.5467923974378195,2.567645086207649
1.8652076597861227,-0.13864106312926577,-0.283074901834095,2.5369597642658928,2.5564658397753037
1.8676946033325044,-0.1383950641727147,-0.28723889110101153,2.5270833789485474,2.547117935727813
1.8701815468788858,-0.13814676305040213,-0.2866092559383584,2.521951952630868,2.541942376433717
1.8726684904252673,-0.1378961755106174,-0.28118603354630745,2.516777389454127,2.536187960059248
1.8751554339716487,-0.13285491396376203,-0.2901228743619737,2.521136803152749,2.541250182607693
1.8776423775180302,-0.13738820408367297,-0.2894777988948043,2.5158768871669315,2.5361998001054817
1.8801293210644117,-0.14191925492457347,-0.28403924753071186,2.5057863511615244,2.5258235501957667
1.8826162646107933,-0.13687127552239736,-0.2881724672502739,2.4956539044199477,2.51596214748767
1.8851032081571748,-0.13182108817580357,-0.3018774950266252,2.50942186912091,2.5309494144517557
1.8875901517035563,-0.12676870852406436,-0.2916355445436798,2.518360130529274,2.5383576074583285
1.8900770952499377,-0.13129095882808473,-0.2861770726018147,2.508103783475921,2.5277893942018133
1.8925640387963192,-0.13581104804829375,-0.29029051935172623,2.49780674563457,2.5182834957436846
1.8950509823427006,-0.1307521851256641,-0.28482230829388566,2.4922577243142294,2.511885436404482
1.8975379258890823,-0.13047959558304,-0.2793492828014452,2.4818802164547895,2.500957887589247
1.9000248694354638,-0.13499329496241175,-0.2738714795572119,2.461886121903892,2.480748285139516
1.9025118129818452,-0.12992808882468998,-0.273177338514047,2.4562177600141144,2.4747753132662385
1.9049987565282267,-0.13443760595259202,-0.2676900896131045,2.450510223154291,2.468751062329904
1.9074857000746082,-0.1341566518660557,-0.2813517859864163,2.4399754099082873,2.4598042271032
1.9099726436209896,-0.13387364534544027,-0.29022044751107146,2.438978831711326,2.4598308483730236
1.9124595871673713,-0.13837700515005674,-0.2847193039727558,2.4331555796425883,2.4536624365129955
1.9149465307137528,-0.13330153673669592,-0.2887904083464852,2.4320827609443834,2.452793459656183
1.9174334742601342,-0.13301246546252748,-0.28328018367109387,2.426183869135105,2.446284559343115
1.9199204178065157,-0.1375098067020702,-0.27776547285341024,2.429824413887826,2.449512050832581
1.9224073613528971,-0.14679357580790886,-0.2913999253865014,2.4382162911432923,2.459951412692999
1.9248943048992788,-0.14171017482922554,-0.295453157505412,2.432206186426063,2.454180367295619
1.9273812484456603,-0.13662482903501966,-0.28992520531167054,2.4117943980825505,2.4329971613641956
1.9298681919920417,-0.1315375537107618,-0.2891813148118354,2.386558030636234,2.4076102663152965
1.9323551355384232,-0.13123676743943835,-0.28843311867482546,2.390016204744521,2.4109322288313795
1.9348420790848047,-0.1405108887810157,-0.2828922495126647,2.403015604069643,2.4236863097568047
1.9373290226311861,-0.13541791635035866,-0.28213554984093037,2.382460895196475,2.402927047934062
1.9398159661775678,-0.1255346719810766,-0.2957398621173266,2.37144800399565,2.3931123365963254
1.9423029097239493,-0.13001478412374556,-0.2949748021787042,2.3795540326117566,2.4012895227627142
1.9447898532703307,-0.12491625132227441,-0.2846288090452398,2.3732604528186867,2.3935293617785596
1.9472767968167122,-0.12460429865899558,-0.2886439349590404,2.362144365781285,2.382974518794779
1.9497637403630936,-0.12429053791071326,-0.30223181218052053,2.3509944688482642,2.3735979437687393
1.952250683909475,-0.12876338747037092,-0.29187365298794576,2.339811055548262,2.3614584508153524
1.9547376274558568,-0.133234459065596,-0.2815115094425633,2.3285944189062455,2.3493301425709516
1.9572245710022382,-0.14249217103974454,-0.2759338202631425,2.3221332547599136,2.3428073640046683
1.9597115145486197,-0.14217132842982722,-0.279929024106746,2.315639451794893,2.336826697869102
1.9621984580950012,-0.12748354288817448,-0.2791319462870274,2.3139017048221415,2.3341610477265955
1.9646854016413826,-0.13194765260411573,-0.2783310253362532,2.3169203048131717,2.337305722738903
1.967172345187764,-0.1411984625381542,-0.27273789308297625,2.3103303322556217,2.3306542446889993
1.9696592887341458,-0.1312939709842692,-0.27192939125312954,2.2941320770713354,2.3139199829924446
1.9721462322805272,-0.13096461273377596,-0.2759055548680087,2.2779026352923006,2.298285452433431
1.9746331758269087,-0.1402104026298197,-0.2798780155641376,2.271219102416249,2.2926898769310706
1.9771201193732901,-0.1255125322468703,-0.27427000159281034,2.269293363442017,2.289250925278119
1.9796070629196716,-0.11560143629677466,-0.2734467577415205,2.26254889950647,2.2819431071021827
1.982094006466053,-0.12005393618324306,-0.2678315121303898,2.255774401162064,2.2747889606337575
1.9845809500124347,-0.1245048366813653,-0.267001106094535,2.253758558412259,2.272931737784763
1.9870678935588162,-0.12416574917958756,-0.2709555742617513,2.2612900607078643,2.2808478237596255
1.9895548371051976,-0.12861349499984204,-0.2749065478723889,2.2592155803418787,2.27951092991867
1.992041780651579,-0.12348287883486114,-0.27406565809923,2.257112208969329,2.277040959269972
1.9945287241979606,-0.11356231863079824,-0.2732213426876804,2.250191827720884,2.2695615355955243
1.997015667744342,-0.11321703894641388,-0.28195044263502567,2.2480315271211913,2.268470827879591
1.9995026112907237,-0.12723545767164934,-0.261945765666566,2.236266380522835,2.2551478378359717
2.001989554837105,-0.12688716942587097,-0.24672616924300206,2.214896670665347,2.232205505341897
2.0044764983834864,-0.12653739868269137,-0.25065689747407705,2.207864696312332,2.2256475710990404
2.006963441929868,-0.12139775660572422,-0.25458437115721777,2.2055939324042715,2.2235546343647496
2.0094503854762498,-0.11625666097027754,-0.25850862430055654,2.198507853297266,2.2167045588141594
2.011937329022631,-0.12069093284286231,-0.25764128752095283,2.1913951427205483,2.209786868873364
2.0144242725690127,-0.12512377997945073,-0.2567707980045211,2.1794676771715285,2.1981052201520477
2.016911216115394,-0.11997841010654897,-0.2654739961859067,2.157937332553037,2.1775134426149307
2.0193981596617756,-0.12440845084289481,-0.26459730250569224,2.141169597451225,2.161040591979674
2.0218851032081573,-0.1336255131758476,-0.25892915393343063,2.1435299598509863,2.163243114702312
2.0243720467545385,-0.1236875947815258,-0.2532579873656853,2.1506534872107723,2.1690432571341707
2.02685899030092,-0.1137483231886886,-0.2427954329849915,2.1529636497015003,2.169594611959251
2.0293459338473014,-0.11817292257545242,-0.2466951375016646,2.140883916882971,2.1582880428861113
2.031832877393683,-0.1225961971675456,-0.2458035209893361,2.1239913709818827,2.1416789074219778
2.0343198209400644,-0.12222975780064987,-0.23533221340799892,2.121439900247972,2.1379496286684674
2.036806764486446,-0.11707361859990995,-0.2392232645645591,2.1140761657477105,2.1307867178728945
2.0392937080328277,-0.11191619697977157,-0.23353469098745316,2.097112037884556,2.1130410754363806
2.041780651579209,-0.11154591032349781,-0.22305492905126023,2.075336193075475,2.090267041737243
2.0442675951255906,-0.12075117598301222,-0.23172602833570455,2.0726909203884523,2.089096802489116
2.046754538671972,-0.11558999135685505,-0.2260291985002727,2.070022878375295,2.085532296962503
2.0492414822183536,-0.09127396709314073,-0.22032968233070838,2.0625439349123136,2.076286008580812
2.0517284257647352,-0.09089874701127937,-0.22420431921520834,2.05504276387693,2.069234380230018
2.0542153693111165,-0.1000991350549365,-0.228076335183113,2.0475196351837033,2.062613707889122
2.056702312857498,-0.10450993513562473,-0.22715735950610316,2.0303980114609868,2.045736756639174
2.0591892564038794,-0.1089195644137953,-0.22623582801814868,2.0132549679698037,2.0288523079431493
2.061676199950261,-0.11332803669711844,-0.22531177315421047,2.029609595921186,2.045219731686275
2.0641631434966428,-0.11294696244032754,-0.22438522727019183,2.0411549360669614,2.056555182719908
2.066650087043024,-0.11256475870600119,-0.23303302928320324,2.028737641782757,2.045177654098956
2.0691370305894057,-0.1073930358831598,-0.24167840474934854,2.016299995666648,2.0335701089472464
2.071623974135787,-0.11179701760898769,-0.24553298246491817,1.999053859731574,2.017176579462513
2.0741109176821686,-0.120988314206182,-0.24938519778636126,1.9817879019649745,2.001078318663248
2.07659786122855,-0.11581332600311456,-0.23886987270806026,1.9692907896853082,1.9871028551403305
2.0790848047749315,-0.11542567985711993,-0.2283522490651153,1.956774382898617,1.973431990921359
2.081571748321313,-0.12461379263090971,-0.22740916529081456,1.9586041542175892,1.9756957657216665
2.0840586918676944,-0.11943566123148819,-0.2360406530959831,1.9556267523353306,1.9734376254489052
2.086545635414076,-0.10946810577406912,-0.2398815341483358,1.9430540352257557,1.9608634323721308
2.0890325789604574,-0.10428794633974353,-0.22935503335339247,1.9448282801017704,1.9610805047625932
2.091519522506839,-0.11347200297533594,-0.22840319877602733,1.941796133607883,1.9584729105006482
2.0940064660532207,-0.10350146581044861,-0.22744925515576675,1.9291694516612417,1.9452867373008946
2.096493409599602,-0.09831836478388695,-0.23128163710958516,1.9213137027692841,1.9376800667207383
2.0989803531459836,-0.10271111651850956,-0.22074676256909198,1.9086523381442735,1.924118617586976
2.101467296692365,-0.10710292764141516,-0.21020987262394408,1.8959740182631686,1.9105959032686433
2.1039542402387466,-0.10191700474472859,-0.2236130149199882,1.897644209544704,1.9134898490235814
2.106441183785128,-0.10630697430734876,-0.23701420381517924,1.9088747644249349,1.92646821200218
2.1089281273315095,-0.10590763953074589,-0.2264714535824024,1.9105123246749853,1.9268012585977095
2.111415070877891,-0.10550741686226539,-0.22071521493260615,1.8881919346797487,1.903973687660979
2.1139020144242724,-0.10989472271374406,-0.2293223252097949,1.8658558646775676,1.8831047997048997
2.116388957970654,-0.10949276350044046,-0.22835079842979988,1.8482927709139858,1.865561288035156
2.1188759015170353,-0.1186667622034025,-0.21301226180341315,1.8355029056002046,1.8516281863800945
2.121362845063417,-0.09910950524434536,-0.21682556901733152,1.8322749235512692,1.8477195179150643
2.1238497886097987,-0.09391663545425755,-0.23021394378857085,1.8194554622617458,1.8363651525456035
2.12633673215618,-0.10308816574515656,-0.2340238031063291,1.8114099817470795,1.8293715949226952
2.1288236757025616,-0.10268209239122045,-0.22825517715359345,1.8177155379786907,1.8348661572453775
2.131310619248943,-0.0926984282317721,-0.21769649934589852,1.8096419596394329,1.8250448724652626
2.1337975627953245,-0.09229079935085055,-0.21192460633105092,1.7967663012462456,1.8115735623229612
2.1362845063417057,-0.10145921851458589,-0.21572793134821566,1.793454019905636,1.8092290719809518
2.1387714498880874,-0.10583848849138977,-0.22431810090732984,1.7805517487488904,1.7977443995222304
2.141258393434469,-0.09106341201277168,-0.22811833810913384,1.7820017500547873,1.7988498432018736
2.1437453369808503,-0.07628761501540665,-0.22234026928552364,1.7930158654426611,1.8083586174428437
2.146232280527232,-0.08545312671914113,-0.21177232731958773,1.77528711254985,1.7899145475329308
2.1487192240736133,-0.08982953978312552,-0.20599134832503152,1.7527577514357313,1.7671054063129492
2.151206167619995,-0.08462846343069719,-0.20020895836465868,1.735004831454538,1.7485672331948499
2.1536931111663766,-0.07942671680864227,-0.2040019933719801,1.7124517879328627,1.7263882942829518
2.156180054712758,-0.09337792566675618,-0.2030052725884488,1.7138292820112628,1.7283348592155912
2.1586669982591395,-0.09296327919369318,-0.19243042180539538,1.7151955375562071,1.7284580904862499
2.161153941805521,-0.08775959642307857,-0.19621948664502176,1.7261276009235802,1.7394597806140193
2.1636408853519025,-0.1017089063115354,-0.1952188827554564,1.737048904433169,1.7509408928344354
2.166127828898284,-0.1012923979338845,-0.1990054456151924,1.7288060730072177,1.7431677358562874
2.1686147724446654,-0.0912984868892856,-0.2027908006500243,1.715764554051213,1.7301177784980735
2.171101715991047,-0.0956692020198795,-0.20178657319374338,1.7027129875690408,1.7172949471109158
2.1735886595374283,-0.09046253892630635,-0.19599279180820073,1.680074802840692,1.693885470901134
2.17607560308381,-0.08525531641291273,-0.18540948496275744,1.6526386383421432,1.6651905641794258
2.178562546630191,-0.08962435324545975,-0.18919029431529655,1.6299815351027842,1.6433701034562496
2.181049490176573,-0.09399285486976999,-0.18818163486823503,1.6073153234222408,1.6210211390898621
2.1835364337229546,-0.10793763997412514,-0.17759513149172923,1.5894286394700172,1.6029578799270612
2.186023377269336,-0.10751670396572732,-0.17179602224375712,1.5715333120023498,1.5845474639856978
2.1885103208157175,-0.09751846213466325,-0.18514954508863957,1.5727831856025594,1.586643360499698
2.1909972643620987,-0.10667334633348413,-0.1793485013733851,1.5883900874760108,1.6020387503911733
2.1934842079084804,-0.10625094853181244,-0.1735465321946439,1.5944122307686888,1.6073450234860849
2.195971151454862,-0.10582808722247727,-0.17732047191412192,1.600426651088756,1.6136937749524183
2.1984580950012433,-0.10061637089799524,-0.176305138197423,1.5872799633407464,1.6002077483472252
2.200945038547625,-0.09540421465202364,-0.18007736521695916,1.5884912181691053,1.6015099661997798
2.2034319820940063,-0.09019163021834675,-0.17906037376892225,1.5849070289095648,1.59753793003567
2.205918925640388,-0.09934383925202017,-0.17804259451526505,1.571739218071814,1.584907736584075
2.208405869186769,-0.10370724012615973,-0.17702405470224214,1.563353220658101,1.5767580664578393
2.210892812733151,-0.10328184445528799,-0.17121637816020474,1.5549608575990659,1.5677644772763564
2.2133797562795325,-0.09327926049368307,-0.17498480190496535,1.5465623523536376,1.559222822772161
2.2158666998259138,-0.0880647097368526,-0.16917573961415622,1.5237927176261579,1.5356822816798872
2.2183536433722955,-0.08284980035894679,-0.16336602479110018,1.5201709985288252,1.5311670099122725
2.2208405869186767,-0.08242294713454773,-0.16713249084273452,1.5213322061738612,1.5327030022974018
2.2233275304650584,-0.08199575815733479,-0.1613215511575503,1.5081229475547433,1.5189413326935577
2.22581447401144,-0.08156824480093883,-0.160298442269462,1.4949086521071564,1.5056894923252793
2.2283014175578213,-0.08592882171885924,-0.1544863840138726,1.4960547484652817,1.5064626167459951
2.230788361104203,-0.08071229024282034,-0.1630390160509232,1.4876194378977736,1.4987020339488375
2.233275304650584,-0.0707070649451903,-0.1715911547012543,1.4600261308297195,1.4717742069048751
2.235762248196966,-0.06548996367796422,-0.17056601950832206,1.4659474800442949,1.477289313777661
2.238249191743347,-0.07463780425237393,-0.17432884651947544,1.4718648777516314,1.484030851064509
2.240736135289729,-1.1994833614700604,-2.189220652934218,17.174164622579582,17.354635631010563
2.2432230788361105,-1.002729356380809,-2.245655112104035,16.47617947230667,16.6587191298829
2.2457100223824917,-0.7772446965168924,-2.1392834949385,14.418284469056424,14.596834253378832
2.2481969659288734,-0.5182409895646674,-1.9132014570143845,11.282995620934766,11.455780362787166
2.2506839094752547,-0.2352950531305315,-1.600927847169433,7.41507817839957,7.58957957502573
2.2531708530216363,0.04286268193923981,-1.2120394975410755,3.2550654574977997,3.4736620569217735
2.255657796568018,0.28271338151934056,-0.7656900468084702,-0.8091816630642237,1.1493402749886739
2.2581447401143993,0.5081990513693648,-0.3097635534740655,-4.404167515356166,4.444199729781742
2.260631683660781,0.68580085744698,0.1174327307002736,-7.218645675437651,7.252100292317353
2.263118627207162,0.7963651757118761,0.5063219739730402,-9.065868206510753,9.114851933643084
2.265605570753544,0.8542572054076865,0.818596924780707,-9.792605995844893,9.8638222048103
2.268092514299925,0.835534919257124,1.0494691549014443,-9.418012451063241,9.513067992859602
2.2705794578463068,0.773717129868337,1.1797850262522198,-8.090527870261745,8.212622731180502
2.2730664013926885,0.6640154233287213,1.2143329174514421,-5.958592552361833,6.1172171877322175
2.2755533449390697,0.49685298244717097,1.138747593936285,-3.266414863517803,3.494721023125073
2.2780402884854514,0.32490223323854583,0.9817594511269183,-0.3300292205169102,1.0855101876239677
2.2805272320318326,0.1385863585954515,0.7768872878640032,2.5536835723081115,2.672837410750933
2.2830141755782143,-0.08124826518795436,0.5145542732059765,5.1357267429945885,5.1620787052679065
2.285501119124596,-0.2819292119709292,0.2139139962335359,7.191045535352801,7.199748549072016
2.287988062670977,-0.4443028788126629,-0.09151474391076375,8.556834435523582,8.568850305229777
2.290475006217359,-0.5827344859725441,-0.3777899546245176,9.146902381941212,9.173228870780381
2.29296194976374,-0.6828588337457512,-0.625758046524493,8.9612495719706,9.008987912676874
2.295448893310122,-0.7446759323461561,-0.8306306400874033,8.071702251946599,8.148427256136452
2.2979358368565035,-0.7681857919452981,-0.987619355688822,6.5979707005709045,6.715557964031727
2.3004227804028847,-0.7342348093911129,-1.0679937970014262,4.712437632233106,4.887410351448085
2.3029097239492664,-0.6667650113718824,-1.0765423908387801,2.6305813903657924,2.919499537763527
2.3053966674956476,-0.584930021213136,-1.0180535639129058,0.567880317564569,1.3042485360503207
2.3078836110420293,-0.4599994289946856,-0.9068925494748197,-1.2984944709788246,1.6492851366973975
2.3103705545884106,-0.3111268579569782,-0.7430593707129516,-2.810525474192124,2.9236946816022655
2.3128574981347922,-0.15746593129775377,-0.5552844706357187,-3.848502418408387,3.891543039379606
2.315344441681174,-0.013381868851887302,-0.3531446788685271,-4.340599064005162,4.354961592605567
2.317831385227555,0.12112531954955236,-0.14142842161424163,-4.305968835289331,4.309993149873818
2.320318328773937,0.24126722079783933,0.05592226174497883,-3.754188350770459,3.762348647354576
2.322805272320318,0.33267861518645014,0.22933054189015278,-2.761871876286989,2.7912727956025756
2.3252922158666998,0.3953594930126303,0.37879639624518724,-1.4678829216868143,1.5666767727592579
2.3277791594130814,0.434098247936867,0.47080097909429597,-0.030238610943749578,0.6411000112071539
2.3302661029594627,0.43452966038125523,0.514921074706781,1.4313511576818652,1.582000592770259
2.3327530465058444,0.40144212409214747,0.5111566608140179,2.778022871803701,2.8530418831756807
2.3352399900522256,0.3348356295385742,0.4738729252108915,3.8661246148659085,3.9094232292920768
2.3377269335986073,0.25865218383417937,0.39828144251376907,4.623830519268891,4.648154228355107
2.3402138771449885,0.16331497089343933,0.28438219076206117,5.003256733165998,5.013992715203269
2.34270082069137,0.05840078795527126,0.1704823746606241,5.009191840383407,5.012432322322908
2.345187764237752,-0.0465135676983191,0.032639955853132285,4.641636020577176,4.6419838244243845
2.347674707784133,-0.1418512987421367,-0.10520307071059953,3.9628386957163375,3.9667719880664345
2.350161651330515,-0.2276124144484028,-0.2286815166183085,3.058991303520026,3.0759600846345565
2.352648594876896,-0.2990085207257865,-0.34258380663585,2.0258620874959927,2.0762675544325577
2.3551355384232777,-0.3656164334006251,-0.4325447521446284,0.9735845002604098,1.1263379235947637
2.3576224819696594,-0.4034941450137704,-0.4889875677431066,-0.0020732163846268747,0.6339721324268838
2.3601094255160406,-0.40785326134399447,-0.5119122745670364,-0.8340732414117866,1.0602248024265863
2.3625963690624223,-0.40742421136890833,-0.5156841036097575,-1.431435738046983,1.5750977286770136
2.3650833126088036,-0.3830533908196189,-0.49072626915960793,-1.7414880969323416,1.8494115180831834
2.3675702561551852,-0.3299524053447378,-0.4274619854014201,-1.7833837593697677,1.8633437610757568
2.3700571997015665,-0.26727487715108045,-0.3498332896587657,-1.5714877641958482,1.6319904973763988
2.372544143247948,-0.1950208151206757,-0.2722054125109161,-1.1249535544230085,1.1737331061785432
2.37503108679433,-0.11797863141243936,-0.18500156783201982,-0.5108186071228031,0.5559498061454274
2.377518030340711,-0.045725141462092056,-0.09779858267379993,0.20866800309732447,0.23494187973062067
2.3800049738870928,0.026528049299098966,-0.010596477343648658,0.9473151841718117,0.9477457891724888
2.382491917433474,0.08441572220215249,0.062239517993846416,1.6380854564594873,1.6414395311491385
2.3849788609798557,0.14230307854350654,0.11113257659817988,2.2283065494228538,2.2356096917720443
2.3874658045262374,0.18103649642102526,0.15044788843425883,2.646152578386225,2.65660163522324
2.3899527480726186,0.18625075729640855,0.17060862696920598,2.8724700943388832,2.883553552660508
2.3924396916190003,0.1962530791984437,0.1811915790553198,2.9120476640144624,2.9242720900948185
2.3949266351653815,0.17752463039482924,0.16783151504720673,2.7648854499678333,2.7756573929942596
2.397413578711763,0.1444306124000468,0.12095160872374944,2.454925630497394,2.462143242121413
2.3999005222581444,0.1113362267721863,0.06928226053022701,2.010898786363061,2.0151698975551606
2.402387465804526,0.06387625519114437,0.012823451094044813,1.4902659173881947,1.4916893515085783
2.404874409350908,0.011627495982041658,-0.03884803221278332,0.9648532324982835,0.9657049904251321
2.407361352897289,-0.04062165580663529,-0.09052061187518401,0.4633913098770961,0.473894087496712
2.4098482964436707,-0.09765961172333809,-0.15177111359437623,0.019399130169713175,0.1815163820016576
2.412335239990052,-0.1451211699915727,-0.20344594304567165,-0.3048739069159865,0.39420617047388185
2.4148221835364336,-0.18300633875208033,-0.23117990912065833,-0.5094276456953324,0.5886017300375238
2.4173091270828153,-0.22089193274252278,-0.2589150471693813,-0.5703199147412814,0.6641498722065319
2.4197960706291965,-0.24441275005526703,-0.28186297251594006,-0.4923389634079687,0.6177232248788556
2.4222830141755782,-0.2248383787780503,-0.2760816870991536,-0.3090034618305637,0.471440912465528
2.4247699577219595,-0.21962966672049478,-0.27030162927720447,-0.020313257761358727,0.34887360137239715
2.427256901268341,-0.21442141184381436,-0.2549460107417212,0.3306361703053291,0.4693551825263966
2.429743844814723,-0.1900600087451773,-0.21086123643964516,0.6959609396957394,0.7516294948571731
2.432230788361104,-0.156122271899924,-0.1619893410967137,1.0517191834782658,1.0755128782624275
2.4347177319074857,-0.12218501573963136,-0.13706076265488631,1.3548154205813923,1.367201395031459
2.437204675453867,-0.08345984469123663,-0.08819148582711911,1.586096185675924,1.5907370600020592
2.4396916190002487,-0.03994676645825862,-0.03932354502702662,1.7168312059332358,1.717746044970016
2.44217856254663,0.0035658079791927033,-0.014398974564214129,1.7565974342284552,1.7566600671140211
2.4446655060930116,0.02792425772378415,0.00573582123851768,1.705395015937487,1.7056332619291656
2.4471524496393933,0.061858995125037675,0.025869228201420125,1.5728009022183915,1.5742294719209786
2.4496393931857745,0.09100480269334627,0.031636018967428736,1.3779688500116247,1.3813330023610244
2.452126336732156,0.09141965634219673,0.032612982884992814,1.1256874054385868,1.1298642816645899
2.4546132802785374,0.08225716191158,0.03358850608614983,0.8351103237237076,0.8398236012501452
2.457100223824919,0.08745932860548328,0.010620554884966271,0.5684869891167583,0.5752733151652558
2.459587167371301,0.07350732582782282,-0.0267140810584805,0.3353943484863482,0.3443927090891135
2.462074110917682,0.04997795290900964,-0.049684998698996896,0.12625573456301886,0.14459220374121828
2.4645610544640637,0.026448009223091373,-0.07265742477043213,-0.00625627761574421,0.07757409087924262
2.467047998010445,-0.0018709157731761072,-0.1052081825825617,-0.05256474375180886,0.11762361282433595
2.4695349415568266,-0.034978829259074695,-0.1329720787398494,-0.03661154364538355,0.1422866731244709
2.472021885103208,-0.06808733504994668,-0.15594912970400676,0.05118026528939623,0.17769478271669598
2.4745088286495895,-0.09161963359725145,-0.1693509485128093,0.19165720486107496,0.2716733060089689
2.4769957721959712,-0.11515253859006541,-0.18275435806133045,0.35608898938212974,0.4164836502113042
2.4794827157423525,-0.13389765371298434,-0.18179416453953534,0.5540525588728489,0.5982908472674654
2.481969659288734,-0.14785498592733998,-0.18083559395573312,0.7472408192957971,0.7828993874865089
2.4844566028351154,-0.14265933218998927,-0.1750902589335115,0.8973466757594757,0.9253320162681498
2.486943546381497,-0.1374643126564536,-0.1645581753133456,1.013947065721851,1.0363708228247843
2.4894304899278787,-0.12269312751687389,-0.14445095551201925,1.0970421191470567,1.1132929054255543
2.49191743347426,-0.11271099351947617,-0.11476861516333159,1.117901545224548,1.1294155426157764
2.4944043770206417,-0.09794111076745077,-0.09466478307903392,1.0765254722133921,1.0851087386331517
2.496891320567023,-0.08317188928149061,-0.06977426472550441,1.016009657403636,1.0217933426687076
2.4993782641134046,-0.06361493239824245,-0.05446228538784226,0.9172006140699622,0.92101572549225
2.501865207659786,-0.03448184341095728,-0.0391520536464971,0.7896752745581335,0.7913968158125351
2.5043521512061675,-0.010137838850763914,-0.019055181299206136,0.6525873770042843,0.652944224521698
2.506839094752549,0.004628671435179865,-0.003748490001687532,0.5059370454135763,0.5059721036760493
2.5093260382989304,0.01460608428366239,0.011556408654174177,0.38324322618422535,0.3836955286358925
2.511812981845312,0.029371199895078415,0.007705886577756171,0.27492923498306965,0.27660103455989066
2.5142999253916933,0.03934720523183949,-0.000934860976620211,0.20972561319146976,0.2133867600230626
2.516786868938075,0.0349572872995953,-6.386519504353316e-07,0.1780556747809392,0.181454774689039
2.5192738124844567,0.03535505306907877,-0.018221880871434948,0.17034273287626078,0.17492473628324634
2.521760756030838,0.026175286312021873,-0.03644498875260238,0.20095211635766397,0.20590079137127607
2.5242476995772196,0.016994787444859938,-0.04030476663086002,0.26030713665840644,0.2639566297874754
2.526734643123601,-0.0017632563541047919,-0.04895484198141675,0.338831104367026,0.34235391470373794
2.5292215866699825,-0.020522044582226173,-0.062395228895936405,0.4269473292279038,0.4319703008745523
2.5317085302163638,-0.039281583334433545,-0.06626073140293398,0.5150791201421008,0.5208070922344208
2.5341954737627455,-0.05325347534234015,-0.07012817003036309,0.5888613818477868,0.5954087838615834
2.536682417309127,-0.06722612993516924,-0.06920915524319415,0.6578710348426053,0.6649086841066353
2.5391693608555084,-0.07162274643828664,-0.0730805073653884,0.7077429821816139,0.7151018858816343
2.54165630440189,-0.0760201374153821,-0.0625886266971718,0.7049585127981359,0.7118025725234849
2.5441432479482713,-0.08520671206695807,-0.05688713999949879,0.6926133679108748,0.7001497039115484
2.546630191494653,-0.0943940729100608,-0.05118765733008335,0.6611308513762495,0.6697943116397573
2.5491171350410347,-0.09400541909861254,-0.04070178864506291,0.591357459572011,0.6001643936541686
2.551604078587416,-0.08404075638441322,-0.030217950439720642,0.5120237212418584,0.5197540421938073
2.5540910221337976,-0.06928849379684293,-0.02452455910794704,0.4422833576524088,0.4483491026291487
2.556577965680179,-0.06411384696323374,-0.02362162762204356,0.36777126599259624,0.3740645275266507
2.5590649092265605,-0.0541516115464023,-0.013143958892193552,0.3076411658588647,0.3126471615406633
2.561551852772942,-0.029824986486879368,-0.0026683723290661376,0.26189316273260843,0.26359946645605636
2.5640387963193234,-0.015075993924840103,0.0030167160779481783,0.22095055462171231,0.22148483866025467
2.566525739865705,-0.014693042676684864,0.01348810040126347,0.20875546194420913,0.20970612114831935
2.5690126834120863,-0.009522524914796493,0.019168961532792128,0.20615437440430284,0.20726252351312346
2.571499626958468,0.0052239572699270265,0.02484769042602819,0.2275126041182034,0.2289250586583131
2.5739865705048492,0.0056043819070881185,0.016159064853740635,0.24888823581046893,0.2494752059791824
2.576473514051231,0.015560760271734364,0.002679879290687026,0.27506977329927373,0.2755225928960471
2.5789604575976126,0.02072787711870344,-0.0012246683677790138,0.3108457195755765,0.3115384504052703
2.581447401143994,0.02110572720599535,-0.009919800047991423,0.3370625602024955,0.33786835253415926
2.5839343446903755,0.011905902013482184,-0.02340552761528647,0.3632971998397707,0.36424500633107226
2.5864212882367568,0.0027052030241070946,-0.017739846233501666,0.3943381390025973,0.3947462325847096
2.5889082317831384,0.0030804317628956857,-0.016864784169779323,0.40624345746109114,0.40660503776377444
2.59139517532952,-0.015698836765594026,-0.02556875631032085,0.4133784607257116,0.4144658810650257
2.5938821188759014,-0.02490218767107355,-0.0342749674808247,0.4013780335639421,0.40360775286690664
2.596369062422283,-0.029318029263514123,-0.033406622407551545,0.37503067320448835,0.37765533903916776
2.5988560059686643,-0.03373476981101198,-0.032540538998701685,0.33912487605711483,0.34234865697601546
2.601342949515046,-0.04294081753984236,-0.03646513174298427,0.31760275099499147,0.3225602689166937
2.603829893061427,-0.04735937067357654,-0.04039200838943602,0.29609917951204245,0.3025708982040973
2.606316836607809,-0.05656724067532437,-0.02516756662724262,0.2554606389662819,0.26285622912272366
2.6088037801541906,-0.060987625685289926,-0.02909904389056317,0.22441763910438262,0.23437047933402125
2.611290723700572,-0.06062053044270399,-0.0473980476321052,0.18860505897688817,0.2036990228306596
2.6137776672469535,-0.055465959645254026,-0.027392152002944314,0.1767534067050196,0.18726603923977092
2.6162646107933347,-0.04552391794915012,0.0021882124988690244,0.18886276967713478,0.19428422774250004
2.6187515543397164,-0.040371216609792704,0.007824212153223264,0.17226079794838967,0.1771012025260963
2.621238497886098,-0.030431053559971666,0.013457853181813917,0.1604664005309786,0.16387992107760357
2.6237254414324793,-0.025280239972424234,0.04303114190424395,0.14869125906722935,0.15684342584132893
2.626212384978861,-0.024918780338008317,0.04387163161295282,0.1321470543933323,0.141451439224742
2.6286993285252422,-0.014981469145469162,0.039921328822960955,0.13956428978277025,0.14593268275241392
2.631186272071624,-0.014621924084612714,0.05512224014680056,0.1661546444632105,0.17566908635110962
2.633673215618005,-0.009474939561998519,0.05595553245058005,0.18797618357868195,0.19635641493044678
2.636160159164387,-0.004328923224440007,0.042421195939777334,0.21939419803461924,0.22349969031857247
2.6386471027107685,-0.0039722826778179066,0.024096027557523048,0.2316783480538458,0.2329619164813947
2.6411340462571498,-0.003616618846520203,0.0009800177031937807,0.21525190634192803,0.21528451767466636
2.6436209898035314,-0.00805033925475751,-0.022138439806807853,0.20842217801036966,0.20974919014332943
2.6461079333499127,-0.0029082381047541572,-0.030894144418897262,0.20640083749200322,0.20872041521051538
2.6485948768962944,-0.007343932800251807,-0.034863912084654114,0.19961115510482408,0.20276597090513793
2.651081820442676,-0.02135742742313851,-0.02925934869848712,0.18326480369397125,0.18681069954738702
2.6535687639890573,-0.0162183060928921,-0.02365727001966933,0.1525734553127851,0.15524612440698388
2.656055707535439,-0.01586858941196112,-0.01805768507094152,0.1314792011460586,0.13365879115887755
2.65854265108182,-0.0203082813408334,-0.01246060277930372,0.11040530834735485,0.11294700095140435
2.661029594628202,-0.019960579159043035,-0.0020776286558681356,0.07977504328259677,0.0822605542890169
2.663516538174583,-0.014825486746491312,0.008302825243032608,0.053953688133045574,0.05656617741587876
2.666003481720965,-0.02405662122414176,0.004315540315677602,0.047306524295139596,0.05324708587166719
2.6684904252673465,-0.028500373110341926,0.014690927938223908,0.050256815780374,0.059614110439536364
2.6709773688137277,-0.023368342844333534,0.010698559737972957,0.043651019177701755,0.05065520805415152
2.6734643123601094,-0.018237340786320888,0.0019152339994388257,0.04185441353778607,0.04569530230582811
2.6759512559064906,-0.017895773936301707,0.007494555742312947,0.05923227713228307,0.062328883712364336
2.6784381994528723,-0.012766839293511967,0.01307130683845692,0.07184266089281621,0.07412974552884717
2.680925142999254,-0.01721575041899559,0.009068672574240377,0.04616680833436604,0.05009987102308763
2.6834120865456352,-0.01687730091225037,0.009851854931599124,0.025300415322368153,0.0319689434789491
2.685899030092017,-0.00696309097379888,0.005844039384735211,0.009243547066436264,0.012964590028580088
2.688385973638398,-0.00662673736620345,0.01619883142337253,-0.006792135315633274,0.01877362217978595
2.69087291718478,-0.006291436890705215,0.012185803427570807,-0.013229761515049177,0.019055250538111516
2.6933598607311615,-0.0011687896294897415,0.008170157753478069,-0.014857671952372087,0.01699611610807083
2.6958468042775428,-0.005624008906697564,0.004151886889399048,0.0026894054662225386,0.007490029551792496
2.6983337478239244,-0.0005034847650747798,-0.009445823224089711,0.010681112186475161,0.014267558684984728
2.7008206913703057,-0.00017243045041848148,-0.01825776995213202,0.004329105491963858,0.018764782179544692
2.7033076349166874,-0.004630849208534293,-0.017495557207977352,0.012363865146328479,0.021918130571889273
2.7057945784630686,-0.013878744246257346,-0.021524402093791917,0.015631836949570044,0.030004562215873082
2.7082815220094503,-0.0135509087705874,-0.015979101697726872,-0.00023213073691152886,0.02095263000804671
2.710768465555832,-0.003647345910653632,-0.015224872937867673,-0.0256511737074252,0.030051332761371487
2.713255409102213,-0.0033216720381044063,-0.024050125999917515,-0.0462600251916232,0.05224396612500094
2.715742352648595,-0.012573890204690241,-0.023301254376475455,-0.0476934191731786,0.05455009993414624
2.718229296194976,-0.012250390142346634,-0.02255507139065349,-0.049104913630310776,0.055408445626253224
2.720716239741358,-0.02150478810702816,-0.03617679359472259,-0.055282857330990254,0.06947956981013889
2.7232031832877395,-0.03076028039441603,-0.0402244108874954,-0.06143879315157896,0.07961735605451653
2.7256901268341207,-0.02565165994156926,-0.03948633299890547,-0.06757266803608886,0.08236044934902811
2.7281770703805024,-0.025332542889501042,-0.03396256624802074,-0.06410762303355533,0.07684387396801413
2.7306640139268836,-0.02501452873952348,-0.03801832682450046,-0.07498562317914015,0.08771524101408476
2.7331509574732653,-0.029486023595516442,-0.0468652175466131,-0.08105300436742624,0.09815988855002201
2.7356379010196465,-0.02917022356245247,-0.041349631181749835,-0.08230971651475372,0.09662082267445934
2.7381248445660282,-0.02406713134804539,-0.035836783649760395,-0.08833251691685895,0.09831650633820842
2.74061178811241,-0.018965152942530206,-0.0255382774997317,-0.09433295364557992,0.09955193010326818
2.743098731658791,-0.01865269429842986,-0.020030925152368262,-0.10031097882835027,0.1039781392435554
2.745585675205173,-0.018341354690027734,-0.02410313561896693,-0.11105494864644072,0.11511111178941545
2.748072618751554,-0.013242733354077663,-0.028178107861000168,-0.11698801005193182,0.12106019265317672
2.7505595622979357,-0.0033568328102083766,-0.013102234110642819,-0.13247532732844114,0.13316399369192639
2.7530465058443174,-0.012625672142253297,-0.012394343035038169,-0.1479400488862126,0.14899424620021015
2.7555334493906987,-0.0027420272327408624,-0.01168923000997557,-0.1442285172212454,0.14472740580626148
2.7580203929370803,0.002352082908922526,-0.0014100936435199607,-0.15007110875723484,0.15009616364757544
2.7605073364834616,0.002656655911960515,-0.0007105523778050404,-0.1511025707578284,0.15112759375752893
2.7629942800298433,0.007748496083206824,-1.3804645500048451e-05,-0.14732286116854532,0.14752648848598746
2.7654812235762245,0.008050794485140567,0.005468547887782282,-0.14352034197429653,0.14384995261821243
2.767968167122606,0.0035635488576596375,-0.003417112957984525,-0.15884858583819828,0.1589252930285925
2.770455110668988,0.003863563617996113,-0.0075171787134000745,-0.16457713293562648,0.16479401622920162
2.772942054215369,0.004162433259054743,-0.0020432507832994773,-0.17028275071799293,0.1703458714395088
2.775428997761751,0.004460155630569784,-0.0013605437672881138,-0.16638859406711504,0.1664539224627128
2.777915941308132,-3.16747016145813e-05,0.004107744422841897,-0.15289462521522523,0.1529497989120427
2.7804028848545137,-0.004524656494702017,0.004784802680073419,-0.14895442038369922,0.14909992020429144
2.7828898284008954,0.005346418170959377,0.015035836584750939,-0.15935634653896358,0.16015338195401416
2.7853767719472766,0.005639530688656635,0.020495631880911525,-0.1841003680312081,0.18532355689931165
2.7878637154936583,-0.0036453209107225604,0.02116418435887324,-0.2040328366315638,0.20515996073318235
2.7903506590400395,-0.008142928599411015,0.04098350649562299,-0.21436531477233878,0.21839973275692387
2.792837602586421,-0.0030648909544223057,0.05122317432958701,-0.23903978550603888,0.244485635978343
2.7953245461328025,0.002011983522039018,0.04709478058540029,-0.23496058609716997,0.23964232400643584
2.797811489679184,0.011876096324353824,0.04775193467366856,-0.235646507629669,0.24072923687629486
2.800298433225566,0.007373832380889289,0.04840622948761153,-0.2410975186377602,0.24601940970271813
2.802785376771947,0.0028703998976500333,0.05384606464501207,-0.24652518502587029,0.25235353123221166
2.8052723203183287,0.0031542004753658537,0.04970622656610901,-0.25671788002759044,0.2615047377504669
2.80775926386471,-0.001351574210920914,0.040775115035855514,-0.252521960961511,0.2557963594871549
2.8102462074110917,0.0037182841505435382,0.03184112992243415,-0.2578794157136137,0.25986434199511926
2.8127331509574733,0.013575370625314442,0.03248107449731963,-0.27279021625088795,0.2750523822298605
2.8152200945038546,0.00906607035295559,0.03311813883349224,-0.2733123186193289,0.2754607562984477
2.8177070380502363,-0.00023281157025012433,0.028963916406742563,-0.2690225027856865,0.2705772896233509
2.8201939815966175,0.004832336627353162,0.024806807415752363,-0.25992074275261245,0.26114655212066656
2.822680925142999,0.014684706830180305,0.030223615461532294,-0.2603722231582193,0.26253152598994367
2.825167868689381,0.014959087636881363,0.030849127625310224,-0.26080011271153225,0.26304399207835655
2.827654812235762,0.010443880961788943,0.03147174435109168,-0.275569597393579,0.2775574685532777
2.8301417557821438,0.01550429539418774,0.04166826948447566,-0.2951038472522107,0.29843409409877625
2.832628699328525,0.02535192627634819,0.042285087030229374,-0.3002492263609913,0.3042701869744212
2.8351156428749067,0.01604475570340813,0.04289900099577437,-0.3197361326608714,0.32299992724604115
2.837602586421288,0.016313202327965515,0.04351000882845257,-0.33919933487219467,0.34236739070212924
2.8400895299676696,0.030945668234968693,0.04890651137620594,-0.34906200569573187,0.353827309655186
2.8425764735140513,0.021634925660361515,0.059088506246704586,-0.34932412513091116,0.35494628604518835
2.8450634170604325,0.017111393358169136,0.06926758780708608,-0.3495624804737343,0.3567698505454465
2.847550360606814,0.017375070194133202,0.06507854386340917,-0.349777053033419,0.35620372929599703
2.8500373041531954,0.012849148426864354,0.05609817890256874,-0.34517942145059877,0.34994419452885667
2.852524247699577,0.0035336269889809646,0.05669170081080166,-0.35971158493741306,0.3641687243554894
2.855011191245959,0.008582118127627325,0.05728230095155418,-0.3694315101503651,0.37394458873720887
2.85749813479234,0.008841007560616565,0.05308157408710512,-0.35997397103198203,0.36397400558664345
2.8599850783387217,0.004310294320072794,0.04408951837830166,-0.360069372050841,0.3627842567657026
2.862472021885103,0.014143590752322188,0.04945974534524611,-0.350564085113497,0.35431833898409626
2.8649589654314846,0.014398879353722527,0.04525023670297301,-0.33145809604671506,0.33484232271806913
2.867445908977866,0.005076159254929213,0.04103779748619063,-0.3362702145562526,0.338803077632136
2.8699328525242476,0.005329042900473424,0.04639923280683611,-0.3554236210996873,0.3584790620648745
2.8724197960706292,0.005580722845526909,0.04218092793193984,-0.3553994801655218,0.3579373767163765
2.8749067396170105,0.005831198318292707,0.04753649476773125,-0.3649282000366263,0.36805748517127285
2.877393683163392,0.006080468579269582,0.06246593201564066,-0.38879817302244035,0.39383116192895856
2.8798806267097734,0.006328532921142327,0.05823881853139756,-0.3934905654958527,0.39782739403805895
2.882367570256155,0.016152197309295735,0.05400876644977659,-0.4268894008988191,0.43059540282160197
2.8848545138025368,0.01160944449889012,0.06892938798120696,-0.445899040208916,0.4513446507806081
2.887341457348918,0.007065483839441944,0.07427026220837751,-0.445731071585568,0.45193161107318586
2.8898284008952997,0.007308718071577958,0.060454581570359434,-0.45511590704753146,0.45917171367626114
2.892315344441681,0.01233914664724478,0.06578957178418898,-0.4596883293456884,0.4645362014226224
2.8948022879880626,0.017368365729591884,0.07591002211806819,-0.4546599284842454,0.461280437646538
2.897289231534444,0.012819568192860453,0.08123912523482257,-0.45439590835915133,0.461778927985144
2.8997761750808255,0.0130579635441459,0.062623267230705,-0.4541078601933535,0.4585914660130025
2.902263118627207,0.018083551360780437,0.05836967411950189,-0.44900737581582817,0.45314639712089866
2.9047500621735884,0.018319524610541205,0.05890153878538351,-0.44388285429994134,0.4481483957292553
2.90723700571997,0.01855428625308997,0.05943045750607423,-0.44352269532058664,0.4478712114907374
2.9097239492663514,0.013999432638301945,0.05516802663226894,-0.43835008919098506,0.4420297455719894
2.912210892812733,0.014231770107709263,0.055691052548294095,-0.43794184010261716,0.4416979645943615
2.9146978363591147,0.009674491752003966,0.0657879383902289,-0.4422979461966001,0.44726851201266865
2.917184779905496,-1.1297355862599427,-1.9831315503275475,24.68769902541615,24.79297473903243
2.9196717234518776,-0.8996635276129139,-1.9874057681381587,22.921258596905183,23.024840321191057
2.922158666998259,-0.6312854555309281,-1.8384540265329123,19.33524895682638,19.43271177053001
2.9246456105446406,-0.32938977348155085,-1.5697951486509523,14.327107580264734,14.416614236639667
2.927132554091022,-0.04186051478491348,-1.1957943442789287,8.442712444647993,8.527078622806384
2.9296194976374035,0.22651391715125851,-0.7691240496955041,2.2087879135469795,2.3498094402556218
2.932106441183785,0.47573352226956706,-0.29936107122583966,-3.8287880367685787,3.869826516225072
2.9345933847301664,0.6818562839406807,0.17039896163288937,-9.162444657166999,9.189361016617154
2.937080328276548,0.8353053955257725,0.597060419453451,-13.418686492059491,13.45791081187761
2.9395672718229293,0.9360808570560901,0.9662580928001518,-16.31499774951503,16.370371212636847
2.942054215369311,0.9698174586312758,1.2444731590254348,-17.702937931140845,17.773105264427656
2.9445411589156927,0.9365152003410984,1.4173404088321226,-17.553776622118605,17.635787145863834
2.947028102462074,0.864904502226402,1.4896482462730116,-15.996800717767371,16.089274219167205
2.9495150460084556,0.745408557794378,1.4566082688289734,-13.26185358369245,13.362413780531956
2.952001989554837,0.5780273672217204,1.3277972840099546,-9.6553930391846,9.763389575645126
2.9544889331012185,0.3771261406749073,1.1080036960736317,-5.522184130657306,5.644857295749518
2.9569758766476,0.17622370163020473,0.8307463292672259,-1.2548759382807226,1.5152253552139185
2.9594628201939814,-0.01989154632950141,0.5199672012646994,2.7778244738235376,2.826140543458417
2.961949763740363,-0.21121960291311392,0.19003152316675376,6.269459284144629,6.275893993368525
2.9644367072867444,-0.3738184511999103,-0.13033028389848056,8.956666300509811,8.965411169380168
2.966923650833126,-0.5028996875221315,-0.412387798736074,10.652697783322754,10.672532120123405
2.9694105943795073,-0.5936749081840078,-0.6321990034051532,11.290516075451754,11.323774932704563
2.971897537925889,-0.6461441127822354,-0.8089175097818202,10.908428392271066,10.95744768371815
2.9743844814722706,-0.6507304942449924,-0.8994476865121794,9.597414385138347,9.661408758404383
2.976871425018652,-0.6170108587541252,-0.922943145341117,7.534644964642199,7.6159964018216755
2.9793583685650336,-0.5449852058232513,-0.8650386747061847,4.945175074037811,5.049758142345881
2.981845312111415,-0.44423034157920893,-0.7496762895425728,2.078001672651556,2.2533189048655684
2.9843322556577965,-0.32432307212151923,-0.5960096014006053,-0.82266668404033,1.0663926917894555
2.986819199204178,-0.18047499356155472,-0.3944618018444226,-3.5030446344484494,3.5298007092969796
2.9893061427505594,-0.05099333186652488,-0.1593980989759145,-5.766807657350221,5.7692355326095965
2.991793086296941,0.0880639301875088,0.05172066928415786,-7.436784845329001,7.437486075223695
2.9942800298433223,0.2175431799684061,0.2628365215235777,-8.42199655125204,8.42890467270206
2.996766973389704,0.3278676115113789,0.4500074431901595,-8.698500774988844,8.716301945325565
2.9992539169360852,0.40946041887823176,0.5845030164742413,-8.266297533525362,8.297046252954294
3.001740860482467,0.4623216027978184,0.6854768568317433,-7.230731717407828,7.277850022829066
3.0042278040288486,0.49123956734570134,0.733775353218431,-5.716301830972851,5.78410314606339
3.00671474757523,0.49142590998299857,0.7246101046128812,-3.8762367989874997,3.9738861270215793
3.0092016911216115,0.4580922281969335,0.681923129977223,-1.8877075633256393,2.0587150092640765
3.0116886346679927,0.40081532946164045,0.605714431733384,0.07211493363586818,0.7298927762314444
3.0141755782143744,0.3339604245974169,0.48161880240342336,1.830848152339886,1.922366040313907
3.016662521760756,0.24316230452841509,0.3335782611326792,3.2783587958951905,3.3042455655213088
3.0191494653071373,0.14278618012626804,0.1807464238066645,4.304513566914853,4.310672129808527
3.021636408853519,0.047197262288092845,0.03270009973045518,4.842274797401464,4.842615212015018
3.0241233523999003,-0.048392851344883026,-0.10577230505128687,4.901219271991767,4.9025993106433505
3.026610295946282,-0.13919575646556948,-0.21551717447335994,4.5005005814747,4.507807515296667
3.029097239492663,-0.20126943546051235,-0.3013229090128178,3.6880027360750933,3.7057616035632828
3.031584183039045,-0.24897909725376643,-0.35840110244707235,2.578647392018631,2.6153134254748633
3.0340711265854265,-0.2823247407835807,-0.37238654185419406,1.2777793984092511,1.36055105997965
3.036558070131808,-0.28694115500252304,-0.35285603085539297,-0.09967958948711342,0.4655949156783431
3.0390450136781895,-0.2771935487604127,-0.29980956637311085,-1.4340195135606457,1.491017774822264
3.0415319572245707,-0.2626587275622694,-0.22282395191263982,-2.610318719494747,2.632945866905602
3.0440189007709524,-0.20502946368559916,-0.13147599092165363,-3.5519627800078792,3.5603037240844126
3.046505844317334,-0.13782457918834523,-0.04013089011093074,-4.182337268286558,4.1848000105940795
3.0489927878637153,-0.07540928282312775,0.06557656378748478,-4.4583465812258405,4.459466457322245
3.051479731410097,-0.017783573357517235,0.1904347774577584,-4.418297972630517,4.422435825978449
3.0539666749564782,0.049417760425620516,0.28655972111677963,-4.07176827684449,4.08213859259202
3.05645361850286,0.10225270320472835,0.3443745916000811,-3.4618531519131075,3.4804420294070573
3.0589405620492416,0.15987486956468833,0.40218661900206243,-2.674743886220879,2.709532968483426
3.061427505595623,0.21270745419197434,0.42647698366787523,-1.767901348685184,1.831011266308914
3.0639144491420045,0.2511736517964967,0.4268224958806699,-0.832305231916239,0.9685027854486205
3.0664013926883857,0.2656966571113834,0.417588369298751,0.050641577666549864,0.49753324427852186
3.0688883362347674,0.2610648748538405,0.374832591072491,0.8234782097988074,0.9416850334512157
