Time (s),Acceleration x (m/s^2),Acceleration y (m/s^2),Acceleration z (m/s^2),Absolute acceleration (m/s^2)
0.0,0.451212986534264,0.6187343862480252,-6.224935192487354,6.271861250905545
0.0024869435463814975,-0.26449238853995916,0.16780040526992768,-2.5256473066677394,2.5449965652790834
0.004973887092762995,-0.9849858802673126,-0.11075069014667982,-0.00909951179497881,0.991234432820433
0.007460830639144492,-1.6480182686941494,-0.20255363893673806,1.2528816381502956,2.0800732174157583
0.00994777418552599,-2.2200707537940283,-0.09803158336474771,1.2507188324602687,2.550023909899545
0.012434717731907487,-2.6532593255844183,0.15971989777096707,0.06581442363306067,2.6588770247799736
0.014921661278288985,-2.9188535873683774,0.5323936289808822,-2.1533915892177404,3.666093912761426
0.017408604824670482,-3.002488352413722,0.9864708380831484,-5.229728786914475,6.110492959283275
0.01989554837105198,-2.9233172572337636,1.4980095595227798,-8.904623893680881,9.491161315391011
0.022382491917433477,-2.6813403250633634,2.009549004487723,-12.905138423615387,13.333059321585678
0.024869435463814975,-2.314864805702162,2.4588399808296075,-16.96791069728163,17.30070768930939
0.027356379010196472,-1.8526211423109467,2.817152119625124,-20.820002228416065,21.091255153577176
0.02984332255657797,-1.3329165846923845,3.0701202618936563,-24.231570160440388,24.461629084845985
0.03233026610295947,-0.7988467859701966,3.1938024419945954,-27.00150205648952,27.20146399612626
0.034817209649340965,-0.2982958025886476,3.173833500907475,-28.976569512681838,29.15139413819873
0.03730415319572246,0.1400059222895358,3.0197902961917884,-30.09931219131126,30.250740974086387
0.03979109674210396,0.4969047521430484,2.774768508626496,-30.341000174351844,30.471667925946985
0.04227804028848546,0.7197282272097064,2.4483449957245402,-29.71599917340774,29.8253752501641
0.044764983834866955,0.7988995176119669,2.0836154382161007,-28.32007775626468,28.40785979010898
0.04725192738124845,0.7631490200371229,1.6997335002037333,-26.27294650703526,26.33892952570462
0.04973887092762995,0.6268419212143795,1.339794862364383,-23.713469622827635,23.759558552721025
0.05222581447401145,0.37561298795443276,1.032529995385774,-20.837972140297097,20.866918465070242
0.054712758020392945,0.047769423595291294,0.7970925632856165,-17.885874725674164,17.903691048909042
0.05719970156677444,-0.3279583751612756,0.657424633371429,-15.034348801706754,15.052289119458983
0.05968664511315594,-0.7180516082882835,0.6231030629581881,-12.43662377421182,12.472909301382895
0.06217358865953744,-1.1033566857142731,0.6893394993672205,-10.236352242025319,10.31869624245791
0.06466053220591894,-1.4407780007603008,0.8321919766047886,-8.562821593671057,8.722975316853738
0.06714747575230043,-1.7063735600222367,1.0325069319625486,-7.478281570826365,7.739669020278252
0.06963441929868193,-1.8953549833702588,1.2807076093367695,-6.992309478272187,7.35696774041688
0.07212136284506343,-1.9885686807061482,1.5480636393053517,-7.1192710237260215,7.552147134324759
0.07460830639144492,-1.986014675204972,1.8106330557282952,-7.820859477987366,8.269733328653972
0.07709524993782642,-1.902058199994259,2.0444738924263,-9.020460884887825,9.442796909219714
0.07958219348420792,-1.736699278231615,2.225644183179658,-10.59357725463972,10.963279411889113
0.08206913703058942,-1.5090915463464059,2.3541439783287372,-12.42049900034876,12.731384315290313
0.08455608057697092,-1.238388640757993,2.4012429082494506,-14.371939728042408,14.623687136849597
0.08704302412335241,-0.9485326011955477,2.3765178298365424,-16.31382463997936,16.513280276040234
0.08952996766973391,-0.6634654673772177,2.2895455999400065,-18.10250213131869,18.258772929608508
0.09201691121611541,-0.40712927900962587,2.1499030753639934,-19.64699303327313,19.768464096453457
0.0945038547624969,-0.1843124625061455,1.9623787095454437,-20.86110657989515,20.954013196074325
0.0969907983088784,-0.03332226750976966,1.7604913757951564,-21.682594021347903,21.753972597030476
0.0994777418552599,0.055418089552655064,1.563394737413929,-22.08272543053497,22.138067592046493
0.1019646854016414,0.07712018230688811,1.3806656510117827,-22.051924493128915,22.09523837873359
0.1044516289480229,0.031783987713045414,1.2123041665068963,-21.623710524162284,21.657690284210172
0.10693857249440439,-0.0662253072932722,1.0918291570073446,-20.817237628173277,20.845955463044884
0.10942551604078589,-0.20254251576141832,1.0336058822865923,-19.704332345679624,19.732462537138762
0.11191245958716739,-0.38195606400644355,1.0184807788214982,-18.40470524984775,18.436821007577027
0.11439940313354888,-0.5853123617257873,1.051242299634994,-16.975817670115138,17.018404346539786
0.11688634667993038,-0.7838810119597158,1.1175252844122174,-15.523014968547042,15.582917760032847
0.11937329022631188,-0.968085231012697,1.2269065893822622,-14.132488893341739,14.218640269519518
0.12186023377269338,-1.1283482351716532,1.3698094574343123,-12.890431192101353,13.012023824439877
0.12434717731907488,-1.2455164340648395,1.5031383081556553,-11.854303191899646,12.013960218281596
0.12683412086545637,-1.3195898505832218,1.6364699975962484,-11.067201009232539,11.265091637689977
0.12932106441183788,-1.3409917009581092,1.769804575103621,-10.577009163289048,10.80757094894115
0.13180800795821937,-1.300145201401282,1.8552580567593147,-10.39809334937853,10.642025432420613
0.13429495150460086,-1.230569197987312,1.897618895104419,-10.51608884224071,10.756550681328658
0.13678189505098237,-1.1274753102077542,1.9064639459353985,-10.887900496035469,11.110903768994179
0.13926883859736386,-0.9908635608534802,1.8865816616624353,-11.513528794137258,11.709071109860762
0.14175578214374535,-0.8446759892954183,1.8427604946287046,-12.29720615283595,12.4631666494837
0.14424272569012686,-0.6984894249215817,1.7606352838280983,-13.181472214295365,13.316866516400488
0.14672966923650835,-0.5618806970975087,1.6497828847870057,-14.128020233261928,14.235113248448899
0.14921661278288983,-0.43963823184546647,1.5389337662429825,-15.041082623929576,15.125996344428332
0.15170355632927135,-0.3461272618048964,1.437664783581214,-15.858410623015676,15.92720539201685
0.15419049987565284,-0.2813478096303775,1.3411875821538335,-16.541697483110244,16.598364267097022
0.15667744342203435,-0.2548767045926925,1.26386742052107,-17.057424859384877,17.10608271419146
0.15916438696841584,-0.25713716265647946,1.191339137247128,-17.372074406262314,17.414774693835977
0.16165133051479733,-0.30249441636255703,1.157121604024167,-17.47128139068784,17.512170245604203
0.16413827406117884,-0.3765832783040089,1.1564264659056769,-17.359834692119335,17.40238482720846
0.16662521760756033,-0.4554617544069546,1.1796769645476597,-17.07125360915802,17.118025088736218
0.16911216115394184,-0.5678602870941323,1.226873148168572,-16.610327019694882,16.665252675209025
0.17159910470032333,-0.6850484789172309,1.2884382582670686,-16.024939430705594,16.091241354277674
0.17408604824670482,-0.7926611423611134,1.3643723429022705,-15.329456525115662,15.410452976213808
0.17657299179308633,-0.8906982998433315,1.4259450301302725,-14.581339614915725,14.67794698368296
0.17905993533946782,-0.9504295538308344,1.497098384448452,-13.842838414589481,13.955959131566253
0.1815468788858493,-0.9862201366442096,1.563467243708588,-13.157049024502102,13.286271072547931
0.18403382243223082,-1.0220120872149923,1.6058980423580267,-12.54312552757068,12.68674171051252
0.1865207659786123,-1.029075007921158,1.6243908280402954,-12.034587215816826,12.1872445773953
0.1890077095249938,-1.0026205177116445,1.6237340516331837,-11.679318590357248,11.834198025554324
0.1914946530713753,-0.9522254454652581,1.6087161639274596,-11.453378101628537,11.604937351573128
0.1939815966177568,-0.8778898133886543,1.5793372123055953,-11.385496635705811,11.527988991853398
0.1964685401641383,-0.7891904502971119,1.5260204374204942,-11.466097851207296,11.594091593381767
0.1989554837105198,-0.6957041849734587,1.4679194997570286,-11.656874985925546,11.769516829855558
0.20144242725690129,-0.6165846528082237,1.4098228497482728,-11.94825169666178,12.046928891154462
0.2039293708032828,-0.5422550692366827,1.356518937735491,-12.306709622693134,12.39311445625496
0.2064163143496643,-0.47271545630090417,1.3080078106468795,-12.717884015646083,12.793706193701853
0.2089032578960458,-0.42233104596959437,1.2499243053559952,-13.133891302963828,13.199991478769155
0.2113902014424273,-0.3911018602157774,1.220575695165191,-13.535578331061005,13.596126155967385
0.21387714498880878,-0.3838163242975833,1.2055968167578062,-13.903791945392676,13.961239526494062
0.2163640885351903,-0.38610925015623954,1.2001993133612958,-14.209802183804491,14.265624306272194
0.21885103208157178,-0.41234586961873987,1.199594828105681,-14.420090679843918,14.475775353421694
0.22133797562795327,-0.4433725912333363,1.2277254239444921,-14.520292679352679,14.578847295493551
0.22382491917433478,-0.48876624343315256,1.2510723238882344,-14.515197040457712,14.57720890718217
0.22631186272071627,-0.5389500413326097,1.2744239774097113,-14.423957830241825,14.49017539955413
0.22879880626709775,-0.5891356033285504,1.3025688338806176,-14.22263348489101,14.294301996657598
0.23128574981347927,-0.6393229510997892,1.335506939250317,-13.94474327941207,14.023130098137747
0.23377269335986076,-0.6847237029660495,1.3636615327246224,-13.623806487779987,13.708994220646257
0.23625963690624227,-0.7109726705672109,1.3822442567258366,-13.250246753046232,13.341106413643407
0.23874658045262376,-0.7180698754644322,1.3912551568918514,-12.87194855705655,12.966814370273752
0.24123352399900524,-0.7155921458194032,1.3906942787549483,-12.503277557356183,12.60071634362138
0.24372046754538676,-0.708327906432971,1.385350071061216,-12.144234200462433,12.24350225867184
0.24620741109176825,-0.6914887754243951,1.3560689658477962,-11.828337755059064,11.925881678703218
0.24869435463814976,-0.6650747741918528,1.3076394116451269,-11.569953875464252,11.662593106446106
0.2511812981845312,-0.6195091174510734,1.2783686801166887,-11.378659811582878,11.466992506173517
0.25366824173091274,-0.5835222464380281,1.2443147996518864,-11.264032812218293,11.347565938449142
0.25615518527729425,-0.542748972463202,1.2006894118104952,-11.216496511782557,11.293627650563568
0.25864212882367577,-0.49240091343459735,1.1714345779624153,-11.240839753530103,11.312435458138088
0.2611290723700572,-0.4612085104588761,1.1373967294821332,-11.317909362986821,11.384263566833873
0.26361601591643874,-0.449171784676876,1.1081527175525525,-11.418975357902582,11.4814091453077
0.26610295946282025,-0.43234874058350364,1.0980677965625751,-11.563191788086673,11.62325611209729
0.2685899030092017,-0.4155278025507544,1.102353607504701,-11.740982282274441,11.799936939804113
0.27107684655558323,-0.42265100818666795,1.1018565812944927,-11.918828451439333,11.97711123164943
0.27356379010196474,-0.4489299751317937,1.1109419719728622,-12.096730728628467,12.155929602815531
0.2760507336483462,-0.47042270769940114,1.1248214201818059,-12.26511273907157,12.325563323976505
0.2785376771947277,-0.49670603339850433,1.1482833730854458,-12.390456090211945,12.453460310772634
0.28102462074110923,-0.5277799730506431,1.1765394710879546,-12.458396001581166,12.524952205864693
0.2835115642874907,-0.5636445474301033,1.1904361445124325,-12.464144498150409,12.533544249763608
0.2859985078338722,-0.5995113739431912,1.2043386468032025,-12.407702007002117,12.480421249230147
0.2884854513802537,-0.6305920699481505,1.20867021468126,-12.31301097060331,12.388251257087765
0.2909723949266352,-0.652098252754757,1.20343089138565,-12.170495006953892,12.247221185063847
0.2934593384730167,-0.6688183462645456,1.2029859299929762,-11.999308152742861,12.077991938751342
0.2959462820193982,-0.6807523710094714,1.192970163533793,-11.823392846738912,11.902908048457476
0.29843322556577967,-0.6783235408312073,1.1781720381949365,-11.63317270322014,11.712340471510226
0.3009201691121612,-0.6854738927635557,1.1633800000374828,-11.419071335208498,11.498631120299844
0.3034071126585427,-0.6782614305867493,1.1390172850350353,-11.205031177704305,11.283178747017867
0.3058940562049242,-0.6471093679911233,1.1194491456354354,-11.005417857795745,11.081116331331211
0.3083809997513057,-0.6303249518189087,1.0998872208771802,-10.829808597971615,10.903752368438782
0.3108679432976872,-0.6135429923372886,1.0946967629511513,-10.67341540947313,10.746934098124933
0.3133548868440687,-0.5823982997614543,1.0895126039967244,-10.555392318848922,10.627442425092106
0.31584183039045016,-0.5560445074964029,1.084334785983821,-10.499681754666309,10.570160092055565
0.3183287739368317,-0.5392700389334353,1.0839517540715264,-10.477553707660142,10.547269565008225
0.3208157174832132,-0.5272865107700921,1.0883635499667144,-10.484220183850402,10.553740528589492
0.32330266102959465,-0.5153055396504013,1.102358618563922,-10.52925839789427,10.59934039139906
0.32578960457597617,-0.508115548805126,1.111571791343054,-10.588726739875733,10.659029375604822
0.3282765481223577,-0.5057165580904583,1.1160031096108247,-10.63868359854052,10.70900559751665
0.33076349166873914,-0.5128969906282715,1.1204410178594038,-10.679129377890511,10.749988635678715
0.33325043521512066,-0.520080059524503,1.1344623637656865,-10.72921809385625,10.801555861478853
0.33573737876150217,-0.5416309944312862,1.1437019782686972,-10.77458493776643,10.84864502739248
0.3382243223078837,-0.5440309917419014,1.1433714988110582,-10.800865099583044,10.874831263227037
0.34071126585426514,-0.5416452809966614,1.1382593693382759,-10.827212591136568,10.900346164043533
0.34319820940064666,-0.5536274949997386,1.133154033657407,-10.820108986353404,10.893360360503063
0.3456851529470282,-0.5704008465766207,1.1280555321160415,-10.769977874373954,10.843905653583372
0.34817209649340963,-0.5776001451753151,1.1229639049219147,-10.719915279467653,10.79403786626803
0.35065904003979115,-0.5704370068269369,1.10351398218128,-10.655556384658972,10.727722188529764
0.35314598358617266,-0.577641870746912,1.088859417101339,-10.552959564923805,10.624699550573988
0.3556329271325541,-0.5704843362486975,1.0885770561067476,-10.436067227026493,10.50818497895824
0.35811987067893564,-0.5585412291496787,1.0691481155967517,-10.319244969669416,10.389507338742856
0.36060681422531715,-0.5513893752083238,1.0545146516710666,-10.202493180166057,10.271655099594051
0.3630937577716986,-0.5346635835222825,1.049465107004213,-10.090600647715725,10.159107420932473
0.3655807013180801,-0.5131522764108509,1.039634310844852,-9.964414143475134,10.031635658343996
0.36806764486446164,-0.4916438761333855,1.0345991088979385,-9.84308766371602,9.909514810154448
0.3705545884108431,-0.47492680488896644,1.0295711367615628,-9.740986799935898,9.806752573210968
0.3730415319572246,-0.458212678175435,1.0149736265669276,-9.658111932211089,9.722101440336104
0.37552847550360613,-0.44628991807031276,1.0003834235792646,-9.584886632510704,9.647279069417747
0.3780154190499876,-0.4343701399492199,1.0049541795565693,-9.530888084612238,9.593562320790502
0.3805023625963691,-0.42724176576679723,1.0143207228661542,-9.486539857532852,9.550173847831813
0.3829893061427506,-0.4201164107751289,1.018906285046516,-9.456630728765415,9.520637192779702
0.38547624968913213,-0.41778249680466834,1.0187109041270273,-9.450737877631722,9.514660296223223
0.3879631932355136,-0.4202400423029783,1.0089462146663695,-9.454496465354572,9.517461718895774
0.3904501367818951,-0.41791225901410034,0.9991890610331762,-9.453541651653287,9.515381190234377
0.3929370803282766,-0.4251643752204207,0.9894394808038562,-9.467027417979933,9.528082879830222
0.3954240238746581,-0.43241960253923317,0.9892743180432386,-9.490165727669645,9.551381885760595
0.3979109674210396,-0.4301011525239882,0.9795399967414751,-9.494226525934748,9.554309128994191
0.4003979109674211,-0.44215105990616427,0.9698133606571908,-9.483998579702682,9.543702875408886
0.40288485451380257,-0.44941572946996533,0.9648828500747124,-9.478635864328993,9.538213211121208
0.4053717980601841,-0.45189517921607325,0.9599600984831658,-9.454196723747854,9.513546569760575
0.4078587416065656,-0.4543778304004039,0.9406799325758981,-9.415469920271073,9.473247160706816
0.41034568515294706,-0.43771008761193564,0.92619600213271,-9.357667408019962,9.413573629301622
0.4128326286993286,-0.43062238857708823,0.9308735534567909,-9.299943156161962,9.356329618066736
0.4153195722457101,-0.42832634771411854,0.9259822028116489,-9.223143905741042,9.279401381882247
0.4178065157920916,-0.4116683694140751,0.9019451795846207,-9.15121202611753,9.20476276176144
0.42029345933847306,-0.40459048788424934,0.8874929395675584,-9.069782658517392,9.122077321170408
0.4227804028848546,-0.4023043173432012,0.8922023251125328,-8.964490942589348,9.017758680096494
0.4252673464312361,-0.40002147194234366,0.8921313551703496,-8.868856049602694,8.922585004440547
0.42775428997761755,-0.388165162445345,0.8872800651337651,-8.778089922676386,8.831353282363509
0.43024123352399907,-0.3858890194700284,0.8824368935556963,-8.70176971329727,8.754907272479443
0.4327281770703806,-0.3931930602849647,0.8776018755080677,-8.62553055475242,8.6789724729094
0.43521512061676204,-0.3813468821685749,0.8823518525422218,-8.558949595327107,8.612757305972021
0.43770206416314356,-0.36950411553384066,0.8823216494462174,-8.511603981698174,8.565186928826373
0.44018900770952507,-0.3624531807639752,0.8775113008068101,-8.445186825725909,8.498386841789683
0.44267595125590653,-0.3649824981730815,0.872709244368322,-8.388428884136532,8.44159776306563
0.44516289480228804,-0.3675152780449491,0.8727039177118234,-8.350907298751693,8.40442337819379
0.44764983834866956,-0.37005153723434436,0.8631301449733857,-8.31346878984296,8.366342994825413
0.450136781895051,-0.3773796958464307,0.853564766726397,-8.319209319212934,8.371393667885483
0.45262372544143253,-0.38471136727557,0.8392194134185766,-8.310668377299887,8.361788142342641
0.45511066898781405,-0.3824697615253722,0.8296709252933638,-8.292634696063633,8.342806911652504
0.4575976125341955,-0.38980850845061926,0.8201309324675681,-8.274685409137108,8.324360878760434
0.460084556080577,-0.4019392212335755,0.8105994682121418,-8.247244035220216,8.296725909170863
0.46257149962695854,-0.4092851096649805,0.8058649689517139,-8.219887704637767,8.269430846559645
0.46505844317334005,-0.4166345934250447,0.7963506609828772,-8.192616739413074,8.241767273989094
0.4675453867197215,-0.41441088216132627,0.7964217870362287,-8.151066249943188,8.200360056307442
0.470032330266103,-0.4026139920900446,0.7869247664321686,-8.10960176487729,8.157633811317584
0.47251927381248454,-0.4051859559567693,0.7774364382445149,-8.06822360122953,8.115714087734494
0.475006217358866,-0.40776157987211764,0.7727452380578743,-8.007778461054395,8.055303879450335
0.4774931609052475,-0.4103408798349485,0.7728511979672041,-7.942631867965856,7.99068705443342
0.47998010445162903,-0.4081354684508742,0.7681775432570674,-7.872784133930082,7.920694497203722
0.4824670479980105,-0.40114536157264824,0.768301112323079,-7.807812375862799,7.85577101861965
0.484953991544392,-0.3941589782999313,0.7588567267886714,-7.75729370898458,7.8042828318442306
0.4874409350907735,-0.4015415442993694,0.7494212247078054,-7.692498020254275,7.739340642164344
0.489927878637155,-0.4041394619215549,0.7495714439629928,-7.6325792281306395,7.679938263292116
0.4924148221835365,-0.4019527467242347,0.7593074156242681,-7.572749232763687,7.621328276904504
0.494901765729918,-0.3949814141908352,0.7498987506675365,-7.513008335912655,7.5606648324933685
0.4973887092762995,-0.39759068969117467,0.7404990930991766,-7.448568434301526,7.495838110837433
0.499875652822681,-0.39062697527812273,0.7454736834322093,-7.403371842857444,7.451055971479435
0.5023625963690624,-0.3932438994920626,0.755245745404665,-7.358265244902254,7.407368244847559
0.504849539915444,-0.4054414775169324,0.750661695940142,-7.31803733863317,7.367601119976033
0.5073364834618255,-0.4176429178206279,0.7412983717099235,-7.297053627158183,7.3464917151200755
0.5098234270082069,-0.4059062188344894,0.746309415851363,-7.276160788609651,7.325588947270898
0.5123103705545885,-0.39896181543745624,0.7417528414440793,-7.245782306023569,7.294568461139545
0.51479731410097,-0.3968097225105553,0.7467822912752187,-7.2202836772970045,7.269638101520785
0.5172842576473515,-0.39466155153825583,0.7470325847141048,-7.166146365379973,7.215779178504274
0.519771201193733,-0.38772891392858166,0.7329269442743855,-7.11688947795953,7.165028364063236
0.5222581447401144,-0.39037703429415826,0.7331958188558714,-7.0629364910892445,7.111613193562491
0.524745088286496,-0.39781752388951785,0.7286856239785746,-7.018652895670263,7.067583037418605
0.5272320318328775,-0.3956851872515291,0.7193963882667478,-6.988827374205883,7.036888943084935
0.5297189753792589,-0.37919163548045476,0.7149049468079298,-6.954306590837419,7.001232429990705
0.5322059189256405,-0.3722788995210072,0.7152113278713712,-6.905514014583257,6.95242710340424
0.534692862472022,-0.3701585903184138,0.7107387529077138,-6.842449919335744,6.889215329447111
0.5371798060184034,-0.3584655120994821,0.7014872498299256,-6.7986334004597015,6.844121419063585
0.539666749564785,-0.3515648889349121,0.6922452496926812,-6.750122711703515,6.794627140609668
0.5421536931111665,-0.35424513817661696,0.6830127800514301,-6.68255291168056,6.726701234115105
0.5446406366575479,-0.3521410638169197,0.6785782716027251,-6.619866283788161,6.663865350887031
0.5471275802039295,-0.33567587308993896,0.6933069615042342,-6.586005109642262,6.630898592112452
0.549614523750311,-0.314426386432351,0.6888916502103997,-6.552239232551177,6.59585283483473
0.5521014672966924,-0.30754623084259103,0.6844859778393311,-6.508992107317571,6.552105309828787
0.554588410843074,-0.3102470166384986,0.6848783743678428,-6.4849944135169935,6.528435045426771
0.5570753543894554,-0.30337514409777655,0.6900688662718013,-6.456304392409294,6.500161376896541
0.5595622979358369,-0.306084239981258,0.6904806732055535,-6.413345493420424,6.457666106265588
0.5620492414822185,-0.2992207044077496,0.6956906279235271,-6.360906374139871,6.405829250011285
0.5645361850285999,-0.29236135733824126,0.6865451430768548,-6.313352496997869,6.357298101245238
0.5670231285749814,-0.2855062120132503,0.6726210510568669,-6.280260919302023,6.322626834626197
0.569510072121363,-0.2834436849136017,0.6778603940339041,-6.252055083273964,6.295079650060753
0.5719970156677444,-0.27659698247902686,0.6735327774727011,-6.223946832648577,6.266391822147962
0.5744839592141259,-0.27933132767050806,0.6548498232571471,-6.186359606031084,6.227190334072916
0.5769709027605074,-0.27249312012638466,0.6457535730103607,-6.144082050176037,6.183930337323281
0.5794578463068889,-0.2656591793262655,0.6414556482507154,-6.106691213344494,6.146032681606233
0.5819447898532704,-0.2731947279893201,0.6371676703134892,-6.055033722059694,6.094591977710563
0.5844317333996519,-0.2663693588710182,0.6233128570303355,-6.003475024269013,6.041620967927937
0.5869186769460334,-0.2643366978489198,0.6094680393306289,-5.966380566099733,6.003250972625396
0.5894056204924149,-0.25751995079754275,0.6052100479600055,-5.929385371935181,5.965752812188033
0.5918925640387964,-0.2507075334710378,0.6057505035192223,-5.897278077615903,5.933605705183152
0.5943795075851779,-0.24868786154211836,0.5967242197842715,-5.855693703875261,5.891271017408714
0.5968664511315593,-0.24188414064099434,0.5877080269483714,-5.799844076259442,5.8345608207777655
0.5993533946779409,-0.24944999623805147,0.5882787550202206,-5.734517825125682,5.770007961945588
0.6018403382243224,-0.25223182715935527,0.5840712172222466,-5.698022402242039,5.733429983689672
0.6043272817707039,-0.24544124210996288,0.5702970332326187,-5.661627611059165,5.695569094985146
0.6068142253170854,-0.24344346299411185,0.5661098391460075,-5.606180059833642,5.639946802313726
0.6093011688634669,-0.24145009835260361,0.5667212542702931,-5.574775598149781,5.608706990007806
0.6117881124098484,-0.2394611599642481,0.562554494407649,-5.538684023949346,5.572327155099688
0.6142750559562299,-0.24226506284574784,0.5583979851356331,-5.4835403432956475,5.517219894750447
0.6167619995026113,-0.2450734152906492,0.5494633452054705,-5.4380751902939615,5.471255132224901
0.6192489430489929,-0.23830942218954615,0.5501158064637797,-5.407077180605743,5.4402116152088205
0.6217358865953744,-0.24591511159246732,0.5459901806493004,-5.376181314767566,5.409427423372173
0.6242228301417558,-0.2583136882243988,0.5418748925958801,-5.331022591471072,5.364713993450613
0.6267097736881374,-0.24198634012580983,0.5425583669510889,-5.290754830803872,5.324003535876983
0.6291967172345189,-0.24002870837910395,0.5336754148948388,-5.274531851006133,5.306892638502074
0.6316836607809003,-0.24765240078040218,0.5248028640220717,-5.244046628625679,5.276056747315973
0.6341706043272819,-0.24570381508163425,0.5159407351004499,-5.1897225582824635,5.221090445378967
0.6366575478736634,-0.23897136555294135,0.5118774520311773,-5.140290259308145,5.171238709380023
0.6391444914200448,-0.24182027302164583,0.5126130352082658,-5.100538332580966,5.131933402767179
0.6416314349664264,-0.24946214495028796,0.5181475048387376,-5.051313360524771,5.083942846329989
0.6441183785128078,-0.24753178207716386,0.5045388643409654,-4.997403940311209,5.028904213783234
0.6466053220591893,-0.23124079169749012,0.49572915014926044,-4.953175473897895,4.983288770408175
0.6490922656055709,-0.22453120094456702,0.501295188549717,-4.923416554746332,4.953962222081528
0.6515792091519523,-0.2321914235865749,0.5068717890395025,-4.908127371141399,4.939690897116806
0.6540661526983338,-0.23985626002649701,0.49809376092833846,-4.878577689589093,4.909801288596728
0.6565530962447154,-0.24752572054422695,0.503691543221231,-4.839556097979857,4.871989057719397
0.6590400397910968,-0.23604620205431137,0.5045115415324677,-4.8054279889863665,4.837601457579705
0.6615269833374783,-0.2293597312699353,0.4861885646089834,-4.766616736820724,4.796834406400143
0.6640139268838599,-0.2514083348200386,0.4870298575334173,-4.708757310515157,4.740548453742028
0.6665008704302413,-0.25430798944456967,0.4783050187162452,-4.660580307124626,4.691956632747404
0.6689878139766228,-0.24763551164284986,0.45043725966135106,-4.626874305241984,4.655339182919579
0.6714747575230043,-0.26012133111100816,0.4417338248878475,-4.5741206550366265,4.60275696140712
0.6739617010693858,-0.2630350376169273,0.42825271556284905,-4.521473141340028,4.54931942022764
0.6764486446157674,-0.25158823744549386,0.4052055459467425,-4.488085547121994,4.5133579576599345
0.6789355881621488,-0.24972295671885136,0.4013227533540835,-4.44043921696694,4.46552594293775
0.6814225317085303,-0.2622276081932225,0.4070275483488861,-4.402476333440838,4.429021631254506
0.6839094752549119,-0.26516018461823465,0.4031663346664702,-4.378985463966039,4.405492788615257
0.6863964188012933,-0.2633090985806151,0.3897391291353123,-4.355601560821107,4.3809237869200315
0.6888833623476748,-0.25188595594164603,0.40026477163795704,-4.317959574421991,4.343780992241387
0.6913703058940563,-0.24525597575899066,0.40601285870477355,-4.28042487324382,4.306626757749444
0.6938572494404378,-0.23863076372415354,0.40698340659987275,-4.242997613938087,4.269146154271075
0.6963441929868193,-0.2415871354046208,0.4223300446804781,-4.210466354613921,4.238484863010444
0.6988311365332008,-0.2349714863610144,0.4233223689125625,-4.173254441556928,4.201245774933796
0.7013180800795823,-0.22357222867048993,0.42911400827708857,-4.126573622510559,4.154844550104401
0.7038050236259638,-0.21217777432513596,0.4301281716450336,-4.094366063277834,4.122361351468536
0.7062919671723453,-0.21036493855225658,0.4311532776602056,-4.057478297916873,4.085740654309282
0.7087789107187268,-0.2037685198924678,0.4321893414580158,-4.0206988752255075,4.04899106961336
0.7112658542651082,-0.2067537367231,0.4332363779858155,-3.984027938819718,4.012844313470849
0.7137527978114898,-0.20974379073473998,0.4295059986826115,-3.947465630454296,3.9762988776340817
0.7162397413578713,-0.21273869017338942,0.4257866214400341,-3.8918584767419837,3.9208563350730463
0.7187266849042527,-0.2109500398795081,0.41728985732112367,-3.850725438958584,3.8790098157379065
0.7212136284506343,-0.2091662512489283,0.4135925271619336,-3.8384318632387497,3.8663119982629732
0.7237005719970158,-0.2073873322719011,0.4003294350090809,-3.8118822540140105,3.8384527456500592
0.7261875155433972,-0.20561329085339225,0.3918658046432242,-3.7806535503805154,3.806465145279678
0.7286744590897788,-0.20384413481306857,0.3977784563369391,-3.7543226895762167,3.7808357527258813
0.7311614026361603,-0.20686827520559642,0.3941253869328998,-3.7185245903799355,3.745070684669625
0.7336483461825417,-0.20989731635969772,0.38090660968769363,-3.682836186315196,3.708426769393112
0.7361352897289233,-0.20335445919845446,0.3724873476312598,-3.6472576024087733,3.671864360042438
0.7386222332753047,-0.21118172780179573,0.3640792103247783,-3.611788961832085,3.6362303142623067
0.7411091768216862,-0.204648709640882,0.3652590171029284,-3.5812187892223406,3.605609970616872
0.7435961203680678,-0.19812062198434305,0.3568731671911598,-3.541181994081832,3.5646290344895486
0.7460830639144492,-0.20596268201546658,0.35328688286984233,-3.4821018873803986,3.5060327725349385
0.7485700074608307,-0.19944447694939776,0.36886538623216003,-3.427920601478249,3.453473530025215
0.7510569510072123,-0.1881428204784461,0.3796666726217146,-3.373849846962905,3.4003539952553243
0.7535438945535937,-0.17684612288928442,0.3809023504763651,-3.334254945853349,3.360597743813875
0.7560308380999752,-0.1751311977035807,0.3773608346877029,-3.3043476050386023,3.3304331896751265
0.7585177816463567,-0.16863284175613658,0.3738305399605384,-3.2697627229194612,3.295380793189101
0.7610047251927382,-0.1621394650777101,0.38467668745363204,-3.2496540192924623,3.2763572157366543
0.7634916687391198,-0.16043947761378008,0.3859572715766868,-3.224867985546407,3.251842149561083
0.7659786122855012,-0.15395607926362948,0.36809549651390494,-3.195404724507352,3.220218645107806
0.7684655558318827,-0.1522660831225458,0.3646101961459749,-3.166052740478955,3.190613657385894
0.7709524993782643,-0.14100428559903683,0.3515593643236481,-3.1224469226422276,3.145337975467638
0.7734394429246457,-0.1441127095789066,0.33851981795380315,-3.0837409815803323,3.105611466633855
0.7759263864710272,-0.14243774797997721,0.3350683737573852,-3.0738770293580995,3.0953641657739404
0.7784133300174088,-0.14076781023648344,0.33162823498830507,-3.0689131430000565,3.0899871750411387
0.7809002735637902,-0.13431449905691872,0.3186226047148333,-3.0544842043356493,3.0739932503875416
0.7833872171101717,-0.12307782038500015,0.30562829910098976,-3.025801900000772,3.043687557081109
0.7858741606565532,-0.11184618339970348,0.3022221341254485,-2.9924431247596193,3.00974478021269
0.7883611042029347,-0.11019640051529578,0.28925050565982247,-2.9400427549438195,2.956291680908471
0.7908480477493162,-0.11334007410012359,0.2858670359531894,-2.8925428916181133,2.9088434668252883
0.7933349912956977,-0.11170040311727608,0.27770652382757444,-2.859520424058612,2.875144335340628
0.7958219348420792,-0.10048898976525333,0.26476897788124276,-2.8313986264342166,2.8455261078552567
0.7983088783884607,-0.09407104943893985,0.2614196164888649,-2.7890239644489903,2.802827902761511
0.8007958219348422,-0.09723499080777848,0.2724468512001321,-2.765915338508046,2.781001544400926
0.8032827654812237,-0.09082720585488097,0.2643318668180643,-2.747707613992798,2.761886682891411
0.8057697090276051,-0.07484769975988587,0.2466514778444977,-2.705670444505074,2.7179204704977122
0.8082566525739867,-0.08281530085994304,0.23855930523808855,-2.663745918353351,2.6756889269338355
0.8107435961203682,-0.08599959424352271,0.24484375981294004,-2.612357298789128,2.625215239454894
0.8132305396667496,-0.08440058483640395,0.2511396389184868,-2.5610814605323355,2.5747490798987145
0.8157174832131312,-0.07801827747985346,0.24787014304125377,-2.5194952764921243,2.5328606175031307
0.8182044267595127,-0.06206427361037725,0.24461208576599613,-2.4923872144486268,2.5051309493334992
0.8206913703058941,-0.06526899782226875,0.24615387717434345,-2.4653921270941144,2.478509655753297
0.8231783138522757,-0.06847884142236932,0.24291871720438385,-2.4480868819179573,2.4610624202383735
0.8256652573986571,-0.06211700227387795,0.23490661225244125,-2.42131792468537,2.4334790179605164
0.8281522009450386,-0.06533709807766158,0.23648277849360078,-2.389873715963084,2.402434061355371
0.8306391444914202,-0.0637739232082678,0.2380704153194375,-2.3681195211606543,2.380910477618575
0.8331260880378016,-0.06700428855773677,0.23966952858041957,-2.351266990610874,2.3644000335711817
0.8356130315841832,-0.0702397949731779,0.2364917206252044,-2.324950966212741,2.3380031988891083
0.8380999751305647,-0.07826884985839905,0.22374859362118515,-2.2795946913947667,2.2918859925923054
0.8405869186769461,-0.08151465057242424,0.21580536283597107,-2.2487170376798638,2.26051872552262
0.8430738622233277,-0.08476560435144254,0.20787363007513227,-2.2035876316409304,2.2149932514756254
0.8455608057697092,-0.09759852166825644,0.2095302069246272,-2.1489949213095763,2.1613901894058967
0.8480477493160906,-0.09607138966987466,0.20162148486824671,-2.1136693695379964,2.1254362231778985
0.8505346928624722,-0.11370303526351544,0.19372427513159973,-2.092822614157786,2.104842979733555
0.8530216364088536,-0.12176304210888822,0.19541538876050257,-2.072089484584083,2.0848424987782557
0.8555085799552351,-0.11546301038390416,0.19232962001967202,-2.046681615099434,2.058938567099527
0.8579955235016167,-0.11395655678475503,0.17967856963517326,-2.0022338315752,2.01350709001103
0.8604824670479981,-0.1076668780025743,0.16703904811499815,-1.9578997813570673,1.9679597948261132
0.8629694105943796,-0.11574759056726719,0.17835307574932235,-1.9232563033849353,1.9349734191614254
0.8654563541407612,-0.12383348768355162,0.18967863944673713,-1.8743614115941423,1.8879998464532308
0.8679432976871426,-0.12234776579354706,0.19143893589857086,-1.8447339580041682,1.858671896216859
0.8704302412335241,-0.12565563785811812,0.1932107748994838,-1.829585566315222,1.8440453051190964
0.8729171847799057,-0.1241803001538539,0.1949941594258795,-1.8145510518329946,1.829218135943533
0.8754041283262871,-0.12749856215597233,0.19200068895649958,-1.7948420347527865,1.809579530616749
0.8778910718726686,-0.12603361997592843,0.19859557607427014,-1.7848237468030579,1.8002556716623932
0.8803780154190501,-0.12457387960369964,0.20041361326348017,-1.7749194013656133,1.7905371119317544
0.8828649589654316,-0.12311934362664301,0.19745480279288152,-1.7555522100801486,1.7709066418753772
0.8853519025118131,-0.13124682119053627,0.19450755007536857,-1.726722189487921,1.7425924465516607
0.8878388460581946,-0.12980270143718986,0.20114866366827622,-1.6980061610348098,1.714798661390922
0.8903257896045761,-0.12357539002799217,0.1886477253908838,-1.6694041377931566,1.6845679020439148
0.8928127331509575,-0.1269300991830799,0.16179314012939727,-1.6361277277852029,1.649000367464825
0.8952996766973391,-0.1302900244392684,0.15889213583727058,-1.612542150587819,1.6255812464228612
0.8977866202437206,-0.11928995793141822,0.1655795037698935,-1.5890706074528875,1.602121113275352
0.900273563790102,-0.1130835149550436,0.1627016316880403,-1.5513478945917853,1.563950124640458
0.9027605073364836,-0.12124750408362411,0.15025852045974952,-1.5089508231005198,1.5212531566945053
0.9052474508828651,-0.12462831388747403,0.14740378406064947,-1.481033009002088,1.4935591270289945
0.9077343944292465,-0.12801434945729984,0.13977221305085274,-1.4436524367263566,1.4560413123514235
0.9102213379756281,-0.12182880584182504,0.12736380777841294,-1.4111743155587373,1.4221380897639062
0.9127082815220096,-0.12522529793072296,0.1293321816999664,-1.388387046440437,1.4000095639633008
0.915195225068391,-0.11905021397037369,0.12652372153732871,-1.3657138186515887,1.3767190853670737
0.9176821686147726,-0.10809195872805227,0.13330363708251625,-1.3479430297365536,1.3588245444561462
0.920169112161154,-0.09713893689049485,0.14009512135434576,-1.3446514788667905,1.355415145151533
0.9226560557075356,-0.08619114974371578,0.12774456055972028,-1.3079551236803066,1.3170019713760135
0.9251429992539171,-0.08482540513402559,0.12977077725793107,-1.247430759971877,1.2570279650470366
0.9276299428002985,0.5533927440549726,-1.0605038661228428,7.954041546658781,8.043487359672309
0.9301168863466801,0.13815692470757668,-1.3984311528330515,10.533038079951712,10.626362887591007
0.9326038298930616,-0.28187253699361253,-1.5974831787926518,12.163816790358583,12.271505349509736
0.935090773439443,-0.6588116087313861,-1.6480831387239845,12.769763242307889,12.89251969292827
0.9375777169858246,-0.9687182747106677,-1.5693846474404358,12.37003106830271,12.506760247888117
0.940064660532206,-1.2115925356584076,-1.3709645132835235,11.036446339033667,11.187075040577655
0.9425516040785875,-1.3539155689800868,-1.07197635140381,8.912661176656748,9.078422215108754
0.9450385476249691,-1.390898971923909,-0.7059389870807351,6.185423334866856,6.379060403781655
0.9475254911713505,-1.341696358260633,-0.31115964908188465,3.0893646022164027,3.382475881719531
0.950012434717732,-1.2110961317212081,0.08363124029872315,-0.14567163441504505,1.2226889423304388
0.9524993782641136,-0.9847330826765779,0.45449166192045043,-3.2850535831820746,3.459456454307572
0.954986321810495,-0.6961260346223923,0.7726911931556835,-6.113303063877699,6.201138402493199
0.9574732653568765,-0.3787938109757561,1.02386462117183,-8.43409550794045,8.504454747412215
0.9599602089032581,-0.047101621794285786,1.1936467329705236,-10.108567185018654,10.17890670062079
0.9624471524496395,0.2750085163018124,1.267672315388047,-11.069680412935515,11.145422702965016
0.964934095996021,0.5635945867702782,1.2411529617364203,-11.25518591120935,11.337429577666594
0.9674210395424025,0.7803493631857568,1.1380306850850035,-10.693814060823003,10.782472728288035
0.969907983088784,0.9396380557239208,0.9726706916983883,-9.466967677665123,9.563079261420446
0.9723949266351655,1.0318838580363128,0.7450729777165721,-7.6991452058943,7.803637289113618
0.974881870181547,1.0427215605314912,0.4839679590380408,-5.524421894699987,5.642759121991056
0.9773688137279285,0.9769395669763906,0.21329764807816431,-3.1008150082689,3.2580608526707038
0.97985575727431,0.8345378778945877,-0.04778434623056205,-0.6054954224674258,1.0321635141848846
0.9823427008206915,0.6490353171286359,-0.2897012217583028,1.7364819552313424,1.876311067390636
0.984829644367073,0.4347970953165321,-0.4932993698961847,3.8101954953133674,3.8665207221663693
0.9873165879134544,0.18703480989142585,-0.6346367788763279,5.4767815532520085,5.516600587613275
0.989803531459836,-0.06552111839510355,-0.7041366470525627,6.616530099385717,6.654214603599386
0.9922904750062175,-0.2893518653949261,-0.7257409961812449,7.200710768717988,7.242973151287865
0.994777418552599,-0.49403423676686575,-0.685084621616201,7.2341120210701675,7.283253908746058
0.9972643620989805,-0.6556262148517694,-0.5965327387926362,6.71673391451419,6.7749694848344095
0.999751305645362,-0.7501857819149138,-0.4552969500235493,5.691672138571088,5.758924010010413
1.0022382491917434,-0.7825013400680061,-0.28053087438220503,4.278636837449595,4.3586395934362985
1.0047251927381249,-0.7621496946678649,-0.1057533410609417,2.6117033668766805,2.7226917568433744
1.0072121362845066,-0.6891308443555968,0.07861245047298704,0.7962166642103696,1.055955592995233
1.009699079830888,-0.55865638437717,0.23904767071211985,-1.0241711050791018,1.1908682534844948
1.0121860233772695,-0.39945673314602526,0.3803407165546946,-2.7105961772981795,2.7661446778338505
1.014672966923651,-0.2211086957198578,0.47376116150034253,-4.152925207135252,4.185705014633552
1.0171599104700324,-0.028400673761737605,0.5384626120958549,-5.245813251063807,5.2734528771888955
1.0196468540164139,0.1643021244987365,0.5648682548106461,-5.941376203870357,5.970429007142163
1.0221337975627955,0.3330576842654215,0.5434012759590838,-6.215671975417277,6.248262996525508
1.024620741109177,0.46350079745631106,0.4788500716619013,-6.044758474045043,6.081384331705455
1.0271076846555585,0.5604198693444024,0.3807914412059925,-5.471731253062008,5.513521148720413
1.02959462820194,0.6238149019556674,0.2635905870449249,-4.554051074225314,4.604129257105342
1.0320815717483214,0.6345322841080147,0.14161271147906263,-3.3779091177065528,3.4399063049904206
1.034568515294703,0.5973604212938916,0.010069403374803443,-2.0247081588542946,2.111014920445587
1.0370554588410845,0.5170877190785294,-0.10230892531152724,-0.5997929881207131,0.7984976230515716
1.039542402387466,0.41286779306067706,-0.20509908933787768,0.7723379922539859,0.8994617419729084
1.0420293459338474,0.27512383898960036,-0.2887242903322518,2.015070414721137,2.054157642171762
1.044516289480229,0.1182210692883266,-0.34839613339378595,3.0661551231765625,3.088148851070702
1.0470032330266104,-0.033898496907576736,-0.36974941713135,3.829824139753004,3.847780747521408
1.049490176572992,-0.18123485699218111,-0.3671493602255391,4.291712344501908,4.311199319685077
1.0519771201193735,-0.3046343950068656,-0.3453843748657075,4.427877812303674,4.451763066664009
1.054464063665755,-0.41367391484343374,-0.2900892601088523,4.252685846065171,4.282594399657226
1.0569510072121364,-0.47962299376003703,-0.21562923508224685,3.799655363433823,3.8358721386455144
1.0594379507585179,-0.5120584355063593,-0.1507347290220049,3.083151670230162,3.1290172613057914
1.0619248943048993,-0.515768640441011,-0.07146373478822854,2.1845777202084786,2.245774737475583
1.064411837851281,-0.4763883955708095,0.01739533469018273,1.1901248718877948,1.2820474686178565
1.0668987813976625,-0.4082829077541118,0.08232364641602974,0.1572540653047625,0.44519766012217377
1.069385724944044,-0.3258173837791055,0.13768640044932878,-0.8326317414684237,0.9046491747313395
1.0718726684904254,-0.219415013762586,0.17869518342338342,-1.6981295889293575,1.7215455316780155
1.0743596120368069,-0.10344100435311954,0.21492679178755036,-2.400932146034953,2.4127512795714514
1.0768465555831883,0.007739437870172394,0.23201600524519028,-2.8835784670412314,2.8929078971118907
1.07933349912957,0.11412631635838683,0.20602079671513884,-3.102972814751091,3.1118980821757294
1.0818204426759515,0.20135442467074338,0.17524838213688687,-3.097422307003705,3.108903431710325
1.084307386222333,0.2742121697165487,0.1444871540648509,-2.881292043632791,2.8979152320956594
1.0867943297687144,0.3231227485127943,0.0945834883095169,-2.4354282998311385,2.458590114371578
1.0892812733150958,0.33372095482456393,0.04469098710200692,-1.8172918025229574,1.8482198071480325
1.0917682168614773,0.3203720024069975,-0.005190360749143252,-1.0795548739238257,1.1261011879860807
1.094255160407859,0.29265270176287067,-0.06463737321686125,-0.27488983486588126,0.4066792534394581
1.0967421039542404,0.2314094435408422,-0.10013123853154005,0.5344541885556389,0.5909465924721191
1.099229047500622,0.15100744169925984,-0.1260371782664924,1.2910164749387842,1.3059142989941184
1.1017159910470034,0.07060031358407487,-0.15193201081396612,1.9564899175302166,1.9636498001388991
1.1042029345933848,-0.005023533352634835,-0.1682389414236849,2.4734137976575035,2.479134000360049
1.1066898781397663,-0.08544090155287332,-0.16059277216326784,2.813057817926902,2.8189332154431956
1.109176821686148,-0.15149817347021932,-0.14814712848017564,2.980210505538537,2.9877339114392356
1.1116637652325294,-0.19361853813240215,-0.13090202267777817,2.9509299691166344,2.9601707992074315
1.1141507087789109,-0.24053241106356527,-0.10406906387571757,2.749158351829534,2.76162232288597
1.1166376523252923,-0.26350936787815815,-0.07243666797034098,2.4179914114622676,2.433385855907665
1.1191245958716738,-0.26254940404681526,-0.045581654313831876,1.9478524706065379,1.9659957080378678
1.1216115394180555,-0.242440918295023,-0.013927229112121076,1.4057793063037227,1.426599812353223
1.124098482964437,-0.2079723092830401,0.008161384692848106,0.8396560836332068,0.8650672970416117
1.1265854265108184,-0.14956676564519733,0.015895770665851128,0.27342495238666764,0.31206425219540634
1.1290723700571998,-0.07201268591200449,0.03321793216016378,-0.24502991973426802,0.25754401471251487
1.1315593136035813,0.005536321489616025,0.04576264583374279,-0.6726127670453934,0.6741904812453241
1.1340462571499628,0.07829185815796957,0.04874149485289481,-1.004535049127571,1.0087596409948478
1.1365332006963444,0.13667712243507946,0.03257765893189646,-1.2168546109884097,1.224939624611095
1.139020144242726,0.19984573264868044,0.02600154421633194,-1.28084089302891,1.2965985463568195
1.1415070877891074,0.2582208872681853,0.014647926838359027,-1.206070560931594,1.2334904889491773
1.1439940313354888,0.28786057486541095,-0.015848417199931575,-0.9829666658224099,1.024372173093165
1.1464809748818703,0.30313001063776074,-0.04154548546347714,-0.6546246940809404,0.7225976202647014
1.1489679184282517,0.30402919988455124,-0.07202009888835503,-0.2449865175413084,0.39703783548088545
1.1514548619746334,0.29534655128801546,-0.09290706193749321,0.21721758990068096,0.3782126239006862
1.1539418055210149,0.2531400536708871,-0.11857159912353099,0.684103742320957,0.7390108532009183
1.1564287490673963,0.2109285357617418,-0.1346485151645216,1.1365184749649249,1.1637419446643664
1.1589156926137778,0.16871200310888373,-0.12677261490524483,1.5409431143584502,1.5553265629994382
1.1614026361601593,0.11212525136127438,-0.13803954316037448,1.8734357949045233,1.8818577696250842
1.1638895797065407,0.05553349615115011,-0.14929570170613005,2.1052662489161005,2.1112837693138182
1.1663765232529224,0.003725146531255996,-0.15096429908437603,2.250799839813796,2.255859928102923
1.1688634667993039,-0.02893458174415231,-0.13346854396144403,2.290883108995123,2.2949502132567186
1.1713504103456853,-0.0615992961023617,-0.11596206504942908,2.2159394057116586,2.219826372398655
1.1738373538920668,-0.0846921839883964,-0.10802168454311856,2.0499109036648395,2.0545014391146714
1.1763242974384482,-0.08863643278714117,-0.09528220815849231,1.8167397777580963,1.8213946679666448
1.1788112409848297,-0.07822043978452864,-0.07774365169464215,1.5260029941301774,1.5299828922812075
1.1812981845312114,-0.05823260220684634,-0.06977124103319365,1.201642730071148,1.2050744013412347
1.1837851280775928,-0.03346131722100376,-0.06657658889555673,0.8676011640559818,0.8707949711673967
1.1862720716239743,0.005670228026164348,-0.06337130812358938,0.557397282379096,0.5610167596273442
1.1887590151703558,0.049585233165454046,-0.07452062496027034,0.30455007250811583,0.31743151317605556
1.1912459587167372,0.09349530120659816,-0.06650573256475756,0.10905969983585351,0.15829845842576623
1.1937329022631187,0.12303522857707994,-0.06326866405866438,-0.014708459122390494,0.13912918490574674
1.1962198458095004,0.15735863500468272,-0.07438624272080396,-0.05717743001587827,0.1832056538971327
1.1987067893558818,0.18688872035316584,-0.09507008198659328,-0.027923850625224844,0.21153121688753473
1.2011937329022633,0.1972602812235983,-0.10616658544749713,0.06826404573333456,0.23418570057515592
1.2036806764486447,0.20762693751656502,-0.12204098005353448,0.24096323684272392,0.3406849387699102
1.2061676199950262,0.20362348594756075,-0.12832807294864867,0.4614434750556331,0.52044279129177
1.2086545635414079,0.1948267398904625,-0.13939309131386768,0.7249165304529122,0.7634735546214224
1.2111415070877893,0.17165989949448007,-0.15523605248389627,1.002652157634273,1.0290173479071678
1.2136284506341708,0.13412297160574632,-0.17106857058716463,1.2754969189548877,1.2938878690282642
1.2161153941805523,0.1157347863686311,-0.17252545322492052,1.514720571237996,1.528900906441558
1.2186023377269337,0.08776493081923564,-0.17397192803313244,1.729900098972216,1.7408398166544081
1.2210892812733152,0.045425008650750165,-0.17061960947878285,1.8970936645009235,1.9052923278172187
1.2235762248196969,0.007868640213188005,-0.16725691878113969,1.9923594312585085,1.9993831287934019
1.2260631683660783,-0.029692570689994424,-0.16388387395023374,2.0252743870066023,2.032111196652409
1.2285501119124598,-0.0528934069193554,-0.15571208978625872,2.010203923906241,2.0169193794222884
1.2310370554588412,-0.05694545792160366,-0.15231839116022483,1.9232062086291126,1.9300688584537875
1.2335239990052227,-0.05142552305017556,-0.14891439309148957,1.7978002487578273,1.8046899499150808
1.2360109425516042,-0.055487208245182607,-0.1311349040674754,1.6579282462955423,1.6640316292691804
1.2384978860979858,-0.04997689283056128,-0.1229219592461872,1.5083787910193607,1.5142041061491502
1.2409848296443673,-0.025317762717461445,-0.12906398061186541,1.3299984571540353,1.3364858383957954
1.2434717731907488,-0.010240230326378441,-0.13040737365408228,1.1419410465299862,1.1494086736972593
1.2459587167371302,4.411521725644629e-05,-0.1317405605702553,0.977725571975828,0.9865611341123152
1.2484456602835117,0.029477298121874607,-0.13306356034317357,0.8469290307496582,0.8578249269648923
1.2509326038298931,0.06369411608575215,-0.13437639206070795,0.7495516144941607,0.7641607016577086
1.2534195473762748,0.0787525602186222,-0.1356790749152057,0.6951703225117036,0.7126517764040582
1.2559064909226563,0.09380625156483202,-0.13218322488257828,0.6885737517973975,0.7073936877279489
1.2583934344690377,0.09927839129839822,-0.13825407132325118,0.7393389036736462,0.758678061961463
1.2608803780154192,0.11432260056647464,-0.13952642377844215,0.8331007638622374,0.8524049288222861
1.2633673215618006,0.11499687068440823,-0.14557710849298244,0.9554943190798255,0.9733377464057394
1.265854265108182,0.10608961294014818,-0.15640614517252382,1.120884976953711,1.1367062152473877
1.2683412086545638,0.0923892386720957,-0.1624367469829373,1.2957541128908598,1.3091601083390785
1.2708281522009452,0.07389575594853437,-0.16366893383094672,1.4561599099154066,1.467191121120016
1.2733150957473267,0.0649743828485907,-0.1601027257228993,1.6116793752642558,1.6209148533660362
1.2758020392937082,0.056048320899473536,-0.1565265460844678,1.743159097216866,1.7510698478686402
1.2782889828400896,0.03754077167776271,-0.1577288184397232,1.8314456650110422,1.8386084176877608
1.2807759263864713,0.019028550090380625,-0.15413275644959112,1.9244233153211834,1.930679696086605
1.2832628699328528,0.005300067772764594,-0.15052678383311235,1.9885734293224715,1.9942694620278552
1.2857498134792342,-0.0036446669114154062,-0.14212251776527252,1.9855889858098,1.9906721764826134
1.2882367570256157,-0.003017242229903294,-0.12413157551700937,1.9585658209572063,1.9624978539638673
1.2907237005719971,-0.0023944563633764293,-0.11091918773584464,1.9170809486242542,1.9202885624841195
1.2932106441183786,-0.0065647041244740745,-0.1072737785234108,1.8324041570296359,1.8355532554514518
1.2956975876647603,-0.001162766997135578,-0.10840696543482053,1.7380544784715104,1.741432396711612
1.2981845312111417,0.018599766941242324,-0.09995355947806628,1.6436089295558274,1.6467504299978963
1.3006714747575232,0.03835769637892472,-0.1058555983165057,1.5538561244713076,1.5579299009016532
1.3031584183039047,0.053322626691418074,-0.10217108650264928,1.4592194683427762,1.4637635363080261
1.3056453618502861,0.07307137326151336,-0.09847685192283695,1.3644875771468197,1.3699866656807116
1.3081323053966676,0.09760394487744584,-0.10913812587474991,1.3031794876665792,1.3113788307159835
1.3106192489430493,0.11734354373262124,-0.11978971982461717,1.2705070110012038,1.2815253213396147
1.3131061924894307,0.12750177538627083,-0.13043165528939493,1.2664703624424947,1.279537533006909
1.3155931360358122,0.13765545540380514,-0.14106395387522408,1.2862813548280903,1.3012946581246416
1.3180800795821936,0.15738139939558882,-0.142109830636179,1.3203633985353136,1.337282174049621
1.320567023128575,0.15794919645417727,-0.14314611399552657,1.3687167114359156,1.385216298913815
1.3230539666749566,0.15372406559933754,-0.15853803578416548,1.4504951255305114,1.467208746675968
1.3255409102213382,0.1447060159340256,-0.1643436013572055,1.5321800371377359,1.5477481437746738
1.3280278537677197,0.13568345992536018,-0.16056283275740313,1.6281368766145343,1.6416516419607816
1.3305147973141012,0.12665640676370737,-0.17113776871453634,1.7335774618657505,1.7466026444339826
1.3330017408604826,0.12720167232335367,-0.17691481816041676,1.8149831916971193,1.8280161663589447
1.335488684406864,0.13253086256065366,-0.1778940033923324,1.8819310956138882,1.8949605153175386
1.3379756279532455,0.12827877683406652,-0.18365215343179875,1.9296329939708325,1.9425928676557578
1.3404625714996272,0.11444542450544781,-0.18461248410206066,1.9533007079269682,1.9653404743363325
1.3429495150460087,0.11976123490067825,-0.17598661462904186,1.9577228660800055,1.969262009557397
1.3454364585923901,0.11549579754379424,-0.17213977760164978,1.962053307780434,1.9729735337442227
1.3479234021387716,0.10643752524262418,-0.1730719957289777,1.9567154532425164,1.9672361900502573
1.350410345685153,0.11652844412756846,-0.17878329180061314,1.9273443201396443,1.9391231193744254
1.3528972892315347,0.11224974052633652,-0.1844852853657044,1.8787285401996794,1.8910990858560304
1.3553842327779162,0.11754344065114486,-0.18538959605265148,1.8204451492378269,1.8336319980160165
1.3578711763242977,0.12283274751251383,-0.19107305352941673,1.7764363937910144,1.7909000689127665
1.3603581198706791,0.1329060741221041,-0.19674727758102994,1.7371256979085707,1.753276705516969
1.3628450634170606,0.1429750268908747,-0.19762388806990483,1.6881480830679019,1.70567904654309
1.365332006963442,0.15303961558973928,-0.19370290825553083,1.6438689914104563,1.6623017781159162
1.3678189505098237,0.16788825334927998,-0.19934957143446974,1.6282306724542508,1.648957804179537
1.3703058940562052,0.15879053009698274,-0.19541028773662417,1.6316565532048575,1.650970236139388
1.3727928376025866,0.16405368228349032,-0.19625029060896848,1.6206280447898154,1.6406898082191335
1.375279781148968,0.17410091319484278,-0.19229279697119095,1.6286642055383505,1.6491921483393461
1.3777667246953496,0.1602018128740637,-0.19790304041818763,1.679707287850178,1.6988957611083442
1.380253668241731,0.15587521456619058,-0.19871583469600695,1.7354503016657903,1.7537311125217767
1.3827406117881127,0.15154432167111476,-0.1995196069043521,1.7815282742259821,1.7990599619903256
1.3852275553344942,0.14720914426674103,-0.21467959085532717,1.841883460026466,1.8601861571371352
1.3877144988808756,0.13329288582745635,-0.22025379386970068,1.916516097647655,1.9337302499751106
1.390201442427257,0.12416076646602903,-0.2162422399403372,1.9766960064281127,1.9923613387367
1.3926883859736385,0.11502439305051926,-0.21701016309094667,2.0128466196615022,2.0277760073943414
1.39517532952002,0.10588377580555719,-0.2177691841332816,2.048910194551274,2.0631693524461476
1.3976622730664017,0.09673892499174797,-0.2233077305883837,2.070521762399798,2.0847745994999696
1.4001492166127831,0.08758985090539217,-0.21926061676409558,2.0776815651256024,2.0910542523110616
1.4026361601591646,0.07364816055788592,-0.21520467363723972,2.079966651936835,2.0923666925943447
1.405123103705546,0.06449067095669248,-0.21592832893113112,2.067800459403207,2.080043949002893
1.4076100472519275,0.06969419914411801,-0.22143160711494936,2.0603368446529062,2.0733733748310126
1.410096990798309,0.07010514227516174,-0.22692612940312396,2.0384224388820416,2.0522125227463928
1.4125839343446907,0.065723510820352,-0.22762351707502448,2.0164226971531036,2.0302937075690193
1.415070877891072,0.06133771860452952,-0.21394698815403546,1.9656074452638288,1.9781679044864688
1.4175578214374536,0.061736179486247766,-0.21462698728971974,1.9242841561080963,1.9372004576138393
1.420044764983835,0.06213050071687254,-0.2105099259916039,1.8924530766229806,1.905138649883547
1.4225317085302165,0.06730909622154324,-0.21117263575353595,1.8796912609855925,1.8927132992481621
1.425018652076598,0.07727197663795915,-0.21661514149057615,1.8668453440444654,1.8809584302894677
1.4275055956229796,0.0824423459957756,-0.21726066153836854,1.8634923811570943,1.8779251289910133
1.429992539169361,0.08282021499758363,-0.20353241429316293,1.8792094282618867,1.8920128717713884
1.4324794827157425,0.08319399769830615,-0.2041608447736718,1.8996315252704372,1.9123814534744403
1.434966426262124,0.08356370486429576,-0.2095691714954726,1.929547325944176,1.9426927223496426
1.4374533698085055,0.09350615393398443,-0.20539220971256933,1.9498034680053706,1.9628201457290753
1.4399403133548871,0.08907933913479871,-0.21078359797926982,1.960400203013811,1.973710670238769
1.4424272569012686,0.07986007796724637,-0.21137815166519847,1.985279799680911,1.9980976547895273
1.44491420044765,0.07063678464213341,-0.20238749283749646,2.01486570401985,2.0262364269346835
1.4474011439940315,0.05662106675997447,-0.1981768569008131,2.0587349758628415,2.0690262716198404
1.449888087540413,0.06654335519351506,-0.19874626935451323,2.102522658972185,2.11294335683525
1.4523750310867944,0.06688483768121689,-0.19930735243268538,2.1270753943153675,2.1374392939560285
1.4548619746331761,0.07679913851445719,-0.2046485350644618,2.137181839980811,2.1483308282767712
1.4573489181795576,0.07234425213101392,-0.2099814395921502,2.13763065457017,2.149137201564312
1.459835861725939,0.05830859291946655,-0.20572928509093957,2.152364110473452,2.1629599383267486
1.4623228052723205,0.06342259189858779,-0.20146890396983164,2.1718056573394735,2.1820522353238205
1.464809748818702,0.06853264691240102,-0.192411918728856,2.172013535350975,2.181596174343359
1.4672966923650834,0.07363876911425482,-0.18813516188033041,2.157776405101341,2.1672140000157962
1.469783635911465,0.0787409696853042,-0.1982154659872961,2.1434597343072337,2.154044833298504
1.4722705794578466,0.08862766315453585,-0.2034992437410441,2.1386405878415395,2.150127988944522
1.474757523004228,0.09851045743754816,-0.19440971452300815,2.1145888044851464,2.1257905022319092
1.4772444665506095,0.1083893637972233,-0.1901005176853796,2.090458256686383,2.1018806302825306
1.479731410096991,0.1182643935231168,-0.195360082667706,2.090191220672204,2.1026296315924213
1.4822183536433724,0.11377034797025598,-0.20061162899627494,2.0850575365983177,2.0977734979475877
1.484705297189754,0.12363765840259822,-0.20106677956475272,2.0606922550275124,2.074166504972586
1.4871922407361355,0.14307793286774984,-0.20630236727419593,2.0506144601657557,2.065926336019157
1.489679184282517,0.13857235951702673,-0.20674161179026518,2.069189623371769,2.084104145751156
1.4921661278288985,0.13406296637076565,-0.20717294278479104,2.092475989869727,2.106976334787729
1.49465307137528,0.15349178147430909,-0.20280798333361272,2.096531805305725,2.1119035053104307
1.4971400149216614,0.16333999305398533,-0.2128003731581507,2.1100877522651604,2.127071760521154
1.499626958468043,0.1588192092824462,-0.217996525460749,2.123567287180772,2.14062702251802
1.5021139020144245,0.14950624831745707,-0.20881966012719655,2.1273938668891086,2.1428398058695364
1.504600845560806,0.15934313830160562,-0.20921182032766739,2.1311445619057636,2.1473092383793095
1.5070877891071874,0.16917627751829173,-0.20959622603176387,2.1348196364974923,2.1517448899014466
1.509574732653569,0.1598520642742592,-0.21476130721102438,2.14320775863714,2.1598644860754956
1.5120616761999504,0.15052412346180655,-0.21513028391644884,2.146732386716401,2.1627294077112404
1.514548619746332,0.14598087003509053,-0.21070318287946188,2.1549705927820213,2.1701623214513317
1.5170355632927135,0.15101071897076923,-0.21105683751130355,2.172711045928236,2.1881550482090866
1.519522506839095,0.16082527862711554,-0.20661446798056016,2.1855888023298924,2.2012161914483075
1.5220094503854764,0.1610593507437364,-0.20216450445474665,2.184027321838008,2.1992694113860467
1.5244963939318579,0.1565013503631707,-0.20728378045908302,2.172815274614484,2.188283678115093
1.5269833374782396,0.15193969254936512,-0.20760711295402512,2.1758949444464237,2.1910511616091046
1.529470281024621,0.15216279238739794,-0.21271133553778876,2.1836897922167857,2.19929550908585
1.5319572245710025,0.15238225834258212,-0.22259647520356962,2.181834875820317,2.198447854459254
1.534444168117384,0.16217490886175118,-0.2228973490186421,2.1655420601185584,2.1830154244545286
1.5369311116637654,0.16238714249017278,-0.23276759732686836,2.1587536302151893,2.1773303778661393
1.5394180552101469,0.16259577771502637,-0.23305363394343992,2.161469854926681,2.180069567005091
1.5419049987565285,0.16758922972294005,-0.2333322926386434,2.1784794066982673,2.1973398995411633
1.54439194230291,0.167790703759095,-0.23839200389508397,2.1858405383558868,2.2051946233629898
1.5468788858492915,0.15841180840820723,-0.23865598826647538,2.207495536225273,2.226002588550407
1.549365829395673,0.16339457219580145,-0.23891267629891688,2.209925847079252,2.2287999692005362
1.5518527729420544,0.17316220042389224,-0.23916209524905607,2.207496951178726,2.227156582937745
1.5543397164884358,0.16856109177227485,-0.24419267572412018,2.2193627323840026,2.239110055899833
1.5568266600348175,0.15916806486074364,-0.24921604172040013,2.221581444945855,2.2411754114415077
1.559313603581199,0.15934834164725986,-0.24944381726328446,2.2189417633043558,2.2385970295908226
1.5618005471275804,0.145159917544889,-0.25924123968791113,2.221020765481513,2.2408058065608114
1.564287490673962,0.13575641786680592,-0.2546663197948571,2.2278187231145044,2.2464329508110015
1.5667744342203433,0.14071466130261556,-0.24529589165421806,2.220182294809245,2.23811977171741
1.5692613777667248,0.13130423999620555,-0.25028359600346795,2.2076885593377416,2.225706956654483
1.5717483213131065,0.11710197267047073,-0.24568744372344753,2.209491402351037,2.226191242699025
1.574235264859488,0.12204988802547367,-0.23629586564246985,2.2112258864906407,2.227162282451163
1.5767222084058694,0.10784077161320493,-0.23647409925447427,2.208103881265578,2.223347112373697
1.5792091519522509,0.09841665216540485,-0.22706855883565868,2.2097024663669567,2.223517698985857
1.5816960954986323,0.09856594514800421,-0.2176560786079471,2.2255987217012736,2.238387608109072
1.5841830390450138,0.08913504944054451,-0.21302508949622823,2.2366393074628315,2.248528438219419
1.5866699825913955,0.07970078385934387,-0.20838721580747066,2.2380360940108126,2.249129388175558
1.589156926137777,0.08941677387597446,-0.19895408187077557,2.2106357419417195,2.221370853705803
1.5916438696841584,0.09434101509357484,-0.19430252199772768,2.173592138607094,2.1842977091500426
1.5941308132305398,0.08968511641063803,-0.19443256388026997,2.184366398107823,2.1948357576787356
1.5966177567769213,0.08502589670043137,-0.194555831910443,2.2094399716400677,2.219618517475681
1.599104700323303,0.08036336820917278,-0.19467235382044423,2.22487111721614,2.2348170136533576
1.6015916438696844,0.07569754319639377,-0.20435896400235443,2.2450253195807237,2.255577839439955
1.604078587416066,0.06624003061436146,-0.20925048026540827,2.2651144503615024,2.2757233967210486
1.6065655309624474,0.07114445602968267,-0.20934693039790897,2.2707735747041484,2.2815127215217195
1.6090524745088288,0.0712572184589928,-0.22380195548697346,2.271579774508882,2.283689904172659
1.6115394180552103,0.06178992689212359,-0.22867356675391415,2.2627449218623834,2.275109706500171
1.614026361601592,0.05710780361215351,-0.20959658207711218,2.2538460989540647,2.2642911178164056
1.6165133051479734,0.07157607091388796,-0.20966665919456684,2.240095178148623,2.2510241333824017
1.6190002486943549,0.07167591790049899,-0.22888382597677337,2.2502228551835755,2.2629688776010966
1.6214871922407363,0.07177256688948719,-0.22415248042619096,2.260287389398121,2.2725084639031143
1.6239741357871178,0.07186603024837268,-0.2194146670438335,2.255923846891629,2.2677080776396115
1.6264610793334993,0.07674472367568219,-0.22903562370372788,2.2610745204400002,2.273940425015658
1.628948022879881,0.08640865956006571,-0.2290733617304892,2.256586073044822,2.2698285764703305
1.6314349664262624,0.09128104365972578,-0.2195279090628226,2.242458781091944,2.2550268549809935
1.6339219099726439,0.09136188838341275,-0.2195529069326434,2.2378465343459526,2.2504460857518334
1.6364088535190253,0.10580481943078124,-0.21957157666141702,2.2235959961009737,2.2369142788601986
1.6388957970654068,0.1106678326280851,-0.21958394622210164,2.2188610563001827,2.2324445941126134
1.6413827406117882,0.1107393437326003,-0.21959004359796985,2.2332187983272425,2.246719651113565
1.64386968415817,0.12038457515111689,-0.23395510674299302,2.261881095680544,2.277132742925291
1.6463566277045514,0.12523832937719237,-0.23873714705786542,2.2665409986865326,2.282517943687949
1.6488435712509328,0.13487742551432225,-0.23872459587382489,2.2759292042208425,2.2923863320160085
1.6513305147973143,0.13972506939288687,-0.23870588453023744,2.280469182656037,2.2971815965156313
1.6538174583436958,0.14456967681207356,-0.23868104105373833,2.270584404418716,2.287667495157794
1.6563044018900772,0.15419966357868753,-0.23865009347800292,2.251063549945094,2.2689245270075094
1.658791345436459,0.13988462226472453,-0.2481898764838273,2.2554257196365652,2.273347993408251
1.6612782889828404,0.14472019525397173,-0.2529352081564076,2.2597291740887346,2.2784415934289886
1.6637652325292218,0.16391799173395338,-0.252886116547296,2.2496089805704704,2.2697050604472326
1.6662521760756033,0.16874760429725805,-0.248042629712927,2.2394306262998294,2.2594358654585913
1.6687391196219847,0.1639974487850152,-0.24798158235470336,2.219617581915319,2.2394401618133815
1.6712260631683664,0.16403274768509268,-0.24791459921690473,2.214112141314345,2.2339787297854015
1.6737130067147479,0.17364191685059027,-0.24784170836740227,2.208549371843266,2.2291853569327302
1.6761999502611293,0.16888295221835836,-0.25255134119712297,2.202929550815557,2.22378106776429
1.6786868938075108,0.16412107629310557,-0.25725512245858617,2.206829762186258,2.227827085970957
1.6811738373538923,0.17372151158465426,-0.2523762735856878,2.2202502832654867,2.2412907592270863
1.6836607809002737,0.16895385072489466,-0.2570684359353468,2.2384029880335294,2.2594418605634554
1.6861477244466554,0.17854852619408107,-0.25217802430262326,2.227769330534092,2.249095267483254
1.6886346679930369,0.1833519372737244,-0.24728187340455587,2.2027147979941057,2.2241220153396952
1.6911216115394183,0.1785756932104099,-0.25195681795776403,2.196758490896678,2.2183596154924095
1.6936085550857998,0.18337341985616318,-0.2518376760763754,2.1955354764915667,2.217526562351474
1.6960954986321812,0.17859151650416172,-0.2565012824746149,2.1990460319540928,2.221146390567587
1.6985824421785627,0.17380680237285456,-0.25158245526317513,2.2072904344190762,2.2283701663380073
1.7010693857249444,0.17380769336353824,-0.2514464324721244,2.2059037510147848,2.2269813159109373
1.7035563292713258,0.19295941202103534,-0.25609324216757834,2.2236166787015765,2.246617060642787
1.7060432728177073,0.1881663410491119,-0.24158089581057896,2.2221222678996577,2.2431217699046058
1.7085302163640887,0.17379370299770663,-0.22706303474092948,2.2109976021714877,2.229410744962777
1.7110171599104702,0.17378352705956474,-0.2316933002938768,2.214184974974545,2.233046708665396
1.7135041034568517,0.16898221254658147,-0.23152970391680627,2.217319453132866,2.235769788952873
1.7159910470032333,0.17375498201454342,-0.22178387033278524,2.206036103394525,2.223954623726564
1.7184779905496148,0.168948234778528,-0.2216094408603655,2.189912009028191,2.2075708046626983
1.7209649340959963,0.1545619834360994,-0.2166412335693373,2.192889463177501,2.208978729757499
1.7234518776423777,0.14974985386706108,-0.2212444864442733,2.2006035323326545,2.2167611617019443
1.7259388211887592,0.14493505203010804,-0.23063082418091385,2.1986892828879787,2.2154979821827396
1.7284257647351406,0.14490599384539493,-0.23043506482628917,2.220665814340074,2.2372873586404767
1.7309127082815223,0.135297481952119,-0.23023404302040218,2.237802982915734,2.253680392942766
1.7333996518279038,0.13047473891139993,-0.23002778675354518,2.23573585469203,2.2513221120328906
1.7358865953742852,0.12086097068262469,-0.22981632400643015,2.228829915552355,2.2439041221663847
1.7383735389206667,0.11124459318569546,-0.23438808607000317,2.231450651259669,2.2464828384414184
1.7408604824670482,0.10641402233986996,-0.23416629426370816,2.2388099341703933,2.2535367134483937
1.7433474260134296,0.10636927074321578,-0.21957416989593082,2.2221776199092727,2.235531393711475
1.7458343695598113,0.11111035099268762,-0.21455375750569017,2.200707597169208,2.2139315150193326
1.7483213131061928,0.1062720657229661,-0.2143166816980946,2.198342157823647,2.211319433024509
1.7508082566525742,0.10143123416871824,-0.20928616374541953,2.205504770359287,2.2177331412227748
1.7532952001989557,0.09658786892218729,-0.19946223154755538,2.203042096472867,2.214160987161599
1.7557821437453371,0.10610719253452117,-0.19921012295183438,2.1909544109882804,2.2025495772906103
1.7582690872917188,0.10604720099210974,-0.21331826915098961,2.178818795211221,2.1918033751131762
1.7607560308381003,0.0916195035601165,-0.20826787476081154,2.176212330283814,2.1880744383062694
1.7632429743844817,0.09155453274316505,-0.2080009842258983,2.168770080578364,2.180644469948424
1.7657299179308632,0.09148709116013698,-0.2125176253738803,2.161280723575465,2.1736301421912567
1.7682168614772447,0.08662878806737306,-0.21224101937588502,2.1633213398984044,2.1754332940560515
1.7707038050236261,0.0817680393584479,-0.21195959734761338,2.155738590066294,2.1676765791670354
1.7731907485700078,0.07690485760301125,-0.20688498374731656,2.143321151012886,2.154655728881593
1.7756776921163893,0.07682765868718677,-0.2113824162971909,2.140434506121001,2.152218597181162
1.7781646356627707,0.07674805185241496,-0.21587511610011,2.1470789286163683,2.159268453648779
1.7806515792091522,0.08145445297647713,-0.2251515142016478,2.1488894815630566,2.1621873268126732
1.7831385227555336,0.08137006797171775,-0.229634831667743,2.1506548411010664,2.164409732335412
1.785625466301915,0.09086011934731608,-0.21974828954517545,2.14279847319961,2.155952264961453
1.7881124098482968,0.10513621632625703,-0.21464552878297605,2.1253206502541353,2.13871788541794
1.7905993533946782,0.10025635484511908,-0.20953817370853667,2.1125868544021165,2.1253189878981855
1.7930862969410597,0.09537416071790616,-0.20921465526933325,2.1141741642373173,2.1266404019581375
1.7955732404874412,0.10006645311239282,-0.21367500107153203,2.1205060448443547,2.133592319854677
1.7980601840338226,0.09517963126867124,-0.21334243205922476,2.1363711710364433,2.1491058456858303
1.800547127580204,0.09029051434266999,-0.2034285724749152,2.156981410749384,2.1684336207036283
1.8030340711265858,0.09976432480438169,-0.1982986598199985,2.148818211755887,2.1602534541492693
1.8055210146729672,0.09965905855483748,-0.2075295282527474,2.1310354581064814,2.1434347568227836
1.8080079582193487,0.10433993805088881,-0.2023907853457021,2.1275754369219815,2.1397257049582485
1.8104949017657301,0.11380697578155252,-0.19724766853050735,2.1240732085063216,2.1362456941025307
1.8129818453121116,0.10890657094750389,-0.18731180193342079,2.1253174461859485,2.136333447615669
1.815468788858493,0.10400394598427809,-0.19652522957798935,2.1360968230242356,2.147637917335046
1.8179557324048747,0.10867591999971449,-0.20094596225980776,2.1516232051794013,2.1637172071236077
1.8204426759512562,0.9082206499839308,-1.273176371099836,18.18910596829258,18.256215893409042
1.8229296194976377,0.4627783339355763,-1.6319304482879913,22.921127632276786,22.983808490098678
1.8254165630440191,0.017333847579308337,-1.8661818295416437,26.020263172806274,26.087104681533397
1.8279035065904006,-0.389805570087871,-1.9711421388331751,27.36201437191874,27.435691720877806
1.830390450136782,-0.7490630999989543,-1.9515998067481326,26.965535110969096,27.04644008283505
1.8328773936831637,-1.0460735197754132,-1.8123432638445478,24.969689354028674,25.057219405821368
1.8353643372295452,-1.2425295904463158,-1.5581609406522925,21.585167114674974,21.676973604923614
1.8378512807759266,-1.3240660896513496,-1.2177832842744862,17.128003279233422,17.222213663482805
1.840338224322308,-1.314625021602172,-0.8199407417851892,11.96211676692511,12.06203877099608
1.8428251678686896,-1.204629567277775,-0.39815216354937677,6.437061286699801,6.560900513529235
1.8453121114150712,-1.0132333275889356,0.018852003417723306,0.9502745804007988,1.3892512200195195
1.8477990549614527,-0.7452246934954032,0.3975529088110412,-4.1439012403329825,4.22910459184124
1.8502859985078342,-0.434122475889132,0.7235853156371417,-8.534219694064692,8.575834875954612
1.8527729420542156,-0.09908027571138656,0.9682187769728334,-11.971683542849743,12.011181097263382
1.855259885600597,0.2359599027655111,1.1266648625277704,-14.303063615478003,14.349309376293288
1.8577468291469785,0.5518444585788564,1.1749815287622356,-15.432591580917798,15.487091295747293
1.8602337726933602,0.8246313874345363,1.1179571520905833,-15.355478771560753,15.4181896934402
1.8627207162397417,1.0399554916679268,0.9699569156003829,-14.14355097326498,14.214863980218595
1.8652076597861231,1.188239976923155,0.7453460024124952,-11.940460022041464,12.022563804947806
1.8676946033325046,1.2599080488329852,0.47285480564174565,-8.952106997410828,9.052689084013908
1.870181546878886,1.2453829130182346,0.16206010515599756,-5.408334995853501,5.552236441749815
1.8726684904252675,1.1590297916893593,-0.18224972246318494,-1.58687114740792,1.973505778516272
1.8751554339716492,1.0247907136851555,-0.5121906707168873,2.2345574175272045,2.5111316457427306
1.8776423775180306,0.8426656912306494,-0.8038207496723655,5.821319198066584,5.936663243823053
1.880129321064412,0.6174431398584819,-1.0523515826429717,8.943571096279483,9.02641367535608
1.8826162646107936,0.3730650883697274,-1.2194759696639867,11.428930853705484,11.499859114768729
1.885103208157175,0.12389675891218,-1.3051939372968402,13.152900244708285,13.218081043331237
1.8875901517035565,-0.1109082230595303,-1.3142939153868187,14.05323028643775,14.114990280323124
1.8900770952499382,-0.3169846354243189,-1.2419875271014595,14.105979222220366,14.164097644900764
1.8925640387963196,-0.4847556593947523,-1.0978516055319945,13.35903134479988,13.412829107553337
1.895050982342701,-0.5854908629160742,-0.905828193692712,11.903366576410768,11.95213203238066
1.8975379258890825,-0.6383438471504576,-0.6802825279191058,9.892214082055558,9.936104197833533
1.900024869435464,-0.6528914066335173,-0.42121463454736796,7.483591429659377,7.523817491359293
1.9025118129818455,-0.6099799159932415,-0.1477781531557385,4.849881396702554,4.890323449685794
1.9049987565282271,-0.500032556512777,0.09693126011486974,2.1874087768643893,2.245926397695063
1.9074857000746086,-0.3613565426929075,0.30812517572603193,-0.33144365319105695,0.5791153340257904
1.90997264362099,-0.20352866912746181,0.4762267608588382,-2.5486583271722383,2.6007451077680197
1.9124595871673715,-0.026548923784579292,0.5916591827348787,-4.34452490576866,4.384707754310749
1.914946530713753,0.14085228543061012,0.6256919953352358,-5.6280634700127035,5.664488349518344
1.9174334742601347,0.2986749705193686,0.6022671892055254,-6.332236117961881,6.367821194005782
1.9199204178065161,0.44213074014718734,0.5357499482922501,-6.457042594586717,6.494298011855124
1.9224073613528976,0.5568543963232263,0.421351843302479,-6.036001468531102,6.0762601921468535
1.924894304899279,0.6332691443609911,0.26386125162625973,-5.121784922155944,5.167526812521968
1.9273812484456605,0.6665865928783323,0.07285495401642716,-3.7814303482212304,3.8404245870187865
1.929868191992042,0.6663835604377445,-0.11814825212981495,-2.149012786412075,2.2530605884586428
1.9323551355384236,0.6326600589446811,-0.3091483926139085,-0.3490304702204403,0.7859095036847134
1.934842079084805,0.5606276969677068,-0.4857802832328595,1.4796531564530992,1.6551916389308918
1.9373290226311866,0.46465169633981784,-0.6288903364194063,3.2316934724984234,3.3249431505428935
1.939815966177568,0.33994366559594996,-0.7432669811633712,4.801745856348086,4.870808020238791
1.9423029097239495,0.205657229855301,-0.8001798231678725,6.079677282657718,6.135556902748197
1.944789853270331,0.07615761089963491,-0.818782501294006,7.017603968782901,7.065618885051807
1.9472767968167126,-0.04855517946775956,-0.8038634443965855,7.55806532497378,7.600848998583072
1.949763740363094,-0.15890432282050693,-0.7314806613628804,7.69148479421449,7.727823295171262
1.9522506839094755,-0.2453130007501133,-0.6207877909168666,7.446593045579675,7.476449955437677
1.954737627455857,-0.30778120150660926,-0.4957268750564756,6.8521207476685335,6.87692032404649
1.9572245710022385,-0.3367321067175467,-0.3515095358110196,5.946375375242111,5.966265797695094
1.95971151454862,-0.3417425113100019,-0.1977126051236766,4.8155484357826,4.83170621578232
1.9621984580950016,-0.3228124035888589,-0.04870131821052848,3.560196646247789,3.5751335396401998
1.964685401641383,-0.2655765619167473,0.09073589640052981,2.271299916468016,2.288573185127088
1.9671723451877645,-0.19397699123751444,0.19665699694859873,1.0398381557805472,1.0759016859339376
1.969659288734146,-0.10801367991238786,0.2690619583226441,-0.07672755021369326,0.29991400338501517
1.9721462322805274,-0.0028982130014539864,0.30316235213999443,-1.006570906449932,1.0512377471842864
1.974633175826909,0.08785059785353089,0.3037465567076527,-1.6826540216852823,1.7121052114133153
1.9771201193732906,0.17859797419448747,0.28039135370223267,-2.109765054985014,2.1357961360704034
1.979607062919672,0.26934392758271425,0.2187315082485135,-2.2639617459993024,2.2903956888220343
1.9820940064660535,0.33614645295836926,0.13792060876331647,-2.1452438514900907,2.1757958807099014
1.984580950012435,0.3837939651634625,0.037958630432612495,-1.7583995320526444,1.8001965391709793
1.9870678935588164,0.41228647569969334,-0.08594285482739616,-1.1752545952825093,1.248434890602394
1.989554837105198,0.4168355927282301,-0.20984185512771658,-0.4293276227317415,0.6341196442068524
1.9920417806515796,0.39744132771019147,-0.3097963785281448,0.4219207869240984,0.6572294542698492
1.994528724197961,0.3636804987268045,-0.39538325627912574,1.3114532278438684,1.4172159303797582
1.9970156677443425,0.31076471387767624,-0.4666025129386835,2.1770206969792536,2.2480462022716976
1.999502611290724,0.24827079120256013,-0.5138773663720504,2.9659509973913254,3.0203598547789663
2.0019895548371056,0.17141033875926015,-0.5467846476733094,3.6303603349284224,3.6753055813886273
2.004476498383487,0.09454857786575144,-0.546170767961927,4.1271533182223035,4.164208982924119
2.0069634419298685,0.03683913313901821,-0.5168241549059158,4.422811362006304,4.453057901343381
2.0094503854762498,-0.006506387426920446,-0.45395642947935677,4.541276720315314,4.563914221742211
2.0119373290226314,-0.05942998914088704,-0.3815096325245375,4.468184420076761,4.484835954094084
2.014424272569013,-0.09320124080993775,-0.2994837882283674,4.227476714232925,4.239096174903529
2.0169112161153944,-0.10782013118489564,-0.21266732404382394,3.8383074518552425,3.8457062636623944
2.019398159661776,-0.10807505235889081,-0.12106026404913006,3.3246188847823515,3.328577253651396
2.0218851032081573,-0.09396599312687937,-0.029451035587994667,2.7295068775777622,2.7312826228909066
2.024372046754539,-0.0702813456264324,0.038218320769581204,2.105644100887586,2.107163303398244
2.0268589903009206,-0.027444292056610364,0.10110139439178001,1.4769728048742987,1.4806834055437725
2.029345933847302,0.02496837207971314,0.13046774149926632,0.9009540623785597,0.9106939517163052
2.0318328773936836,0.07737985125691837,0.14547095157168632,0.4254721390340723,0.4562630603346535
2.034319820940065,0.14415536652814054,0.14132259754329812,0.045738863381333594,0.20699007198091374
2.0368067644864465,0.20135291236099495,0.10844584908446508,-0.2238803233294746,0.3200404609951923
2.0392937080328277,0.2346072898405957,0.06120589252382702,-0.34507796382116496,0.4217410850758422
2.0417806515792094,0.2678605265913286,-0.009974102354648018,-0.3082770213155275,0.40851372840424716
2.044267595125591,0.29632423029223787,-0.08115214246746527,-0.16136129945755862,0.3470319706424452
2.0467545386719723,0.3104216052785615,-0.1571166545955296,0.09088102740819526,0.3595922375660786
2.049241482218354,0.31494106582280673,-0.223502452180798,0.4436617843528383,0.5881980958551123
2.0517284257647352,0.3194594294939779,-0.28509796188838754,0.8443087626569756,0.9466744222090737
2.054215369311117,0.3048230939152704,-0.34190320700486687,1.2593033662932234,1.340022346791924
2.0567023128574986,0.27103206996707974,-0.374764597476966,1.6790690152432513,1.7416026080661036
2.05918925640388,0.23723998178683692,-0.39804736643483407,2.0652987089727075,2.1166443423892116
2.0616761999502615,0.1986584368860923,-0.40217473034800566,2.389262252990907,2.431004689802901
2.0641631434966428,0.1504990427519482,-0.38714671226733577,2.6509598721297536,2.6833040793638836
2.0666500870430244,0.12149223008909893,-0.357751738504442,2.83123817733827,2.856336164598401
2.069137030589406,0.09248439637441641,-0.3235666386314513,2.9061553756411715,2.9255747812312154
2.0716239741357874,0.05389874570056841,-0.27980303219950864,2.89007690001933,2.90409009840285
2.074110917682169,0.02967730537744251,-0.22167253869947823,2.7973681828449726,2.8062943906976905
2.0765978612285503,0.02460848940859317,-0.16354039084293737,2.637606252559082,2.642785988446056
2.079084804774932,0.024327098491125576,-0.11019501464007098,2.415579733669132,2.418214258225593
2.081571748321313,0.02883314325775055,-0.0616364327197525,2.1600192666687192,2.1610908431550513
2.084058691867695,0.03812663431573815,-0.01786466764958572,1.8565598615507515,1.8570372387531224
2.0865456354140766,0.056995985567086516,-0.00282175853729294,1.5435089642119602,1.5445635070448493
2.089032578960458,0.06628759428656017,-0.0021425178663623257,1.2543856166064362,1.2561376957516308
2.0915195225068395,0.08036668096529465,-0.001461758058356022,0.9987668434624908,1.0019960817019327
2.0940064660532207,0.10402165942787467,-0.015144711394534216,0.7862296688819921,0.7932256678547659
2.0964934095996024,0.12288733019160114,-0.0336145934922083,0.6455047296194678,0.6579571359734373
2.098980353145984,0.14175210702886093,-0.07123663650761802,0.567015435236268,0.5887909833075016
2.1014672966923653,0.1558275970451572,-0.11364565261232551,0.5603388079421929,0.5926020199464621
2.103954240238747,0.1651138106399035,-0.1656300671960289,0.6206866593512324,0.6632856237850958
2.1064411837851282,0.16482235486571445,-0.19845948234300437,0.7289055904795081,0.7732114423801636
2.10892812733151,0.15495324006890632,-0.23607593659745874,0.8610537983839119,0.9061765822176062
2.111415070877891,0.15466008985031487,-0.2784794518382889,1.0458619160035756,1.093296709880411
2.113902014424273,0.1400008979011355,-0.30651643659929606,1.2402345258303331,1.285198138957665
2.1163889579706545,0.12534088444812774,-0.3201869126313328,1.4298066296325356,1.4705702956593998
2.1188759015170358,0.11068005973005901,-0.3290677082615563,1.6145784384927016,1.6514839285587652
2.1213628450634174,0.08165322399759234,-0.32358203847132083,1.7658197429226696,1.797078726463017
2.1238497886097987,0.05741400071633562,-0.28457631153661733,1.9122611726270389,1.934172390688839
2.1263367321561804,0.03317399672295063,-0.2599345821528263,2.015595710173459,2.032558133960057
2.128823675702562,0.01851002878756225,-0.22092645182518877,2.0470931441156015,2.059063247927776
2.1313106192489433,0.008633703691782624,-0.17234034523577435,2.049849312155347,2.057099399148999
2.133797562795325,0.0035450315098537466,-0.13811830028233762,2.028652824773763,2.03335228516454
2.136284506341706,-0.0015443810320771023,-0.10868353155469812,1.9499850652293045,1.9530120966756217
2.138771449888088,-0.006634523915433843,-0.06009404361580817,1.8042694327200497,1.8052821100408691
2.141258393434469,-0.002148580509006348,-0.04023389076715267,1.6585437789053508,1.6590331066347372
2.143745336980851,0.002336652509090653,-0.020372674118897205,1.5223851149352168,1.522523216234162
2.1462322805272325,0.011609588393490466,-0.0005104146365884077,1.3670632247300585,1.3671126155058018
2.1487192240736137,0.03524704369085341,0.009776060140314069,1.2165203280646395,1.2170701023504398
2.1512061676199954,0.044518608356975076,-0.003878480581077426,1.0946986440430493,1.0956103643044595
2.1536931111663766,0.0442126955613642,-0.02710884760471899,1.011175181136041,1.0125042711084054
2.1561800547127583,0.06784813836682013,-0.0551266583079455,0.9228545106168848,0.9269858500009448
2.15866699825914,0.08669452664343347,-0.07835512668036104,0.8632556562081266,0.871129034530676
2.1611539418055212,0.0959634668341004,-0.09679427328459678,0.8706860442752404,0.8812901372437902
2.163640885351903,0.1052317753138029,-0.12002092525613328,0.8876850340985154,0.901922096856217
2.166127828898284,0.10971105846765017,-0.15761190966249838,0.928618034082314,0.948266567817538
2.168614772444666,0.11418972929234938,-0.1856252302609449,1.0174272585895405,1.0405067260264667
2.1711017159910475,0.11866779743517109,-0.19927250402166008,1.1014404681742889,1.125594368295779
2.1735886595374287,0.1135684658735645,-0.20334215448702553,1.1902346658695286,1.2128084713052796
2.1760756030838104,0.11325695415723946,-0.21219941177142188,1.2790216440604745,1.3014423129729076
2.1785625466301917,0.1177332718455879,-0.2114790859985809,1.3534363878034608,1.3749089362371394
2.1810494901765733,0.11263221850760363,-0.19639279386392072,1.432632704707208,1.4504111874652343
2.1835364337229546,0.1027422069639764,-0.1717289586343873,1.497457175126705,1.5107696011185594
2.1860233772693363,0.08806324668544208,-0.151852810148279,1.5383331853649036,1.5483163115338032
2.188510320815718,0.08774896039427027,-0.13197596489325347,1.540895717710292,1.5490245796041122
2.190997264362099,0.07785734090012797,-0.10731003928740668,1.538663786958967,1.5443650667386946
2.193484207908481,0.06796520422497443,-0.08264345631972381,1.5316375839679193,1.5353706062318953
2.195971151454862,0.07722617300142876,-0.07712984887026497,1.5006636856145885,1.5046276591587557
2.198458095001244,0.07690983662895567,-0.07161562318658454,1.4553190879986495,1.4591084840915416
2.2009450385476255,0.07180460771908004,-0.056523992086693564,1.4003923831984295,1.403370831352599
2.2034319820940067,0.08106410881406134,-0.055796991560486564,1.3215185493087667,1.3251777126756117
2.2059189256403884,0.08553473586339,-0.05985783428522096,1.247428193603664,1.25178921930245
2.2084058691867696,0.09000490138776418,-0.06391813618788067,1.1685446960897448,1.173747467374063
2.2108928127331513,0.09447461455714556,-0.06797791644503759,1.0848682427081258,1.0910937420572746
2.2133797562795325,0.11330909447192128,-0.08640240412332734,1.0299178419347044,1.039728371962493
2.215866699825914,0.11777793031911088,-0.0952496016559099,0.9893284683336372,1.000857105555655
2.218353643372296,0.12224634113788502,-0.11367314128760331,0.9391582891186712,0.9538784214941132
2.220840586918677,0.1315027392960748,-0.12730783194979356,0.9225031172768734,0.9404851173217347
2.223327530465059,0.1407587304900963,-0.13615369246340814,0.9345747318800015,0.9548721263337728
2.22581447401144,0.13564911374489086,-0.1497875482184745,0.941854491364607,0.9632896109502888
2.2283014175578217,0.13532751129665116,-0.1586326112521359,0.963496189976226,0.9858005623680279
2.2307883611042034,0.1445823353896349,-0.16268890017038107,0.9947116046432161,1.0182450129302136
2.2332753046505847,0.13947157831517415,-0.16195643350731803,1.021135704936663,1.0432642692092122
2.2357622481969663,0.13436045889596288,-0.16601203636566053,1.052345476311423,1.0737987384263976
2.2382491917433476,0.1292489859625663,-0.16527892049474735,1.0787642902223062,1.0989789878751535
2.2407361352897293,0.12413716831429134,-0.154968700891986,1.1291227439667253,1.1464482132901546
2.243223078836111,0.1190250147191223,-0.1494466057636643,1.1603253843165309,1.1759490803569992
2.245710022382492,0.10912413059335113,-0.14392424996235054,1.172372387204483,1.186203726129925
2.248196965928874,0.09922292796243981,-0.1384016515883335,1.2035711544029564,1.2155590196723
2.250683909475255,0.0941098188203513,-0.1328788286692122,1.2060378271948267,1.2169801484542464
2.2531708530216368,0.08899640848885415,-0.11299058919884875,1.194137789302225,1.202768595287981
2.255657796568018,0.09824791553933088,-0.08831375769976191,1.1870248270418315,1.1943533450032975
2.2581447401143997,0.08834552530837392,-0.08757877190269792,1.1559686928005508,1.1626429339504936
2.2606316836607814,0.08801966626487845,-0.09642043958248969,1.134488381401761,1.1419755909625426
2.2631186272071626,0.08769354028344967,-0.09568516512043956,1.1034304504169743,1.1110376081568876
2.2656055707535443,0.08736715584746424,-0.09494977274641636,1.0532182633290041,1.0610924509557285
2.2680925142999255,0.10140573136931907,-0.10857948993718303,1.007794006132686,1.0186861080757574
2.270579457846307,0.11065566198726651,-0.1174207208538185,0.9863114607715424,0.9994211318883368
2.273066401392689,0.09596334280755292,-0.12147348286505188,0.9744055852151252,0.9866260764345308
2.27555334493907,0.09563600874808598,-0.12552619658623643,0.9577113367004078,0.9706256109557136
2.278040288485452,0.09052005485091896,-0.13436728255894348,0.9362288816919122,0.9501436553840565
2.280527232031833,0.09019229604780254,-0.14320835461026427,0.9291119992012824,0.9444005454024036
2.2830141755782147,0.09465274059764217,-0.14726102649332784,0.902842030981871,0.9196568295478389
2.285501119124596,0.08953618676614528,-0.15131371852785547,0.8957263678561098,0.9128188737247099
2.2879880626709777,0.08920785270856879,-0.15057804431882493,0.8933999633867078,0.9103819434694026
2.2904750062173593,0.08887934326656133,-0.1402656173970218,0.8862861737197072,0.9017079143547437
2.2929619497637406,0.09333906988998053,-0.1443184711408132,0.8887503708650542,0.9052166728430933
2.2954488933101223,0.08343342739467574,-0.1340062023307924,0.9007927161334415,0.9145197190378165
2.2979358368565035,0.06873923048586816,-0.12848244087623462,0.9176249667763141,0.9291223811062437
2.300422780402885,0.06841010047685014,-0.12295880001035142,0.9440356859461634,0.9544643443770341
2.302909723949267,0.053715625445221016,-0.11743529621209081,0.9752366294146846,0.983749409435913
2.305396667495648,0.048597829959375116,-0.10712354256544421,0.9824975356112748,0.9895143303311777
2.3078836110420298,0.05305672195347855,-0.09681195872030335,0.9801837721068143,0.9863811627343934
2.310370554588411,0.047938696047742146,-0.08650056093147596,0.97787230240999,0.9828604709931277
2.3128574981347927,0.047608970071809864,-0.06182415541798569,0.9611980726854998,0.9643601895343696
2.3153444416811744,0.05206755186159384,-0.041936371566139385,0.8727003984724018,0.8752574905197223
2.3178313852275556,0.0325840292983286,-0.03641403204662863,0.8656083406599286,0.8669864474807217
2.3203183287739373,0.03225404003504795,-0.03568034617388083,0.8537307933778919,0.8550846026933915
2.3228052723203185,0.04150078516845901,-0.03015852318723411,0.8466447164179502,0.8481975757621952
2.3252922158667,0.04595906244202563,-0.02942538553212337,0.829985052225398,0.8317771790881623
2.3277791594130814,0.040840476206866705,-0.03348094893816089,0.8324823723830814,0.8341557521033868
2.330266102959463,0.04051024406234882,-0.02796001909877388,0.834983214525046,0.8364327893384942
2.332753046505845,0.04496837361386463,-0.03201622487426414,0.8279109221799068,0.829749171946233
2.335239990052226,0.049426469113428295,-0.04564958176833045,0.8399960646923095,0.8426863288692957
2.3377269335986077,0.044307731459648725,-0.049706491928025454,0.8377199674960547,0.8403622161594857
2.340213877144989,0.05355418476018481,-0.05376377734682736,0.8258711818402666,0.8293502296702919
2.3427008206913706,0.04843541656610717,-0.06739825994271076,0.8283918715078329,0.8325392530094227
2.3451877642377523,0.04331664427811077,-0.07624474495656441,0.8165517630104091,0.8212468413823064
2.3476747077841336,0.04777468194335921,-0.08030324751463569,0.8047162119943394,0.8101229620512583
2.3501616513305152,0.052232730294528795,-0.09393899262848349,0.7976737667169509,0.8048827433598535
2.3526485948768965,0.05190239335134139,-0.09799838199183109,0.785847764725963,0.7936335745376494
2.355135538423278,0.05157208174084904,-0.08769302718365202,0.7836035594217527,0.7901799067112235
2.3576224819696594,0.05603020605678377,-0.08217655630874798,0.7861528901742894,0.7924195461540047
2.360109425516041,0.060488370218913734,-0.09102579075553496,0.7887074956041857,0.7962437134047825
2.3625963690624228,0.06973498475425988,-0.09508713191477192,0.786479113582498,0.7952697195643538
2.365083312608804,0.05503963691428626,-0.08957219106233705,0.7746794812305371,0.7817805559637425
2.3675702561551857,0.06428636704203072,-0.07926938603887557,0.762885544880632,0.7696822247773829
2.370057199701567,0.0735331656424133,-0.06896713460918003,0.751097443474432,0.7578330698111708
2.3725441432479486,0.0779916364681682,-0.06824225778243465,0.7297385085627415,0.7370603720086988
2.3750310867943303,0.07287338323855674,-0.06751796321066594,0.7083856842272933,0.7153177496462121
2.3775180303407115,0.07254362292059813,-0.0620058617902699,0.682250703838454,0.688892826941075
2.380004973887093,0.07221395916656104,-0.06128277430261697,0.6704873166176295,0.6771437632215515
2.3824919174334744,0.06709599559519841,-0.07013711813278434,0.6778840610747014,0.6847976987578248
2.384978860979856,0.07634335239327694,-0.07420369730860932,0.6709222484064092,0.6793166857627032
2.3874658045262374,0.08559082647183813,-0.06390571910222764,0.6496020123009885,0.6583255310981025
2.389952748072619,0.08526161802866139,-0.06318521395193955,0.6474423089381549,0.6560818989837983
2.3924396916190007,0.08014413718889157,-0.0720421956184425,0.6500780605437626,0.658949653217617
2.394926635165382,0.0941804073253173,-0.08089987114576713,0.6431441885929665,0.6550184620270406
2.3974135787117636,0.09864001525369692,-0.08496985082219943,0.6410060337320864,0.6540936197815548
2.399900522258145,0.0935229676780509,-0.08904055150059342,0.6436637258958502,0.6564889620770237
2.4023874658045266,0.09319448122970009,-0.08353517999680093,0.6367521843074364,0.6489350366940148
2.4048744093509082,0.08328935258446624,-0.08281895965216224,0.6346367473613626,0.645414515976528
2.4073613528972895,0.08296120162670517,-0.08210350045069914,0.6325291394204466,0.643208098501236
2.409848296443671,0.09699843824617826,-0.0813888156206719,0.6160642774565321,0.6289419927850043
2.4123352399900524,0.09667064905680955,-0.07109811167365354,0.6043959009333957,0.616193606699806
2.414822183536434,0.08197784056073121,-0.06559661164670283,0.5927357319631401,0.601962565072288
2.4173091270828158,0.08165043914826609,-0.06488432853987858,0.5762954919079153,0.5856562680417257
2.419796070629197,0.08611164461356069,-0.05938446863656477,0.5742289179816016,0.5836784908660078
2.4222830141755787,0.07620785007646802,-0.0634622547456436,0.5721709234062899,0.5807018682441834
2.42476995772196,0.07588107850595094,-0.062752489678092,0.5796984372561695,0.5880017782228814
2.4272569012683416,0.08034293291541128,-0.062043589450099024,0.5776579679343321,0.5865092682808385
2.429743844814723,0.07043980632363123,-0.051758760040903073,0.5708380396964081,0.5774918208254732
2.4322307883611045,0.0653253182781901,-0.046263223955292254,0.5592387727289356,0.5649386586367147
2.434717731907486,0.06499947501172598,-0.050345396981437585,0.5428602864699208,0.5490508914255791
2.4372046754538674,0.06467387940287173,-0.04964008155029154,0.5264911029294073,0.5327661117574582
2.439691619000249,0.05956013429656881,-0.05372409661840427,0.524496550010074,0.5305943074773409
2.4421785625466303,0.05444664914469033,-0.053020647785146924,0.5225115349450355,0.5280094041257776
2.444665506093012,0.05412183336541809,-0.05710655385521646,0.5061709642200256,0.5122493302674814
2.4471524496393937,0.05858569302293892,-0.05640502027617389,0.5089937767768387,0.5154497788697594
2.449639393185775,0.06304983082743953,-0.06049286570095447,0.5166148776074202,0.5239519059354706
2.4521263367321566,0.06272584945543358,-0.05500489210509629,0.5146691709573652,0.5213870212033865
2.454613280278538,0.06240215819038297,-0.05909472463049781,0.5127335769278165,0.5198864652355983
2.4571002238249195,0.06207876296176962,-0.06318556842139378,0.5203850148742823,0.5278700148458001
2.459587167371301,0.05696726634510463,-0.06248903186658028,0.5184699834852093,0.5253201617238861
2.4620741109176825,0.05185607752286714,-0.05700512659943602,0.5069885939854597,0.5128119262127477
2.464561054464064,0.04674520232358004,-0.06109907413857485,0.5003061668164559,0.5061862022570734
2.4670479980104454,0.05121145318274878,-0.06519407932539689,0.49363440839442596,0.5005475102995618
2.469534941556827,0.036524415939763966,-0.05013654028505643,0.47739662107179903,0.4814096378784567
2.4720218851032083,0.036202919564447544,-0.03986848494993378,0.4611697197392264,0.46430341144724485
2.47450882864959,0.050246969750826875,-0.034389924575291886,0.4401654085838711,0.4443568518603499
2.4769957721959717,0.049926152237470545,-0.02891246702059158,0.4335374076524108,0.4373593891302992
2.479482715742353,0.04481727929185675,-0.037801333351056954,0.4173438063671764,0.42144202690202276
2.4819696592887346,0.039708759827581375,-0.02753771135339056,0.3963731133313555,0.39930784631111216
2.484456602835116,0.03938900272468182,-0.02685203190296237,0.3945674496889122,0.3974367842902503
2.4869435463814975,0.03906961018902877,-0.030955902557629145,0.3975617092813799,0.40067445018395237
2.489430489927879,0.029173781072662996,-0.020695720839041698,0.381413978570345,0.3830875166485888
2.4919174334742604,0.0432203440768969,-0.02959032071702783,0.370066376481736,0.37375487719170153
2.494404377020642,0.052478884705510875,-0.04327450288312473,0.3874610212032952,0.39338627186471087
2.4968913205670233,0.033007391749120485,-0.033017857992805766,0.3809255770602089,0.38377592696150986
2.499378264113405,0.03268990376954495,-0.027550816470205408,0.3887673707266295,0.3911109124511021
2.5018652076597863,0.03237281281079907,-0.03645019538318417,0.40140969493726786,0.40435919544680293
2.504352151206168,0.027267720844412757,-0.04056239180276755,0.3949106317302391,0.3979236651449453
2.5068390947525496,0.03652824641006025,-0.03509901268601068,0.374058682330519,0.3774733782721252
2.509326038298931,0.031423974810923294,-0.03442527819636254,0.35800755718968347,0.3610290528153364
2.5118129818453125,0.03589692784024101,-0.02417598850061564,0.3419689494241105,0.3446967220885328
2.514299925391694,0.03558190069541933,-0.018716363612703013,0.33073135805784126,0.3331660323723978
2.5167868689380755,0.03526730182179039,-0.022834816831262206,0.31471807142176367,0.31751011939297447
2.519273812484457,0.03974153963138716,-0.022166148099090233,0.2939291837558873,0.29743082079237526
2.5217607560308384,0.04421621586234237,-0.021498770565692826,0.2923068051710178,0.2964127852004851
2.52424769957722,0.04390293221954478,-0.025621097306107288,0.309851028446392,0.3139929424587912
2.5267346431236013,0.038801693694964,-0.024956331360037165,0.31304312238982845,0.3164243770383737
2.529221586669983,0.03848931188799676,-0.019504482333484674,0.29709477500257186,0.30021185402068573
2.531708530216364,0.04296579172423742,-0.03799597968005175,0.29073649680037406,0.29634011591765863
2.534195473762746,0.042654331455509786,-0.042123606294795835,0.2939683776502573,0.300018661515446
2.5366824173091276,0.03276653262084184,-0.027098968240860888,0.29242529673226514,0.29550051422741247
2.539169360855509,0.042032819968330304,-0.03601770471044574,0.2908957457824908,0.2961154638337053
2.5416563044018905,0.041722778369281954,-0.04014940501712605,0.2989566191329729,0.30451243830342767
2.5441432479482717,0.04141321922445884,-0.03470567500215438,0.3022427937906915,0.30703459903126673
2.5466301914946534,0.0458925505813077,-0.029263330393908937,0.2863891460400012,0.2915153712484508
2.549117135041035,0.05037237381366966,-0.028610783526738626,0.2609725680450641,0.26732496001996064
2.5516040785874163,0.045275886942140575,-0.02317123670041843,0.24035835456950494,0.2456805868602242
2.554091022133798,0.04017990123564452,-0.02252150542240594,0.22454658969604324,0.22922219267322438
2.5565779656801793,0.04466122793022398,-0.021873195165751813,0.20874895346808486,0.21459074425756378
2.559064909226561,0.04435466162751711,-0.01643791133012007,0.19775393185154577,0.20333263018938755
2.5615518527729426,0.03926020685728393,-0.011004065882491698,0.1963500100952036,0.20053872387349406
2.564038796319324,0.03895467475712411,-0.0007832640760230269,0.18538365613007812,0.18943384108495812
2.5665257398657055,0.03386126315065019,-0.00492912769228715,0.18879696705477222,0.19187281258960373
2.5690126834120868,0.04313358975062742,-0.013864858517958378,0.18264800605053289,0.18818351410454084
2.5714996269584685,0.047618045674654996,0.001139955014464178,0.16693685218692522,0.17359922347000245
2.5739865705048497,0.04252623196863681,-0.0030103252593365326,0.15602879378220536,0.16174834451315806
2.5764735140512314,0.05658857288803354,-0.011950497587176034,0.16428911844340632,0.17417231528861576
2.578960457597613,0.05149784617140385,-0.011315360144229736,0.1677758865048915,0.17586589671675812
2.5814474011439943,0.0464076693685056,-0.015470130954970518,0.17606598083404812,0.182735399786237
2.583934344690376,0.041318046715365986,-0.014838011369857629,0.17958267030893005,0.18487099026367296
2.586421288236757,0.045805789056184154,-0.023784219268540685,0.17832602974116973,0.18564490911555376
2.588908231783139,0.05508249724181313,-0.027943552536541016,0.16750772991614227,0.17853224698192774
2.5913951753295206,0.04999456212980802,-0.03210442226846988,0.15191624755499156,0.1631217227806675
2.593882118875902,0.04969560110788451,-0.031478432846263615,0.14591686531571568,0.1573285609401402
2.5963690624222835,0.04939721492991289,-0.030853995220529118,0.14472125187241502,0.15600094425169173
2.5988560059686647,0.044311004317519775,-0.030231116949713588,0.13396426855703503,0.14430457645437278
2.6013429495150464,0.03922537660075365,-0.02003299887990595,0.1375880025636338,0.1444659463785281
2.6038298930614276,0.0485055457181196,-0.014624858387119577,0.1460157171448202,0.15455505200921785
2.6063168366078093,0.048209499013517565,-0.009218299494603954,0.1257286582535695,0.13496973122500258
2.608803780154191,0.03833724040033737,-0.0038133294745117396,0.10545731430998728,0.11227435426075666
2.6112907237005722,0.03804238704118401,-0.012775165488624118,0.08520175311657674,0.09417943936545319
2.613777667246954,0.04253653946512059,-0.012161798065049467,0.07453884842191094,0.08667933113440261
2.616264610793335,0.042242894848964374,-0.00676163758269821,0.06389185999998404,0.07689181804508187
2.618751554339717,0.041949860298575836,-0.0013630943495206438,0.04368404693265937,0.06058006901358326
2.6212384978860985,0.041657439567660104,-0.00554298192293512,0.03785749085308332,0.05656197073672846
2.6237254414324798,0.041365636378125736,-0.0001476938677784645,0.03204704614223175,0.05232734326227761
2.6262123849788614,0.036286051099820193,0.005245956399854368,0.02625277645360491,0.04509330143703039
2.6286993285252427,0.04078389735213528,-0.003727247785963783,0.04441676135509276,0.06041578724607286
2.6311862720716244,0.03570556548063153,-0.003125296458304838,0.05302023988497062,0.0639984431193743
2.633673215618006,0.03541626904144457,0.007051803818429736,0.061640080279724785,0.0714390617715583
2.6361601591643873,0.03512760827790995,-0.006714776692206215,0.07506474677218833,0.08314898253932661
2.638647102710769,0.03005118340186419,-0.015694624492636144,0.07414068631165982,0.08152445172205253
2.64113404625715,0.03934061119524235,-0.01031093929666227,0.07802157172920587,0.08798502607540842
2.643620989803532,0.03905387852577935,-0.014505743990524067,0.07234225193434085,0.08348067711486651
2.646107933349913,0.038767795472040234,-0.01391383482835895,0.047525978478850206,0.06289082123621006
2.648594876896295,0.0384823654406683,-0.0037468146354511234,0.03230322880030201,0.0503828310116277
2.6510818204426765,0.033409188486752894,-0.012735109409903078,0.00752044645780181,0.03653647495243962
2.6535687639890577,0.03312507459512348,-0.01214830523686361,-0.007668699101037291,0.03610624368392194
2.6560557075354394,0.03284162375853783,-0.011563214694883417,-0.013264152382465255,0.03725879659359093
2.6585426510818206,0.03255883925897973,-0.0014030370123170322,-0.03320787516550361,0.04652751336314549
2.6610295946282023,0.022699917706785255,0.0039670120497454775,-0.05313460333651321,0.05791640113323901
2.663516538174584,0.02241847560318244,-0.0002414765604776825,-0.05389067012996129,0.05836823353808173
2.6660034817209652,0.026926112816917036,0.0051251047753284595,-0.04984123268950391,0.056880846744723414
2.668490425267347,0.021857622545257693,0.005701540501713787,-0.04577464218374949,0.05104489293233887
2.670977368813728,0.016789814556220306,0.006276228412740448,-0.05605605708606376,0.0588521066059423
2.67346431236011,0.01172269194644715,0.011637566370601427,-0.047166603329397816,0.04997542323116645
2.675951255906491,0.021021467742823208,0.012208742344538503,-0.05741345731262548,0.062347899533878065
2.6784381994528728,0.025532531699413163,0.007989751012271284,-0.06764295625064065,0.07274143129294139
2.6809251429992544,0.02525588682095614,0.0037689904395326046,-0.07785505129788994,0.08193579267111113
2.6834120865456357,0.020191536081675676,0.013911665400226259,-0.08804969426562614,0.09140011610395088
2.6858990300920174,0.02949309570657177,0.004898947532574471,-0.08386162765950367,0.08903153921496107
2.6883859736383986,0.03879535864806505,0.005461251706104342,-0.07007920792022837,0.08028698839510685
2.6908729171847803,0.028944714507929015,0.010810169615282916,-0.06585600210174469,0.07274386075732923
2.693359860731162,0.014306376099843199,0.006580486380928452,-0.06640356130722402,0.06824520607633923
2.695846804277543,0.02361076616818436,0.0023490037922466733,-0.07172184060938847,0.07554474513997113
2.698333747823925,0.023339064263138032,0.012480927025414701,-0.07702239240835596,0.08144282898082178
2.700820691370306,0.023068079787590623,0.0178226380809563,-0.09188197971132972,0.09639544039488905
2.703307634916688,0.03237462211439024,0.01837413230701257,-0.1067237528888505,0.11302957279298897
2.7057945784630695,0.02731667734423493,0.014135405117940536,-0.11197086295448067,0.11611840805724313
2.7082815220094507,0.027047861430718356,0.01947166195508876,-0.10762326820385759,0.11266543518820693
2.7107684655558324,0.026779773696026576,0.02001768840385143,-0.09846933089277421,0.10399073638894353
2.7132554091022136,0.026512416752875523,0.02535028671691908,-0.10366262387622172,0.10996128804088816
2.7157423526485953,0.03103419650456929,0.02589264593133711,-0.1232031073645885,0.12966324124554396
2.7182292961949766,0.02597990554351548,0.026433165110515855,-0.1331487256017425,0.138210892621305
2.7207162397413582,0.025714756354398127,0.026971840062831376,-0.15265305334775192,0.1571358760663287
2.72320318328774,0.030238751431834188,0.027508666661256953,-0.16735084274859346,0.17227133655457852
2.725690126834121,1.1360962535908627,-1.4228425652089833,10.160920711999232,10.322766362672782
2.728177070380503,0.5516481295260587,-1.9155149894288166,13.613063307692352,13.758234114622994
2.730664013926884,-0.032799246286620565,-2.2453835611018254,15.638279958847447,15.798690553280451
2.7331509574732658,-0.5837270482285057,-2.3980830741348256,16.169533054359267,16.356813225481986
2.7356379010196474,-1.0771932573502239,-2.3496715157295203,15.245129855545025,15.462706291524189
2.7381248445660287,-1.4748906447707624,-2.1336677128674166,13.051818126031229,13.307058154151223
2.7406117881124104,-1.767242401560155,-1.7692252825051198,9.896055711831895,10.207116265518293
2.7430987316587916,-1.939883315497149,-1.2707094382148987,6.074723651700218,6.502316294878208
2.7455856752051733,-1.9880249810299002,-0.7051578300290378,1.9900478568214535,2.8999623037015247
2.7480726187515545,-1.906878992635475,-0.11566609131473804,-1.9844761821565609,2.7545801594401267
2.750559562297936,-1.7060221547807153,0.464246951264617,-5.542390621683067,5.8175708528286565
2.753046505844318,-1.4189732885624684,0.9819088578279689,-8.382026022141504,8.557802897624608
2.755533449390699,-1.060097601825549,1.4133776084782106,-10.32142302752845,10.471543176759498
2.758020392937081,-0.6629139157239998,1.725134376741222,-11.250448332257276,11.401233755794387
2.760507336483462,-0.22263382487819727,1.907602352806629,-11.183467117673805,11.347178033700914
2.7629942800298437,0.20328183289899449,1.9320511136453482,-10.17315179229151,10.356986163857176
2.7654812235762254,0.5908910430088685,1.7984806562122784,-8.363154428310775,8.57473246738649
2.7679681671226066,0.9354054041050033,1.554775010727817,-6.01683718154429,6.28447597443306
2.7704551106689883,1.203306094891533,1.2105109809114092,-3.335312965236006,3.7466778576469064
2.7729420542153695,1.3802279073253783,0.7848421771850385,-0.5484251131510831,1.6798144016477303
2.7754289977617512,1.4853244565776147,0.3256526299540532,2.0565222005065067,2.5576399156018232
2.7779159413081325,1.4898653245881999,-0.14311564691640122,4.25926244742346,4.514587176014468
2.780402884854514,1.3938505131910335,-0.5879438328593738,5.935297165100842,6.125050990953003
2.782889828400896,1.226010444113982,-0.9465826873251086,6.974493100410662,7.144415609460029
2.785376771947277,1.000710329096348,-1.21903221286689,7.30502422619899,7.473341932771537
2.7878637154936587,0.717950169888549,-1.4052924119776613,6.941255774491516,7.118379797153058
2.79035065904004,0.4016719848150856,-1.471844463847545,6.007686253096333,6.198383710677051
2.7928376025864217,0.09018300213378194,-1.40432316088771,4.604872152637375,4.815091282230762
2.7953245461328033,-0.21172837316725512,-1.250612538613247,2.857311979758995,3.1261945517537755
2.7978114896791846,-0.48490852616620495,-1.005924195956108,0.9517534836920465,1.4672608699473213
2.8002984332255663,-0.7197806486095013,-0.6846233450695323,-0.905901973630483,1.3444150001225494
2.8027853767719475,-0.9067679322706459,-0.3250172146489736,-2.581579080654074,2.755433690452974
2.805272320318329,-1.0315051656300627,0.04416377331010812,-3.955567736358768,4.088088729775434
2.807759263864711,-1.0700503305546634,0.389400793551137,-4.922523050257011,5.0525116395956955
2.810246207411092,-1.0319802321806204,0.6963286341574735,-5.415407358992886,5.556662094296673
2.812733150957474,-0.9603904989131172,0.9553704865920776,-5.429432242942543,5.595875012699788
2.815220094503855,-0.8265507093797503,1.1186423158133878,-5.00290491293053,5.192649061291254
2.8177070380502367,-0.6448260721175236,1.2005093300026757,-4.212439806907234,4.427377603223227
2.820193981596618,-0.4391586023308519,1.1913947207976658,-3.139439766705239,3.3864972622927048
2.8226809251429996,-0.2047598953290758,1.1056636964957116,-1.908403264600591,2.2150444340513644
2.8251678686893813,0.029639630310009157,0.9337394488502748,-0.6438287734256871,1.1345762889797026
2.8276548122357625,0.25446316926303403,0.6995639929148258,0.5776692666324781,0.942254247167943
2.830141755782144,0.4553455128601619,0.4318677471203327,1.6411691882717996,1.7570673270018407
2.8326286993285255,0.6131330490848662,0.1498043233143127,2.436537726958166,2.516960382297312
2.835115642874907,0.7230373758551759,-0.14662627987968602,2.949409684012979,3.0402795590182876
2.837602586421289,0.7898468977036828,-0.4047516272581193,3.13668944028824,3.259831689887682
2.84008952996767,0.8039848091759157,-0.614994913443432,2.9983770059725643,3.164628728127824
2.8425764735140517,0.7750279180726338,-0.7773561396425122,2.5775680205930183,2.801572369655248
2.845063417060433,0.6886110155671656,-0.8678932904042616,1.9508769463772229,2.243511701372493
2.8475503606068147,0.5734645226897018,-0.8818179635029486,1.1613994217697865,1.5669438714987238
2.850037304153196,0.45353045712440043,-0.8334953699382055,0.2953267145604226,0.9937918673348796
2.8525242476995776,0.276136383404746,-0.7229255106931312,-0.5755151179583624,0.9644118659833076
2.8550111912459593,0.08916633576513322,-0.5501083866953764,-1.3697232123876582,1.478753377375665
2.8574981347923405,-0.06428405490578404,-0.34377441873939674,-2.025048319141468,2.055026516994957
2.859985078338722,-0.21773361086993714,-0.1278656242441003,-2.4983948024458176,2.5111220862503023
2.8624720218851034,-0.3520287178910817,0.10240639934812723,-2.7562438336949473,2.7805199800808675
2.864958965431485,-0.45759256839890416,0.31352282808704635,-2.7890186014108025,2.843644190365784
2.8674459089778668,-0.534425161488912,0.5054836613190186,-2.615872714561111,2.717335835681384
2.869932852524248,-0.5681612863207702,0.6447700752023016,-2.2703249925968096,2.4275319295860474
2.8724197960706297,-0.5683777486807575,0.7218052625509181,-1.795471062128522,2.016871943674791
2.874906739617011,-0.53028614441917,0.7653196427949358,-1.2296181469655636,1.5423612864558496
2.8773936831633926,-0.47304008601268055,0.7513711988946961,-0.6302270847132565,1.088812095730713
2.8798806267097743,-0.3774859594002582,0.670383123824779,-0.059547116811344836,0.771657334167146
2.8823675702561555,-0.25798897378782737,0.5510858371755027,0.43453772474947705,0.7477144807758996
2.884854513802537,-0.14327954836669698,0.4030561453087329,0.8232970207507613,0.9277937645987812
2.8873414573489184,-0.018992472470071964,0.23587085463927693,1.073211948145735,1.098990291004226
2.8898284008953,0.11008385126329034,0.06868357827491955,1.1747056999841394,1.1818499777081828
2.8923153444416814,0.21043060024840238,-0.1080824905461033,1.1277782754527976,1.1523223077189984
2.894802287988063,0.30120138839934774,-0.26090852865048575,0.9515832865186642,1.0316522126559504
2.8972892315344447,0.37760781300454965,-0.37542932609441637,0.6652743446494433,0.8521295634952075
2.899776175080826,0.42528466468766346,-0.45643328616356227,0.2880050608160438,0.687128303733895
2.9022631186272076,0.43944354068900315,-0.4943436021312442,-0.12755213126349219,0.6736139611166329
2.904750062173589,0.4296612481858747,-0.49394867718043733,-0.5383016050047189,0.8475628011136426
2.9072370057199706,0.40072619101143325,-0.45046010780243906,-0.9155129442745995,1.096202417447737
2.9097239492663522,0.34784996633446486,-0.3830315070392709,-1.2256673301084575,1.3304033743789354
2.9122108928127335,0.2710325746204073,-0.2772976646401566,-1.4352459440280754,1.4867022469779525
2.914697836359115,0.1846392262720426,-0.14762379022576333,-1.5586140012426952,1.5764396696952037
2.9171847799054964,0.09824672834841275,-0.017951900007276755,-1.5814062975218874,1.5845568996369057
2.919671723451878,0.0022782746038240154,0.11171800645578855,-1.4988344357559544,1.502993935220464
2.9221586669982593,-0.0936893279494172,0.2365975263332727,-1.349205649195909,1.3729937958566278
2.924645610544641,-0.1657140623613036,0.3423214502039462,-1.146885154967066,1.2083007425379866
2.9271325540910227,-0.2281611382675055,0.41931297201628315,-0.8918729607072393,1.0115919392508765
2.929619497637404,-0.2762421520453916,0.46278368908806655,-0.617687897768409,0.8197663133492288
2.9321064411837856,-0.3003802967750743,0.47752200542669776,-0.3626372012917347,0.6706424741381349
2.934593384730167,-0.30057557220011644,0.46352792176789537,-0.13150928364365555,0.5678895143831756
2.9370803282765485,-0.2959815913681092,0.40643622893491305,0.05175382906315207,0.5054443287270414
2.93956727182293,-0.27223314410714583,0.3301889443617201,0.1632101102531358,0.4580100040588741
2.9420542153693114,-0.2245418269085797,0.23957447224911954,0.20285954949155638,0.38596237718824866
2.944541158915693,-0.15769604292682926,0.12980441020496603,0.1802789425257707,0.2724293008867615
2.9470281024620744,-0.09563780862009919,0.029609179127078722,0.1002566813265151,0.14168520062744927
2.949515046008456,-0.038367123867235176,-0.07537642992237803,-0.027630439269485052,0.0889779947847311
2.9520019895548377,0.023692818071263777,-0.16599880259184596,-0.20338243151820912,0.26359318189274866
2.954488933101219,0.08575361395172326,-0.22789272780305891,-0.39348048488299625,0.46272634426306236
2.9569758766476006,0.13823845718821026,-0.2706350110327387,-0.5596173859548852,0.6368082905439015
2.959462820193982,0.18114734781339636,-0.2942256510704415,-0.7161583582936686,0.795151488410564
2.9619497637403636,0.21448028583806078,-0.2842994366985576,-0.86789181926172,0.9381173554847557
2.964436707286745,0.23344886793091918,-0.2552215765753001,-0.9812989601001867,1.0404730059840654
2.9669236508331265,0.23326469073896922,-0.20699206935214098,-1.0420145857702572,1.0876821822932419
2.969410594379508,0.21871615752823448,-0.13482251031465609,-1.0691923249120254,1.0996299807218077
2.9718975379258894,0.20416847818384204,-0.05307810798429857,-1.058043789998539,1.0788691832588284
2.974384481472271,0.16567963600700103,0.03824113912357019,-0.9894153839741922,1.0039197819316434
2.9768714250186523,0.11282643751981264,0.11998161925720918,-0.8872491400963654,0.9024059123059499
2.979358368565034,0.0647624958637038,0.20172014063152277,-0.7611218820892827,0.7900580455903411
2.9818453121114157,0.021487810877737434,0.25951468826366453,-0.6253988374231998,0.6774461641275964
2.984332255657797,-0.02657442426067269,0.30294207045719457,-0.4992336373122441,0.584563360724645
2.9868191992041786,-0.07463580643419165,0.3367906922394277,-0.40177991339161245,0.5295522380145009
2.98930614275056,-0.10354272258537023,0.33711853875958253,-0.2995188611923094,0.4626894777123476
2.9917930862969415,-0.13723718956037012,0.3278676284135682,-0.2403345331072959,0.42905933827836507
2.9942800298433228,-0.15656559434321227,0.3042495597187691,-0.23380375538171272,0.41442101292248673
2.9967669733897044,-0.1615279372197599,0.2423223179544527,-0.23204251482933813,0.3723642154794324
2.999253916936086,-0.1617010251369837,0.1851815349271213,-0.2781464617600502,0.3712207922489676
3.0017408604824674,-0.1427196484607317,0.1328272126032104,-0.36732721368839627,0.4158620545093938
3.004227804028849,-0.12852582413960512,0.061317336389936195,-0.4421239520113929,0.46449143388753006
3.0067147475752303,-0.10475434257995764,0.004170731580537712,-0.5216903116543836,0.5321199569320098
3.009201691121612,-0.0761936074895001,-0.04818940637257896,-0.625179927943968,0.6316467580957181
3.0116886346679936,-0.03326681263503395,-0.09097467201431231,-0.7190740000823297,0.7255690796646508
3.014175578214375,0.0048724282748132675,-0.11460825652770046,-0.7890073409496186,0.7973025630800393
3.0166625217607566,0.03822411479286242,-0.11909015769512132,-0.8445567804221454,0.8537679450345783
3.019149465307138,0.0667882464521628,-0.10920877657816908,-0.8761455354871952,0.8854480369281978
3.0216364088535195,0.09056482276612099,-0.08496411087727829,-0.8837736301627626,0.8924554423784377
3.0241233523999007,0.10955384322858641,-0.05593296489288013,-0.8722294921749238,0.8808602773128026
3.0266102959462824,0.1141785006733298,-0.017326932924078164,-0.8510899529556628,0.8588894344690925
3.029097239492664,0.11880400451631085,0.0260655841295776,-0.8059898277187045,0.8151155798726674
3.0315841830390453,0.11864195087297064,0.07424458872875306,-0.7512943519807784,0.7642194545944665
3.034071126585427,0.10411553251926658,0.12721008337387296,-0.7013687616373634,0.7203753113651847
3.0365580701318082,0.0848015554933218,0.16580845732356586,-0.632271066398097,0.6591285532718899
3.03904501367819,0.06548842249395398,0.1948281164772876,-0.5775201161906658,0.6130058833777325
3.0415319572245716,0.036599326240175256,0.2286342734141109,-0.5419043413930016,0.5892991234351329
3.044018900770953,0.00771107271343785,0.2337081075488303,-0.5254237694325319,0.5751078834976426
3.0465058443173345,-0.016387935443830548,0.22441483153789488,-0.5232900247839556,0.5696165649633846
3.0489927878637157,-0.03569769892808672,0.21033125475579917,-0.5211379256467019,0.5631148195379487
3.0514797314100974,-0.059795025094958376,0.18188057333386487,-0.5333327105051282,0.5666566580188651
3.053966674956479,-0.0838915113575106,0.15821640336318676,-0.5598744082434877,0.5878176324141914
3.0564536185028603,-0.09362194850651773,0.11060832776941032,-0.5911862414639728,0.6086874760584459
3.058940562049242,-0.08898633731191974,0.06299836603896836,-0.6224798364454305,0.6319560974726809
3.0614275055956233,-0.09392669516332186,0.020174924414302797,-0.6489668198207337,0.6560390116964562
3.063914449142005,-0.09407781290587136,-0.008285187504939007,-0.6945892384964587,0.7009803773631859
3.066401392688386,-0.07986288472295933,-0.03674717668390626,-0.7354051065255884,0.7406410102434398
3.068888336234768,-0.06085871809705956,-0.06999944341063014,-0.7666260515896557,0.7722170735111733
3.0713752797811495,-0.04664212052838079,-0.07452316137438775,-0.7786752983949174,0.7836226191981895
3.073862223327531,-0.037213092894154975,-0.06468353743154776,-0.776341281951364,0.7799195858287536
