Time (s),Acceleration x (m/s^2),Acceleration y (m/s^2),Acceleration z (m/s^2),Absolute acceleration (m/s^2)
0.0,-0.24797018470202992,-0.26290105956336296,-5.647917693846264,5.659468213187736
0.002486943546381497,0.2965311037303985,0.07772890665885557,-4.047446540603108,4.059038799697536
0.004973887092762994,0.8266669678013243,0.36568624805581207,-4.1516501309837714,4.248917923162147
0.007460830639144491,1.2945533868075596,0.6153361687630508,-5.831242281578785,6.00482253012985
0.009947774185525988,1.6762483566517106,0.7979482430381588,-8.827649919235366,9.020750137783521
0.012434717731907486,1.9478098732403621,0.8895804484640388,-12.877511567369918,13.054333412485226
0.014921661278288981,2.0996611424447416,0.9285400057927742,-17.588178859624392,17.737384222415333
0.01740860482467048,2.1413789834207537,0.886096489297334,-22.514330992975733,22.633289000943915
0.019895548371051976,2.063386602046206,0.781403506459196,-27.28726161736877,27.37631827481806
0.022382491917433474,1.8992028340845977,0.6096726481637833,-31.55262959253666,31.615614913310388
0.02486943546381497,1.639250885419215,0.3900575219037221,-35.00397781122754,35.044510995941316
0.02735637901019647,1.312261188498172,0.1512885418180301,-37.42582882907181,37.449133250219646
0.029843322556577963,0.9613293857325677,-0.10184589454994963,-38.69847326788692,38.71054585044582
0.032330266102959464,0.586455489652462,-0.33582696972897974,-38.79796981566192,38.803855112758505
0.03481720964934096,0.2259467393519139,-0.5602314961244828,-37.781780016581095,37.786608904208386
0.03730415319572246,-0.091466432714425,-0.7511174628934234,-35.80792188428967,35.81591564127278
0.03979109674210395,-0.3562072073722057,-0.8893312625066785,-33.07750906203464,33.091379533317124
0.04227804028848545,-0.5539103621260965,-0.9844497073504761,-29.844327629289943,29.8656968704896
0.04476498383486695,-0.6702106744803753,-1.0221075932028345,-26.362163665217572,26.390482363761144
0.04725192738124844,-0.7146849385407621,-0.9879397158349992,-22.903956861933466,22.936391158523833
0.04973887092762994,-0.6777563351318879,-0.9106765008941278,-19.752223717851443,19.784818097196275
0.05222581447401144,-0.5642132550397568,-0.7951063574187909,-17.093712664620973,17.121493608251406
0.05471275802039294,-0.3932092990120202,-0.6364408877997842,-15.096018520236832,15.114544178367614
0.05719970156677443,-0.17910966447700638,-0.4634105176628167,-13.874063665781541,13.88295617589961
0.059686645113155926,0.054143644495070364,-0.28080365602464097,-13.461367625488162,13.464404946970989
0.062173588659537427,0.3017622371137072,-0.09340871189448885,-13.829200680006252,13.832807997044238
0.06466053220591893,0.5445925126256479,0.07004388912448434,-14.886583866386555,14.896706560920506
0.06714747575230041,0.7586924669552335,0.204765738038454,-16.504230994667353,16.52292903792265
0.06963441929868192,0.9440621126260053,0.31075682918179615,-18.519337051179544,18.54598791907755
0.07212136284506342,1.0815478488776102,0.3736519469359574,-20.73557819853137,20.767127022153794
0.07460830639144492,1.1711496882280321,0.4030278922920756,-22.98057261543701,23.013924932691843
0.0770952499378264,1.1985024332311263,0.3845194496479811,-25.07236167345918,25.1039356112615
0.0795821934842079,1.173182903038846,0.32291501669112277,-26.862505566876845,26.89005090293577
0.0820691370305894,1.1095563201197178,0.2421566043986929,-28.216929699388768,28.239774728365298
0.0845560805769709,0.9884690836960665,0.12787899719399665,-29.059020313981296,29.076108504676547
0.0870430241233524,0.8434400295093682,0.004024206071567615,-29.37920129955388,29.39130613425204
0.0895299676697339,0.6840459766949756,-0.13419617788708615,-29.158319737779017,29.1666511180654
0.0920169112161154,0.505498534422463,-0.2676285469899291,-28.425106742930954,28.4308608233111
0.09450385476249688,0.3221629251375704,-0.38669610017645084,-27.26575426851147,27.270399312351042
0.09699079830887838,0.17234638788219347,-0.4866104396972628,-25.828703510554995,25.833861849007288
0.09947774185525989,0.04647212848946136,-0.5721599744342742,-24.22408843788728,24.230889115788862
0.10196468540164137,-0.050671437252486684,-0.6337679032990127,-22.53810100207138,22.547066907457744
0.10445162894802287,-0.11908429688202216,-0.6570690218731392,-20.92875920379899,20.93940979540422
0.10693857249440437,-0.14440122798304844,-0.646851739009894,-19.520562219828832,19.531810419546673
0.10942551604078588,-0.13619902474777068,-0.6079044635527229,-18.385336789690484,18.395888314552682
0.11191245958716736,-0.09926607805509302,-0.549804007655482,-17.570967635591536,17.57984760605426
0.11439940313354886,-0.04317918211151073,-0.47255037682138035,-17.115762672363743,17.12233921393575
0.11688634667993036,0.060792095431425275,-0.3809319798638069,-17.043664604128033,17.048029445955233
0.11937329022631185,0.17912894375028154,-0.2797372255859001,-17.335520504357884,17.33870269803598
0.12186023377269335,0.28788935865416176,-0.17854292610074518,-17.92908181586476,17.93228185756791
0.12434717731907485,0.396650159185994,-0.08692589351095492,-18.733369560744386,18.737769946265463
0.12683412086545634,0.5101997610597642,-9.772994761458875e-05,-19.695711986846582,19.70231901260734
0.12932106441183785,0.5998077567383798,0.0723647525079536,-20.7203417113154,20.729147754698594
0.13180800795821934,0.6702625619177643,0.11130793514461468,-21.697126140496437,21.707761840294555
0.13429495150460083,0.7167757856437889,0.13588542582465557,-22.55902830976619,22.570821665519162
0.13678189505098234,0.7393474402729385,0.1365204124995234,-23.267741673556692,23.279885632189732
0.13926883859736383,0.737977538151733,0.11321288977243515,-23.756229265497282,23.767958619117813
0.14175578214374532,0.7078776882961492,0.07075125557817197,-23.98139613492378,23.991945672285325
0.14424272569012683,0.6634131129929178,0.013923907862881446,-23.97197338006726,23.981155488598844
0.14672966923650832,0.6045838245570712,-0.05248075541581132,-23.71838487167262,23.72614711139155
0.14921661278288983,0.5361782386129286,-0.11888593296838623,-23.2397848994687,23.24627331729095
0.15170355632927132,0.4534079641328958,-0.18529163013425576,-22.593634978794718,22.598943632947826
0.1541904998756528,0.3658498200387643,-0.25169785224103425,-21.827819817383038,21.832336473217538
0.15667744342203432,0.29265743188113225,-0.3133162012841235,-21.014166138587164,21.018539290696815
0.1591643869684158,0.23383081191727717,-0.36056987592659295,-20.210135454805283,20.214704118181032
0.1616513305147973,0.17979316575150783,-0.3838820748193994,-19.468400874106703,19.473015267922356
0.1641382740611788,0.14490971557709886,-0.4024064165231489,-18.827270293577413,18.832127772961563
0.1666252176075603,0.12918047361352591,-0.4161429063048674,-18.334628415907616,18.33980538780709
0.1691121611539418,0.12781704874683286,-0.4155147427785213,-18.004841119495033,18.01008865712981
0.1715991047003233,0.1456078564903095,-0.3861567212252277,-17.837909071712325,17.84268249764861
0.1740860482467048,0.17297610238267058,-0.33764565351502407,-17.848198148815143,17.852229622058456
0.1765729917930863,0.20034499194873778,-0.2939235614661362,-17.9926133861237,17.996129184863662
0.1790599353394678,0.2468681506210475,-0.24541364364176488,-18.25679023777458,18.260108475208405
0.18154687888584928,0.2886035739349293,-0.18732750191246428,-18.626364156785414,18.62954173663542
0.1840338224322308,0.3399164839735339,-0.13403035141699737,-19.039086561837877,19.042592377623734
0.18652076597861228,0.3864416828832241,-0.08552219732003286,-19.471016097029928,19.475038358660623
0.18900770952499377,0.42817918275612205,-0.03701464145267375,-19.893423001979386,19.89806488661423
0.19149465307137528,0.46512899566892124,-0.007661302234232892,-20.234481885247963,20.239828577401337
0.19398159661775677,0.482925923721694,-0.002250588109637519,-20.460674580773116,20.466373074222126
0.19646854016413826,0.4863583822798279,0.003159512411610166,-20.600732164456268,20.606472773626145
0.19895548371051977,0.4802147866925221,0.013357397552405725,-20.63071327446196,20.636305746777655
0.20144242725690126,0.4692835522925382,-0.009964164333421177,-20.521888144407704,20.52725552402475
0.20392937080328274,0.4583530943959477,-0.047651565034447785,-20.30298784651481,20.308216901700668
0.20641631434966426,0.4282698117003229,-0.07097438968469083,-20.002743451751478,20.00745356091553
0.20890325789604575,0.40297573276885823,-0.10866306324787667,-19.649886029819626,19.654318051955286
0.21139020144242726,0.37768246622543683,-0.15114078411110432,-19.253993035860603,19.258290043689872
0.21387714498880875,0.33323641071532273,-0.16967713736599688,-18.829430327043717,18.83314321289372
0.21636408853519024,0.2983679980689735,-0.1834257412929845,-18.404928969193865,18.40826115704338
0.21885103208157175,0.2730772401767946,-0.2259054241190177,-18.023585236778615,18.02706934660132
0.22133797562795324,0.2525757455904595,-0.2492321576112282,-17.709341789653152,17.712896369549608
0.22382491917433472,0.22728671952266166,-0.24861754340496223,-17.466987673047456,17.47023549658538
0.22631186272071624,0.2115753837687483,-0.2384267964021234,-17.315677140795742,17.318610981384612
0.22879880626709773,0.2150185567846019,-0.24260193813045694,-17.25062242876124,17.253668098692135
0.2312857498134792,0.2184626370848355,-0.23241255357939394,-17.252670561464164,17.255618882592287
0.23377269335986073,0.23148444308630134,-0.20307024432496812,-17.302668562030064,17.305408459177862
0.23625963690624222,0.24450717990472626,-0.1928822418109677,-17.41019387209913,17.4129790094719
0.2387465804526237,0.2671076659169709,-0.16354132434104462,-17.560881915290274,17.56367461303949
0.24123352399900522,0.2897091061982928,-0.12941270672705318,-17.711637693868354,17.714479637114238
0.2437204675453867,0.31709991576429264,-0.11922681372646471,-17.862461838536497,17.865674079722314
0.24620741109176822,0.3397032996488065,-0.09946482691728376,-18.00856657522067,18.012044905499796
0.2486943546381497,0.3623076728255402,-0.07970355774482529,-18.12122211177614,18.125018905679244
0.2511812981845312,0.3801246436062756,-0.06951981763882387,-18.162121847936255,18.16623234930691
0.2536682417309127,0.3883658202812582,-0.059336804732091686,-18.16478523174556,18.169033308962813
0.2561551852772942,0.3918196177595906,-0.05873133042293954,-18.12442448318052,18.128754365056302
0.2586421288236757,0.3904860476080625,-0.06770339945321258,-18.017098207418734,18.021456403949305
0.26112907237005717,0.3987303313321677,-0.08146461322852439,-17.86674904131135,17.87138337302216
0.2636160159164387,0.3926104638524368,-0.10001497645879542,-17.678166006886773,17.682808016231174
0.2661029594628202,0.3721264566682676,-0.1185660905175463,-17.45134972129971,17.455719495703423
0.26858990300920166,0.34685512789675943,-0.14669476672306647,-17.210242816741268,17.214362771985684
0.2710768465555832,0.3311616989521748,-0.1604589931352054,-16.973999520505302,16.977987951504886
0.2735637901019647,0.31068097130352024,-0.1742239843599811,-16.75698565497676,16.760771011613794
0.27605073364834615,0.29020135967744887,-0.18798974502606036,-16.5544134276591,16.558024064098152
0.27853767719472766,0.2697228754564729,-0.21133308638624326,-16.38543706104555,16.389019488194865
0.2810246207411092,0.2636107399599854,-0.22510039975488239,-16.254845566045113,16.25854129951911
0.28351156428749064,0.2574997545612273,-0.2292916897109296,-16.148274338650793,16.15195483274075
0.28599850783387215,0.25138993056987646,-0.23827217077754614,-16.084877596451697,16.088606459771235
0.28848545138025367,0.24528127927088783,-0.24725344417983797,-16.069444345418525,16.073218058065503
0.2909723949266352,0.23917381192427423,-0.2418703044854018,-16.068456363290785,16.072056348068294
0.29345933847301664,0.24264434640551125,-0.23169956284643822,-16.101067862651533,16.104562933652556
0.29594628201939815,0.25569289392406747,-0.22631803039811116,-16.138549021189704,16.142161045418597
0.29843322556577967,0.2495890457419403,-0.220937308297537,-16.161746821532763,16.165183831595495
0.30092016911216113,0.24348642629843686,-0.19640378772371347,-16.180238664516956,16.18326244390646
0.30340711265854264,0.26132706332714495,-0.17665948972119372,-16.189236739293527,16.192309489699948
0.30589405620492416,0.2695921446916594,-0.16649282203595117,-16.179164829958474,16.18226728178824
0.3083809997513056,0.2730700847916153,-0.15153857911530855,-16.15002352550264,16.153042781050793
0.31086794329768713,0.2957029112812267,-0.12221995870942637,-16.12575542976192,16.12892947813162
0.31335488684406865,0.2991834086237616,-0.11205578843373543,-16.08720751492219,16.09037951199058
0.3158418303904501,0.3122420077397683,-0.1018924593626136,-15.986496331469604,15.989869983860514
0.3183287739368316,0.3157251063193681,-0.08694157251369505,-15.86671809118784,15.87009716936286
0.32081571748321314,0.3144211186267317,-0.06720313220716845,-15.737450180819462,15.740734261609
0.3233026610295946,0.31311845889831025,-0.07140756266727832,-15.589116372016433,15.592424169114299
0.3257896045759761,0.3070287347020043,-0.08518965821756153,-15.450447661173484,15.453732780544032
0.3282765481223576,0.30094036021820864,-0.09418421316359682,-15.297502606331888,15.300752326508276
0.3307634916687391,0.2996417495989821,-0.10796803839450231,-15.14943539357546,15.15278307835014
0.3332504352151206,0.2887677036865953,-0.12175273482036708,-15.030188610457875,15.033455363989555
0.3357373787615021,0.2731066365758277,-0.14032670997374597,-14.92060921278945,14.923768227269253
0.3382243223078836,0.271812172293454,-0.13974795144709917,-14.82548617111149,14.828636200162123
0.3407112658542651,0.26573070827460665,-0.15353528665835015,-14.749608454084697,14.752800935496152
0.3431982094006466,0.2596506585266384,-0.15774670316332262,-14.697765028479283,14.700904710908809
0.34568515294702806,0.24878363038673768,-0.1619590117416143,-14.655591245883851,14.658597435725564
0.3481720964934096,0.24749484444360648,-0.1661722165137225,-14.603934052656571,14.606976303051546
0.3506590400397911,0.24620750465445185,-0.16080951494098228,-14.576312829759228,14.57927891037301
0.3531459835861726,0.24492162158697917,-0.15544771774738075,-14.56793972966161,14.57082765530932
0.35563292713255407,0.2532140124191963,-0.14529842567731022,-14.54529648297255,14.548225965600182
0.3581198706789356,0.2567194776970375,-0.1351500460970687,-14.53232565819604,14.535221342004121
0.3606068142253171,0.25064962457635753,-0.1250025830338637,-14.519450998635845,14.522152326079384
0.36309375777169856,0.2589464801039896,-0.1148560404960679,-14.473154229026747,14.475926171640676
0.36558070131808007,0.2576680380925612,-0.10471042247315365,-14.417377911970556,14.420060434929026
0.3680676448644616,0.25639111556561367,-0.08977732961533569,-14.347334188161218,14.3499057376637
0.37055458841084304,0.2551157228746045,-0.08442197583506461,-14.272600406258467,14.275129892886827
0.37304153195722456,0.25863027365965796,-0.07906755842416446,-14.174023492995902,14.176603375888323
0.3755284755036061,0.2525695682478202,-0.08329088793658901,-14.075546002976635,14.078058248236141
0.37801541904998753,0.24651042353568497,-0.08272675830555576,-13.991533682140878,13.993949617028573
0.38050236259636905,0.24524125306733802,-0.0869519800466163,-13.88846824119457,13.890905442256464
0.38298930614275056,0.2296084537529265,-0.09596655701541579,-13.766350212045834,13.768599339903625
0.385476249689132,0.22355405235285164,-0.10498208972795098,-13.649122141155575,13.651356448268075
0.38796319323551354,0.22228965567290448,-0.10921017868083105,-13.546361362966273,13.548625233956844
0.39045013678189505,0.2210268704859617,-0.11822763431216066,-13.47243361317463,13.474765234036157
0.3929370803282765,0.2197657068521217,-0.13203446039992883,-13.393820592199551,13.396274113374586
0.395424023874658,0.22329457811852893,-0.13626545074164698,-13.324888031579915,13.32745548842031
0.39791096742103954,0.2268250909582612,-0.14049741571679908,-13.270424854122371,13.273106831281819
0.400397910967421,0.22556885201078247,-0.14951876236491612,-13.20648956061175,13.209262041531456
0.4028848545138025,0.21473746788177106,-0.1441758811042786,-13.137871069646547,13.140416854402305
0.40537179806018403,0.20390775510388504,-0.13404558225530394,-13.083723507669765,13.0859989078352
0.4078587416065655,0.21702174013659148,-0.14785828939987722,-13.0488357890389,13.051477922394024
0.410345685152947,0.21577220624100157,-0.14730677961567817,-13.014054809377226,13.016676976624309
0.4128326286993285,0.21452437316719908,-0.1323910565230113,-12.97938107544858,12.981828885031677
0.41531957224571003,0.21806665399001357,-0.13662994696445052,-12.949603495188509,12.95216010905472
0.4178065157920915,0.2359758650697903,-0.14086984123916713,-12.895992151133886,12.898920206093724
0.420293459338473,0.23473319284910577,-0.14511074290757398,-12.832912753540159,12.835879655851638
0.4227804028848545,0.2334922602588504,-0.14456425218971836,-12.769942607170451,12.772895194474868
0.425267346431236,0.23704148023369342,-0.1440187759261775,-12.687928594686378,12.690959857119985
0.4277542899776175,0.23101565239161148,-0.14347431761707696,-12.591659613163873,12.59459586192617
0.430241233523999,0.22499159291654058,-0.14293088074236504,-12.500289767445066,12.503131396719974
0.43272817707038047,0.2333345212769663,-0.13760006544145797,-12.428184756849566,12.431136517922122
0.435215120616762,0.2321024303429593,-0.13227027847413497,-12.356191455245204,12.359079020841857
0.4377020641631435,0.2212953295500769,-0.12215311993925004,-12.279521944243891,12.282123276810033
0.44018900770952496,0.22485524489921072,-0.11203699655594335,-12.19338830323344,12.195975995515326
0.4426759512559065,0.2284169757923723,-0.10192191170266307,-12.136098239253192,12.138675498740366
0.445162894802288,0.22719212823566515,-0.09659627205775623,-12.059768197338478,12.062294809713626
0.44764983834866945,0.22596911483913396,-0.09606008095880592,-11.997917476724549,12.00042971556883
0.45013678189505096,0.2199595415353659,-0.0955249384025958,-11.931392937870879,11.933802606530927
0.4526237254414325,0.21874022418090389,-0.09020244436538372,-11.864983455579274,11.86734242228706
0.45511066898781394,0.2270995752748498,-0.08488100544349297,-11.79868949906519,11.80118014850745
0.45759761253419545,0.22109558735715595,-0.08913743153296538,-11.722934728630658,11.725358305492582
0.46008455608057697,0.21509347949285462,-0.098183322548274,-11.661661625540443,11.664058343404731
0.4625714996269584,0.21388166406878928,-0.10244187506291969,-11.595717038890452,11.598141805910359
0.46505844317333994,0.21267174679347323,-0.1019130922703324,-11.520313025444956,11.522726576400961
0.46754538671972146,0.20188693001726177,-0.09659697734321604,-11.43066163966918,11.432852436253524
0.4700323302661029,0.1958924326540854,-0.10085874339445278,-11.360282160285424,11.362418628645466
0.47251927381248443,0.1994766669391247,-0.10033318359426291,-11.304386637141729,11.306591658425264
0.47500621735886595,0.18869762514742416,-0.09980870437329381,-11.234245101166588,11.236273028201586
0.4774931609052474,0.1922857360390654,-0.09449690550071921,-11.173800017487771,11.17585389579888
0.4799801044516289,0.1958757984527848,-0.08918619336545763,-11.127840235621512,11.129921375060274
0.48246704799801043,0.18989101450896206,-0.0934533776558335,-11.082000989466477,11.084021745816024
0.48495399154439195,0.1886966028907393,-0.097721654757986,-11.02191751057907,11.023965780959259
0.4874409350907734,0.18271576564076553,-0.09720262435740246,-10.952378641448787,10.95433390521118
0.4899278786371549,0.18152531804387784,-0.09668469275920533,-10.887750028851778,10.889692376815185
0.49241482218353644,0.18033686538478588,-0.0865910562865646,-10.832820510563854,10.834667489597388
0.4949017657299179,0.17436201290888154,-0.0764985245228571,-10.773225308714178,10.77490778095662
0.4973887092762994,0.1779659791033611,-0.08556071367102103,-10.704176449701519,10.705997664476989
0.4998756528226809,0.17678356249397742,-0.08504720670977628,-10.659193184110629,10.66099830182557
0.5023625963690624,0.18517998148866355,-0.089323216479543,-10.604757113659868,10.606749912308953
0.5048495399154439,0.1744248245727268,-0.09360034251835625,-10.531291854281742,10.533152100088927
0.5073364834618254,0.17324852003528513,-0.09309018434309202,-10.457951439437911,10.459800626290969
0.5098234270082069,0.17686267288321222,-0.09736955141038273,-10.38952469023112,10.391486155672021
0.5123103705545884,0.17569048476289306,-0.1016500431947196,-10.316435215400007,10.318431830043899
0.5147973141009698,0.18888557720229315,-0.10593166246968666,-10.233895024595252,10.236186138050837
0.5172842576473514,0.1829291351655299,-0.10542600866730956,-10.1706349482964,10.172826203337204
0.5197712011937329,0.1817631834199449,-0.11449829447960225,-10.102713378041269,10.104997046666552
0.5222581447401143,0.19017613341099038,-0.11878331265542252,-10.039707526186685,10.042211093601553
0.5247450882864959,0.1985911865824283,-0.103915855922327,-9.991194602661444,9.993708348393577
0.5272320318328774,0.2070083509777818,-0.10341475018968183,-9.947598201680318,9.950289294789616
0.5297189753792588,0.1914856179980381,-0.09333798150176964,-9.875399898419046,9.87769719491268
0.5322059189256404,0.18554181884685084,-0.09762756908464709,-9.798542105455045,9.800784881893987
0.5346928624720219,0.18917696144449614,-0.11149511222112984,-9.745755636239418,9.74822917273096
0.5371798060184033,0.19281424702932765,-0.1014217902507748,-9.683522058608096,9.685972494950867
0.5396667495647849,0.19166528011860845,-0.10571483229642942,-9.611841761183694,9.614333739131654
0.5421536931111663,0.19051847182871967,-0.10522062761577944,-9.559445550050851,9.561922813585708
0.5446406366575478,0.18937382991412105,-0.09515077540602501,-9.502391792306673,9.5047549096236
0.5471275802039294,0.17865455544693654,-0.09465889144449235,-9.43589246586121,9.438058295179564
0.5496145237503108,0.1823026726996666,-0.09416817156518142,-9.379101562753641,9.381345747463802
0.5521014672966923,0.18595297934040173,-0.09846702154156972,-9.327231055945113,9.329604141433002
0.5545884108430739,0.18481707963584965,-0.0931902338444095,-9.265916109275686,9.26822761463829
0.5570753543894553,0.17889498113092617,-0.09270302084484383,-9.209522304022924,9.211726132090734
0.5595622979358368,0.1873403046095981,-0.08742857829095829,-9.153261605694892,9.155596002900163
0.5620492414822184,0.18142263761041372,-0.07736690854996109,-9.097134380627965,9.09927215502314
0.5645361850285998,0.1755071975123469,-0.07688322392848645,-9.026775782701867,9.028809159444737
0.5670231285749813,0.17917079833158162,-0.07161231678977265,-8.961339786539153,8.963416830020813
0.5695100721213628,0.1780482374401709,-0.06634259275677579,-8.89603834765789,8.898067250671293
0.5719970156677443,0.16735111880813602,-0.06586245743091546,-8.82608341906973,8.827915539958616
0.5744839592141259,0.17102146628462878,-0.06538350975144214,-8.765840564557726,8.767752514100934
0.5769709027605073,0.16511727047284463,-0.06969415527668188,-8.700944925469859,8.70279056305205
0.5794578463068888,0.15442694185493722,-0.0596407829418415,-8.631396850598566,8.63298420570103
0.5819447898532704,0.16289250415131096,-0.05437700822306901,-8.58113870281812,8.582856882410134
0.5844317333996518,0.16178354451584953,-0.05869123661400577,-8.526228809276814,8.527965541949223
0.5869186769460333,0.1415232633405218,-0.053429856985164115,-8.471455914518875,8.47280643561039
0.5894056204924149,0.13563049085686374,-0.052958081427669335,-8.426397163879903,8.427655032800159
0.5918925640387963,0.13931683069058598,-0.05248750872981889,-8.362322473601086,8.36364760558335
0.5943795075851778,0.1334286764630609,-0.05680654429895604,-8.284020580631026,8.285289806367444
0.5968664511315593,0.12754284167405627,-0.05633838355990717,-8.229799042622934,8.230980103965857
0.5993533946779408,0.1264477364594736,-0.06065983519716589,-8.170927768205326,8.172131254384668
0.6018403382243223,0.1301433675912741,-0.06977090123301632,-8.11219548670592,8.113539356490408
0.6043272817707038,0.11468772519615544,-0.0788831803478467,-8.058390924906837,8.059593049842736
0.6068142253170853,0.10881123588048136,-0.08799667452077253,-8.009514403721784,8.010736812753699
0.6093011688634667,0.11251390628489655,-0.08753457906870388,-7.9607778381935805,7.962054098705577
0.6117881124098483,0.10664212972488496,-0.08228529924790617,-7.897816334171443,7.898964885515686
0.6142750559562298,0.043311879550076315,0.24857418548818533,4.868638593917915,4.875172489542117
0.6167619995026112,0.31996063785511664,0.5746440441452152,4.888222987916276,4.932272758763585
0.6192489430489928,0.543939338838978,0.8480402416488384,3.8925246744517636,4.020794771809202
0.6217358865953743,0.7296131988830197,1.0304555495869065,1.9533693977534234,2.325903279102194
0.6242228301417557,0.8817706276837366,1.1266783694516507,-0.6610925592529036,1.5760605825714806
0.6267097736881373,0.9573160016901983,1.1319202961162422,-3.687499314395758,3.9743362562220597
0.6291967172345188,0.975402940471176,1.0366045211550938,-6.896007806177986,7.041369433031242
0.6316836607809002,0.9264546436291465,0.8646730594063605,-9.975372114087396,10.055547052292958
0.6341706043272818,0.8296247306439823,0.6400679257297446,-12.68617236484496,12.72937286019229
0.6366575478736632,0.6897016109900843,0.3675775217252366,-14.836872715801537,14.857442361711389
0.6391444914200447,0.5306273073785129,0.08072066893623742,-16.259879338334642,16.268735576649192
0.6416314349664263,0.3524018258741212,-0.20613742435357585,-16.854636047729674,16.859579946903395
0.6441183785128077,0.1502367691767516,-0.4786315498390059,-16.635508336381495,16.643070535725435
0.6466053220591892,-0.023195420214753404,-0.6984544825917822,-15.650380517347688,15.665975457326223
0.6490922656055708,-0.17747154301041412,-0.8656062242246361,-14.00938614426905,14.03722445582575
0.6515792091519522,-0.3125915933244763,-0.97050996968818,-11.870542801407288,11.914251529387974
0.6540661526983337,-0.40461354871452093,-0.9988005105912319,-9.43496370032346,9.49630741973858
0.6565530962447153,-0.44874900006432517,-0.9648430584430119,-6.908550453314302,6.990019110022063
0.6590400397910967,-0.454574748263595,-0.8638492114500307,-4.511569880051702,4.615965385969817
0.6615269833374782,-0.43166759424707135,-0.705395777758286,-2.4307699743785527,2.5675986414435146
0.6640139268838597,-0.36087391907270006,-0.5038479688126523,-0.8145915009874027,1.0235487651423525
0.6665008704302412,-0.26613573372636035,-0.297513012638142,0.2699276344632757,0.48187461989819635
0.6689878139766227,-0.15702983927815717,-0.07681410403523081,0.7318075123030923,0.7523968448004681
0.6714747575230042,-0.033556230202772874,0.12472993233419105,0.5710478785380282,0.5854735315864381
0.6739617010693857,0.10428509897986915,0.28796548179055437,-0.14531387175038368,0.33899206759922
0.6764486446157671,0.22297533046237922,0.4320461562381621,-1.3454519375684573,1.4306022492019554
0.6789355881621487,0.3273028729545529,0.5473951476807954,-2.904868078806601,2.974059040035745
0.6814225317085302,0.40290252183958575,0.6004936315420135,-4.655968422879422,4.711789999403359
0.6839094752549116,0.459351089056852,0.5865532031885747,-6.464677917850242,6.50746560995362
0.6863964188012932,0.5158021931409348,0.5390926845710422,-8.168191089266603,8.202195955704871
0.6888833623476747,0.5147949994559687,0.4485352677784613,-9.603702460081804,9.627943639203922
0.6913703058940561,0.4659063198049851,0.3340345648430221,-10.685021003779596,10.700388854642396
0.6938572494404377,0.4218085958283201,0.19559057453692086,-11.349897707850543,11.359417068803898
0.6963441929868192,0.3633482193160872,0.047568505614527634,-11.531295153869978,11.537116304210157
0.6988311365332006,0.2761599853331498,-0.10045483646888043,-11.229213567302573,11.233058036517098
0.7013180800795822,0.18897431878159626,-0.23890264623682844,-10.520267624142935,10.524676558029133
0.7038050236259636,0.10179122459602707,-0.35340971487134665,-9.476283594470328,9.483417666790686
0.7062919671723452,0.014610707665403955,-0.4391876401739374,-8.169087745769001,8.180898108040052
0.7087789107187267,-0.05820201720601914,-0.49623642324526474,-6.727967182772414,6.746493939449191
0.7112658542651081,-0.11664694522062424,-0.5054024518836422,-5.286997410939382,5.312379859486615
0.7137527978114897,-0.17030087826710605,-0.4858393404287713,-3.9371583032518007,3.9706747233576576
0.7162397413578712,-0.19043339171737694,-0.44712389655866813,-2.7837949400586677,2.8258978969260427
0.7187266849042526,-0.19619809419221435,-0.3701025080084097,-1.922675592474496,1.9677781868127124
0.7212136284506342,-0.1875949810768931,-0.2691403857342376,-1.372954075895903,1.4116059360450377
0.7237005719970157,-0.15025883784152516,-0.15860274067140523,-1.2016682363300095,1.221367716088174
0.7261875155433971,-0.10334327324418191,-0.043277977093531206,-1.394453060746601,1.398946801723244
0.7286744590897787,-0.03727147616685733,0.0624686941060828,-1.8890595003210606,1.8904595463622678
0.7311614026361601,0.028802944540762487,0.14906046537536755,-2.6376037135989243,2.6419693378127946
0.7336483461825416,0.0853031866238173,0.23086254578474996,-3.573048243254826,3.58151474900227
0.7361352897289232,0.14659446438317242,0.2791445145427094,-4.580471596171122,4.59131044913296
0.7386222332753046,0.19352316883166515,0.29869477412077083,-5.578471099884069,5.589813019878526
0.7411091768216861,0.24524291749880234,0.2990901303316065,-6.485644079342979,6.497166930175163
0.7435961203680677,0.2873885046260461,0.2755421790477457,-7.230164663551437,7.24111847072629
0.7460830639144491,0.30080632108869115,0.2232625161625026,-7.749783785568466,7.758832342368923
0.7485700074608306,0.29507317763805224,0.15661635087117443,-8.02055960243175,8.027513512768556
0.7510569510072121,0.2797658849795793,0.08039208574916001,-8.023338671916356,8.028617270870372
0.7535438945535936,0.25009604381192174,0.00416652671285922,-7.75333275917675,7.757366451676663
0.7560308380999751,0.2108520614284905,-0.0864255369022322,-7.263214466630896,7.266788310767957
0.7585177816463566,0.17161074839714457,-0.15786528253686472,-6.61044479743817,6.61455607855684
0.7610047251927381,0.12758370527894358,-0.21972951749399927,-5.809389122297656,5.814942874782278
0.7634916687391196,0.09313614587033692,-0.26244143577477663,-4.946238859137134,4.954071931302303
0.7659786122855011,0.05869126732035512,-0.27163582803948794,-4.107185423309936,4.1165765861191
0.7684655558318826,0.02424907337280191,-0.2760431148107285,-3.3640550176355983,3.3754487080198823
0.770952499378264,-0.01019043227436478,-0.2708748933484304,-2.7360014058390316,2.7493964329484424
0.7734394429246456,-0.044627245969026674,-0.25134276089208374,-2.2613319623569073,2.275694843012256
0.7759263864710271,-0.05511934750333414,-0.2126583146607688,-1.9927192690191315,2.0047922052880427
0.7784133300174085,-0.051243539957447126,-0.1548215551735015,-1.9349518718865983,1.9418121332536684
0.7809002735637901,-0.04257662645733784,-0.10177449953051632,-2.073664701174959,2.076597243274248
0.7833872171101716,-0.029118603534154297,-0.04872874488986323,-2.38491587789718,2.3855913581953634
0.785874160656553,-0.01565787108514638,0.013892514930998523,-2.8399751171858654,2.8400522595777877
0.7883611042029346,0.0073823809075980185,0.05735885957234865,-3.3670165017327935,3.367513127110308
0.790848047749316,0.03042534913497963,0.08645869193686195,-3.9277329349160564,3.9288022112732675
0.7933349912956975,0.058259440203090596,0.10598041494738197,-4.479028914239704,4.480661337941141
0.7958219348420791,0.08609625403166804,0.11592402822657188,-4.9538669180547235,4.95597098327619
0.7983088783884605,0.10435898717442416,0.11150112809688295,-5.342670262006623,5.344852554402307
0.800795821934842,0.12262444942062767,0.08313490758051323,-5.57840141935025,5.5803683179395085
0.8032827654812236,0.12173903059199809,0.059555786282185164,-5.6658489106006416,5.667469555366279
0.805769709027605,0.14000996030835156,0.026398553943796088,-5.585859237129205,5.587676000776847
0.8082566525739865,0.14391841833918462,-0.01633678971187047,-5.362374527650612,5.364330338134619
0.8107435961203681,0.12867600433025994,-0.05907343830149392,-5.0193369083425186,5.021333506614811
0.8132305396667495,0.11343633448331658,-0.09702298874219784,-4.575900099527873,4.578334083832751
0.815717483213131,0.10298781499359533,-0.12539703793127233,-4.0895250455603875,4.092743090571992
0.8182044267595125,0.08296523872955103,-0.15377239270715348,-3.593730671663204,3.5979757253279514
0.820691370305894,0.053368608475067525,-0.172572246607277,-3.1172474972128974,3.122476796959382
0.8231783138522755,0.03335154024979747,-0.1770081964696799,-2.707959652343865,2.7139435708166055
0.825665257398657,0.013337230106066023,-0.19102225903460557,-2.3658672314668348,2.3736038300613966
0.8281522009450385,-0.016251125949224288,-0.1858840144992282,-2.11491234307646,2.1231276892448387
0.8306391444914201,-0.012317895431125825,-0.16638186628332274,-1.9934023031137098,2.0003718149471155
0.8331260880378015,-0.022747108985986086,-0.15645783106836753,-1.972606778523545,1.9789325371388677
0.835613031584183,-0.03796195746173292,-0.13695829563352424,-2.052525853664287,2.0574404158851056
0.8380999751305646,-0.034020421790648125,-0.10788326001974369,-2.2379480137091843,2.2408051006181204
0.840586918676946,-0.0300761128330862,-0.07402112756887691,-2.4905661114464266,2.4918473579605736
0.8430738622233275,-0.016552221572748382,-0.04494870492370451,-2.7912266104465715,2.791637575506242
0.845560805769709,-0.007813955640086023,-0.020665992067053995,-3.0968339551829303,3.0969127671125665
0.8480477493160905,-0.0038613127497625355,-0.01074979560309064,-3.3882346042380185,3.388253857254149
0.850534692862472,0.009670919299386682,0.003953497805141648,-3.6175445937836397,3.6175596808951513
0.8530216364088535,0.037571146022830404,0.01865548491223068,-3.779975587388879,3.78020833544749
0.855508579955235,0.05589735296912823,0.014202552530980572,-3.870739246140838,3.8711688852570476
0.8579955235016165,0.06464954224341851,0.014536717376114172,-3.875470422007602,3.876036876929854
0.860482467047998,0.0781929258668268,0.010081172939226057,-3.803745981083953,3.8045629515511723
0.8629694105943795,0.09173910253432405,-0.013529290589383347,-3.6459891737122643,3.6471682384371436
0.8654563541407609,0.08613446093508859,-0.027564253117635662,-3.41177686104864,3.4129752830920737
0.8679432976871425,0.07574421295567046,-0.04638892441733766,-3.1250511117463944,3.1263130951861244
0.870430241233524,0.07493357043785265,-0.06042649763986008,-2.824119201959858,2.8257593083052863
0.8729171847799054,0.078914131897448,-0.0696769725583728,-2.5137695821450095,2.515972939607166
0.875404128326287,0.07810909248528441,-0.09329396220851649,-2.2227327169072044,2.2260605392763066
0.8778910718726685,0.07251845394819212,-0.10254704640407164,-1.984527471723867,1.9884979529574474
0.8803780154190499,0.06214221798842684,-0.10222462818232714,-1.799153886385879,1.8031267944215539
0.8828649589654315,0.04219198294340987,-0.09232670724162295,-1.685765611525154,1.6888191381244926
0.885351902511813,0.022244557067029547,-0.0728532832617157,-1.6204206654546063,1.6222100832609412
0.8878388460581944,0.011876748568755757,-0.05338116254445158,-1.6222726939379424,1.6231941655784226
0.890325789604576,0.006300155652756545,-0.048275554693503864,-1.6865333237094333,1.6872358676618402
0.8928127331509574,0.005514779799202563,-0.04795965269254854,-1.7844721624781599,1.7851250487688821
0.8952996766973389,0.004732219123697479,-0.03327984286625085,-1.916089235455713,1.9163840690394753
0.8977866202437205,0.008740878338271862,-0.0281781414037523,-2.0622309521573907,2.062441977521567
0.9002735637901019,0.007963952149877662,-0.013500934593102087,-2.222897332969067,2.2229525979403437
0.9027605073364834,0.016766651822946232,0.0011749713740076828,-2.3645695726281737,2.3646293081517165
0.905247450882865,0.01120696201538518,0.015849576964686918,-2.4824592833922132,2.4825351757402663
0.9077343944292464,0.015226900544262678,0.03052288266417502,-2.5622012684807576,2.5624283102304966
0.9102213379756279,0.01924966194055555,0.030829679014845457,-2.5750651187596816,2.5753216079639056
0.9127082815220094,0.023275247332024462,0.026346773178659078,-2.5354160525895217,2.5356597660813898
0.9151952250683909,0.027303657802649872,0.01707416569492004,-2.457619285947276,2.457830256857373
0.9176821686147724,0.031334894392696544,0.012588663761471608,-2.3416748224701767,2.3419183000806485
0.9201691121611539,0.040157361419090876,0.012890267953395096,-2.1923710667416287,2.192776702487027
0.9226560557075354,0.044194253194236255,0.008402172222956139,-2.0144964209756697,2.014998649785464
0.9251429992539169,0.04823397394795054,-0.010452429459826273,-1.8128392850218393,1.813510971249669
0.9276299428002984,0.03791131458535024,-0.019731519865042735,-1.6448604928934039,1.6454156440642302
0.9301168863466799,0.051533502491602046,-0.02422350166701337,-1.4818296164832514,1.4829232927562248
0.9326038298930613,0.055581715203869675,-0.028716777522468817,-1.342900258537524,1.3443567550157316
0.9350907734394429,0.045267550137941426,-0.037999750070601745,-1.2376492128169296,1.2390596055425602
0.9375777169858244,0.044533024588302605,-0.04728401529250137,-1.1612880607813807,1.163103146111532
0.9400646605322058,0.03901292924383298,-0.04699276583151857,-1.1186051881966605,1.1202713491601786
0.9425516040785874,0.03349566803162651,-0.04670280759488232,-1.1096005751785931,1.1110880021181015
0.9450385476249689,0.018404434874877307,-0.041625736511571976,-1.1294857961982139,1.1304024013494962
0.9475254911713503,0.01768124689607753,-0.03654995513393411,-1.1686840200869355,1.1693890988540356
0.9500124347177319,0.026537701253029566,-0.036263865997113065,-1.2271952200027822,1.228017681290676
0.9524993782641133,0.03060858842017289,-0.026402258337862694,-1.2954425601543722,1.2960730656833082
0.9549863218104948,0.03468231211052969,-0.016541937977415877,-1.363849202446847,1.364390393362648
0.9574732653568764,0.029182066033600296,-0.0114713073996624,-1.4132614998466728,1.4136092992125915
0.9599602089032578,0.02847306045793707,-0.015978769071522958,-1.4388910129885257,1.4392614020712249
0.9624471524496394,0.02297848900809818,-0.001333902200816972,-1.4598913168214,1.4600727540717615
0.9649340959960209,0.017486755227228312,0.013309680818357705,-1.4618971607703255,1.4620623252379505
0.9674210395424023,0.016786262616197645,0.018375174249330772,-1.430543291984094,1.4307597757422459
0.9699079830887839,0.01608860799306211,0.018650982333099364,-1.37540647194235,1.3756270081348527
0.9723949266351654,0.010605388133767768,0.014137106007025668,-1.306063459859649,1.3061830243898742
0.9748818701815468,0.024278619694106718,0.01919875618602651,-1.2177258027301416,1.2181191133251745
0.9773688137279284,0.023589479444176997,0.033835933840639765,-1.100816641973882,1.1015891308495966
0.9798557572743098,0.02290317731534086,0.029318220036025355,-0.9840663433253507,0.9847693545307682
0.9823427008206913,0.027008116556558825,0.029587632377218842,-0.8626864470345339,0.8636161023549119
0.9848296443670729,0.021539087093850884,0.02027896192313694,-0.7462537010758084,0.7468398455752469
0.9873165879134543,0.02086129873350595,0.02054582299119767,-0.6395564478725451,0.6402263464139707
0.9898035314598358,0.015397944638732564,0.02559981331351535,-0.5473830276232423,0.5481976158930022
0.9922904750062174,0.009937427892245831,0.00671051403683931,-0.48888698826842436,0.48903401800889346
0.9947774185525988,0.014056554855729875,-0.002603250511882038,-0.45927985893403545,0.4595022877746174
0.9972643620989803,0.013390115248054446,-0.007129882552129541,-0.46334997317961246,0.4635982399202039
0.9997513056453619,0.007938108707861935,-0.011657784287369743,-0.4675784358011814,0.4677910977462357
1.0022382491917432,0.002488938153035636,-0.01139855126449385,-0.4767535759622703,0.4768963136541015
1.0047251927381249,0.0018310064604740717,-0.015928988975441705,-0.5052405272781666,0.5054948819511013
1.0072121362845063,-0.003612493494750013,-0.015672289615076274,-0.5290971946188616,0.5293415835966205
1.0096990798308878,-0.018629965558049078,-0.024993661964058944,-0.553111900599605,0.5539896509321949
1.0121860233772693,-0.019279393693664493,-0.024739491545161307,-0.5820729656651995,0.5829173825006327
1.0146729669236507,-0.015137585148634725,-0.024486583787392213,-0.6159803047759098,0.6166526373425576
1.0171599104700322,-0.010992943890201223,-0.024234937463556427,-0.6213150074918588,0.6218846481011121
1.0196468540164139,-0.006845470605712722,-0.019196148010633518,-0.6028653877839911,0.6032097714346162
1.0221337975627953,-0.017060375983776743,-0.02373542413139962,-0.5749965641185177,0.5757390689674499
1.0246207411091768,-0.017695644190729776,-0.028275957911683136,-0.5041896196195452,0.5052918346374201
1.0271076846555582,-0.013539679354910517,-0.037606151382926445,-0.42875168508325245,0.43061067450842166
1.0295946282019397,-0.018957692285313188,-0.051726003240998075,-0.3534710659374696,0.35773840716792393
1.0320815717483214,-0.005219263948050612,-0.06105870552594839,-0.2639824522090457,0.2710021057316068
1.0345685152947028,-0.0010548151928191363,-0.06560425690331906,-0.19380456501475685,0.20460997184762722
1.0370554588410843,-0.0016759436668563055,-0.060574252703273324,-0.13336049348183643,0.14648232009172105
1.0395424023874658,-0.016659457017968782,-0.06991070816284495,-0.058708114676454315,0.09279917754391866
1.0420293459338472,-0.026851743011616414,-0.07924841194162813,0.006210663225667545,0.08390410738297939
1.0445162894802287,-0.017887592772998784,-0.06943374936403135,0.04224233745607364,0.08321914803524826
1.0470032330266104,-0.013709024029135097,-0.07398554226308729,0.07332903720942241,0.10506638616539228
1.0494901765729918,-0.014316037944707483,-0.07375017593365163,0.1186244904336764,0.1404129877302248
1.0519771201193733,-0.019708635723509782,-0.06393924561683306,0.1302447806593463,0.14642527220781576
1.0544640636657547,-0.015521608647409924,-0.06370636314068889,0.12734363996147913,0.14323345865493683
1.0569510072121362,-0.0256969745996809,-0.053897913756227656,0.12907480246853176,0.14221682123835033
1.0594379507585177,-0.02629271829926927,-0.04887910594216338,0.11149637447274685,0.12454684080231404
1.0619248943048993,-0.031674051066313935,-0.04386153488154543,0.09855049750925637,0.11242455386808718
1.0644118378512808,-0.04184097429859657,-0.048422005704004345,0.09502570186485215,0.11456544759028445
1.0668987813976623,-0.047216682791754616,-0.0338300969623897,0.09613371321170128,0.11231910527693627
1.0693857249440437,-0.04301277470010412,-0.028816227039071496,0.11145146920201121,0.12288980313864974
1.0718726684904252,-0.04838286481777798,-0.023803587739778198,0.1457675061798298,0.15542097109189423
1.0743596120368066,-0.05375014805518674,-0.01400377417645382,0.18471674921311987,0.1928871731012776
1.0768465555831883,-0.054326222681088776,-0.008993591407961521,0.2235109320086348,0.23019417865049754
1.0793334991295698,-0.05968789696310539,0.005592172122347083,0.2525733869439488,0.25959051066104466
1.0818204426759512,-0.06504676924573749,0.010599904742828237,0.30063467494320584,0.3077736959976799
1.0843073862223327,-0.056037631270561605,0.015606414717525219,0.3485413257044101,0.35336218250194584
1.0867943297687142,-0.042237291418305845,0.01582330036330193,0.3962934841766863,0.3988519665510497
1.0892812733150956,-0.04758776806811177,0.016038966651333197,0.46304491055312447,0.4657600598055806
1.0917682168614773,-0.04814704643335688,0.01625341524610091,0.5296421404198828,0.5320743448954974
1.0942551604078588,-0.029549918405290476,0.016466647825640113,0.5769317113114845,0.5779226139243654
1.0967421039542402,-0.03010361243573073,0.016678666081470617,0.6288557925864176,0.6297968031464032
1.0992290475006217,-0.035442920490073804,0.021677875038842664,0.6758377322948714,0.677113558624061
1.1017159910470031,-0.021625827929990016,0.031464276416041326,0.6987240737730431,0.6997663955878701
1.1042029345933846,-0.012594353357056498,0.026884258663384397,0.7214569921592702,0.7220675679158173
1.1066898781397663,-0.013136902128264849,0.02230303348659035,0.7440366479023321,0.7444867607432456
1.1091768216861477,-0.013676669676215336,0.027297409284213092,0.761674800035351,0.7622864952601182
1.1116637652325292,-0.01421365811056069,0.03707898450694591,0.7647948061684229,0.7658250287834328
1.1141507087789106,-0.0003826596163246099,0.03728255097787336,0.7533968324421423,0.7543188464897672
1.116637652325292,0.008662710343093072,0.032696513814268524,0.7562114668014548,0.7569675601292982
1.1191245958716736,0.008134046229162362,0.04247448810721588,0.7636620725038181,0.7648856161733302
1.1216115394180552,0.012396555748655835,0.04746286239810793,0.7565952080336213,0.7581838211943658
1.1240984829644367,0.016661833291269745,0.03808483188169953,0.7541646602978123,0.7553094769365719
1.1265854265108182,0.02092987653130901,0.02870560836697944,0.7659474114152687,0.7667708319550797
1.1290723700571996,0.0012586665059344804,0.028902000355224278,0.8015204453498619,0.802042351861638
1.131559313603581,-0.004044572619089026,0.02909720307899466,0.8369419246607386,0.8374573368533544
1.1340462571499625,0.00023175340385611642,0.01971441178331279,0.8722120303384528,0.8724348328721914
1.1365332006963442,0.004510835466862706,0.010330435006851602,0.9169077518364634,0.9169770394627325
1.1390201442427257,0.008792671067564595,0.005733677980291674,0.9614524671416174,0.9615097673452865
1.1415070877891071,0.008288854348319608,0.015500949266890718,1.0058463626883682,1.0059999452624253
1.1439940313354886,-0.0017890205833494544,0.025267040840530886,1.0548780300308103,1.0551821085429602
1.14648097488187,-0.002287343053067048,0.015878341366903914,1.0989708525537196,1.0990879348011495
1.1489679184282517,-0.012359728983540652,0.006488466086253197,1.1429134253867428,1.1429986706125064
1.1514548619746332,-0.012852567769434387,0.0018858202898717202,1.1819175387950729,1.1819889226756046
1.1539418055210147,-0.0037658621209916143,0.0020704059606493352,1.2064065814920468,1.2064142357273817
1.1564287490673961,-0.013830034704529204,0.002253821773013698,1.2307459605532145,1.2308257264903784
1.1589156926137776,-0.033468281657934584,0.007224473053792035,1.2453590682054472,1.2458296543466845
1.161402636160159,-0.0387385891921071,-0.0021712514600387145,1.2837649283034835,1.2843511138966421
1.1638895797065407,-0.03442936347362968,-0.01635654309799328,1.2932913066736713,1.2938528979327626
1.1663765232529222,-0.04448262398401687,-0.016177786537387995,1.2883036173561226,1.289172849196966
1.1688634667993036,-0.04974476035552916,-0.011211786365916687,1.3023208893937106,1.3033188191258382
1.171350410345685,-0.48596047768353334,0.20923120557453334,16.576831098855436,16.585272520017188
1.1738373538920666,0.19831289683299935,0.8749945507346881,17.366273029180086,17.38943306703509
1.176324297438448,0.8251281433838136,1.425835062725004,17.03986896159801,17.11931588316342
1.1788112409848297,1.3418128223990646,1.81865711376091,15.707752385084065,15.869513550796126
1.1812981845312112,1.710059704236951,2.0199418827096176,13.494422000255968,13.751505172982762
1.1837851280775926,1.881984752582285,2.044054581652547,10.572260542608497,10.931272511584526
1.186272071623974,1.848011157649751,1.8909952127211977,7.18547679910704,7.656506054581163
1.1887590151703555,1.6512345461449776,1.5990710046205159,3.5495491384530427,4.228818119817098
1.191245958716737,1.2964433181787332,1.1922239761053914,-0.053006422517773544,1.7620933480604726
1.1937329022631187,0.8363099070326407,0.7039729525820992,-3.440230335054654,3.609733637929309
1.1962198458095001,0.3187183426360592,0.1869903727490505,-6.3583369989675145,6.369065565204422
1.1987067893558816,-0.21802415175431733,-0.3012629213644624,-8.630155265566298,8.638163797145719
1.201193732902263,-0.7116683363121517,-0.7368449109608084,-10.126398017746618,10.178081796563673
1.2036806764486445,-1.1239069878442307,-1.0814483672707753,-10.775238976637736,10.887537485219086
1.206167619995026,-1.4116444798685168,-1.3254964814365204,-10.581466314892772,10.757188779279383
1.2086545635414077,-1.565304009176722,-1.445047234628995,-9.583387026813508,9.81731353564462
1.2111415070877891,-1.5657319659510984,-1.435312221289989,-7.886345751601637,8.167379449712783
1.2136284506341706,-1.4177167570066178,-1.3154450524526158,-5.629205950123165,5.9521656662110365
1.216115394180552,-1.159565612431432,-1.0950225324991782,-2.9843499049180995,3.383786504967337
1.2186023377269335,-0.8008553424226714,-0.8027750790831081,-0.1433135102469656,1.1429592596865086
1.221089281273315,-0.37989317713005677,-0.472221513168098,2.7023673411820957,2.769494760821245
1.2235762248196966,0.021918023383303842,-0.1273038490672329,5.365945161525419,5.367499804027422
1.226063168366078,0.4045782554691789,0.20324749559600397,7.684614481076822,7.697940817649881
1.2285501119124596,0.7297802888865417,0.49070210320797436,9.524300251579692,9.564813804062316
1.231037055458841,0.9687937000048359,0.7111179594851262,10.784446249539018,10.85119951409371
1.2335239990052225,1.0928880651634914,0.8597066634348645,11.393226672892826,11.477766067055367
1.236010942551604,1.1116401872345645,0.9268914107539179,11.341064964246058,11.433049729466488
1.2384978860979856,1.020261659099444,0.9078838004688978,10.656691794260752,10.74384786033601
1.240984829644367,0.8235408802505535,0.8026838349362286,9.440663884889887,9.51044980575451
1.2434717731907485,0.5549966700727179,0.6495987430842485,7.769595942962649,7.8164327507956015
1.24595871673713,0.25293625124187813,0.44862852728822755,5.7679867099816935,5.790933861581786
1.2484456602835114,-0.07306357351722359,0.22371520653418697,3.6034305587926676,3.6111076654470686
1.250932603829893,-0.37033037162594346,-0.00119920018255959,1.4195798470933045,1.4670899646930782
1.2534195473762746,-0.6197105337767264,-0.21653788381849504,-0.6255478560133652,0.9067744598108975
1.255906490922656,-0.8259924672923125,-0.4079356320007057,-2.4170306098709275,2.5866410661188546
1.2583934344690375,-0.9365037396802784,-0.5322968124253833,-3.8351580690748612,3.983568320707376
1.260880378015419,-0.9560327583203944,-0.6183518425844574,-4.803315516684057,4.936415459523957
1.2633673215618004,-0.8989447372613537,-0.6517355100781641,-5.283195460908901,5.398612330397057
1.2658542651081819,-0.7556628739784548,-0.6276594091385539,-5.255644021838451,5.346660340556129
1.2683412086545636,-0.5597059958577644,-0.5509119406295506,-4.739814544730099,4.804437187284515
1.270828152200945,-0.33022772035235354,-0.42149310208610347,-3.778802390057075,3.816550050175726
1.2733150957473265,-0.08159326162264663,-0.2729217142767335,-2.4683753534387556,2.484757655774477
1.275802039293708,0.1574669561824093,-0.1291397913208021,-0.9090896324459949,0.9316205707328103
1.2782889828400894,0.35822250888644164,0.024217879233300543,0.7793449634294793,0.8580725164986651
1.280775926386471,0.5110965855670561,0.17278608992371858,2.4772186260480016,2.5352883216487587
1.2832628699328525,0.6017239719543829,0.2926228266562707,4.103128775175387,4.157326737553489
1.285749813479234,0.6205278570719202,0.378939688626323,5.542154008670578,5.5896441000158354
1.2882367570256155,0.5770850431975597,0.4221598717171249,6.698526539000315,6.736579539949194
1.290723700571997,0.47139552594186185,0.43186018510129776,7.514785806511851,7.541930964885962
1.2932106441183784,0.33697812413105555,0.42240584127981995,7.938259656181732,7.956629143038697
1.29569758766476,0.15946762336181475,0.36985482619916965,7.973736774131598,7.983902595754914
1.2981845312111415,-0.04198236755317114,0.27420714241533917,7.645159461056775,7.650190537569824
1.300671474757523,-0.21948781990554594,0.18813522901556246,6.9525280023347635,6.958535434323277
1.3031584183039044,-0.36826033489564586,0.08290866864957858,5.972457137743567,5.984374134675972
1.305645361850286,-0.49787672371056557,-0.022318922822033294,4.819868834890507,4.845566525379409
1.3081323053966674,-0.5700297643599288,-0.11318233285135681,3.557012626117766,3.6041757719466343
1.310619248943049,-0.584719461441362,-0.19446996216415036,2.2557148516578023,2.338368000713742
1.3131061924894305,-0.5515226262184838,-0.24702819487707384,1.011743869586291,1.1784845327540794
1.315593136035812,-0.4752276666597903,-0.2756454317009345,-0.07434355746880428,0.5543903892688082
1.3180800795821934,-0.3606229907588458,-0.2707448633782006,-0.9450862955378012,1.0471579768702044
1.3205670231285749,-0.2268622164950576,-0.24669169724559747,-1.5621768227168626,1.5977232814842237
1.3230539666749563,-0.08352215523196549,-0.19869752735135693,-1.8873076158952093,1.8995753985578447
1.325540910221338,0.059820381642293474,-0.1363391576974693,-1.9109015706855477,1.9166928958051621
1.3280278537677195,0.17922337275413358,-0.07877019891946846,-1.6425351947921554,1.6541607018999345
1.330514797314101,0.2794752166276444,-0.011625438403607635,-1.1205154146597573,1.1549010096182584
1.3330017408604824,0.3509991018017135,0.06509512650984206,-0.37357234892006375,0.5167146648185977
1.3354886844068639,0.3698530068303366,0.13702628852660048,0.5408334650373963,0.6693790311274866
1.3379756279532453,0.35040213680614596,0.18980284035924955,1.5317226677367284,1.582713210453894
1.340462571499627,0.30701169679806706,0.2234247846880293,2.5607883373715508,2.5887857627084307
1.3429495150460085,0.22531647192960957,0.24268052752023417,3.5514163267117365,3.566822013585061
1.34543645859239,0.12447007054303827,0.2284164582682231,4.431780892977177,4.439408604783567
1.3479234021387714,0.014049294316766492,0.21415140287435896,5.163575117750727,5.168033107738213
1.3504103456851528,-0.11552266837514946,0.19030855740469654,5.689338470446504,5.693692568556238
1.3528972892315343,-0.2163617893378516,0.14731111793172325,6.013859664746488,6.01955322732647
1.355384232777916,-0.28367967028209645,0.09473589381554426,6.094043382224738,6.101378023802944
1.3578711763242974,-0.3366299295428287,0.042159694422578387,5.929889935424778,5.939586837108276
1.360358119870679,-0.3656357655556401,-0.0104174775151753,5.55491846121019,5.5669486388492055
1.3628450634170604,-0.3611203767784449,-0.053418812618903466,5.0074365008342925,5.02072522709158
1.3653320069634418,-0.3374489782929142,-0.09642111478494719,4.335328403251772,4.349510456174219
1.3678189505098233,-0.28025636528088166,-0.11069396134111287,3.5864785184694465,3.599114467032222
1.370305894056205,-0.208696156188253,-0.10581415617173873,2.8135596008579498,2.823272630978814
1.3727928376025864,-0.11797995288110491,-0.10572371311619788,2.0596675991821938,2.065751047904332
1.3752797811489679,-0.03683818048928944,-0.0960574194455317,1.3870520765146797,1.3908621579207556
1.3777667246953493,0.039517559078134035,-0.08639207902656976,0.8435973869843538,0.8489297851535523
1.3802536682417308,0.09193364728920578,-0.05757407579858098,0.4580342724484634,0.47070369070716883
1.3827406117881123,0.1299868855127717,-0.0239686169373714,0.24472826580332097,0.27814206637310684
1.385227555334494,0.1488888651357566,0.004847493707137218,0.20367969097624528,0.25234264180441845
1.3877144988808754,0.13427437088362632,0.03845106557175848,0.31094685627628404,0.3408754003267196
1.3902014424272569,0.10529701070338165,0.07205369813781859,0.5856837008698133,0.5994202143262811
1.3926883859736383,0.06674518256056994,0.09607858757170051,1.0087369383267069,1.015498018279482
1.3951753295200198,0.004253671119128222,0.11531414000603091,1.5130692499710925,1.517463014314156
1.3976622730664012,-0.05344710909440109,0.12018355161773853,2.0938925612399277,2.098019718107031
1.400149216612783,-0.1159339701360304,0.11547522854986214,2.712899975268143,2.7178302908110425
1.4026361601591644,-0.16884170748011185,0.096400770309927,3.312630982840971,3.318331607778084
1.4051231037055458,-0.21695872990199677,0.07253698637143913,3.854778688947855,3.86156075255059
1.4076100472519273,-0.2507082362356954,0.04867228289257186,4.310613006133205,4.318171846914286
1.4100969907983087,-0.26530182865497287,0.020018259395783833,4.660980654487835,4.668567923090201
1.4125839343446904,-0.2607395126731961,0.0009401286896308925,4.862786338398158,4.869771755454538
1.4150708778910719,-0.24180969714319023,-0.022927316334417025,4.935184006303201,4.941157634354291
1.4175578214374533,-0.2037239842961182,-0.056372476139568306,4.873385590920452,4.877967654221855
1.4200447649838348,-0.1512707830226353,-0.06587652462185334,4.6821798324794495,4.685085970392627
1.4225317085302163,-0.09881530887266843,-0.07059307219616917,4.390297488674062,4.391976762935737
1.4250186520765977,-0.0463575674537301,-0.08009892263225682,3.992950494810146,3.9940228486416633
1.4275055956229794,0.006102435608256684,-0.0704520564532154,3.55238843352387,3.5530922187037324
1.4299925391693609,0.053776291348866134,-0.06559448738087292,3.1164956783273903,3.1176497300561685
1.4324794827157423,0.07272197750435722,-0.05594940589054209,2.666118957076991,2.6676973432750857
1.4349664262621238,0.09166990831649979,-0.04151680909389377,2.263507854894378,2.2657437689855056
1.4374533698085052,0.10104327144680592,-0.027085097418713122,1.942181537790776,1.944996779159852
1.4399403133548867,0.08647685121886645,-0.01265426796833724,1.6877751393771785,1.6900364781253092
1.4424272569012684,0.057547448540375745,-0.003012721162340526,1.5338078272620486,1.5348899753052776
1.4449142004476498,0.02383186430173667,0.00662794922433152,1.4850683499178032,1.4852743488644122
1.4474011439940313,-0.019458310584753724,0.011479342780058577,1.5463454565941044,1.5465104824380287
1.4498880875404128,-0.05795787194253449,0.016329865737718663,1.6984858807078265,1.6995529019124294
1.4523750310867942,-0.09166682557283107,0.030756327654319904,1.9223363564360723,1.9247664341101995
1.4548619746331757,-0.1301619839341865,0.016451504887494917,2.2274740386295395,2.2313344408320637
1.4573489181795574,-0.14471293293918602,0.00693422360325302,2.575592049679048,2.5796636065167027
1.4598358617259388,-0.16883850168085768,0.011781293369664603,2.9523255293115493,2.957172850806665
1.4623228052723203,-0.17859667942472718,0.002262297195864793,3.32894440801945,3.3337325572958174
1.4648097488187017,-0.16441066541333493,-0.012045955343018111,3.657565003731655,3.661278155025144
1.4672966923650832,-0.1454340788270309,-0.01677825134810007,3.9429760716094755,3.945692953371747
1.4697836359114647,-0.12166692558068998,-0.02629979783900538,4.1564475442730835,4.158311040367276
1.4722705794578463,-0.08832080828449251,-0.021456978589865283,4.288402968316134,4.289366035414658
1.4747575230042278,-0.05018413620475848,-0.026191807254366317,4.3388426976566645,4.339211957637288
1.4772444665506093,-0.03598733522464426,-0.01656226427989793,4.30776708688821,4.307949242014346
1.4797314100969907,-0.021788394719070125,-0.006933556673221375,4.199964894591525,4.200027133740183
1.4822183536433722,-0.007587320679532661,-0.002094084797419793,4.03459008996683,4.034597767644847
1.4847052971897536,-0.007749329073335143,0.0027445576280471506,3.830796642864441,3.8308054640870415
1.4871922407361353,0.0016675906800022733,0.017159180206962166,3.579008103854446,3.579049626057153
1.4896791842825168,0.0015098192635806806,0.02678457594441408,3.3127436540231177,3.312852277167391
1.4921661278288982,-0.0225878593336013,0.031620747809244065,3.0511572651205094,3.05140471579549
1.4946530713752797,-0.04668343457430835,0.04603290873397414,2.7846724895913626,2.785444173922199
1.4971400149216612,-0.056411702576042944,0.04607904509131222,2.570750526972856,2.571782228439117
1.4996269584680426,-0.08050308935308176,0.04133596649877491,2.4237569475190694,2.4254457631884363
1.5021139020144243,-0.10938079437101172,0.05095728921706488,2.319750095512938,2.322886417613627
1.5046008455608058,-0.12867961378876808,0.06057780626719644,2.2874607523438346,2.2918780087802215
1.5070877891071872,-0.1383995537397329,0.055832310672623287,2.3364660866945286,2.341227340021478
1.5095747326535687,-0.13854062037064802,0.04150920874042496,2.4188824279703525,2.423202162067104
1.5120616761999501,-0.13389122316177626,0.031973713420614835,2.534710139337797,2.5384453250861037
1.5145486197463316,-0.12923977160644118,0.027225827704532524,2.688737987833245,2.691979964909964
1.5170355632927133,-0.12458627189056004,0.022477151265391182,2.8857547410345603,2.888530316073563
1.5195225068390947,-0.11035392357218582,0.012939283778542254,3.0922419404901413,3.0942374879828973
1.5220094503854762,-0.09611953950323088,0.012977438202658398,3.312988354835678,3.314407823285093
1.5244963939318577,-0.06751791594650502,0.017803214217176677,3.524052333301536,3.524744029182576
1.5269833374782391,-0.04849107573962902,0.008263001542549109,3.711069032266959,3.711395023959549
1.5294702810246208,-0.03903902513082136,-0.0012779868566963337,3.874038818572168,3.874235724183237
1.5319572245710023,-0.02479656041938194,-0.006031344654823911,3.9842316396272377,3.984313366784009
1.5344441681173837,-0.010552091197711666,-0.0059970688446431275,4.022494249966511,4.022512560884927
1.5369311116637652,-0.01067083371056482,-0.0011751564172501894,4.007980631162077,4.0079950084119425
1.5394180552101466,-0.025152794253318123,0.003645992317597546,3.9598447652532025,3.959926327751808
1.541904998756528,-0.03005596253120557,-0.005898829588893317,3.8589334081755924,3.8590549627866007
1.5443919423029098,-0.03974555482323294,-0.005867602521483661,3.714823736237575,3.715040986207508
1.5468788858492912,-0.054221577458585524,-0.00583713010565079,3.5658233461120172,3.566240343446789
1.5493658293956727,-0.06869563345711832,-0.0010190060045234262,3.416721011663957,3.417411681371632
1.5518527729420541,-0.09274453581044684,0.018163579440434674,3.2723055071847824,3.2736699279085304
1.5543397164884356,-0.10721467759898701,0.013403402685931098,3.123000397423181,3.124868976549507
1.556826660034817,-0.12647127515588236,-0.005722726606969264,2.983171264139372,2.985856413866258
1.5593136035811987,-0.1361491249027828,-0.005695982174458436,2.876760496136214,2.8799861077016673
1.5618005471275802,-0.14582503987313428,0.003906832365569102,2.7846148527276755,2.788433266840845
1.5642874906739617,-0.14113381650892182,0.0039321067556610245,2.754618740097806,2.758234692502423
1.5667744342203431,-0.14122907450425687,-0.0008317526590810864,2.781984128285024,2.7855667346749384
1.5692613777667246,-0.13653401364117684,-0.005596339532610184,2.8427693744161733,2.8460517514647643
1.571748321313106,-0.12704864035199753,-0.005573247517998148,2.9321864492610095,2.934942894049742
1.5742352648594877,-0.12713817103947905,-0.01033928022843078,3.0502357272632423,3.052901735582727
1.5767222084058692,-0.12243740219387045,-0.015106031315387902,3.177763969930921,3.1801576939248175
1.5792091519522506,-0.10336953363494716,-0.019873497749954616,3.295617939109798,3.2972985635181775
1.581696095498632,-0.08908818511343286,-0.01027646654162595,3.389432800295557,3.390618972726185
1.5841830390450136,-0.08438176642803957,0.004108258699138112,3.4879393491884043,3.4889623190730914
1.586669982591395,-0.08446188074563638,0.00891547104210133,3.5959263652007456,3.5969292068191776
1.5891569261377767,-0.0845401312417316,0.013721980159073777,3.689452208128933,3.690446168500133
1.5916438696841582,-0.09898173438157165,0.028104595722280745,3.768517254668761,3.7699216902713073
1.5941308132305396,-0.0990562767559483,0.023332900841820603,3.7996030585638767,3.800965663206445
1.596617756776921,-0.09434057152635356,0.018560511831222648,3.792286803722832,3.793505481441366
1.5991047003233025,-0.10398823850296812,0.01857583504333249,3.7609340776487326,3.7624172750791516
1.601591643869684,-0.10405726762107953,0.018590470190566588,3.700756854829846,3.7022661734533306
1.6040785874160657,-0.10412447206593928,0.02339282362610584,3.6165439166535753,3.618118161553627
1.6065655309624471,-0.11376666503043248,0.01861768842196554,3.5274492547190013,3.5293324747056576
1.6090524745088286,-0.10904183647274801,0.01863027757206348,3.4430500542274816,3.4448266843572295
1.61153941805521,-0.0995267996006114,0.02821899742966405,3.3489814840139314,3.350578886688512
1.6140263616015915,-0.09958677094926827,0.0378070443870091,3.2548207297421623,3.256563354260544
1.616513305147973,-0.09006814381884204,0.037817614836200164,3.170144977295581,3.171649668484095
1.6190002486943547,-0.07575932811794256,0.03782751845039334,3.085377799488164,3.086539577346032
1.6214871922407361,-0.07102554040258902,0.033048354941557,3.019673189259901,3.020689158302934
1.6239741357871176,-0.06628998063387942,0.02826853066197721,3.0113387530284044,3.01220094894894
1.626461079333499,-0.05676425209972519,0.02827645196357853,3.026856047595312,3.027520317176485
1.6289480228798805,-0.03765995809440059,0.028283718557245763,3.061437049865183,3.0617993160013497
1.631434966426262,-0.03291912184027551,0.018713526833081584,3.1342357535174967,3.1344644874837324
1.6339219099726436,-0.03775334664392688,0.009142686461915517,3.202156909233401,3.2023925079930105
1.636408853519025,-0.02822062253662344,-0.0004287995266261113,3.2556240910943393,3.25574642899585
1.6388957970654066,-0.018686166117936664,0.004364281857389241,3.332944906535376,3.3330001454786085
1.641382740611788,-0.018726790672789928,0.0043683203610185295,3.4101777199704264,3.410231935909107
1.6438696841581695,-0.02834250285100587,-0.0004166809881724909,3.4681692992690527,3.4682851323793
1.646356627704551,-0.03795650266717249,-0.000413912522788884,3.5356504456317497,3.5358542024685193
1.6488435712509326,-0.02362678018018466,0.009165032103404247,3.607833137137047,3.607922139955252
1.651330514797314,-0.014083761977489173,0.0187433492748017,3.6464105287340383,3.646485898718919
1.6538174583436955,-0.02848106801088124,0.023532638695154873,3.6705366153208034,3.6707225447763956
1.656304401890077,-0.038088285033867186,0.023532903387521564,3.6897885852525585,3.6900602053162688
1.6587913454364585,-0.052482226367154106,0.013955743053584602,3.6562827871310732,3.6566860634076312
1.6612782889828401,-0.06208609205476229,0.013954773995473513,3.603538426086275,3.604100249275018
1.6637652325292216,-0.057323082145141036,0.013953192592276231,3.5554979006829157,3.5559873381510734
1.666252176075603,-0.07171202657384101,0.009162598542171718,3.47864276970998,3.4793939252724595
1.6687391196219845,-0.08131091543682079,0.004371398182691166,3.411280641821792,3.4122523633751567
1.671226063168366,-0.08611975543562,-0.005208808790579056,3.367777109124395,3.3688820698723747
1.6737130067147474,-0.09571535991629138,-0.01478961604280693,3.305036923925977,3.306455690218861
1.6761999502611291,-0.09094412230676241,-0.019582617240584188,3.247002485057714,3.2483348734776576
1.6786868938075106,-0.09574806592138851,-0.01958780937229676,3.2128277880617473,3.214313887930896
1.681173837353892,-0.10533879415613523,-0.019593592748173183,3.197724811902635,3.199519361261749
1.6836607809002735,-0.10535110376969037,-0.024388367680025613,3.192117132241349,3.1939482515363835
1.686147724446655,-0.11493861476614547,-0.014818517879736426,3.196005131388957,3.198105575727771
1.6886346679930364,-0.12452452723079976,-0.014826056943682442,3.2093891916587625,3.211838282570067
1.691121611539418,-0.12453204125190209,-0.014834175227790958,3.232269695359105,3.2347017892828847
1.6936085550857995,-0.12453797020176949,-0.01963127305071266,3.264647024786159,3.267080545280249
1.696095498632181,-0.1341191274554046,-0.01964054077199684,3.316098368857385,3.3188675904786895
1.6985824421785625,-0.13412190646848876,-0.014861975393704707,3.3626820932215873,3.3653885992824755
1.701069385724944,-0.12454631398037547,-0.014872380560459142,3.399610176775206,3.4019233274815557
1.7035563292713254,-0.1245459700139594,-0.01967175327824444,3.426883001694277,3.429201916455917
1.706043272817707,-0.12933247799273329,-0.01968328391445784,3.4492893534273357,3.451769309382735
1.7085302163640885,-0.12454063470159737,-0.02927217944014071,3.471618017368044,3.4739745089300067
1.71101715991047,-0.1245356568492248,-0.024496420265976315,3.4938693755278427,3.4961739684523754
1.7135041034568514,-0.1341059545054366,-0.01972121336732835,3.506467003208588,3.5090859462089425
1.715991047003233,-0.1340979211401328,-0.024523362401485116,3.5141996855971227,3.516842771294801
1.7184779905496144,-0.12451156350597647,-0.029326057746770218,3.502702594516098,3.5050376050392775
1.720964934095996,-0.12450050163826398,-0.0437061030650856,3.4815529182998315,3.484052428031959
1.7234518776423775,-0.11491112901105088,-0.04372147877852761,3.4459626352248742,3.448155248628335
1.725938821188759,-0.0957434523807662,-0.038948988553809016,3.400720530104623,3.402290986417567
1.7284257647351404,-0.09093949510640553,-0.03417703273980788,3.369769000923079,3.371169111883774
1.7309127082815219,-0.08613405398533752,-0.02940560836761641,3.3435316223045195,3.344770167651241
1.7333996518279033,-0.07653873245629994,-0.01984630915057961,3.312431968748835,3.3133755599301145
1.735886595374285,-0.0669419405992816,-0.005499132124983319,3.2860472279059465,3.286733613771229
1.7383735389206665,-0.0573436851744496,0.004059119029600655,3.259589377326818,3.2600962690476667
1.740860482467048,-0.04774397294233884,0.013616850591823049,3.2522124110191513,3.2525913472121513
1.7433474260134294,-0.0477196173043552,0.02796246883756881,3.2495514995968806,3.250022155320099
1.7458343695598109,-0.05248222170108496,0.03273076675866449,3.246818620156243,3.2474077106025017
1.7483213131061923,-0.052454986252796376,0.03749855394564161,3.2488025562690463,3.2494423701230777
1.750808256652574,-0.04763791772025311,0.05184263998613137,3.260292091335357,3.261052215366894
1.7532952001989555,-0.052396232824900135,0.061397817863246384,3.25734558865493,3.258345491377847
1.755782143745337,-0.04757632504562198,0.07574089715867904,3.2686938478658885,3.269917378357373
1.7582690872917184,-0.037966604462360776,0.06614146088857042,3.3039140551333954,3.304794129686579
1.7607560308380998,-0.04272069111537535,0.07090673855035501,3.339064573182105,3.3400905746552767
1.7632429743844813,-0.04747338180199134,0.08524832975552066,3.364568974492699,3.365983568561302
1.765729917930863,-0.057013086599916996,0.07085901087018964,3.385216041295327,3.3864375289835715
1.7682168614772444,-0.0617630056249347,0.05168080142132325,3.391429345641189,3.392385382083763
1.770703805023626,-0.06172314563234199,0.05644412425292522,3.387997669317895,3.3890299339446557
1.7731907485700074,-0.0712587233371435,0.06120696568224915,3.4084402138039067,3.409734416252282
1.7756776921163888,-0.0807929388514303,0.05160411866381587,3.4000849205745762,3.4014361600873744
1.7781646356627703,-0.08074899228582283,0.042000796070617685,3.401239393947251,3.402457035961572
1.780651579209152,-0.09028050367122581,0.05155061409251038,3.4023272047857924,3.403915163981316
1.7831385227555334,-0.10459907643527172,0.0467347523924273,3.379406713736347,3.3813480803842997
1.7856254663019149,-0.09976270072251459,0.03234161719226192,3.3468435077444205,3.3484862314169725
1.7881124098482963,-0.09013659323806134,0.032313227991580096,3.3142147701657194,3.315597727850653
1.7905993533946778,-0.09487437400526616,0.03707278104413714,3.2815208774394904,3.2831014006589077
1.7930862969410595,-0.1043992431234243,0.04662027924065093,3.2487622057228505,3.2507735266755233
1.795573240487441,-0.08998078740828624,0.04659051550719173,3.215939130884504,3.217535036606753
1.7980601840338224,-0.08034943351692792,0.0465602993676435,3.1974172384594137,3.198765525908568
1.8005471275802039,-0.07550518818202295,0.04652963370146912,3.183620097080082,3.1848552498955094
1.8030340711265853,-0.0754480581335929,0.04649852138429189,3.1745480817125094,3.175784949437167
1.8055210146729668,-0.07538964677858506,0.03210175532692405,3.179778373650043,3.180833951508469
1.8080079582193485,-0.07532996084137672,0.02249295167843668,3.1753693306243562,3.1763423810643183
1.81049490176573,-0.07048060372304216,0.01767211330269758,3.1708981332837185,3.1717305671749485
1.8129818453121114,-0.07041838878247891,0.01763924305956177,3.1711535586243675,3.1719843607354727
1.8154687888584928,-0.07993172605505278,-0.0015476727967205228,3.180924383304747,3.181928881735717
1.8179557324048743,-0.07986700897122956,-0.015946614812862414,3.195422576998812,3.1964603046557185
1.8204426759512558,-0.07980105087990019,-0.01119237018032937,3.2098601090306085,3.2108714387869504
1.8229296194976374,-0.0701570518451406,-0.01122695265726037,3.219448948368279,3.220232846789062
1.825416563044019,-0.06051182520861176,-0.020838762724746385,3.228977870258653,3.2296120543560773
1.8279035065904004,-0.05086537766754762,-0.02566258758689388,3.233658842940099,3.2341606898191713
1.8303904501367818,-0.05558292587622993,-0.03048682773334299,3.2334922375974724,3.234113628015768
1.8328773936831633,-0.045934056602120577,-0.03052307701744139,3.228478425035905,3.2289494478404053
1.8353643372295447,-0.04586079313198971,-0.040136542578159684,3.2281945823155427,3.2287697991167232
1.8378512807759264,-0.050574738826510646,-0.03538520499637832,3.2230642728237964,3.2236552581957634
1.8403382243223079,-0.05049909372169964,-0.02105746477930648,3.1987226562304567,3.1991905549328683
1.8428251678686893,-0.05042226781006143,-0.021095335719883312,3.1886889250052954,3.189157330507805
1.8453121114150708,-0.05034426775922907,-0.011556798412465596,3.1785982380060576,3.1790179086537043
1.8477990549614522,-0.05505350355248129,-0.0020186566981559295,3.1732393669570396,3.1737175430769167
1.8502859985078337,-0.06454998184800542,-0.006846117742977498,3.1534590665605595,3.1541270827215766
1.8527729420542154,-0.05968009601786001,-0.021250775436351788,3.1384113176552937,3.13905063802803
1.8552598856005968,-0.059597465991609644,-0.016502207070819175,3.142461697327777,3.1430701073891116
1.8577468291469783,-0.059513695092159535,-0.002177216506141111,3.136880152344246,3.137445411532526
1.8602337726933598,-0.06421719327783548,0.007358989072845823,3.1264554522699974,3.12712355011142
1.8627207162397412,-0.07370796718134343,-0.002258797523484901,3.135129979502846,3.1359971229211565
1.8652076597861227,-0.08319762010965065,0.007276653033830183,3.1341736794628474,3.1352861825850873
1.8676946033325044,-0.0831093520439058,0.0072349235845239335,3.1187985137117584,3.1199140497210984
1.8701815468788858,-0.08301997624086943,-0.0023839831147101087,3.1608308964708876,3.1619218769469115
1.8726684904252673,-0.08771790263126211,0.007150355609742309,3.154926318639114,3.1561536138263495
1.8751554339716487,-0.09241473449934856,0.02626113586402834,3.1393923702482605,3.1408620766888897
1.8776423775180302,-0.10189888176407513,0.026217940468014955,3.1190178176061183,3.1207920323295473
1.8801293210644117,-0.11138194769772602,0.030962788759956617,3.103379829853501,3.1055323216643997
1.8826162646107933,-0.11128713224613007,0.04049568347145538,3.087690365677604,3.0899606017685217
1.8851032081571748,-0.11119124863011354,0.026086207407117534,3.0911033998691178,3.093212603858847
1.8875901517035563,-0.12067111006415981,0.016464783210127454,3.084888873512206,3.087292012072988
1.8900770952499377,-0.1205731098344297,0.01641981691691674,3.0642587437838484,3.066673953008128
1.8925640387963192,-0.1252624644627146,0.021162907918059304,3.067520597229806,3.070150023712836
1.8950509823427006,-0.12516237386259843,0.016328848958240272,3.061155970071848,3.0637571908109393
1.8975379258890823,-0.11069603794091204,0.006706046058090553,3.0403768179290704,3.0423986883493837
1.9000248694354638,-0.12017068980075707,0.001871308553223816,3.033913919132984,3.0362934912804054
1.9025118129818452,-0.12964431937423043,-0.012540570827689113,3.0417676315582574,3.044555015081551
1.9049987565282267,-0.12475172322700079,-0.026952782759800176,3.039996295937857,3.0426743046639895
1.9074857000746082,-0.1102813111988391,-0.031788517923717396,3.028600269061049,3.0307741696187427
1.9099726436209896,-0.11496350972383562,-0.022259370325825145,3.021945117127652,3.0242130181366167
1.9124595871673713,-0.11006790538499012,-0.022307353899886362,3.0152427925007697,3.017333534689477
1.9149465307137528,-0.0955945046797354,-0.0175672560227067,2.9989168436626628,3.0004914852425024
1.9174334742601342,-0.08590852405890925,-0.017615880678222062,2.9921212384519063,2.9934061033132506
1.9199204178065157,-0.09058677664539921,-0.022453225215345984,2.9804911208943183,2.9819519501754965
1.9224073613528971,-0.09047565563249343,-0.022502480348004283,2.9688152477214294,2.9702788052617546
1.9248943048992788,-0.06642155420566787,-0.022552046756725286,2.9762475850452006,2.9770740845943693
1.9273812484456603,-0.06630851202683213,-0.022601921807426706,2.9692696618687444,2.9700959564516984
1.9298681919920417,-0.07577132558583793,-0.02265210287175634,2.957458636487665,2.9585158438110533
1.9323551355384232,-0.07565638804411362,-0.027490990647434987,2.959968473243003,2.961062816998514
1.9348420790848047,-0.0707521091564503,-0.027541775877045538,2.9480691026726324,2.9490465992421293
1.9373290226311861,-0.06584689866934412,-0.02759285926993016,2.936126084592382,2.936993967404572
1.9398159661775678,-0.06094076300059775,-0.022855834900665783,2.919351364927187,2.92007680681285
1.9423029097239493,-0.06082211187984199,-0.022907506810649902,2.9025336956281977,2.903261258898153
1.9447898532703307,-0.04633733842658011,-0.022959469086266004,2.8952502313477257,2.895712034763167
1.9472767968167122,-0.04621686895477817,-0.02301171914015665,2.8879245128329822,2.8883859731717623
1.9497637403630936,-0.06046070984777063,-0.023064254390941397,2.8901336934838886,2.89085804277497
1.952250683909475,-0.055550044237869356,-0.023117072263246552,2.8923013127859303,2.892927080032967
1.9547376274558568,-0.04106168513126057,-0.02795857350804898,2.8944277162273933,2.8948539770226316
1.9572245710022382,-0.0409376554860465,-0.028011948921454533,2.891724845333841,2.8921502627007643
1.9597115145486197,-0.059966364969966435,-0.023277195946292295,2.8889814476244764,2.8896974923851886
1.9621984580950012,-0.06941739999937768,-0.013754312031513116,2.886197866646649,2.8870653061470226
1.9646854016413826,-0.06450236358290518,-0.0042316979525423015,2.8737976386510367,2.874524539831173
1.967172345187764,-0.06437487532136121,0.005290648829336497,2.861357912509015,2.8620868643379125
1.9696592887341458,-0.06424653820453569,0.019601134166941758,2.853667433106639,2.854457854112639
1.9721462322805272,-0.07369416517359778,0.0339113572662173,2.8411497346995773,2.8423076232378066
1.9746331758269087,-0.0879293591991504,0.04343291732685772,2.833381964150891,2.835078719417197
1.9771201193732901,-0.08301010996082009,0.05295422018288232,2.8255760576844686,2.827291086101781
1.9796070629196716,-0.06851323037061297,0.05289846170105239,2.8081555475212987,2.8094892576873822
1.982094006466053,-0.06838074329156518,0.052842451023032755,2.8098511917579483,2.8111798182447862
1.9845809500124347,-0.07303584833456578,0.057574593963801934,2.8019329079560347,2.8034758942603744
1.9870678935588162,-0.07769014842073907,0.057518086371000976,2.7939778395441843,2.795649523328238
1.9895548371051976,-0.07755524646106698,0.062249737367090496,2.7859863226106736,2.7877606848202827
1.992041780651579,-0.07741955199692346,0.06698114610714301,2.7731702892195234,2.7750592271112207
1.9945287241979606,-0.08207147455936797,0.05734710509912677,2.755530074046937,2.7573484376075355
1.997015667744342,-0.08193421370812709,0.05728963340700588,2.7570080276584035,2.758820143112769
1.9995026112907237,-0.08658458227369514,0.05244352352572035,2.758450870020167,2.7603076667941053
2.001989554837105,-0.08644577979475726,0.05238558454521414,2.75028212701858,2.752138968240941
2.0044764983834864,-0.08630621576029285,0.05711581890823103,2.7420789370966325,2.7440313185015617
2.006963441929868,-0.08616589632824567,0.047480615769664336,2.7386300346483505,2.740396583934877
2.0094503854762498,-0.08602482764575586,0.04263359084027751,2.7447241533350857,2.746402842253922
2.011937329022631,-0.08588301584907948,0.047363149863245635,2.7412080094799727,2.7429619960206257
2.0144242725690127,-0.08574046706350896,0.047304085293821796,2.7328703352670614,2.734624174097869
2.016911216115394,-0.08080878408298164,0.042456399541496825,2.700557845534277,2.70210016145289
2.0193981596617756,-0.06629956969031592,0.023243288368417936,2.668212884253875,2.6691376658189965
2.0218851032081573,-0.07094324989930945,0.018395174092472377,2.6645661979660424,2.665573925157466
2.0243720467545385,-0.08037462082967856,0.01833525246229817,2.6560992892907143,2.657378350127623
2.02685899030092,-0.08022847858978432,0.008698315899415832,2.6476008866502667,2.648830444642993
2.0293459338473014,-0.08487003919842806,0.003849576740406757,2.653436524343861,2.6547962504713336
2.031832877393683,-0.09429930870195963,-0.010576172606846512,2.6544529126608456,2.656148429697091
2.0343198209400644,-0.08457427653359173,-0.02979052646008684,2.626708357798912,2.6282383987470785
2.036806764486446,-0.07006015867737003,-0.0394282725032995,2.5989336017041182,2.600176701798021
2.0392937080328277,-0.06991057442591803,-0.039489408388311276,2.590282578903131,2.591526719978105
2.041780651579209,-0.07933712645848578,-0.049127545055122734,2.5911788032183187,2.592858554870618
2.0442675951255906,-0.07918620748150057,-0.04440066356786465,2.5968341910063106,2.5984206145195143
2.046754538671972,-0.07903463011130535,-0.03967397156013286,2.5928838511934442,2.5943914821313943
2.0492414822183536,-0.06930559367095995,-0.05410107999281477,2.574539698553454,2.576040537646522
2.0517284257647352,-0.0691527173932932,-0.06852837327130334,2.56095566366485,2.562805522766634
2.0542153693111165,-0.06899920057707964,-0.06859063912833108,2.5569204663449066,2.5587707667295567
2.056702312857498,-0.6195114309854051,0.03190338450101482,21.06003644865397,21.06917054508074
2.0591892564038794,0.046231410662217254,0.4436434460027101,22.04714574676703,22.051657362422908
2.061676199950261,0.6640908419008574,0.7931340886775207,21.25773038862647,21.28288466360827
2.0641631434966428,1.2005480335984373,1.0660101048425763,18.835442787102117,18.903745610613807
2.066650087043024,1.6172957533148051,1.2335410768468318,15.086741067139604,15.223239641051283
2.0691370305894057,1.8760267686228622,1.3053038135947803,10.418639822586275,10.666365371350974
2.071623974135787,1.9767410736703883,1.2669331073820782,5.257307259749237,5.757769046629814
2.0741109176821686,1.919438662617984,1.1375825737394232,0.09116082727152985,2.233080649698339
2.07659786122855,1.723273142920314,0.9459826348309446,-4.591382027034532,4.994531248144102
2.0790848047749315,1.402609718724615,0.701710099532312,-8.440767552479663,8.585235463389452
2.081571748321313,0.9909672074723237,0.4239185833525916,-11.13617241913363,11.18821072023001
2.0840586918676944,0.52665282993821,0.12218489515298003,-12.457329767633123,12.469055990388517
2.086545635414076,0.014454983667942178,-0.1603953329703991,-12.389874082231803,12.390920683425865
2.0890325789604574,-0.4690118839749706,-0.41903369549120084,-11.000842704475287,11.018806722775109
2.091519522506839,-0.8854405521762982,-0.6249997702888128,-8.47219465644646,8.541235975022543
2.0940064660532207,-1.22046581671013,-0.7639283452108812,-5.096022237447526,5.295523200868281
2.096493409599602,-1.4501456666964119,-0.8310310147529563,-1.2410322007643302,2.0817530894545744
2.0989803531459836,-1.5553264945622147,-0.8358845833789394,2.7480107160633818,3.2663904293603587
2.101467296692365,-1.5503735159632246,-0.7832774522397328,6.507188161352824,6.735033732167767
2.1039542402387466,-1.435286736580574,-0.6732096191733037,9.72046581575589,9.848894094406255
2.106441183785128,-1.2244313720427975,-0.520046291985945,12.138847005543912,12.211522712366929
2.1089281273315095,-0.9369610412849887,-0.3429410818116323,13.57079589596064,13.607424658189446
2.111415070877891,-0.5920293632287511,-0.15625919647157716,13.930121524422855,13.943572045519609
2.1139020144242724,-0.22794357006277094,0.030422559526092297,13.259919817119746,13.261913789484007
2.116388957970654,0.12177750935819376,0.19795057502504365,11.655959135884412,11.658275926111267
2.1188759015170353,0.46192227275580744,0.3415364488224317,9.276257084832455,9.2940284503463
2.121362845063417,0.7398182780222118,0.4563917797080439,6.384176140239842,6.443083852526561
2.1238497886097987,0.9363119063054353,0.5520933764249731,3.28138600405946,3.456729840444427
2.12633673215618,1.0466147487287127,0.5999108211463873,0.2504027640731419,1.2320701967990577
2.1288236757025616,1.0755152030701258,0.5998441159598422,-2.4693531227158747,2.7593931869440538
2.131310619248943,1.013436457160965,0.5614700695859609,-4.6288843935572075,4.771674006117906
2.1337975627953245,0.8699553121280736,0.48000028077690304,-6.046231433083644,6.12732707279891
2.1362845063417057,0.6690137790735744,0.36501155823821874,-6.654356306516336,6.697855681358888
2.1387714498880874,0.42497706247336564,0.2404459206288334,-6.4436819198236215,6.4621557106152565
2.141258393434469,0.1522103668178032,0.10630336999853984,-5.471668826364216,5.474817636017278
2.1437453369808503,-0.1253442967476166,-0.013474075008887088,-3.8676036302100383,3.8696576830306793
2.146232280527232,-0.3837449170628256,-0.13804002564008266,-1.7990801629065158,1.8447234596583861
2.1487192240736133,-0.5942610796328146,-0.2626060765477236,0.5232121132046297,0.8341816934039019
2.151206167619995,-0.761681193190078,-0.34407659582960326,2.8885837348657555,3.0070688281428057
2.1536931111663766,-0.8716400531711275,-0.3776631781536439,5.076768431260585,5.164877884623153
2.156180054712758,-0.9145608583179623,-0.3968846447578902,6.896230350572671,6.967921643716407
2.1586669982591395,-0.8952320173187156,-0.38258738036461803,8.2081060765879,8.265640860391043
2.161153941805521,-0.8184419388465859,-0.3443481896256224,8.911839418727904,8.955964755857066
2.1636408853519025,-0.6889790315598232,-0.30132068384099275,8.97870023529164,9.010135635808469
2.166127828898284,-0.5116317041016658,-0.23913965107630775,8.44220762681211,8.46107702290692
2.1686147724446654,-0.30555357506122716,-0.16738189600639686,7.3693995161322485,7.377630304827805
2.171101715991047,-0.10426347297344207,-0.09083581999346935,5.889563068324593,5.891186226369301
2.1735886595374283,0.09702700020442229,-0.009501421087125816,4.136773850845307,4.137922474963596
2.17607560308381,0.27437582260844257,0.052679286053760155,2.283414656774225,2.3004433690014072
2.178562546630191,0.4038409723899655,0.10528311000478174,0.5066566815705071,0.6564092147534114
2.181049490176573,0.49499925095784564,0.15309845601349226,-1.0354824935310347,1.1578805595102601
2.1835364337229546,0.5478506530956828,0.17218330939783266,-2.2280809181235863,2.300898087234417
2.186023377269336,0.5480299636415602,0.1864796886711262,-2.994523869310089,3.0499647078619967
2.1885103208157175,0.505113984050577,0.17683398245612691,-3.277350238423992,3.320758193475179
2.1909972643620987,0.4191027091527875,0.16239980593034264,-3.076559757593949,3.109218667098208
2.1934842079084804,0.29957294043434535,0.13838875766193404,-2.430459386464168,2.452759308236231
2.195971151454862,0.16567828603767742,0.09043562957066342,-1.4012981022355824,1.4139534182176121
2.1984580950012433,0.012630337519431933,0.04248244013105262,-0.13272773951270356,0.1399318976555929
2.200945038547625,-0.12126368366549611,-0.0006824054714988925,1.2746954960259798,1.2804506840336616
2.2034319820940063,-0.25515739588993247,-0.0342705020593006,2.696473381137193,2.7087355831033366
2.205918925640388,-0.38426240090947655,-0.07743546106406907,3.974588868373816,3.993871619867616
2.208405869186769,-0.4559062672607284,-0.11102366736281599,5.0036973458473355,5.0256505955032305
2.210892812733151,-0.4988194199097087,-0.12545831248099093,5.711973023944998,5.735084692323646
2.2133797562795325,-0.5177902672049388,-0.1303162012331116,6.0467437253671354,6.070271719897127
2.2158666998259138,-0.48887679755708485,-0.12559733180089294,5.998432901726957,6.0196322553346775
2.2183536433722955,-0.44080943588422583,-0.11130170237388004,5.610136440189473,5.628528396060351
2.2208405869186767,-0.3687997838461859,-0.09700611779007451,4.920161823626047,4.934918017365727
2.2233275304650584,-0.2584826364460532,-0.06834536629375654,3.981181743893983,3.9901494258176182
2.22581447401144,-0.14337682187388834,-0.030107849418299804,2.9081181350380234,2.9118060517459408
2.2283014175578213,-0.04263595834261963,-0.006235581986176353,1.7919509135230847,1.7924689073740492
2.230788361104203,0.06768196583387337,0.027213454375413004,0.7523904147561344,0.75591848556249
2.233275304650584,0.16363492915486283,0.060662454789225606,-0.13873706004038322,0.22294460139061612
2.235762248196966,0.22606931345625142,0.08453461437015752,-0.8191820172675728,0.8539980169343849
2.238249191743347,0.2693503238324869,0.09404153154555317,-1.2266949643109788,1.2594339768602452
2.240736135289729,0.30305476207410176,0.09876001469582496,-1.337333636104562,1.374793433056457
2.2432230788361105,0.2888753967849406,0.09869006555288751,-1.151097785171225,1.190888254595111
2.2457100223824917,0.25075423974939204,0.09383168584078394,-0.7158711982258819,0.764299448167653
2.2481969659288734,0.1982680928073935,0.07939647395536698,-0.0843260662936487,0.22961908056297783
2.2506839094752547,0.13141695117484986,0.060172834925238394,0.6812886119676795,0.696451978183622
2.2531708530216363,0.04062400344360245,0.04573757709142656,1.5187238369076814,1.5199553705308486
2.255657796568018,-0.035803528574764265,0.02651389550582106,2.351365397920782,2.351787429563407
2.2581447401143993,-0.11701926289568165,0.0025017918530685357,3.0690802601630045,3.071311350249815
2.260631683660781,-0.1934463975961525,-0.021510328869805306,3.633561437599514,3.6387707984704485
2.263118627207162,-0.25071972741598886,-0.0455224649939332,4.016078749836711,4.024154718872607
2.265605570753544,-0.28883925703924357,-0.06474621153805327,4.173536805521385,4.184020752261771
2.268092514299925,-0.3125933944534648,-0.08396997016942054,4.129877858784048,4.142542300884918
2.2705794578463068,-0.3124053376684257,-0.09361693260224868,3.8755253395113387,3.8892233006434656
2.2730664013926885,-0.28348668799734084,-0.09847550051958809,3.4200562898683042,3.433197802682222
2.2755533449390697,-0.2545678699787077,-0.10333407561238817,2.830508590859788,2.843811107394305
2.2780402884854514,-0.21607208157159308,-0.09861584961856051,2.169131719165363,2.1820963877244184
2.2805272320318326,-0.1536341173977545,-0.08910922424485435,1.502963553778332,1.5134210715660394
2.2830141755782143,-0.08640759530417697,-0.07481419788561183,0.8750999560839379,0.8825323619389988
2.285501119124596,-0.028757729800463705,-0.060519172263387766,0.37173241634150944,0.37772287009634375
2.287988062670977,0.019315474581742487,-0.04622414578833567,0.007226373996861213,0.05061600234433536
2.290475006217359,0.06260041664825694,-0.03192911687849964,-0.19447592587411844,0.20678289681153966
2.29296194976374,0.0963086885813606,-0.01763408395983479,-0.2237974491673409,0.2442777572092321
2.295448893310122,0.12522868922112163,0.001449357854115707,-0.08552637275176167,0.15165449442170462
2.2979358368565035,0.1445720107841632,0.01574440348097106,0.1820303022486076,0.23298923468664223
2.3004227804028847,0.1256082289027709,0.030039457791378066,0.5788728002581527,0.593104978120405
2.3029097239492664,0.10185616239051248,0.03954611900747418,1.037963698202657,1.043698812939831
2.3053966674956476,0.08289261347667781,0.0346875820231749,1.50663078195298,1.5093080291457595
2.3078836110420293,0.03998715784533441,0.025040655005746704,1.9705090629266104,1.971073812486882
2.3103705545884106,-0.007706595598982291,0.029758952755191803,2.3817147282812803,2.3819131037459753
2.3128574981347922,-0.055400247895347365,0.020112056860481786,2.6971523674775977,2.6977962442868133
2.315344441681174,-0.0983054000654276,0.005676775465205619,2.9072453921995987,2.908912502624908
2.317831385227555,-0.13642205643384758,0.0008183200253562006,2.983263599831047,2.986381314100093
2.320318328773937,-0.16017341466715174,-0.008828517932828905,2.9060535933762877,2.910477787764452
2.322805272320318,-0.17434788237537963,-0.00889852696912774,2.7187112179831763,2.7243103814834617
2.3252922158666998,-0.18852227047140696,-0.004180108932457127,2.435601897856574,2.44289064933675
2.3277791594130814,-0.18354296992874286,-0.009038472320239244,2.0567258462183355,2.06491910793006
2.3302661029594627,-0.15940998498462777,-0.013896809036220592,1.6586977283935038,1.6663981573417435
2.3327530465058444,-0.1448537397806176,-0.009178310992025374,1.2702481754804626,1.2785136974755262
2.3352399900522256,-0.1159322219172792,0.00032861993190991257,0.9105310109138429,0.9178818605384473
2.3377269335986073,-0.07264543557915737,0.00504717852696146,0.6274304770261434,0.6316421746707723
2.3402138771449885,-0.04372380485503191,0.004977366217265189,0.41136997528148456,0.4137170553029581
2.34270082069137,-0.024378930573910385,0.009695991059709197,0.28629172936154035,0.28749138908735855
2.345187764237752,-0.0002456069064936117,0.03356826442363703,0.2857147685630679,0.28768006130807044
2.347674707784133,0.019099355392619033,0.033498557826779685,0.4048508945946043,0.40668315136840755
2.350161651330515,0.033655952227144015,0.038217292583700324,0.5958162782557199,0.5979885634418449
2.352648594876896,0.043424179518508244,0.04293606675892203,0.8394575092413401,0.841675754086606
2.3551355384232777,0.04361562988555506,0.03807807508880812,1.1309863861804619,1.1324674250053834
2.3576224819696594,0.03423029928518523,0.03322012558312615,1.427307480112452,1.428104314438504
2.3601094255160406,0.020056587012387272,0.037939026243801965,1.709267377650555,1.7098060137615958
2.3625963690624223,-0.008482317581019971,0.03786956846337075,1.9385590510993236,1.938947458939065
2.3650833126088036,-0.037021208523839666,0.023434946946847557,2.1008174883366433,2.101274348085002
2.3675702561551852,-0.06077168646771025,0.013788776313284679,2.1912544828529743,2.192140400807303
2.3700571997015665,-0.07973375536670568,0.00893105789268267,2.200293423789841,2.2017557508299554
2.372544143247948,-0.10348422579771754,-0.0007150136334126422,2.13751131254155,2.140014978329953
2.37503108679433,-0.12723469835881684,-0.005572630310012983,1.9933315361923665,1.9973958886144858
2.377518030340711,-0.14140837030988773,0.003935015810065501,1.801273110680464,1.8068194793071053
2.3800049738870928,-0.15079364885385932,-0.005710897216607336,1.5852782442743933,1.5924441750502223
2.382491917433474,-0.1458137312148166,-0.015356754817818619,1.3453471276120528,1.3533131078591245
2.3849788609798557,-0.1408338312004877,-0.005848942429145243,1.0958451602631598,1.1048732929211103
2.3874658045262374,-0.1310655493194101,-0.010706282017377777,0.8750797573695994,0.8849052968827067
2.3899527480726186,-0.11172048606219459,-0.010775159033659776,0.711781526403751,0.7205765139024637
2.3924396916190003,-0.08758704854209415,-0.01084397553846106,0.6155274605272041,0.6218224324844374
2.3949266351653815,-0.0682420471747151,-0.015701133600019013,0.5863177452318844,0.5904845476155346
2.397413578711763,-0.04889708239675533,-0.020558228653699384,0.6002105483789677,0.6025498052590126
2.3999005222581444,-0.024763754626899392,-0.020626856142626604,0.6524176500818211,0.6532132124167693
2.402387465804526,-0.014995680867405659,-0.020695418158292345,0.747727636065445,0.7481642790948003
2.404874409350908,-0.00043925154001600575,-0.025552316799929198,0.8861406877056677,0.886509126993757
2.407361352897289,0.018905529670299792,-0.03040914753387769,1.0485033720683372,1.0491146060104806
2.4098482964436707,0.02867344913566572,-0.030477505834203278,1.2252390618313438,1.2259534263929284
2.412335239990052,0.038441309847809024,-0.025757390503001076,1.3828291120426375,1.3836030971998323
2.4148221835364336,0.029055494894630995,-0.02103720367039008,1.4925432800422715,1.492974289303464
2.4173091270828153,0.01488121062427522,-0.021105347474192016,1.5639585487048446,1.5641717387130527
2.4197960706291965,0.005495260082644227,-0.025961820739604846,1.5874982865959648,1.5877200710341277
2.4222830141755782,-0.0038907636272362822,-0.021241412338581345,1.5775278778553723,1.5776756767633249
2.4247699577219595,-0.008488460743630633,-0.026097734392938055,1.5244706889940627,1.5247176877403477
2.427256901268341,-0.01308623812734544,-0.03574238243060135,1.4474805054180422,1.4479808635114664
2.429743844814723,-0.032049309261723224,-0.04059854866684853,1.33219228826459,1.3331960445822109
2.432230788361104,-0.03664725772919519,-0.040666231965236666,1.1833946109261664,1.1846601069886726
2.4347177319074857,-0.04603370029722287,-0.0407338345172823,1.0346064656911622,1.0364308397994986
2.437204675453867,-0.05542023711359695,-0.05037816184245214,0.8954048272211086,0.8985316724986465
2.4396916190002487,-0.055230064987687955,-0.04565719622565645,0.775366669152536,0.7786709261802643
2.44217856254663,-0.05982839731231665,-0.03614774320161418,0.6840689640974453,0.6876310377701709
2.4446655060930116,-0.06442683418093736,-0.0410034149532823,0.6215118770031225,0.6261861626196745
2.4471524496393933,-0.054660169028264816,-0.03628219378841324,0.5876955717932297,0.5913461057364542
2.4496393931857745,-0.04489361519276275,-0.036349288584849315,0.5969854213292951,0.5997735412181973
2.452126336732156,-0.03033877271352564,-0.04599310158739778,0.6541699908096277,0.6564862400684877
2.4546132802785374,-0.02536085489277179,-0.0412716151265653,0.7400958278089469,0.7416794142459786
2.457100223824919,-0.020383058413034782,-0.03176163478262062,0.8356094788804391,0.8364612792647206
2.459587167371301,-0.015405386579340652,-0.03182836946369072,0.940711102837783,0.9413754564681693
2.462074110917682,-0.010427842678595423,-0.03189501148389651,1.0362472441929764,1.036790423739545
2.4645610544640637,-0.010238833299884731,-0.02717315648520735,1.1174296563994144,1.1178068934935166
2.467047998010445,-0.014838361693858937,-0.03202801339836947,1.189046898532096,1.18957071985183
2.4695349415568266,-0.01943802777272885,-0.02730596791946116,1.2223687054054242,1.2228281583126244
2.472021885103208,-0.014461028110271834,-0.01300701903332735,1.241337247339624,1.2414896155469262
2.4745088286495895,-0.03342618914495116,-0.013073182333862121,1.2315874670754905,1.232110347036543
2.4769957721959712,-0.038026287492421595,-0.022716053500577704,1.1787543063375985,1.17958625472516
2.4794827157423525,-0.03783813295334959,-0.01320521161890964,1.0972031257568844,1.0979347890881193
2.481969659288734,-0.04722693863059568,0.001094134335432262,0.996510881629284,0.997629950466572
2.4844566028351154,-0.0661927076479718,0.001028372058968774,0.9006197391977455,0.9030495261764311
2.486943546381497,-0.07558182982993183,-0.008614094157663565,0.8095298460905429,0.8130961734813268
2.4894304899278787,-0.07539430826407628,-0.0038912467500069603,0.7376065588845879,0.7414599646841703
2.49191743347426,-0.07999535598084012,0.02956212519832002,0.6752732165438324,0.6806372699215024
2.4944043770206417,-0.07501976607069394,0.03907358611194356,0.6321067703028316,0.6377410755907337
2.496891320567023,-0.0748327515278907,0.039008346892441814,0.5889537504646221,0.5949690008856431
2.4993782641134046,-0.07943431536766304,0.0389432151136937,0.5506027029250173,0.5576645236427145
2.501865207659786,-0.06488244398560344,0.03887819170157458,0.5505725924938414,0.5557440282476447
2.5043521512061675,-0.055119156962358584,0.038813277574591076,0.5840751564115116,0.5879527024493171
2.506839094752549,-0.059721263899572885,0.03874847364389167,0.627168517631242,0.6311960258741046
2.5093260382989304,-0.05474675113864674,0.033895377492966894,0.6606992014215809,0.6638294495838086
2.511812981845312,-0.044984024924806465,0.02904239333859726,0.7133977652502317,0.7154043573904859
2.5142999253916933,-0.03522149148523723,0.024189522069927527,0.7756875390194384,0.7768634658873134
2.516786868938075,-0.03503596034940354,0.014548361248480468,0.8236266416686071,0.8244998594292963
2.5192738124844567,-0.020485417786556104,0.014484121709730235,0.8572152077378412,0.8575822727299244
2.521760756030838,-0.005935076610440682,0.00963159435999339,0.8812417740877514,0.8813143917703913
2.5242476995772196,-0.010538552937094103,-0.004797623261063144,0.8909180699396604,0.8909933140220372
2.526734643123601,-0.019930639622384616,-0.004861513699167652,0.8623022102360611,0.8625462112195501
2.5292215866699825,-0.01495772618387492,-0.0001368827494689917,0.8337015520870406,0.833835733380274
2.5317085302163638,-0.02435023532428049,-0.009777342854985882,0.8051162250449124,0.8055437084505234
2.5341954737627455,-0.028954556525232433,-0.014629279903463743,0.757392744386582,0.7580871661118562
2.536682417309127,-0.019193885891032325,-0.009904289750790163,0.7048964476382569,0.7052272698244867
2.5391693608555084,-0.028587049390850938,-0.00996758154130184,0.6476274613734176,0.6483347135543762
2.54165630440189,-0.04276883977281121,-0.005242347824960358,0.595162717815672,0.5967204676764217
2.5441432479482713,-0.04737404976711829,-0.005305394440151101,0.5475023415587366,0.5495737091726663
2.546630191494653,-0.037614278726703976,-0.014945123912105007,0.5190116661692077,0.5205874569297799
2.5491171350410347,-0.03743154590848158,-0.019796325491949762,0.49532560430509776,0.49713224539582246
2.551604078587416,-0.04203745062961445,-0.01507059507857278,0.4668674709592757,0.46899840674715493
2.5540910221337976,-0.04185518886909667,-0.019921545179540256,0.47673301666391765,0.4789813085863449
2.556577965680179,-0.03688476322869688,-0.024772368387651067,0.4914035378433823,0.4934081403857895
2.5590649092265605,-0.03670298293297808,-0.034411467263734785,0.5108791531827777,0.5133505305268259
2.561551852772942,-0.036521447227749415,-0.04883884105538394,0.5399483837074222,0.5433813629224874
2.5640387963193234,-0.036340158661331445,-0.04890087573600832,0.5690345395029599,0.572286824875975
2.566525739865705,-0.03137071644394712,-0.05853958716887986,0.5885609296777687,0.5922963557707145
2.5690126834120863,-0.026401526408675047,-0.058601361341495295,0.6081044756455523,0.6114917934428364
2.571499626958468,-0.031009397691154128,-0.053874600849938226,0.6228768878846243,0.625970984010236
2.5739865705048492,-0.035617526128037036,-0.04914770829730353,0.6280898759002813,0.6310158457652145
2.576473514051231,-0.03064910753826189,-0.04920908629368226,0.6333203581872091,0.6359682209522154
2.5789604575976126,-0.035257757644936216,-0.04927033081552379,0.6242032356684764,0.6271366313586024
2.581447401143994,-0.03507826891130117,-0.05411984448686802,0.5959502149392062,0.5994298134086945
2.5839343446903755,-0.025322240423557907,-0.06375762661839657,0.5437730016274838,0.5480833222339855
2.5864212882367568,-0.025143287851824625,-0.06860686988710496,0.4916137203177513,0.49701422265803025
2.5889082317831384,-0.02496460692671848,-0.05430236365660024,0.45383768798986246,0.45775607624332304
2.59139517532952,-0.019997796681562374,-0.04478612385989855,0.41607980073942663,0.4189607491709364
2.5938821188759014,-0.024608069413342093,-0.054423359796284654,0.3927053736230999,0.39722156241098766
2.596369062422283,-0.0387954274405391,-0.05927205420942361,0.378926107457108,0.3854909292228479
2.5988560059686643,-0.03382945314221353,-0.06890901309203201,0.36037689545943863,0.36846219720101847
2.601342949515046,-0.03365216540333743,-0.06418062252180379,0.33226943653275853,0.3400802831647502
2.603829893061427,-0.028686759849191223,-0.06424049514576868,0.3233342518676192,0.33089999975523077
2.606316836607809,-0.02372164204850946,-0.05951182369590047,0.31920623181910557,0.3255717922259883
2.6088037801541906,-0.028333620872877774,-0.04520620423129085,0.3198854757522689,0.3243040434068385
2.611290723700572,-0.023369085254567934,-0.04047724941938391,0.3301604854031872,0.3334523474019376
2.6137776672469535,-0.023193247350622503,-0.03574815201252113,0.3548197615604014,0.357369445096748
2.6162646107933347,-0.023017706019440254,-0.021442104769815007,0.3890749974259542,0.3903446326893241
2.6187515543397164,-0.01805406010204924,-0.0215011236992928,0.42813788525785235,0.42905745093118547
2.621238497886098,-0.008302311742443114,-0.016771594932904144,0.4384896964498708,0.438888856852805
2.6237254414324793,-0.00812767302822992,-0.01204192121087777,0.4344957346583538,0.434738554043238
2.626212384978861,-0.017530146068781116,0.0022647046808077498,0.42094449596025996,0.42131544427865614
2.6286993285252422,-0.022144522995256155,0.011783073347920503,0.3930476688549476,0.39384729364122645
2.631186272071624,-0.026759209202814715,0.011724782030191339,0.3651705541878876,0.36633735741349727
2.633673215618005,-0.03616261006939203,0.011666637921639467,0.346890048550911,0.3489649704355423
2.636160159164387,-0.035989517674474225,0.011608641569027522,0.33820624096375873,0.3403137778115301
2.6386471027107685,-0.031028337361624025,0.016339196832812153,0.32475400955562606,0.32664184330092155
2.6411340462571498,-0.0356442810978822,0.021069900926223628,0.29695663484828927,0.29982944898799707
2.6436209898035314,-0.040260544231606354,0.011435544415279608,0.2643910097189419,0.26768318796312296
2.6461079333499127,-0.04487712873468458,0.020954951062556404,0.22705721948022983,0.23239631575306188
2.6485948768962944,-0.0447056332416248,0.025686104780329178,0.19932055848373054,0.2058811663474514
2.651081820442676,-0.039746059690208,0.02562900607589924,0.18596951352034274,0.19188865305777986
2.6535687639890573,-0.039575216641828226,0.020783655450048233,0.2253113937050344,0.22970281286788582
2.656055707535439,-0.04898150932058276,0.020726860037679096,0.2167898109475619,0.22321875618554884
2.65854265108182,-0.053599729652362815,0.020670217006269365,0.20828887917319783,0.21606583736703877
2.661029594628202,-0.039064669546131914,0.01103692019651481,0.2093854848325396,0.21328418430050175
2.663516538174583,-0.048471960737704545,0.015768986684844943,0.22007970682538236,0.2259054432172245
2.666003481720965,-0.05309118514133859,0.02050120697875224,0.2260064131824464,0.2330619493329879
2.6684904252673465,-0.048133941256014445,0.020445178219934412,0.20322366438771056,0.20984456004493218
2.6709773688137277,-0.04796544084515242,0.02517770750462578,0.1708851499039028,0.1792661008900948
2.6734643123601094,-0.028643669092892732,0.0203335853211164,0.15772136493236388,0.16158571541829483
2.6759512559064906,-0.014110644369751513,0.020278022073198176,0.1397903672510985,0.14195652588003027
2.6784381994528723,-0.018731578388897496,0.010645808236447785,0.12666903698244525,0.12848832706517238
2.680925142999254,-0.018564456284318298,0.005802154201971277,0.11835744671239468,0.11994494246442058
2.6834120865456352,-0.027974489735834274,-0.003829746246989618,0.12443247477394337,0.12759576721296315
2.685899030092017,-0.0373848738050882,-0.008673086052255918,0.13052898200705876,0.1360539097376157
2.688385973638398,-0.032430400216810096,-0.013516268122861774,0.1270702316826604,0.1318380223686496
2.69087291718478,-0.017899473960420187,-0.037512905335044255,0.11405629282511853,0.12139376906474622
2.6933598607311615,-0.012945709969747199,-0.04714417404784976,0.08669883025346614,0.09953316894680939
2.6958468042775428,-0.012780706560560628,-0.051986880509363065,0.06415152450548334,0.08355477426011981
2.6983337478239244,-0.01740446535247886,-0.061617830973881293,0.060779651917979294,0.08828271968738936
2.7008206913703057,-0.012451777987752377,-0.07124862174095403,0.05742966470714883,0.0923557213355911
2.7033076349166874,-0.012287856014109755,-0.08087925243661687,0.04452482085360465,0.09313916765880548
2.7057945784630686,-0.012124297681666563,-0.07614451273213207,0.03643039406553861,0.08527695483105573
2.7082815220094503,-0.0023842979038966594,-0.06662120890645218,0.037934850538773546,0.07670152044158418
2.710768465555832,-0.0022214714998525786,-0.06667455056497129,0.04903825227935066,0.08279601932024758
2.713255409102213,0.00751779329016633,-0.061939327397315225,0.05058704714483753,0.08032463403725838
2.715742352648595,0.012468284999909096,-0.057203942380437134,0.047369698729452736,0.07531027494586941
2.718229296194976,0.012630002140245566,-0.04767999185673677,0.03459786312414792,0.06024874032109191
2.720716239741358,0.008002943238202165,-0.03815587881528559,0.02663680884079689,0.0472169225369655
2.7232031832877395,0.012952316797861796,-0.023843199610555033,0.013909786931700197,0.030491684941738494
2.7256901268341207,0.013112911417515694,-0.009530357243666465,0.0012052575544139188,0.0162551161425562
2.7281770703805024,0.008484725672440185,0.00478264859859312,-0.00668831998685171,0.011815156435727388
2.7306640139268836,0.003856161474235509,0.014307414903137694,-0.004982487238869737,0.015633210854184898
2.7331509574732653,-0.0007727825698400359,0.01904394197124626,-0.012830803198596641,0.02297604033391222
2.7356379010196465,0.008963102124352085,0.018992230098248797,-0.02544481110767549,0.03299212657743781
2.7381248445660282,-0.0004550090462775991,0.02851748953450306,-0.02845924841097336,0.040291228111093556
2.74061178811241,-0.0002966975048928622,0.03325451060258544,-0.036239273316702736,0.04918572389778928
2.743098731658791,-0.0001387712213321013,0.033203293580135185,-0.053573238231496845,0.06302832551027539
2.745585675205173,-0.009558038149646897,0.02836383873892423,-0.0565190764767447,0.0639552143852393
2.748072618751554,-0.01897769294688939,0.023524549665193017,-0.06901875541115565,0.0753468371269921
2.7505595622979357,-0.018820930254401402,0.018685426619045487,-0.08628382330331519,0.0902677724739815
2.7530465058443174,-0.018664557979106267,0.009058066534467724,-0.10352582925111165,0.105584144718933
2.7555334493906987,-0.03766219065290538,0.028161292902148638,-0.12074472649955226,0.1295792730344945
2.7580203929370803,-0.042295006268689206,0.028111072761717537,-0.11878685583676685,0.12918752682309492
2.7605073364834616,-0.046928216006904944,0.018484212990793836,-0.1263825920758599,0.13607528492453347
2.7629942800298433,-0.041985014430926726,0.01364592378158358,-0.1339550842868107,0.14104225352320654
2.7654812235762245,-0.04661901601052498,0.023173012000267335,-0.13671588567677873,0.14629270157919755
2.767968167122606,-0.051253415278165404,0.01833505794483914,-0.14903016354850784,0.15866025518324267
2.770455110668988,-0.0558882133915401,0.018285675110745636,-0.16610947273531274,0.17621071262201304
2.772942054215369,-0.06052341149298718,0.027813267026842503,-0.1448581423172861,0.15943820921307103
2.775428997761751,-0.05079380074859374,0.022975817294478063,-0.1379485685874915,0.14878745226051465
2.777915941308132,-0.050641398871674514,0.018138536071889533,-0.13580390547910248,0.14606936199589657
2.7804028848545137,-0.05048940031812488,0.018089826871098058,-0.15278932432844883,0.1619289937270472
2.7828898284008954,-0.040760999528648534,0.01804128655792292,-0.1745395773490177,0.18014164194992038
2.7853767719472766,-0.031033004210056947,0.008416108672326228,-0.19147782087102883,0.19415878584551258
2.7878637154936583,-0.040459028694669774,0.0035795033502865614,-0.20839242197948238,0.21231379461925096
2.7903506590400395,-0.04030865409662365,-0.0012569325589737446,-0.22049494190997443,0.22415259731357579
2.792837602586421,-0.0401586880775312,-0.0013047955711025239,-0.20384332940546912,0.20776555456258242
2.7953245461328025,-0.044797534963712526,-0.010929295488470991,-0.19674477715898142,0.20207616380473134
2.797811489679184,-0.03985998578530037,-0.03013043215796607,-0.203987655404692,0.2100181538970703
2.800298433225566,-0.04449965479972029,-0.0397545921506568,-0.2064183185559223,0.21487012149159673
2.802785376771947,-0.03956292968704622,-0.049378581964899304,-0.2088251384056079,0.21820038540847664
2.8052723203183287,-0.039415021354731405,-0.04942559482319542,-0.21599648752205702,0.22505758364002476
2.80775926386471,-0.04405593073452685,-0.0494724372346691,-0.23750914256659605,0.2465746132138168
2.8102462074110917,-0.039120448782526185,-0.07346112567473062,-0.23984425108777785,0.2538744005964403
2.8127331509574733,-0.029396979721392102,-0.0830844334600771,-0.2373669946046153,0.2532001098494023
2.8152200945038546,-0.029250734399784317,-0.07834236047519605,-0.2396541520804405,0.25382522238175464
2.8177070380502363,-0.02431650372989491,-0.07838851989112872,-0.24191729327958456,0.25546042588253937
2.8201939815966175,-0.019382691890621362,-0.07843450828262277,-0.25373319868653255,0.26628593081528545
2.822680925142999,-0.014449299726052578,-0.07369192222968124,-0.2798902462219228,0.2897892882676088
2.825167868689381,-0.004727924745505208,-0.06416076163784101,-0.3108116045992517,0.3174000790168594
2.827654812235762,-0.009372181045448569,-0.04984102641786503,-0.32734363664237875,0.3312488824768963
2.8301417557821438,-0.00444005282518023,-0.035521119806004364,-0.3438515291656312,0.3457099045889571
2.832628699328525,-0.004296750832171181,-0.025989445043677062,-0.36033525976789527,0.36129684852401994
2.8351156428749067,0.005422934122250311,-0.026034405377464154,-0.37200640347048974,0.3729557114469507
2.837602586421288,0.0007769846784877465,-0.026079194098126646,-0.37886493935499743,0.37976225502604155
2.8400895299676696,0.010495820014564006,-0.026123811142158893,-0.38091084724019453,0.38194985180205543
2.8425764735140513,0.010637422799198437,-0.030956659771453232,-0.3733557043589517,0.3747878753713671
2.8450634170604325,0.0012017923167697564,-0.031000933292031796,-0.3753531052772825,0.37663305193656116
2.847550360606814,0.0013425411469398796,-0.035833438296209774,-0.38690303200874787,0.3885611842354067
2.8500373041531954,0.00148286196149916,-0.03587736810007369,-0.37927504737101714,0.3809710566167361
2.852524247699577,-0.0031656492335010444,-0.0502863359465886,-0.371622748108031,0.3750229377376373
2.855011191245959,-0.003026186457168789,-0.055118325200886886,-0.3735229250434422,0.3775798764638195
2.85749813479234,-0.002887153675693477,-0.05516173915493372,-0.3562451431558973,0.36050208757385827
2.8599850783387217,-0.002748551521143172,-0.05041657778532116,-0.3437314046621065,0.3474200115163669
2.862472021885103,-0.00261038061182417,-0.040882841073557774,-0.3742889224515302,0.37652412705046134
2.8649589654314846,-0.012049448192953394,-0.03613733564667099,-0.4000336503569333,0.4018432749807915
2.867445908977866,-0.002335334933581068,-0.031391658175625725,-0.41138876947966807,0.4125913349141773
2.8699328525242476,-0.0021984613328890346,-0.021857405336239477,-0.4370846881867898,0.4376363833682115
2.8724197960706292,0.002726382006324024,-0.017111383770088473,-0.44360257238163214,0.44394084610111384
2.8749067396170105,0.0028623878932195757,-0.01236519016263582,-0.454884428508711,0.4550614623233943
2.877393683163392,-0.006578847529254084,-0.007618824524434853,-0.46614184378524115,0.4662505187658792
2.8798806267097734,-0.001655308182847648,0.0019161164495034022,-0.45822119615915646,0.458228192232818
2.882367570256155,-0.01109741449937196,0.006662826098486452,-0.45506449414994066,0.455248547165316
2.8848545138025368,-0.015751553694183462,0.0018329010774102983,-0.4758253436426241,0.4760895174468364
2.887341457348918,-0.010829322930300034,0.006579954638030294,-0.4917733180020196,0.49193654706362566
2.8898284008952997,-0.010695932638753347,0.006538776785236511,-0.4789663945932787,0.47913042663406824
2.892315344441681,-0.024928189917084675,0.0017093674801964553,-0.4757117946226632,0.4763675557097056
2.8948022879880626,-0.015218868646577066,0.0016685333200667785,-0.47722111008779144,0.47746663326325317
2.897289231534444,-0.019875195820429847,0.0016278709364514476,-0.473917530337145,0.4743369044608957
2.8997761750808255,-0.01495515525474611,-0.007989426363951058,-0.4658010520280893,0.4661095447132501
2.902263118627207,-0.014823957315145186,-0.012818148677447905,-0.476813689084846,0.4772162494558401
2.9047500621735884,-0.03384681235431164,-0.012858296065838992,-0.47822501957052843,0.4795936945243307
2.90723700571997,-0.024139687547982902,-0.003321465275135882,-0.47961184877012997,0.4802304468973101
2.9097239492663514,-0.024009809824686923,0.006215536983208203,-0.4953393859453641,0.4959598886367098
2.912210892812733,-0.023880372897042146,0.001387500672950459,-0.501465614448863,0.5020358152984654
2.9146978363591147,-0.014174570464932756,-0.0034403643247427063,-0.5123557448462019,0.512563326654823
2.917184779905496,-0.014046016137433948,0.0013087485465490545,-0.5280097783894782,0.5281981914650948
2.9196717234518776,-0.00912950026879955,0.006058032557582749,-0.5627929269362042,0.5628995702103942
2.922158666998259,-0.018578636442887708,0.015595890935656165,-0.583186369782231,0.5836906196316084
2.9246456105446406,-0.02323981166852296,0.020345516942758657,-0.5987669167446938,0.5995630488063817
2.927132554091022,-0.018324622902988752,0.010730103836530613,-0.6047461683152644,0.6051188767712288
2.9296194976374035,-0.022986683692694077,0.005903264792158858,-0.591547322297739,0.5920232011332152
2.932106441183785,-0.022860784329483574,0.01065340301958928,-0.5783239970472245,0.5788736960829496
2.9345933847301664,-0.022735328374121733,0.005826905122924941,-0.5746530049046168,0.5751320926756707
2.937080328276548,-0.022610316054782365,0.0010005776238828368,-0.580534352193558,0.580975353715175
2.9395672718229293,-0.022485747587412286,0.005751227039945572,-0.5768144325768017,0.5772811923888803
2.942054215369311,-0.01757321985547,-0.003863163357807675,-0.5826468668969191,0.5829246208490545
2.9445411589156927,-0.02223794301154125,-0.013477383739986859,-0.598031663329504,0.5985967226159132
2.947028102462074,-0.026903110594570068,-0.013514627601684648,-0.608603620700432,0.6093478396191712
2.9495150460084556,-0.03156872277211342,-0.023128508364009814,-0.6095743450844076,0.6108292677513832
2.952001989554837,-0.026657973059130646,-0.04231902617095251,-0.6105206531221885,0.612565927384492
2.9544889331012185,-0.02174766823990948,-0.042355761248716206,-0.6114425554159943,0.6132935432225524
2.9569758766476,-0.02162621176656221,-0.04239232703071494,-0.6267052731279907,0.6285095876698149
2.9594628201939814,-0.035870410399697406,-0.061582336954414174,-0.6323668014537951,0.6363700512657028
2.961949763740363,-0.030961441005352253,-0.05683016129725216,-0.6380039594240952,0.6412778885187155
2.9644367072867444,-0.02126451364097315,-0.056866220145355584,-0.6436167600187623,0.6464738821569331
2.966923650833126,-0.021144838352351703,-0.0664789169872777,-0.6444168134840869,0.6481817492754118
2.9694105943795073,-0.01623720525179828,-0.07130304203428173,-0.6451925372906366,0.6493236333395398
2.971897537925889,-0.011330017721315921,-0.05697338550157216,-0.6603091561301699,0.6628593498068902
2.9743844814722706,-0.011211679131412522,-0.0474319641707619,-0.6706130720297327,0.6723818746450545
2.976871425018652,-0.020670592841135815,-0.04746718154610807,-0.6713158975517022,0.6733093204746112
2.9793583685650336,-0.02534154891689666,-0.04271382785448452,-0.676782859110995,0.6786027583041075
2.981845312111415,-0.006070934093441505,-0.03796030660785865,-0.687013973729794,0.6880886870299
2.9843322556577965,0.0036224283823366177,-0.02841821468139516,-0.7020092589953766,0.7025935643231446
2.986819199204178,0.0037385385169721452,-0.023664358914994743,-0.7121919264163878,0.7125947786826579
2.9893061427505594,0.003854202968812004,-0.03327554615232575,-0.7079851880603538,0.708777217018941
2.991793086296941,0.003969421766712444,-0.038098163318943445,-0.7181194831130799,0.7191403328864513
2.9942800298433223,0.00408419495061163,-0.0381322106253732,-0.7138644114692791,0.7148937991743618
2.996766973389704,0.008986925891789621,-0.04295449492647174,-0.6952199934950922,0.6966036841897184
2.9992539169360852,0.0043124046912520475,-0.057353419760462376,-0.6765514600640117,0.6789918185863412
3.001740860482467,-0.0003625619375058342,-0.057386968747349165,-0.6722240425928661,0.6746692219695983
3.0042278040288486,-0.00024957059043551055,-0.06220875539357884,-0.6870261663980113,0.6898368972798176
3.00671474757523,-0.1677311407042289,0.26815785581423146,20.44378482176868,20.446231442737226
3.0092016911216115,0.42135456864674936,0.7325999251905713,20.759430602941734,20.77662632097094
3.0116886346679927,0.9481905898050971,1.115639303085433,19.57154174434362,19.626231495113085
3.0141755782143744,1.3744696963350092,1.393333972657774,17.057289144700395,17.16920672225189
3.016662521760756,1.6379426452097248,1.5369535137427244,13.46088134869795,13.646992668574534
3.0191494653071373,1.7290326299364736,1.5512863294141193,9.0696225303836,9.362376618938908
3.021636408853519,1.6621048606345492,1.4315440161017055,4.237854509770788,4.771930603410552
3.0241233523999003,1.44673614411338,1.1968801868333507,-0.641773667079665,1.984298639841082
3.026610295946282,1.0925032871927893,0.8808136645944478,-5.238862197782962,5.423566471577782
3.029097239492663,0.6664439365466917,0.5072864657263718,-9.266106910345947,9.303882219419478
3.031584183039045,0.19728851229679084,0.10981741320775429,-12.48408766648427,12.486129403694028
3.0340711265854265,-0.26707895214372446,-0.2732862666658038,-14.710845168259857,14.715807219270737
3.036558070131808,-0.683562826671795,-0.6085057509223304,-15.855399781319964,15.881789559504755
