Time (s),Acceleration x (m/s^2),Acceleration y (m/s^2),Acceleration z (m/s^2),Absolute acceleration (m/s^2)
0.0,-2.5665841796874997,0.5315127685546874,-4.908113403320312,5.564120537372579
0.002486943546381497,-2.8107927490234372,1.0534487304687499,-4.893748193359374,5.7410000423007395
0.004973887092762994,-2.829946362304687,1.66636435546875,-3.5865140869140624,4.8629671882844665
0.007460830639144491,-2.6431986328124997,2.31758720703125,-1.158793603515625,3.701420280141868
0.009947774185525988,-2.2649147705078123,2.93050283203125,2.1068974609374997,4.261068255392363
0.012434717731907486,-1.7669208251953124,3.4763808105468748,5.889736083984375,7.063725920605572
0.014921661278288981,-1.1923124267578125,3.921702319335937,9.835380419921874,10.655330403561804
0.01740860482467048,-0.603338818359375,4.261678955078125,13.584700219726562,14.25026334162755
0.019895548371051976,-0.0526724365234375,4.453215087890625,16.79771884765625,17.378068289930617
0.022382491917433474,0.4213794921875,4.505887524414062,19.206285717773437,19.732257704881476
0.02486943546381497,0.7565677246093749,4.4196962646484375,20.604499487304686,21.086761461068576
0.027356379010196465,0.948103857421875,4.2137949218749995,20.944476123046872,21.385182922691083
0.029843322556577963,0.9864110839843749,3.902548706054687,20.254946044921873,20.65104676553788
0.032330266102959464,0.8714894042968749,3.5194764404296874,18.60294689941406,18.952990305990255
0.03481720964934096,0.6272808349609375,3.0885201416015624,16.218322045898436,16.52169506725817
0.03730415319572245,0.28730419921875,2.6431986328124997,13.340491650390625,13.602858530085967
0.03979109674210395,-0.1149216796875,2.2170307373046874,10.242394702148436,10.480223352448855
0.04227804028848545,-0.5458779785156249,1.838746875,7.211335400390625,7.462059440575207
0.04476498383486695,-0.9528922607421875,1.5370774658203123,4.520252734375,4.868603041852931
0.04725192738124844,-1.2976572998046874,1.3215993164062498,2.398990063476562,3.0307907459145276
0.04973887092762994,-1.5658078857421873,1.216254443359375,0.9911994873046874,2.2166428737342687
0.05222581447401144,-1.7238251953125,1.20667763671875,0.4165910888671875,2.1450390108981408
0.05471275802039293,-1.7573440185546874,1.2785036865234374,0.6847416748046875,2.278530411738734
0.05719970156677443,-1.68551796875,1.4508862060546874,1.7238251953125,2.8138256715534227
0.059686645113155926,-1.5179238525390624,1.6903063720703124,3.418919970703125,4.104904654147425
0.062173588659537427,-1.2737152832031249,1.9632453613281249,5.559336254882812,6.031824149152234
0.06466053220591893,-0.9816226806640624,2.2744915771484373,7.967903124999999,8.344122196558368
0.06714747575230041,-0.6655880615234374,2.5809493896484375,10.419565624999999,10.755075779986432
0.06963441929868192,-0.373495458984375,2.863465185546875,12.655749975585938,12.981022269885543
0.07212136284506342,-0.105344873046875,3.1076737548828124,14.513650463867187,14.843004530632498
0.0746083063914449,0.105344873046875,3.299209887695312,15.849614990234373,16.189693596977243
0.0770952499378264,0.229843359375,3.423708374023437,16.534356665039063,16.886668035078106
0.0795821934842079,0.26815058593749996,3.4715924072265625,16.558298681640625,16.92043479964606
0.0820691370305894,0.2346317626953125,3.4572271972656248,15.940594653320312,16.312879263301213
0.0845560805769709,0.12449848632812499,3.375824340820312,14.781801049804686,15.162893263793023
0.0870430241233524,-0.0383072265625,3.2417490478515623,13.187262744140623,13.57992279123312
0.0895299676697339,-0.2442085693359375,3.0789433349609374,11.324573852539062,11.73820696813823
0.09201691121611538,-0.469263525390625,2.868253588867187,9.390058911132812,9.829562211047666
0.09450385476249688,-0.679953271484375,2.6479870361328124,7.551312036132812,8.030970381091816
0.09699079830887838,-0.8858546142578124,2.4516625,5.97592734375,6.51974654639941
0.09947774185525989,-1.0486603271484374,2.2601263671875,4.7931917236328125,5.402087242621441
0.10196468540164137,-1.1444283935546875,2.0973206542968748,4.070142822265625,4.7195903284665315
0.10445162894802287,-1.1827356201171875,1.9823989746093749,3.8690298828125,4.505348097064465
0.10693857249440437,-1.16837041015625,1.905784521484375,4.180276098632812,4.7404443165655765
0.10942551604078586,-1.0965443603515623,1.89620771484375,4.946420629882812,5.409721830166691
0.11191245958716736,-0.97683427734375,1.915361328125,6.081272216796875,6.450169454941166
0.11439940313354886,-0.842758984375,1.9919757812499999,7.4794859863281244,7.785943798828125
0.11688634667993036,-0.6943184814453125,2.1068974609374997,8.992621435546875,9.262199271643778
0.11937329022631185,-0.5410895751953124,2.2361843505859373,10.481814868164061,10.731343872444667
0.12186023377269335,-0.4070142822265625,2.384624853515625,11.827356201171874,12.072218148598028
0.12434717731907485,-0.28730419921875,2.5378537597656248,12.89038173828125,13.140973585220387
0.12683412086545634,-0.201112939453125,2.6862942626953124,13.603853833007811,13.868001384123327
0.12932106441183785,-0.1771709228515625,2.81558115234375,13.91031164550781,14.19350755932048
0.13180800795821934,-0.181959326171875,2.925714428710937,13.785813159179687,14.094025634096177
0.13429495150460083,-0.2154781494140625,2.9927520751953125,13.2926076171875,13.62704711524004
0.13678189505098234,-0.2920926025390625,3.0262708984374997,12.492944262695312,12.85757714307013
0.13926883859736383,-0.39743747558593745,3.0406361083984375,11.449072338867186,11.852623418944443
0.14175578214374532,-0.5123591552734374,3.0214824951171875,10.275913525390624,10.723164978381991
0.14424272569012683,-0.622492431640625,2.9640216552734375,9.107543115234375,9.597930130826793
0.14672966923650832,-0.718260498046875,2.8730419921875,8.001421948242188,8.531882654241036
0.1492166127828898,-0.7948749511718749,2.77727392578125,7.062894897460937,7.630829638997625
0.15170355632927132,-0.86191259765625,2.6767174560546874,6.37815322265625,6.970548629571902
0.1541904998756528,-0.9002198242187499,2.5713725830078125,6.019022973632812,6.6068896047747225
0.15667744342203432,-0.9002198242187499,2.4660277099609376,5.980715747070312,6.531512018320599
0.1591643869684158,-0.8714894042968749,2.389413256835937,6.263231542968749,6.759945181329782
0.1616513305147973,-0.8092401611328125,2.327164013671875,6.828263134765624,7.259183109862908
0.1641382740611788,-0.737414111328125,2.2744915771484373,7.6087728759765625,7.975620112837728
0.1666252176075603,-0.6655880615234374,2.2457611572265623,8.532934716796875,8.84858324954156
0.1691121611539418,-0.5793968017578125,2.24097275390625,9.5001921875,9.778103657513219
0.1715991047003233,-0.49320554199218747,2.2649147705078123,10.395623608398436,10.6509192482061
0.1740860482467048,-0.430956298828125,2.308010400390625,11.171344946289063,11.415409902793202
0.17657299179308628,-0.39264907226562495,2.370259643554687,11.774683764648437,12.017299273517763
0.1790599353394678,-0.36391865234375,2.427720483398437,12.133814013671874,12.379648866159975
0.18154687888584928,-0.3591302490234375,2.4947581298828125,12.224793676757812,12.481921851288678
0.18403382243223076,-0.37828386230468747,2.5665841796874997,12.081141577148436,12.356554327117529
0.18652076597861228,-0.411802685546875,2.6336218261718747,11.726799731445311,12.025946005056664
0.18900770952499377,-0.469263525390625,2.7054478759765623,11.190498559570312,11.52245262423037
0.19149465307137528,-0.5315127685546874,2.73896669921875,10.505756884765624,10.86992972030483
0.19398159661775677,-0.5985504150390625,2.7437551025390623,9.758765966796874,10.154800237166928
0.19646854016413826,-0.6607996582031249,2.7581203125,9.02135185546875,9.456673471505502
0.19895548371051977,-0.718260498046875,2.7629087158203123,8.341398583984375,8.816376412784729
0.20144242725690126,-0.7517793212890624,2.7437551025390623,7.81467421875,8.316399302331682
0.20392937080328274,-0.7757213378906249,2.7054478759765623,7.4794859863281244,7.991489374538623
0.20641631434966426,-0.7900865478515624,2.6623522460937497,7.335833886718749,7.843903049433206
0.20890325789604575,-0.7805097412109374,2.6144682128906247,7.3932947265625,7.880700882926438
0.21139020144242723,-0.7661445312499999,2.5617957763671875,7.64229169921875,8.096567016861211
0.21387714498880875,-0.737414111328125,2.50912333984375,8.034940771484374,8.449837436743763
0.21636408853519024,-0.689530078125,2.461239306640625,8.532934716796875,8.907531955278593
0.21885103208157172,-0.6368576416015624,2.43250888671875,9.069235888671875,9.411361577583019
0.22133797562795324,-0.59376201171875,2.418143676757812,9.629479077148437,9.946197236393596
0.22382491917433472,-0.5602431884765625,2.408566870117187,10.175357055664062,10.471530834042982
0.22631186272071624,-0.5363011718749999,2.408566870117187,10.635043774414061,10.917553269779996
0.22879880626709773,-0.5267243652343749,2.427720483398437,10.984597216796875,11.261999880913937
0.2312857498134792,-0.51714755859375,2.442085693359375,11.166556542968749,11.442168027012547
0.23377269335986073,-0.507570751953125,2.4660277099609376,11.180921752929686,11.460887050297185
0.23625963690624222,-0.5219359619140624,2.4899697265625,11.042058056640624,11.331346456346616
0.2387465804526237,-0.5363011718749999,2.528276953125,10.769119067382812,11.07491439181927
0.24123352399900522,-0.5602431884765625,2.5665841796874997,10.386046801757812,10.713131892680135
0.2437204675453867,-0.59376201171875,2.5953145996093747,9.945513696289062,10.295700747427501
0.2462074110917682,-0.6177040283203125,2.6240450195312497,9.490615380859374,9.866050417392687
0.2486943546381497,-0.63206923828125,2.6575638427734374,9.050082275390624,9.4533669288639
0.2511812981845312,-0.6560112548828124,2.6815058593749996,8.662221606445312,9.091474445851091
0.2536682417309127,-0.6607996582031249,2.6958710693359373,8.360552197265624,8.809268417636444
0.2561551852772942,-0.6560112548828124,2.6958710693359373,8.154650854492187,8.613733345517817
0.2586421288236757,-0.6512228515624999,2.6815058593749996,8.078036401367187,8.536347988342145
0.26112907237005717,-0.6464344482421874,2.6623522460937497,8.154650854492187,8.602576796334036
0.2636160159164387,-0.622492431640625,2.6479870361328124,8.346186987304687,8.778278270710686
0.2661029594628202,-0.59376201171875,2.6192566162109374,8.623914379882812,9.032439193245345
0.26858990300920166,-0.5746083984375,2.5905261962890624,8.987833032226561,9.371346936294573
0.2710768465555832,-0.55545478515625,2.5570073730468748,9.361328491210937,9.720148550538037
0.2735637901019647,-0.5315127685546874,2.5234885498046875,9.706093530273437,10.042845806968655
0.27605073364834615,-0.5027823486328125,2.50912333984375,10.026916552734374,10.348311242910311
0.27853767719472766,-0.49320554199218747,2.4947581298828125,10.290278735351562,10.59985406901891
0.2810246207411092,-0.49320554199218747,2.480392919921875,10.453084448242187,10.754653654392271
0.28351156428749064,-0.49799394531249996,2.47081611328125,10.539275708007812,10.836478334063228
0.28599850783387215,-0.488417138671875,2.4851813232421875,10.539275708007812,10.839327006790771
0.28848545138025367,-0.4836287353515625,2.5043349365234375,10.433930834960936,10.741159290165015
0.2909723949266351,-0.507570751953125,2.5139117431640625,10.24718310546875,10.563244857412926
0.29345933847301664,-0.5267243652343749,2.5330653564453125,10.01733974609375,10.346059841583394
0.29594628201939815,-0.55545478515625,2.5378537597656248,9.715670336914062,10.057011575010804
0.2984332255657796,-0.5793968017578125,2.5522189697265625,9.409212524414063,9.766411964120177
0.30092016911216113,-0.5889736083984375,2.5713725830078125,9.13627353515625,9.509486893688356
0.30340711265854264,-0.6081272216796875,2.5809493896484375,8.882488159179687,9.269828173576997
0.30589405620492416,-0.622492431640625,2.5905261962890624,8.71489404296875,9.113051134569691
0.3083809997513056,-0.63206923828125,2.5857377929687497,8.633491186523438,9.034529402450701
0.31086794329768713,-0.6416460449218749,2.5857377929687497,8.614337573242187,9.0169042030357
0.31335488684406865,-0.63206923828125,2.5809493896484375,8.667010009765624,9.065201254428144
0.3158418303904501,-0.63206923828125,2.5809493896484375,8.810662109374999,9.202639734309084
0.3183287739368316,-0.6368576416015624,2.5713725830078125,9.0021982421875,9.383875415197831
0.32081571748321314,-0.6272808349609375,2.5617957763671875,9.227253198242186,9.596795320845011
0.3233026610295946,-0.622492431640625,2.5617957763671875,9.4618849609375,9.822299193227513
0.3257896045759761,-0.622492431640625,2.5522189697265625,9.686939916992188,10.036838319525655
0.3282765481223576,-0.6177040283203125,2.5378537597656248,9.878476049804688,10.217952291879449
0.3307634916687391,-0.612915625,2.5234885498046875,10.031704956054687,10.362372525136156
0.3332504352151206,-0.622492431640625,2.50912333984375,10.137049829101562,10.46149970127068
0.3357373787615021,-0.6177040283203125,2.50912333984375,10.17056865234375,10.49369929591987
0.3382243223078836,-0.6081272216796875,2.499546533203125,10.137049829101562,10.458361765930821
0.3407112658542651,-0.612915625,2.4947581298828125,10.036493359375,10.360052250966884
0.3431982094006466,-0.622492431640625,2.4947581298828125,9.892841259765625,10.221527436982564
0.34568515294702806,-0.6272808349609375,2.4851813232421875,9.725247143554688,10.057337592947732
0.3481720964934096,-0.6368576416015624,2.4947581298828125,9.548076220703125,9.88914381019101
0.3506590400397911,-0.6512228515624999,2.5043349365234375,9.370905297851563,9.721607417397163
0.35314598358617255,-0.6560112548828124,2.50912333984375,9.212887988281249,9.570964203553292
0.35563292713255407,-0.6512228515624999,2.5139117431640625,9.083601098632812,9.447520964459333
0.3581198706789356,-0.6512228515624999,2.5043349365234375,8.992621435546875,9.357511686326989
0.36060681422531704,-0.6464344482421874,2.5139117431640625,8.935160595703124,9.30455397207723
0.36309375777169856,-0.6272808349609375,2.5234885498046875,8.930372192382812,9.301237724162783
0.36558070131808007,-0.6177040283203125,2.5378537597656248,8.987833032226561,9.359668935798027
0.36806764486446153,-0.6081272216796875,2.5426421630859375,9.088389501953124,9.456937751009146
0.37055458841084304,-0.5985504150390625,2.5522189697265625,9.212887988281249,9.578590154787523
0.37304153195722456,-0.5793968017578125,2.5665841796874997,9.356540087890625,9.719459728895101
0.3755284755036061,-0.565031591796875,2.5761609863281247,9.5001921875,9.859488715275434
0.37801541904998753,-0.5506663818359374,2.5809493896484375,9.643844287109374,9.99841316659914
0.38050236259636905,-0.5458779785156249,2.5953145996093747,9.773131176757811,10.12658548754166
0.38298930614275056,-0.5506663818359374,2.5905261962890624,9.854534033203125,10.204209937535724
0.385476249689132,-0.5506663818359374,2.5905261962890624,9.907206469726562,10.255086517018567
0.38796319323551354,-0.5410895751953124,2.6001030029296874,9.911994873046874,10.26162540329438
0.39045013678189505,-0.55545478515625,2.6048914062499997,9.868899243164062,10.221994009410897
0.3929370803282765,-0.5506663818359374,2.6144682128906247,9.801861596679688,10.15948661403537
0.395424023874658,-0.5458779785156249,2.6001030029296874,9.725247143554688,10.081614473708608
0.39791096742103954,-0.55545478515625,2.6048914062499997,9.629479077148437,9.991038812553356
0.400397910967421,-0.565031591796875,2.6144682128906247,9.519345800781249,9.888005320123751
0.4028848545138025,-0.5793968017578125,2.6048914062499997,9.414000927734374,9.784915603091624
0.40537179806018403,-0.5793968017578125,2.5857377929687497,9.3086560546875,9.678471890352544
0.4078587416065655,-0.584185205078125,2.5905261962890624,9.222464794921875,9.597184754971918
0.410345685152947,-0.59376201171875,2.6048914062499997,9.184157568359375,9.564871290580347
0.4128326286993285,-0.5985504150390625,2.5953145996093747,9.160215551757812,9.53957385971484
0.41531957224571,-0.5985504150390625,2.5905261962890624,9.179369165039063,9.556668187243567
0.4178065157920915,-0.603338818359375,2.6048914062499997,9.2320416015625,9.611455098010659
0.420293459338473,-0.6177040283203125,2.6048914062499997,9.294290844726563,9.672169343602615
0.42278040288485447,-0.6081272216796875,2.5905261962890624,9.361328491210937,9.732169121617511
0.425267346431236,-0.5985504150390625,2.5905261962890624,9.433154541015625,9.80068840274432
0.4277542899776175,-0.603338818359375,2.6001030029296874,9.514557397460937,9.881870057087468
0.43024123352399896,-0.6081272216796875,2.6096798095703124,9.586383447265625,9.953843228835542
0.43272817707038047,-0.5889736083984375,2.6096798095703124,9.639055883789062,10.003435257484169
0.435215120616762,-0.584185205078125,2.6048914062499997,9.686939916992188,10.048061332794694
0.43770206416314344,-0.5793968017578125,2.6048914062499997,9.715670336914062,10.07548559563429
0.44018900770952496,-0.5793968017578125,2.6001030029296874,9.715670336914062,10.074248675475653
0.4426759512559065,-0.584185205078125,2.5857377929687497,9.701305126953125,10.056969397093045
0.445162894802288,-0.584185205078125,2.5713725830078125,9.658209497070311,10.01170514966235
0.44764983834866945,-0.5793968017578125,2.5665841796874997,9.595960253906249,9.950151164673722
0.45013678189505096,-0.5889736083984375,2.5617957763671875,9.524134204101562,9.8802236740339
0.4526237254414325,-0.5985504150390625,2.5426421630859375,9.452308154296874,9.806600900038347
0.45511066898781394,-0.59376201171875,2.528276953125,9.394847314453125,9.747199276723055
0.45759761253419545,-0.59376201171875,2.528276953125,9.342174877929686,9.696441054741882
0.46008455608057697,-0.5889736083984375,2.528276953125,9.294290844726563,9.650021583885753
0.4625714996269584,-0.5698199951171875,2.5234885498046875,9.275137231445312,9.629167147265319
0.46505844317333994,-0.565031591796875,2.518700146484375,9.260772021484375,9.613792673109646
0.46754538671972146,-0.5698199951171875,2.5139117431640625,9.270348828125,9.6220483512801
0.4700323302661029,-0.5602431884765625,2.518700146484375,9.294290844726563,9.645805573641985
0.47251927381248443,-0.5602431884765625,2.50912333984375,9.342174877929686,9.689468706518618
0.47500621735886595,-0.565031591796875,2.518700146484375,9.390058911132812,9.73839398885533
0.4774931609052474,-0.565031591796875,2.528276953125,9.433154541015625,9.782425550246485
0.4799801044516289,-0.565031591796875,2.5330653564453125,9.485826977539062,9.834459530017895
0.48246704799801043,-0.565031591796875,2.5378537597656248,9.5384994140625,9.886502590792949
0.4849539915443919,-0.5698199951171875,2.5474305664062498,9.586383447265625,9.935433806105529
0.4874409350907734,-0.5746083984375,2.5426421630859375,9.610325463867188,9.957588036392714
0.4899278786371549,-0.5698199951171875,2.528276953125,9.619902270507811,9.962901127315261
0.4924148221835364,-0.5698199951171875,2.5330653564453125,9.634267480468749,9.977987012021835
0.4949017657299179,-0.5746083984375,2.5522189697265625,9.624690673828125,9.973899290040036
0.4973887092762994,-0.5793968017578125,2.5570073730468748,9.600748657226562,9.952304363258838
0.49987565282268087,-0.5889736083984375,2.5522189697265625,9.581595043945311,9.933160381619706
0.5023625963690624,-0.59376201171875,2.5570073730468748,9.548076220703125,9.902353232880195
0.5048495399154439,-0.59376201171875,2.5570073730468748,9.495403784179686,9.851575156135707
0.5073364834618254,-0.59376201171875,2.5474305664062498,9.4618849609375,9.816782712846221
0.5098234270082069,-0.5985504150390625,2.5617957763671875,9.433154541015625,9.793133553354611
0.5123103705545884,-0.603338818359375,2.5761609863281247,9.394847314453125,9.760316553222312
0.5147973141009698,-0.612915625,2.5761609863281247,9.375693701171874,9.742479323511146
0.5172842576473514,-0.6272808349609375,2.5857377929687497,9.361328491210937,9.732111399909776
0.5197712011937329,-0.622492431640625,2.5905261962890624,9.361328491210937,9.733077309950197
0.5222581447401143,-0.622492431640625,2.5761609863281247,9.394847314453125,9.761519262738565
0.5247450882864959,-0.6368576416015624,2.5713725830078125,9.423577734375,9.788838640621206
0.5272320318328774,-0.6368576416015624,2.5713725830078125,9.437942944335937,9.80266859772639
0.5297189753792588,-0.6416460449218749,2.5713725830078125,9.485826977539062,9.849090316136614
0.5322059189256404,-0.6416460449218749,2.5665841796874997,9.519345800781249,9.880132006873067
0.5346928624720219,-0.6272808349609375,2.5570073730468748,9.528922607421874,9.885956403401801
0.5371798060184033,-0.6368576416015624,2.5522189697265625,9.552864624023437,9.908412176025827
0.5396667495647849,-0.6464344482421874,2.5378537597656248,9.576806640625,9.928434148129794
0.5421536931111663,-0.6368576416015624,2.5234885498046875,9.586383447265625,9.933394672249262
0.5446406366575478,-0.622492431640625,2.5234885498046875,9.572018237304688,9.918620086672277
0.5471275802039294,-0.63206923828125,2.528276953125,9.557653027343749,9.906585045553165
0.5496145237503108,-0.6272808349609375,2.528276953125,9.5384994140625,9.887802418620781
0.5521014672966923,-0.612915625,2.5330653564453125,9.504980590820312,9.8557973647627
0.5545884108430739,-0.5985504150390625,2.5330653564453125,9.481038574218749,9.831824609155248
0.5570753543894553,-0.603338818359375,2.528276953125,9.447519750976562,9.79856272759095
0.5595622979358368,-0.603338818359375,2.528276953125,9.418789331054686,9.770864575063555
0.5620492414822184,-0.5793968017578125,2.528276953125,9.414000927734374,9.764798946879237
0.5645361850285998,-0.584185205078125,2.528276953125,9.404424121093749,9.755852077340304
0.5670231285749813,-0.59376201171875,2.528276953125,9.394847314453125,9.747199276723055
0.5695100721213628,-0.5889736083984375,2.528276953125,9.404424121093749,9.756139980161356
0.5719970156677443,-0.5889736083984375,2.5234885498046875,9.409212524414063,9.759516622352548
0.5744839592141258,-0.5793968017578125,2.528276953125,9.418789331054686,9.769415410779695
0.5769709027605073,-0.5746083984375,2.528276953125,9.428366137695312,9.77836628428786
0.5794578463068888,-0.5746083984375,2.528276953125,9.442731347656249,9.792218056562461
0.5819447898532703,-0.565031591796875,2.528276953125,9.457096557617186,9.805514792785047
0.5844317333996518,-0.565031591796875,2.528276953125,9.476250170898437,9.823989126260482
0.5869186769460333,-0.5746083984375,2.528276953125,9.504980590820312,9.85225939544472
0.5894056204924147,-0.5746083984375,2.528276953125,9.524134204101562,9.870739156770137
0.5918925640387963,-0.5602431884765625,2.5234885498046875,9.5384994140625,9.882552198865453
0.5943795075851778,-0.5602431884765625,2.5234885498046875,9.548076220703125,9.891795914169794
0.5968664511315592,-0.5793968017578125,2.528276953125,9.543287817382812,9.889500865614878
0.5993533946779408,-0.5889736083984375,2.5426421630859375,9.5384994140625,9.889129898679805
0.6018403382243223,-0.584185205078125,2.5474305664062498,9.524134204101562,9.876224338391182
0.6043272817707037,-0.584185205078125,2.5570073730468748,9.5001921875,9.855618228152117
0.6068142253170853,-0.584185205078125,2.5761609863281247,9.485826977539062,9.84676552118101
0.6093011688634667,-0.59376201171875,2.5857377929687497,9.466673364257812,9.831403655943312
0.6117881124098483,-0.6081272216796875,2.5953145996093747,9.452308154296874,9.820977855207728
0.6142750559562298,-0.603338818359375,2.6048914062499997,9.437942944335937,9.809395699462575
0.6167619995026112,-0.5889736083984375,2.6096798095703124,9.428366137695312,9.800581954471296
0.6192489430489928,-0.5889736083984375,2.6096798095703124,9.433154541015625,9.80518858638387
0.6217358865953743,-0.59376201171875,2.6096798095703124,9.437942944335937,9.810084049363681
0.6242228301417557,-0.59376201171875,2.6096798095703124,9.442731347656249,9.814690893708738
0.6267097736881373,-0.59376201171875,2.6144682128906247,9.452308154296874,9.825178207369216
0.6291967172345188,-0.5985504150390625,2.6192566162109374,9.457096557617186,9.831350015181183
0.6316836607809002,-0.5985504150390625,2.6144682128906247,9.4618849609375,9.834682183455353
0.6341706043272818,-0.603338818359375,2.6096798095703124,9.485826977539062,9.856741849415865
0.6366575478736632,-0.603338818359375,2.6096798095703124,9.504980590820312,9.875176072865186
0.6391444914200447,-0.6081272216796875,2.6048914062499997,9.514557397460937,9.883424529265227
0.6416314349664263,-2.4756045166015626,0.9720458740234375,-14.547169287109375,14.788293517902677
0.6441183785128077,-2.6479870361328124,1.5131354492187499,-13.872004418945311,14.203306686488471
0.6466053220591892,-2.6431986328124997,2.1308394775390624,-11.281478222656249,11.78128714444258
0.6490922656055708,-2.480392919921875,2.7629087158203123,-7.144297753906249,8.05152184407546
0.6515792091519522,-2.1787235107421874,3.347093920898437,-1.924938134765625,4.433425388370825
0.6540661526983337,-1.7573440185546874,3.816357446289062,3.912125512695312,5.74086824308636
0.6565530962447153,-1.2593500732421874,4.122815258789062,9.816226806640625,10.721094952685059
0.6590400397910967,-0.7565677246093749,4.280832568359375,15.327679028320311,15.932221018911871
0.6615269833374782,-0.26815058593749996,4.271255761718749,19.982007055664063,20.435169108460116
0.6640139268838597,0.16759411621093748,4.089296435546875,23.44402265625,23.798584651872222
0.6665008704302412,0.5123591552734374,3.778050219726562,25.526978100585936,25.81012952920931
0.6689878139766227,0.74699091796875,3.356670727539062,26.125528515625,26.350872357957723
0.6714747575230042,0.8762778076171874,2.8730419921875,25.277981127929685,25.455815897137622
0.6739617010693857,0.8810662109374999,2.39420166015625,23.16150686035156,23.30158533876318
0.6764486446157671,0.7517793212890624,1.9632453613281249,20.063409912109375,20.17324767601942
0.6789355881621487,0.51714755859375,1.6041151123046875,16.294936499023436,16.38186748811288
0.6814225317085302,0.2154781494140625,1.3646949462890625,12.210428466796873,12.288343520266077
0.6839094752549116,-0.13407529296874998,1.24498486328125,8.169016064453125,8.264429015683861
0.6863964188012932,-0.49320554199218747,1.2401964599609374,4.491522314453125,4.685628204113276
0.6888833623476747,-0.8475473876953125,1.3551181396484375,1.4700398193359374,2.171565982701568
0.6913703058940561,-1.1635820068359375,1.5801730957031248,-0.6655880615234374,2.072167359712741
0.6938572494404377,-1.4173673828125,1.8914193115234375,-1.8243816650390623,2.9857605010441226
0.6963441929868192,-1.5849614990234373,2.2361843505859373,-1.9728221679687499,3.377077243656264
0.6988311365332006,-1.66636435546875,2.5905261962890624,-1.1540052001953125,3.2892741054698504
0.7013180800795822,-1.6519991455078125,2.920926025390625,0.49320554199218747,3.391778549553998
0.7038050236259636,-1.5562310791015623,3.189076611328125,2.786850732421875,4.512050732126361
0.7062919671723451,-1.388636962890625,3.380612744140625,5.501875415039062,6.605110765397001
0.7087789107187267,-1.1731588134765625,3.4668040039062498,8.350975390624999,9.117775034401896
0.7112658542651081,-0.9193734375,3.4620156005859375,11.094730493164063,11.658638181718542
0.7137527978114896,-0.6464344482421874,3.3710359375,13.536816186523437,13.965212252433316
0.7162397413578712,-0.38786066894531246,3.208230224609375,15.452177514648437,15.786480513934022
0.7187266849042526,-0.15322890625,2.9927520751953125,16.7402580078125,17.00636005291629
0.7212136284506341,0.033518823242187495,2.729389892578125,17.37232724609375,17.585461229168555
0.7237005719970157,0.13407529296874998,2.4756045166015626,17.29571279296875,17.472500534373022
0.7261875155433971,0.1771709228515625,2.2266075439453124,16.577452294921873,16.72725605952957
0.7286744590897786,0.17238251953125,2.0350714111328125,15.332467431640625,15.467895426455744
0.7311614026361601,0.105344873046875,1.915361328125,13.6756798828125,13.809559254976842
0.7336483461825416,-0.0143652099609375,1.867477294921875,11.7603185546875,11.907676948676137
0.7361352897289231,-0.16759411621093748,1.8818425048828125,9.777919580078125,9.958771526420682
0.7386222332753046,-0.3447650390625,1.9632453613281249,7.900865478515625,8.14842749188677
0.7411091768216861,-0.5410895751953124,2.1068974609374997,6.282385156249999,6.648319944975592
0.7435961203680675,-0.7278373046875,2.288856787109375,5.051765502929687,5.593652405234155
0.7460830639144491,-0.8906430175781249,2.480392919921875,4.271255761718749,5.018886311122702
0.7485700074608306,-1.01514150390625,2.6719290527343746,3.9791631591796874,4.899332258907527
0.7510569510072121,-1.1013327636718748,2.844311572265625,4.1754876953124995,5.170854829732447
0.7535438945535936,-1.1444283935546875,2.9831752685546875,4.80755693359375,5.772491204032781
0.7560308380999751,-1.13006318359375,3.0693665283203124,5.7700260009765625,6.632590273492907
0.7585177816463566,-1.0678139404296874,3.1124621582031247,6.962338427734375,7.700766434578392
0.7610047251927381,-0.9816226806640624,3.1172505615234374,8.298302954101562,8.918669523452643
0.7634916687391196,-0.8714894042968749,3.0741549316406247,9.648632690429688,10.163957650460794
0.7659786122855011,-0.7326257080078125,2.978386865234375,10.874463940429687,11.298738634853898
0.7684655558318826,-0.5985504150390625,2.85388837890625,11.9135474609375,12.265217266017341
0.770952499378264,-0.47884033203125,2.70065947265625,12.69884560546875,12.99167153842648
0.7734394429246456,-0.3591302490234375,2.5426421630859375,13.163320727539062,13.411450938706277
0.7759263864710271,-0.27293898925781246,2.398990063476562,13.287819213867186,13.505398493822177
0.7784133300174085,-0.22026655273437498,2.2840683837890623,13.081917871093749,13.281643758289869
0.7809002735637901,-0.201112939453125,2.2074539306640624,12.588712329101561,12.782369787144063
0.7833872171101716,-0.2154781494140625,2.1595698974609374,11.865663427734374,12.062509753578126
0.785874160656553,-0.24899697265624998,2.1308394775390624,10.989385620117186,11.196833154024816
0.7883611042029346,-0.316034619140625,2.1595698974609374,10.050858569335936,10.285104666619024
0.790848047749316,-0.40222587890625,2.24097275390625,9.126696728515624,9.406398764442738
0.7933349912956975,-0.49799394531249996,2.3367408203125,8.288726147460936,8.626200599249085
0.7958219348420791,-0.603338818359375,2.446874096679687,7.6087728759765625,8.0152751202275
0.7983088783884605,-0.7038952880859375,2.5570073730468748,7.1203557373046875,7.598238026554146
0.800795821934842,-0.7948749511718749,2.6479870361328124,6.861781958007812,7.397818135826904
0.8032827654812236,-0.8475473876953125,2.7198130859375,6.847416748046874,7.416389682201094
0.805769709027605,-0.8810662109374999,2.7724855224609373,7.048529687499999,7.625268808106381
0.8082566525739865,-0.8954314208984374,2.8012159423828122,7.445967163085937,8.005687676842374
0.8107435961203681,-0.8810662109374999,2.806004345703125,7.982268334960937,8.506852874446615
0.8132305396667495,-0.8475473876953125,2.767697119140625,8.595183959960938,9.069491232878406
0.815717483213131,-0.8092401611328125,2.710236279296875,9.251195214843749,9.673926980867444
0.8182044267595125,-0.74699091796875,2.6527754394531247,9.888052856445311,10.264930699013501
0.820691370305894,-0.6703764648437499,2.5713725830078125,10.43871923828125,10.771639657031038
0.8231783138522755,-0.5985504150390625,2.4947581298828125,10.864887133789061,11.16368456899132
0.825665257398657,-0.5315127685546874,2.427720483398437,11.142614526367186,11.41640009161636
0.8281522009450385,-0.469263525390625,2.375048046875,11.257536206054686,11.514911328875222
0.83063914449142,-0.4213794921875,2.3415292236328122,11.219228979492186,11.46871477872913
0.8331260880378015,-0.39264907226562495,2.3223756103515623,11.051634863281249,11.29983340234715
0.835613031584183,-0.38307226562499996,2.3223756103515623,10.754753857421875,11.009309849848789
0.8380999751305644,-0.37828386230468747,2.35589443359375,10.376469995117187,10.64727508906788
0.840586918676946,-0.39743747558593745,2.403778466796875,9.969455712890625,10.262853144994523
0.8430738622233275,-0.45010991210937495,2.4564509033203126,9.5384994140625,9.860006138206657
0.8455608057697089,-0.488417138671875,2.5139117431640625,9.121908325195312,9.474572024478686
0.8480477493160905,-0.5363011718749999,2.5809493896484375,8.762778076171875,9.150693870473408
0.850534692862472,-0.59376201171875,2.6431986328124997,8.480262280273436,8.902465988774717
0.8530216364088534,-0.6368576416015624,2.6910826660156246,8.298302954101562,8.746962072002301
0.855508579955235,-0.6847416748046875,2.729389892578125,8.245630517578125,8.71256925248446
0.8579955235016165,-0.7278373046875,2.7437551025390623,8.307879760742187,8.779453589133755
0.8604824670479979,-0.737414111328125,2.7437551025390623,8.44674345703125,8.911758898399082
0.8629694105943795,-0.737414111328125,2.7341782958984373,8.662221606445312,9.113374440047766
0.8654563541407609,-0.7422025146484375,2.70065947265625,8.930372192382812,9.359272068621715
0.8679432976871424,-0.7230489013671875,2.6623522460937497,9.236830004882812,9.640018036038736
0.870430241233524,-0.689530078125,2.6240450195312497,9.543287817382812,9.921461906320712
0.8729171847799054,-0.6607996582031249,2.5761609863281247,9.816226806640625,10.1701312840676
0.8754041283262869,-0.622492431640625,2.528276953125,10.036493359375,10.368745349941397
0.8778910718726685,-0.5746083984375,2.4851813232421875,10.199299072265624,10.513420118423173
0.8803780154190499,-0.5410895751953124,2.4564509033203126,10.304643945312499,10.607196416041035
0.8828649589654315,-0.51714755859375,2.442085693359375,10.32379755859375,10.621300304665917
0.885351902511813,-0.49320554199218747,2.437297290039062,10.266336718749999,10.56320687146844
0.8878388460581944,-0.47884033203125,2.442085693359375,10.137049829101562,10.438048181292245
0.890325789604576,-0.47884033203125,2.4660277099609376,9.97903251953125,10.290367862993879
0.8928127331509574,-0.4836287353515625,2.4947581298828125,9.797073193359374,10.121282430419328
0.8952996766973389,-0.49320554199218747,2.5234885498046875,9.576806640625,9.915970532407115
0.8977866202437205,-0.5219359619140624,2.5522189697265625,9.366116894531249,9.721645153974453
0.9002735637901019,-0.5458779785156249,2.5761609863281247,9.184157568359375,9.554231441375082
0.9027605073364834,-0.5698199951171875,2.5953145996093747,9.04050546875,9.422902516118883
0.905247450882865,-0.603338818359375,2.6048914062499997,8.963891015625,9.354187250001841
0.9077343944292464,-0.63206923828125,2.6144682128906247,8.935160595703124,9.331240562176218
0.9102213379756279,-0.6416460449218749,2.6144682128906247,8.935160595703124,9.331894156825033
0.9127082815220094,-0.6655880615234374,2.5953145996093747,8.973467822265624,9.364923389746691
0.9151952250683909,-0.6847416748046875,2.5761609863281247,9.054870678710937,9.439076204633189
0.9176821686147724,-0.679953271484375,2.5617957763671875,9.165003955078124,9.540567674295525
0.9201691121611539,-0.6703764648437499,2.5378537597656248,9.294290844726563,9.657843890690144
0.9226560557075354,-0.6655880615234374,2.5139117431640625,9.442731347656249,9.794280730307392
0.9251429992539169,-0.6560112548828124,2.4947581298828125,9.591171850585937,9.932006159916604
0.9276299428002984,-0.6416460449218749,2.4756045166015626,9.715670336914062,10.046620201101153
0.9301168863466799,-0.622492431640625,2.4660277099609376,9.816226806640625,10.140369727635923
0.9326038298930613,-0.59376201171875,2.47081611328125,9.878476049804688,10.200086992706257
0.9350907734394429,-0.565031591796875,2.480392919921875,9.888052856445311,10.210053821052236
0.9375777169858244,-0.55545478515625,2.4947581298828125,9.878476049804688,10.203756034497012
0.9400646605322058,-0.5458779785156249,2.5139117431640625,9.830592016601562,10.16160786572267
0.9425516040785874,-0.5267243652343749,2.528276953125,9.739612353515625,10.076193314212901
0.9450385476249689,-0.5267243652343749,2.5426421630859375,9.643844287109374,9.987301956006236
0.9475254911713503,-0.5315127685546874,2.5665841796874997,9.5384994140625,9.892058999350413
0.9500124347177319,-0.5410895751953124,2.5857377929687497,9.442731347656249,9.805304338284555
0.9524993782641133,-0.55545478515625,2.5953145996093747,9.370905297851563,9.739509946121572
0.9549863218104948,-0.5698199951171875,2.6096798095703124,9.303867651367186,9.679725037906348
0.9574732653568764,-0.5793968017578125,2.6096798095703124,9.241618408203124,9.620480246079453
0.9599602089032578,-0.5889736083984375,2.6144682128906247,9.208099584960937,9.590173716579026
0.9624471524496393,-0.6081272216796875,2.6192566162109374,9.208099584960937,9.592675430028393
0.9649340959960209,-0.6177040283203125,2.6096798095703124,9.203311181640624,9.586079682601925
0.9674210395424023,-0.612915625,2.6001030029296874,9.2320416015625,9.61076445045834
0.9699079830887838,-0.6272808349609375,2.5905261962890624,9.284714038085937,9.659721631009832
0.9723949266351654,-0.6272808349609375,2.5809493896484375,9.351751684570312,9.721627464972086
0.9748818701815468,-0.6177040283203125,2.5761609863281247,9.428366137695312,9.793480061782013
0.9773688137279283,-0.612915625,2.5570073730468748,9.485826977539062,9.843518970215534
0.9798557572743098,-0.622492431640625,2.5522189697265625,9.528922607421874,9.88441624756453
0.9823427008206913,-0.6177040283203125,2.5665841796874997,9.581595043945311,9.938605345026165
0.9848296443670728,-0.612915625,2.5617957763671875,9.639055883789062,9.992490254885938
0.9873165879134543,-0.603338818359375,2.5665841796874997,9.672574707031249,10.025471238014804
0.9898035314598358,-0.59376201171875,2.5713725830078125,9.682151513671874,10.035365873793696
0.9922904750062173,-0.584185205078125,2.5713725830078125,9.677363110351562,10.030183751261475
0.9947774185525988,-0.584185205078125,2.5761609863281247,9.658209497070311,10.012936056452693
0.9972643620989803,-0.5793968017578125,2.5857377929687497,9.629479077148437,9.987422484560948
0.9997513056453617,-0.584185205078125,2.5953145996093747,9.586383447265625,9.94865206059525
1.0022382491917432,10.204087475585936,9.394847314453125,8.528146313476562,16.282378106878635
1.0047251927381249,9.907206469726562,9.476250170898437,8.552088330078124,16.158288032483608
1.0072121362845063,9.332598071289063,9.3086560546875,8.59997236328125,15.738741657257732
1.0096990798308878,8.513781103515624,8.911218579101561,8.671798413085938,15.06965072456241
1.0121860233772693,7.48906279296875,8.327033374023436,8.75320126953125,14.214221005530078
1.0146729669236507,6.315903979492187,7.60398447265625,8.8489693359375,13.267082620038392
1.0171599104700322,5.032611889648437,6.746860278320312,8.968679418945312,12.299777094192416
1.0196468540164139,3.7014357666015623,5.817910034179687,9.088389501953124,11.408221931541204
1.0221337975627953,2.346317626953125,4.874594580078124,9.193734375,10.667315992541639
1.0246207411091768,1.0103531005859374,3.9264907226562498,9.303867651367186,10.148896297486045
1.0271076846555582,-0.26336218261718747,3.0119056884765625,9.414000927734374,9.887585599270128
1.0295946282019397,-1.446097802734375,2.1739351074218747,9.5384994140625,9.889396532570894
1.0320815717483212,-2.5139117431640625,1.4173673828125,9.658209497070311,10.080163353814168
1.0345685152947028,-3.447650390625,0.7709329345703124,9.744400756835937,10.36503627178442
1.0370554588410843,-4.218583325195312,0.24899697265624998,9.801861596679688,10.67403089392531
1.0395424023874658,-4.836287353515624,-0.1388636962890625,9.840168823242188,10.965303505230931
1.0420293459338472,-5.276820458984375,-0.39743747558593745,9.873687646484374,11.202343435357369
1.0445162894802287,-5.5449710449218745,-0.5315127685546874,9.897629663085937,11.357476949558704
1.0470032330266101,-5.65031591796875,-0.5363011718749999,9.9215716796875,11.430278803029372
1.0494901765729918,-5.6024318847656245,-0.430956298828125,9.9215716796875,11.402216931374143
1.0519771201193733,-5.425260961914062,-0.22505495605468748,9.897629663085937,11.289250603370983
1.0544640636657547,-5.128379956054687,0.05746083984375,9.854534033203125,11.109249467598506
1.0569510072121362,-4.716577270507813,0.40222587890625,9.80665,10.889365042500541
1.0594379507585177,-4.223371728515625,0.7996633544921875,9.758765966796874,10.663481768749628
1.0619248943048991,-3.6535517333984373,1.2114660400390624,9.715670336914062,10.450375128691718
1.0644118378512808,-3.0406361083984375,1.6328455322265625,9.677363110351562,10.274386076326016
1.0668987813976623,-2.422932080078125,2.04943662109375,9.634267480468749,10.143465887642623
1.0693857249440437,-1.7908628417968748,2.446874096679687,9.572018237304688,10.040812501905629
1.0718726684904252,-1.177947216796875,2.81558115234375,9.519345800781249,9.996649506001722
1.0743596120368066,-0.5985504150390625,3.1268273681640624,9.471461767578125,9.99219195193614
1.076846555583188,-0.062249243164062495,3.399766357421875,9.428366137695312,10.022792738542073
1.0793334991295698,0.411802685546875,3.6248213134765623,9.394847314453125,10.078296833708793
1.0818204426759512,0.82360537109375,3.778050219726562,9.361328491210937,10.128497439918126
1.0843073862223327,1.16837041015625,3.873818286132812,9.327809667968749,10.167575459821132
1.0867943297687142,1.43652099609375,3.912125512695312,9.303867651367186,10.194619751293155
1.0892812733150956,1.6328455322265625,3.88818349609375,9.303867651367186,10.214994307661891
1.0917682168614773,1.7381904052734374,3.825934252929687,9.313444458007812,10.217598860061091
1.0942551604078588,1.7764976318359373,3.73495458984375,9.318232861328125,10.194866025703767
1.0967421039542402,1.7477672119140624,3.5960908935546874,9.327809667968749,10.148625184900666
1.0992290475006217,1.6472107421875,3.4332851806640625,9.332598071289063,10.07959012664571
1.1017159910470031,1.4987702392578124,3.2561142578125,9.342174877929686,10.00623924058561
1.1042029345933846,1.2928688964843749,3.0645781249999997,9.356540087890625,9.930155662628332
1.1066898781397663,1.0630255371093749,2.8730419921875,9.366116894531249,9.854366507464754
1.1091768216861477,0.8044517578125,2.7054478759765623,9.390058911132812,9.805090371578348
1.1116637652325292,0.5123591552734374,2.5330653564453125,9.414000927734374,9.762292019367152
1.1141507087789106,0.22026655273437498,2.365471240234375,9.423577734375,9.71842522523262
1.116637652325292,-0.05746083984375,2.2361843505859373,9.423577734375,9.685434399846464
1.1191245958716736,-0.3447650390625,2.1356278808593747,9.423577734375,9.668691053781371
1.1216115394180552,-0.6272808349609375,2.04943662109375,9.433154541015625,9.673576190038158
1.1240984829644367,-0.8762778076171874,1.9823989746093749,9.457096557617186,9.702290646581844
1.1265854265108182,-1.0917559570312498,1.9536685546875,9.485826977539062,9.74626417347159
1.1290723700571996,-1.2832920898437499,1.9776105712890624,9.514557397460937,9.802274462037289
1.131559313603581,-1.43652099609375,2.001552587890625,9.543287817382812,9.856173075779312
1.1340462571499625,-1.5610194824218748,2.0350714111328125,9.548076220703125,9.886559411102896
1.1365332006963442,-1.6519991455078125,2.0877438476562498,9.533711010742186,9.898455495001826
1.1390201442427257,-1.6903063720703124,2.1547814941406247,9.528922607421874,9.9146651470026
1.1415070877891071,-1.6998831787109374,2.231395947265625,9.543287817382812,9.947013273347183
1.1439940313354886,-1.6615759521484375,2.3127988037109373,9.548076220703125,9.963715796205811
1.14648097488187,-1.62805712890625,2.39420166015625,9.533711010742186,9.963654813411804
1.1489679184282515,-1.5562310791015623,2.4756045166015626,9.528922607421874,9.967489099688816
1.1514548619746332,-1.465251416015625,2.5522189697265625,9.533711010742186,9.977596354729664
1.1539418055210147,-1.3646949462890625,2.6192566162109374,9.528922607421874,9.976134701186997
1.1564287490673961,-1.2401964599609374,2.6862942626953124,9.524134204101562,9.973133733327087
1.1589156926137776,-1.0965443603515623,2.73896669921875,9.519345800781249,9.966057023141081
1.161402636160159,-0.9720458740234375,2.7724855224609373,9.514557397460937,9.957828660056373
1.1638895797065405,-0.8475473876953125,2.806004345703125,9.490615380859374,9.932964173392477
1.1663765232529222,-0.7134720947265625,2.834734765625,9.485826977539062,9.92601012840529
1.1688634667993036,-0.5985504150390625,2.834734765625,9.490615380859374,9.92299169092623
1.171350410345685,-0.4836287353515625,2.829946362304687,9.485826977539062,9.910772251191485
1.1738373538920666,-0.36391865234375,2.825157958984375,9.481038574218749,9.899699324957316
1.176324297438448,-0.2825157958984375,2.806004345703125,9.476250170898437,9.887001206861948
1.1788112409848295,-0.22026655273437498,2.767697119140625,9.471461767578125,9.87001786787881
1.1812981845312112,-0.16280571289062498,2.729389892578125,9.466673364257812,9.853627731521309
1.1837851280775926,-0.1149216796875,2.6815058593749996,9.471461767578125,9.84440291135114
1.186272071623974,-0.086191259765625,2.6384102294921874,9.466673364257812,9.827845239822274
1.1887590151703555,-0.08140285644531249,2.6048914062499997,9.442731347656249,9.795777711208158
1.191245958716737,-0.086191259765625,2.5617957763671875,9.457096557617186,9.798311172501492
1.1937329022631185,-0.105344873046875,2.5234885498046875,9.457096557617186,9.788552870744862
1.1962198458095001,-0.1388636962890625,2.4851813232421875,9.457096557617186,9.779165845594076
1.1987067893558816,-0.181959326171875,2.442085693359375,9.4618849609375,9.773646133562782
1.201193732902263,-0.2346317626953125,2.422932080078125,9.466673364257812,9.774638433941458
1.2036806764486445,-0.2920926025390625,2.398990063476562,9.4618849609375,9.765640707456555
1.206167619995026,-0.3495534423828125,2.389413256835937,9.4618849609375,9.765180507038272
1.2086545635414074,-0.4165910888671875,2.389413256835937,9.466673364257812,9.772448435925114
1.2111415070877891,-0.488417138671875,2.389413256835937,9.471461767578125,9.78041078012503
1.2136284506341706,-0.5410895751953124,2.398990063476562,9.481038574218749,9.794795745643102
1.216115394180552,-0.6081272216796875,2.403778466796875,9.490615380859374,9.809166628342528
1.2186023377269335,-0.6607996582031249,2.4133552734375,9.495403784179686,9.819553599259176
1.221089281273315,-0.699106884765625,2.418143676757812,9.471461767578125,9.800242715997632
1.2235762248196966,-0.7422025146484375,2.43250888671875,9.4618849609375,9.79771560470763
1.226063168366078,-0.7757213378906249,2.461239306640625,9.4618849609375,9.80748232384983
1.2285501119124596,-0.7900865478515624,2.4899697265625,9.466673364257812,9.820493397881904
1.231037055458841,-0.814028564453125,2.499546533203125,9.476250170898437,9.8341086366201
1.2335239990052225,-0.8379705810546875,2.50912333984375,9.495403784179686,9.85700703326703
1.236010942551604,-0.833182177734375,2.5139117431640625,9.5001921875,9.862433593852401
1.2384978860979856,-0.8283937744140625,2.5330653564453125,9.485826977539062,9.8530995018481
1.240984829644367,-0.814028564453125,2.5426421630859375,9.485826977539062,9.854368834230623
1.2434717731907485,-0.7948749511718749,2.5570073730468748,9.485826977539062,9.856522020551896
1.24595871673713,-0.7805097412109374,2.5809493896484375,9.476250170898437,9.852401357512008
1.2484456602835114,-0.7517793212890624,2.5857377929687497,9.476250170898437,9.851422708591759
1.250932603829893,-0.7230489013671875,2.5905261962890624,9.485826977539062,9.859743360515832
1.2534195473762746,-0.699106884765625,2.6048914062499997,9.504980590820312,9.880225994710477
1.255906490922656,-0.6607996582031249,2.6048914062499997,9.528922607421874,9.900630357955606
1.2583934344690375,-0.6272808349609375,2.6048914062499997,9.533711010742186,9.903059432347721
1.260880378015419,-0.603338818359375,2.6048914062499997,9.524134204101562,9.892351050474891
1.2633673215618004,-0.5793968017578125,2.6096798095703124,9.509768994140625,9.878351870847917
1.2658542651081819,-0.5602431884765625,2.6144682128906247,9.485826977539062,9.855467006400952
1.2683412086545636,-0.5410895751953124,2.6048914062499997,9.466673364257812,9.833419636743287
1.270828152200945,-0.5315127685546874,2.5953145996093747,9.466673364257812,9.83036460563038
1.2733150957473265,-0.5123591552734374,2.5905261962890624,9.476250170898437,9.837309346518744
1.275802039293708,-0.49799394531249996,2.5857377929687497,9.490615380859374,9.849153172276251
1.2782889828400894,-0.49320554199218747,2.5809493896484375,9.485826977539062,9.8430414459346
1.2807759263864709,-0.49320554199218747,2.5713725830078125,9.476250170898437,9.831303370802305
1.2832628699328525,-0.49799394531249996,2.5713725830078125,9.4618849609375,9.817699422177652
1.285749813479234,-0.49799394531249996,2.5761609863281247,9.452308154296874,9.809726440672756
1.2882367570256155,-0.49799394531249996,2.5713725830078125,9.457096557617186,9.813084643999918
1.290723700571997,-0.5027823486328125,2.5617957763671875,9.4618849609375,9.81543960828677
1.2932106441183784,-0.5267243652343749,2.5905261962890624,9.4618849609375,9.824231855193904
1.2956975876647598,-0.5363011718749999,2.5953145996093747,9.4618849609375,9.826013628726317
1.2981845312111415,-0.5363011718749999,2.5857377929687497,9.471461767578125,9.832713099426604
1.300671474757523,-0.5602431884765625,2.5905261962890624,9.490615380859374,9.853754548967554
1.3031584183039044,-0.5793968017578125,2.5905261962890624,9.509768994140625,9.873309118500517
1.305645361850286,-0.5889736083984375,2.5953145996093747,9.490615380859374,9.85668950965485
1.3081323053966674,-0.603338818359375,2.5953145996093747,9.471461767578125,9.839119046712414
1.3106192489430488,-0.5985504150390625,2.5953145996093747,9.466673364257812,9.834217053524766
1.3131061924894305,-0.5985504150390625,2.5953145996093747,9.457096557617186,9.824998512487614
1.315593136035812,-0.612915625,2.5809493896484375,9.452308154296874,9.817489228875322
1.3180800795821934,-0.622492431640625,2.5761609863281247,9.452308154296874,9.816834097544694
1.3205670231285749,-0.6368576416015624,2.5713725830078125,9.466673364257812,9.830333117542807
1.3230539666749563,-0.6560112548828124,2.5617957763671875,9.481038574218749,9.84292846728907
1.3255409102213378,-0.6512228515624999,2.5570073730468748,9.485826977539062,9.84597843568739
1.3280278537677195,-0.6416460449218749,2.5330653564453125,9.481038574218749,9.834542297067575
1.330514797314101,-0.6368576416015624,2.5234885498046875,9.4618849609375,9.813299604652704
1.3330017408604824,-0.6368576416015624,2.518700146484375,9.447519750976562,9.79821756895911
1.3354886844068639,-0.6416460449218749,2.50912333984375,9.452308154296874,9.800690742253819
1.3379756279532453,-0.63206923828125,2.5043349365234375,9.457096557617186,9.803462668688454
1.3404625714996268,-0.622492431640625,2.4899697265625,9.452308154296874,9.7945686740374
1.3429495150460085,-0.6177040283203125,2.499546533203125,9.452308154296874,9.796704577664782
1.34543645859239,-0.603338818359375,2.5043349365234375,9.4618849609375,9.806272391589292
1.3479234021387714,-0.59376201171875,2.5043349365234375,9.481038574218749,9.824171173522783
1.3504103456851528,-0.584185205078125,2.50912333984375,9.490615380859374,9.834060839540568
1.3528972892315343,-0.55545478515625,2.5139117431640625,9.495403784179686,9.838240457286306
1.3553842327779158,-0.5602431884765625,2.5234885498046875,9.490615380859374,9.83634318223161
1.3578711763242974,-0.565031591796875,2.5330653564453125,9.490615380859374,9.839078265119984
1.360358119870679,-0.5602431884765625,2.5522189697265625,9.485826977539062,9.839136524485996
1.3628450634170604,-0.5602431884765625,2.5665841796874997,9.476250170898437,9.833643479560829
1.3653320069634418,-0.565031591796875,2.5761609863281247,9.481038574218749,9.841034425965164
1.3678189505098233,-0.5698199951171875,2.5905261962890624,9.490615380859374,9.85430368457862
1.370305894056205,-0.5698199951171875,2.5953145996093747,9.490615380859374,9.855563555940646
1.3727928376025864,-0.565031591796875,2.5905261962890624,9.485826977539062,9.849416232508212
1.3752797811489679,-0.5698199951171875,2.6001030029296874,9.490615380859374,9.856825592455404
1.3777667246953493,-0.5746083984375,2.6096798095703124,9.490615380859374,9.859634061537902
1.3802536682417308,-0.5698199951171875,2.6048914062499997,9.476250170898437,9.8442608339399
1.3827406117881123,-0.5793968017578125,2.6001030029296874,9.485826977539062,9.852773707314048
1.385227555334494,-0.59376201171875,2.5953145996093747,9.481038574218749,9.847756274569845
1.3877144988808754,-0.5889736083984375,2.5953145996093747,9.471461767578125,9.838248614312894
1.3902014424272569,-0.59376201171875,2.5857377929687497,9.4618849609375,9.826792980141713
1.3926883859736383,-0.612915625,2.6001030029296874,9.452308154296874,9.822541963921575
1.3951753295200198,-0.6177040283203125,2.6001030029296874,9.4618849609375,9.832057816472723
1.3976622730664012,-0.6177040283203125,2.5905261962890624,9.4618849609375,9.829529554067085
1.400149216612783,-0.6177040283203125,2.5905261962890624,9.4618849609375,9.829529554067085
1.4026361601591644,-0.6177040283203125,2.5953145996093747,9.466673364257812,9.835401401218816
1.4051231037055458,-0.622492431640625,2.5905261962890624,9.4618849609375,9.829831626997736
1.4076100472519273,-0.63206923828125,2.5953145996093747,9.452308154296874,9.822489441924292
1.4100969907983087,-0.6368576416015624,2.6001030029296874,9.476250170898437,9.847103156916909
1.4125839343446902,-0.6272808349609375,2.5953145996093747,9.495403784179686,9.863662207388732
1.4150708778910719,-0.6272808349609375,2.5953145996093747,9.5001921875,9.868271921481028
1.4175578214374533,-0.622492431640625,2.5905261962890624,9.495403784179686,9.86209997037769
1.4200447649838348,-0.612915625,2.5953145996093747,9.481038574218749,9.848929681957253
1.4225317085302163,-0.6081272216796875,2.5809493896484375,9.471461767578125,9.835634523728942
1.4250186520765977,-0.612915625,2.5761609863281247,9.4618849609375,9.825453577563913
1.4275055956229792,-0.612915625,2.5761609863281247,9.457096557617186,9.820842443036293
1.4299925391693609,-0.6177040283203125,2.5713725830078125,9.481038574218749,9.842947103031252
1.4324794827157423,-0.622492431640625,2.5617957763671875,9.495403784179686,9.854592201196178
1.4349664262621238,-0.6177040283203125,2.5474305664062498,9.495403784179686,9.850566165549974
1.4374533698085052,-0.6177040283203125,2.5330653564453125,9.5001921875,9.85147856750765
1.4399403133548867,-0.612915625,2.528276953125,9.504980590820312,9.854567770680914
1.4424272569012682,-0.612915625,2.528276953125,9.5001921875,9.849949315326866
1.4449142004476498,-0.622492431640625,2.5234885498046875,9.490615380859374,9.84008493844691
1.4474011439940313,-0.6177040283203125,2.5043349365234375,9.495403784179686,9.839509376260022
1.4498880875404128,-0.603338818359375,2.4899697265625,9.504980590820312,9.844217744483705
1.4523750310867942,-0.603338818359375,2.499546533203125,9.509768994140625,9.851266767441913
1.4548619746331757,-0.5985504150390625,2.4947581298828125,9.514557397460937,9.854383958195381
1.4573489181795571,-0.5985504150390625,2.4947581298828125,9.509768994140625,9.84976076094634
1.4598358617259388,-0.5889736083984375,2.5043349365234375,9.490615380859374,9.833125835312302
1.4623228052723203,-0.584185205078125,2.50912333984375,9.466673364257812,9.810956980536055
1.4648097488187017,-0.5889736083984375,2.528276953125,9.457096557617186,9.806923552429057
1.4672966923650832,-0.584185205078125,2.5378537597656248,9.447519750976562,9.799877729078101
1.4697836359114647,-0.5793968017578125,2.5522189697265625,9.433154541015625,9.789480421248259
1.4722705794578461,-0.5698199951171875,2.5522189697265625,9.433154541015625,9.788918279919962
1.4747575230042278,-0.5746083984375,2.5522189697265625,9.433154541015625,9.78919818349137
1.4772444665506093,-0.5698199951171875,2.5474305664062498,9.437942944335937,9.79228596079775
1.4797314100969907,-0.5698199951171875,2.5426421630859375,9.452308154296874,9.80488926200214
1.4822183536433722,-0.5793968017578125,2.5426421630859375,9.457096557617186,9.810066519829737
1.4847052971897536,-0.5746083984375,2.5426421630859375,9.452308154296874,9.805168709657393
1.487192240736135,-0.5746083984375,2.5378537597656248,9.466673364257812,9.817778827365167
1.4896791842825168,-0.584185205078125,2.528276953125,9.476250170898437,9.82510936361463
1.4921661278288982,-0.584185205078125,2.518700146484375,9.485826977539062,9.83188874171898
1.4946530713752797,-0.5793968017578125,2.518700146484375,9.509768994140625,9.854707372809504
1.4971400149216612,-0.584185205078125,2.528276953125,9.524134204101562,9.871301284191082
1.4996269584680426,-0.584185205078125,2.5330653564453125,9.504980590820312,9.854052389028913
1.5021139020144243,-0.5889736083984375,2.5426421630859375,9.485826977539062,9.83833484532317
1.5046008455608058,-0.584185205078125,2.5474305664062498,9.481038574218749,9.834671692045287
1.5070877891071872,-0.584185205078125,2.5522189697265625,9.4618849609375,9.81745186070599
1.5095747326535687,-0.5793968017578125,2.5617957763671875,9.4618849609375,9.819662176863071
1.5120616761999501,-0.5793968017578125,2.5617957763671875,9.457096557617186,9.81504832152113
1.5145486197463316,-0.5889736083984375,2.5665841796874997,9.452308154296874,9.812256300494765
1.5170355632927133,-11.693280908203125,-4.060566015625,10.472238061523436,16.21384546560798
1.5195225068390947,-8.33182177734375,-2.9831752685546875,10.175357055664062,13.48541730991623
1.5220094503854762,-5.0182466796875,-1.8052280517578123,9.86411083984375,11.213488784395823
1.5244963939318577,-1.848323681640625,-0.55545478515625,9.586383447265625,9.778730901731313
1.5269833374782391,1.0726023437499999,0.70868369140625,9.361328491210937,9.449189355846396
1.5294702810246206,3.6727053466796873,1.9297265380859374,9.1554271484375,10.051589692465024
1.5319572245710023,5.913678100585937,3.0837317382812497,8.98304462890625,11.188211694276893
1.5344441681173837,7.728482958984374,4.127603662109375,8.853757739257812,12.456146552776193
1.5369311116637652,9.121908325195312,5.027823486328125,8.767566479492187,13.614640739852641
1.5394180552101466,10.070012182617187,5.76523759765625,8.695740429687499,14.500310739290711
1.541904998756528,10.558429321289061,6.344634399414062,8.671798413085938,15.064358702317355
1.5443919423029095,10.663774194335938,6.746860278320312,8.67658681640625,15.314025024976166
1.5468788858492912,10.386046801757812,6.967126831054687,8.700528833007812,15.235157577862662
1.5493658293956727,9.777919580078125,7.005434057617187,8.748412866210938,14.873417405821133
1.5518527729420541,8.8872765625,6.880935571289062,8.815450512695312,14.284366516453328
1.5543397164884356,7.762001782226562,6.622361791992187,8.892064965820312,13.534148171484427
1.556826660034817,6.4643444824218745,6.234501123046875,8.963891015625,12.688896562770676
1.5593136035811985,5.042188696289062,5.760449194335937,9.050082275390624,11.853709586490226
1.5618005471275802,3.5625720703124997,5.200206005859375,9.141061938476563,11.103741514580186
1.5642874906739617,2.0877438476562498,4.582501977539062,9.241618408203124,10.524519445106023
1.5667744342203431,0.6512228515624999,3.9456443359374997,9.356540087890625,10.175315368302703
1.5692613777667246,-0.6943184814453125,3.318363500976562,9.4618849609375,10.050914460500856
1.571748321313106,-1.9201497314453124,2.7054478759765623,9.552864624023437,10.112548923279137
1.5742352648594875,-2.987963671875,2.1356278808593747,9.619902270507811,10.297152666833195
1.5767222084058692,-3.883395092773437,1.637633935546875,9.682151513671874,10.559671409998046
1.5792091519522506,-4.587290380859375,1.197100830078125,9.725247143554688,10.819275180848175
1.581696095498632,-5.109226342773437,0.8379705810546875,9.744400756835937,11.034479354560773
1.5841830390450136,-5.434837768554687,0.5793968017578125,9.758765966796874,11.185109539879733
1.586669982591395,-5.57370146484375,0.4070142822265625,9.763554370117188,11.249835669171892
1.5891569261377765,-5.530605834960937,0.3112462158203125,9.7683427734375,11.229648064295473
1.5916438696841582,-5.329492895507812,0.316034619140625,9.758765966796874,11.123708266512411
1.5941308132305396,-4.99909306640625,0.40222587890625,9.730035546875,10.946520400917546
1.596617756776921,-4.563348364257812,0.5363011718749999,9.701305126953125,10.734388124470623
1.5991047003233025,-4.0222587890625,0.7565677246093749,9.672574707031249,10.502840661040793
1.601591643869684,-3.414131567382812,1.0199299072265624,9.639055883789062,10.276572858003954
1.6040785874160655,-2.7724855224609373,1.3024457031249999,9.610325463867188,10.086694022488158
1.6065655309624471,-2.1164742675781247,1.608903515625,9.581595043945311,9.943590771651264
1.6090524745088286,-1.4700398193359374,1.9393033447265624,9.5384994140625,9.844027915714761
1.61153941805521,-0.852335791015625,2.2649147705078123,9.5001921875,9.803569085682351
1.6140263616015915,-0.296881005859375,2.5665841796874997,9.481038574218749,9.826778980362086
1.616513305147973,0.2059013427734375,2.849099975585937,9.452308154296874,9.874507353667163
1.6190002486943544,0.6560112548828124,3.0933085449218747,9.428366137695312,9.944495791494871
1.6214871922407361,1.024718310546875,3.308786694335937,9.404424121093749,10.022041211948517
1.6239741357871176,1.2928688964843749,3.4715924072265625,9.3852705078125,10.089933911093024
1.626461079333499,1.4796166259765624,3.5769372802734374,9.3852705078125,10.152194254036479
1.6289480228798805,1.5801730957031248,3.6391865234374996,9.380482104492186,10.184992394570125
1.631434966426262,1.599326708984375,3.6679169433593746,9.390058911132812,10.207089055161529
1.6339219099726436,1.5562310791015623,3.6439749267578123,9.414000927734374,10.213903362857163
1.636408853519025,1.4317325927734375,3.5721488769531247,9.442731347656249,10.196827012376803
1.6388957970654066,1.254561669921875,3.4811692138671875,9.4618849609375,10.159711171742487
1.641382740611788,1.0390835205078124,3.361459130859375,9.4618849609375,10.094868452092083
1.6438696841581695,0.7852981445312499,3.2130186279296873,9.4618849609375,10.02334519475622
1.646356627704551,0.5027823486328125,3.0597897216796874,9.447519750976562,9.943376321757396
1.6488435712509326,0.22026655273437498,2.901772412109375,9.437942944335937,9.876414709117526
1.651330514797314,-0.0526724365234375,2.7581203125,9.433154541015625,9.828245348915447
1.6538174583436955,-0.32561142578124996,2.6144682128906247,9.437942944335937,9.798787366677333
1.656304401890077,-0.5889736083984375,2.480392919921875,9.423577734375,9.76232842432566
1.6587913454364585,-0.8188169677734375,2.360682836914062,9.399635717773437,9.726069931378063
1.66127828898284,-1.01514150390625,2.250549560546875,9.404424121093749,9.723100259014133
1.6637652325292216,-1.1923124267578125,2.1643583007812497,9.418789331054686,9.73753809953786
1.666252176075603,-1.3263877197265623,2.1021090576171875,9.437942944335937,9.759760954741573
1.6687391196219845,-1.4173673828125,2.0542250244140625,9.452308154296874,9.776241618974895
1.671226063168366,-1.4796166259765624,2.0302830078125,9.471461767578125,9.798974561982115
1.6737130067147474,-1.5131354492187499,2.0350714111328125,9.476250170898437,9.809710079178956
1.676199950261129,-1.5083470458984374,2.0542250244140625,9.481038574218749,9.817588487384434
1.6786868938075106,-1.4700398193359374,2.0781670410156248,9.5001921875,9.835316310126121
1.681173837353892,-1.4173673828125,2.1308394775390624,9.524134204101562,9.861974422732853
1.6836607809002735,-1.3455413330078123,2.1930887207031247,9.528922607421874,9.870181643411808
1.686147724446655,-1.24498486328125,2.2553379638671873,9.5384994140625,9.880258484125335
1.6886346679930364,-1.1348515869140625,2.3319524169921872,9.543287817382812,9.88940001035676
1.6911216115394179,-1.0103531005859374,2.418143676757812,9.524134204101562,9.878125559388517
1.6936085550857995,-0.8810662109374999,2.4947581298828125,9.514557397460937,9.87557078169413
1.696095498632181,-0.7661445312499999,2.5761609863281247,9.5001921875,9.873055984328227
1.6985824421785625,-0.6512228515624999,2.6527754394531247,9.481038574218749,9.866681366112255
1.701069385724944,-0.5363011718749999,2.7246014892578123,9.481038574218749,9.87933017304535
1.7035563292713254,-0.43574470214843747,2.7820623291015623,9.476250170898437,9.88580100699529
1.7060432728177068,-0.36391865234375,2.829946362304687,9.481038574218749,9.901066894273017
1.7085302163640885,-0.2920926025390625,2.868253588867187,9.471461767578125,9.900544669522061
1.71101715991047,-0.2442085693359375,2.887407202148437,9.471461767578125,9.90481429361752
1.7135041034568514,-0.2059013427734375,2.901772412109375,9.457096557617186,9.894410229757497
1.715991047003233,-0.1867477294921875,2.901772412109375,9.437942944335937,9.875724017341211
1.7184779905496144,-0.19153613281249998,2.887407202148437,9.442731347656249,9.87618254920399
1.7209649340959958,-0.19632453613281248,2.858676782226562,9.442731347656249,9.867915259706022
1.7234518776423775,-0.2154781494140625,2.8203695556640622,9.452308154296874,9.866460596747892
1.725938821188759,-0.26815058593749996,2.7724855224609373,9.476250170898437,9.877140173676123
1.7284257647351404,-0.3112462158203125,2.7437551025390623,9.481038574218749,9.874976390624713
1.7309127082815219,-0.3447650390625,2.6958710693359373,9.466673364257812,9.849085660110312
1.7333996518279033,-0.39264907226562495,2.6336218261718747,9.466673364257812,9.834024700131085
1.7358865953742848,-0.44053310546874996,2.5857377929687497,9.4618849609375,9.818725801498688
1.7383735389206665,-0.49320554199218747,2.5426421630859375,9.452308154296874,9.800735192828206
1.740860482467048,-0.5506663818359374,2.4947581298828125,9.452308154296874,9.791485129156243
1.7433474260134294,-0.603338818359375,2.4516625,9.452308154296874,9.783700536475589
1.7458343695598109,-0.6464344482421874,2.427720483398437,9.471461767578125,9.798994451273083
1.7483213131061923,-0.6943184814453125,2.398990063476562,9.481038574218749,9.804454289972476
1.7508082566525738,-0.7278373046875,2.389413256835937,9.466673364257812,9.790656129166544
1.7532952001989555,-0.7422025146484375,2.389413256835937,9.457096557617186,9.782475943481211
1.755782143745337,-0.7517793212890624,2.389413256835937,9.452308154296874,9.778578490948894
1.7582690872917184,-0.7661445312499999,2.398990063476562,9.452308154296874,9.78203763084209
1.7607560308380998,-0.7805097412109374,2.408566870117187,9.457096557617186,9.790151435194764
1.7632429743844813,-0.7661445312499999,2.422932080078125,9.466673364257812,9.80181013348985
1.765729917930863,-0.7565677246093749,2.43250888671875,9.485826977539062,9.821935025935275
1.7682168614772444,-0.74699091796875,2.4516625,9.490615380859374,9.830586185616735
1.770703805023626,-0.7326257080078125,2.4756045166015626,9.5001921875,9.844745286196492
1.7731907485700074,-0.718260498046875,2.4899697265625,9.524134204101562,9.870409298503764
1.7756776921163888,-0.689530078125,2.518700146484375,9.543287817382812,9.894121715541338
1.7781646356627703,-0.6607996582031249,2.528276953125,9.548076220703125,9.899222194513106
1.780651579209152,-0.6464344482421874,2.5474305664062498,9.552864624023437,9.907800084350384
1.7831385227555334,-0.6272808349609375,2.5809493896484375,9.567229833984374,9.929081915973732
1.7856254663019149,-0.603338818359375,2.6048914062499997,9.567229833984374,9.933849388045656
1.7881124098482963,-0.5985504150390625,2.6144682128906247,9.543287817382812,9.913024210651667
1.7905993533946778,-0.584185205078125,2.6144682128906247,9.533711010742186,9.902947138422705
1.7930862969410593,-0.5698199951171875,2.6288334228515624,9.504980590820312,9.878264828592501
1.795573240487441,-0.5506663818359374,2.6336218261718747,9.471461767578125,9.846206650384062
1.7980601840338224,-0.5458779785156249,2.6240450195312497,9.452308154296874,9.824954171686617
1.8005471275802039,-0.5506663818359374,2.6192566162109374,9.428366137695312,9.80090948392488
1.8030340711265853,-0.55545478515625,2.6144682128906247,9.423577734375,9.795294348327504
1.8055210146729668,-0.55545478515625,2.6096798095703124,9.428366137695312,9.798624737853345
1.8080079582193482,-0.5602431884765625,2.5953145996093747,9.433154541015625,9.799690551025765
1.81049490176573,-0.565031591796875,2.5665841796874997,9.457096557617186,9.81546180020306
1.8129818453121114,-0.5746083984375,2.5522189697265625,9.471461767578125,9.826117468037983
1.8154687888584928,-0.5889736083984375,2.5522189697265625,9.4618849609375,9.817737957128273
1.8179557324048743,-0.603338818359375,2.5426421630859375,9.4618849609375,9.8161251985321
1.8204426759512558,-0.6177040283203125,2.5330653564453125,9.466673364257812,9.819158973770355
1.8229296194976372,-0.622492431640625,2.5234885498046875,9.481038574218749,9.830848576510022
1.825416563044019,-0.63206923828125,2.50912333984375,9.481038574218749,9.827782247402206
1.8279035065904004,-0.6464344482421874,2.5043349365234375,9.471461767578125,9.81825641266616
1.8303904501367818,-0.6512228515624999,2.5043349365234375,9.457096557617186,9.804716210925427
1.8328773936831633,-0.6560112548828124,2.499546533203125,9.437942944335937,9.78533855616254
1.8353643372295447,-0.63206923828125,2.4947581298828125,9.447519750976562,9.791780180012728
1.8378512807759262,-0.622492431640625,2.5043349365234375,9.471461767578125,9.816709138832415
1.8403382243223079,-0.6177040283203125,2.5043349365234375,9.452308154296874,9.79792739229487
1.8428251678686893,-0.6177040283203125,2.4899697265625,9.442731347656249,9.785023393421747
1.8453121114150708,-0.5985504150390625,2.4851813232421875,9.457096557617186,9.79648223133335
1.8477990549614522,-0.5889736083984375,2.499546533203125,9.4618849609375,9.804177160631731
1.8502859985078337,-0.5793968017578125,2.5043349365234375,9.476250170898437,9.818691940866243
1.8527729420542152,-0.5698199951171875,2.499546533203125,9.490615380859374,9.830778606289922
1.8552598856005968,-0.5698199951171875,2.50912333984375,9.509768994140625,9.851705491096576
1.8577468291469783,-0.55545478515625,2.518700146484375,9.528922607421874,9.871815765323474
1.8602337726933598,-0.5458779785156249,2.528276953125,9.509768994140625,9.855245985821446
1.8627207162397412,-0.5410895751953124,2.5426421630859375,9.5001921875,9.849439511836367
1.8652076597861227,-0.5315127685546874,2.5617957763671875,9.509768994140625,9.863113592819857
1.8676946033325041,-0.51714755859375,2.5617957763671875,9.5001921875,9.853115791292025
1.8701815468788858,-0.5123591552734374,2.5665841796874997,9.490615380859374,9.844879205090288
1.8726684904252673,-0.507570751953125,2.5761609863281247,9.490615380859374,9.84713226290385
1.8751554339716487,-0.51714755859375,2.5809493896484375,9.504980590820312,9.862727684629489
1.8776423775180302,-0.5267243652343749,2.5857377929687497,9.524134204101562,9.882945453085116
1.8801293210644117,-0.5267243652343749,2.5809493896484375,9.514557397460937,9.872463764351675
1.8826162646107931,-0.51714755859375,2.5809493896484375,9.5001921875,9.85811305213742
1.8851032081571748,-0.5219359619140624,2.5761609863281247,9.495403784179686,9.852497937093524
1.8875901517035563,-0.5363011718749999,2.5905261962890624,9.490615380859374,9.852422302561887
1.8900770952499377,-0.5506663818359374,2.5953145996093747,9.476250170898437,9.840640661892014
1.8925640387963192,-0.5458779785156249,2.5857377929687497,9.466673364257812,9.828627945291425
1.8950509823427006,-0.55545478515625,2.5761609863281247,9.4618849609375,9.822036573941645
1.897537925889082,-0.5602431884765625,2.5857377929687497,9.452308154296874,9.815601958515252
1.9000248694354638,-0.5698199951171875,2.5761609863281247,9.447519750976562,9.809022871795474
1.9025118129818452,-0.5793968017578125,2.5761609863281247,9.452308154296874,9.814195612741447
1.9049987565282267,-0.5889736083984375,2.5809493896484375,9.447519750976562,9.811412696875449
1.9074857000746082,-0.5985504150390625,2.5665841796874997,9.457096557617186,9.817448357432822
1.9099726436209896,-0.603338818359375,2.5474305664062498,9.466673364257812,9.82198171480422
1.9124595871673713,-0.612915625,2.5522189697265625,9.481038574218749,9.83766129111107
1.9149465307137528,-0.6177040283203125,2.5522189697265625,9.481038574218749,9.837960783712198
1.9174334742601342,-0.6177040283203125,2.5570073730468748,9.466673364257812,9.825362566234771
1.9199204178065157,-0.6177040283203125,2.5570073730468748,9.4618849609375,9.820749054244002
1.9224073613528971,-0.6177040283203125,2.5570073730468748,9.471461767578125,9.829976245500971
1.9248943048992786,-0.622492431640625,2.5617957763671875,9.476250170898437,9.836138049494592
1.9273812484456603,-0.63206923828125,2.5617957763671875,9.481038574218749,9.841361774044184
1.9298681919920417,-0.6368576416015624,2.5522189697265625,9.481038574218749,9.839181966552012
1.9323551355384232,-0.6272808349609375,2.5474305664062498,9.476250170898437,9.832710767536225
1.9348420790848047,-0.6368576416015624,2.5522189697265625,9.471461767578125,9.829954086352211
1.9373290226311861,-0.6368576416015624,2.5426421630859375,9.452308154296874,9.80901352170318
1.9398159661775676,-0.622492431640625,2.5426421630859375,9.457096557617186,9.812706114882227
1.9423029097239493,-0.6272808349609375,2.5522189697265625,9.4618849609375,9.820110484579928
1.9447898532703307,-0.622492431640625,2.5522189697265625,9.476250170898437,9.833648142898678
1.9472767968167122,-0.612915625,2.5426421630859375,9.490615380859374,9.844413392390427
1.9497637403630936,-0.603338818359375,2.5474305664062498,9.481038574218749,9.835828011216138
1.952250683909475,-0.59376201171875,2.5474305664062498,9.481038574218749,9.835245206045705
1.9547376274558566,-0.584185205078125,2.5522189697265625,9.490615380859374,9.845144708467663
1.9572245710022382,-0.5793968017578125,2.5617957763671875,9.490615380859374,9.847348808745656
1.9597115145486197,-0.5793968017578125,2.5522189697265625,9.490615380859374,9.844861737511797
1.9621984580950012,-0.5698199951171875,2.5522189697265625,9.490615380859374,9.84430275863517
1.9646854016413826,-0.5793968017578125,2.5617957763671875,9.490615380859374,9.847348808745656
1.967172345187764,-0.5793968017578125,2.5617957763671875,9.485826977539062,9.842733954623979
1.9696592887341455,-0.55545478515625,2.5617957763671875,9.471461767578125,9.827508109020306
1.9721462322805272,-0.5506663818359374,2.5617957763671875,9.471461767578125,9.82723862937047
1.9746331758269087,-0.565031591796875,2.5713725830078125,9.476250170898437,9.835168273182997
1.9771201193732901,-0.5698199951171875,2.5857377929687497,9.471461767578125,9.834598251861456
1.9796070629196716,-0.5698199951171875,2.5761609863281247,9.466673364257812,9.827471945513901
1.982094006466053,-0.5698199951171875,2.5761609863281247,9.471461767578125,9.832084634959598
1.9845809500124345,-0.5698199951171875,2.5857377929687497,9.481038574218749,9.843821778488584
1.9870678935588162,-0.5698199951171875,2.5713725830078125,9.485826977539062,9.844671921160577
1.9895548371051976,-0.5698199951171875,2.5617957763671875,9.5001921875,9.856020699353474
1.992041780651579,-0.5746083984375,2.5713725830078125,9.504980590820312,9.863406501005118
1.9945287241979606,-0.5793968017578125,2.5617957763671875,9.509768994140625,9.865809879357009
1.997015667744342,-0.5793968017578125,2.5474305664062498,9.519345800781249,9.871324511908199
1.9995026112907235,-0.5793968017578125,2.5474305664062498,9.514557397460937,9.866706928561662
2.001989554837105,-0.63206923828125,2.5665841796874997,9.964667309570311,10.309290007746549
2.0044764983834864,-0.622492431640625,2.5665841796874997,9.950302099609374,10.294822147680005
2.006963441929868,-0.622492431640625,2.5809493896484375,9.888052856445311,10.238280415735485
2.0094503854762498,-0.603338818359375,2.5905261962890624,9.7683427734375,10.123999419338574
2.011937329022631,-0.584185205078125,2.5905261962890624,9.629479077148437,9.988942167453546
2.0144242725690127,-0.5793968017578125,2.5857377929687497,9.509768994140625,9.872053834425362
2.016911216115394,-0.5793968017578125,2.5713725830078125,9.394847314453125,9.757602865274778
2.0193981596617756,-0.5602431884765625,2.5570073730468748,9.279925634765624,9.642052630162866
2.021885103208157,-0.55545478515625,2.5426421630859375,9.198522778320312,9.559622403167028
2.0243720467545385,-0.565031591796875,2.5330653564453125,9.150638745117186,9.511565078544738
2.02685899030092,-0.5746083984375,2.5330653564453125,9.112331518554686,9.475293167792936
2.0293459338473014,-0.5793968017578125,2.5234885498046875,9.112331518554686,9.4730291258355
2.031832877393683,-0.5793968017578125,2.5139117431640625,9.145850341796875,9.502738099140235
2.0343198209400644,-0.59376201171875,2.5139117431640625,9.208099584960937,9.563545553064316
2.036806764486446,-0.612915625,2.50912333984375,9.299079248046874,9.651126377753728
2.0392937080328277,-0.612915625,2.499546533203125,9.3852705078125,9.731736789485831
2.041780651579209,-0.6177040283203125,2.5043349365234375,9.490615380859374,9.83488851224555
2.0442675951255906,-0.63206923828125,2.50912333984375,9.600748657226562,9.943318673147699
2.046754538671972,-0.6368576416015624,2.5139117431640625,9.667786303710937,10.009567019721946
2.0492414822183536,-0.6368576416015624,2.5234885498046875,9.710881933593749,10.053596871013832
2.0517284257647352,-0.63206923828125,2.5378537597656248,9.734823950195311,10.080030286126833
2.0542153693111165,-0.6272808349609375,2.5426421630859375,9.734823950195311,10.080937841129062
2.056702312857498,-0.6081272216796875,2.5426421630859375,9.710881933593749,10.056643367219882
2.0591892564038794,-0.5985504150390625,2.5474305664062498,9.672574707031249,10.020297727767622
2.061676199950261,-0.5889736083984375,2.5665841796874997,9.600748657226562,9.955331186959562
2.0641631434966423,-0.5793968017578125,2.5905261962890624,9.509768994140625,9.873309118500517
2.066650087043024,-0.5793968017578125,2.5905261962890624,9.433154541015625,9.799537296333474
2.0691370305894057,-0.5746083984375,2.5953145996093747,9.375693701171874,9.745227809584259
2.071623974135787,-0.5698199951171875,2.5953145996093747,9.318232861328125,9.689675761124118
2.0741109176821686,-0.55545478515625,2.6001030029296874,9.279925634765624,9.653294019710428
2.07659786122855,-0.5602431884765625,2.6096798095703124,9.265560424804686,9.642349875648577
2.0790848047749315,-0.565031591796875,2.6001030029296874,9.279925634765624,9.653849807841048
2.081571748321313,-0.5602431884765625,2.6001030029296874,9.294290844726563,9.667380739499524
2.0840586918676944,-0.5698199951171875,2.6048914062499997,9.332598071289063,9.706056914392105
2.086545635414076,-0.5793968017578125,2.6001030029296874,9.399635717773437,9.769820259686117
2.0890325789604574,-0.5889736083984375,2.5953145996093747,9.452308154296874,9.819810447565809
2.091519522506839,-0.612915625,2.5809493896484375,9.519345800781249,9.882049877942702
2.0940064660532203,-0.6177040283203125,2.5713725830078125,9.576806640625,9.935227257550101
2.096493409599602,-0.6177040283203125,2.5713725830078125,9.619902270507811,9.976774775515821
2.0989803531459836,-0.6177040283203125,2.5761609863281247,9.648632690429688,10.005712192988096
2.101467296692365,-0.6272808349609375,2.5713725830078125,9.658209497070311,10.014312202835136
2.1039542402387466,-0.63206923828125,2.5713725830078125,9.65342109375,10.009995369423661
2.106441183785128,-0.6368576416015624,2.5761609863281247,9.634267480468749,9.993062742140824
2.1089281273315095,-0.63206923828125,2.5713725830078125,9.605537060546874,9.963825104053424
2.111415070877891,-0.6177040283203125,2.5713725830078125,9.572018237304688,9.930611681187667
2.1139020144242724,-0.603338818359375,2.5665841796874997,9.524134204101562,9.882332944143236
2.116388957970654,-0.603338818359375,2.5522189697265625,9.4618849609375,9.818610207824051
2.1188759015170353,-0.603338818359375,2.5570073730468748,9.399635717773437,9.759890166513019
2.121362845063417,-0.5985504150390625,2.5570073730468748,9.342174877929686,9.70426611109671
2.1238497886097982,-0.5889736083984375,2.5426421630859375,9.303867651367186,9.66301569671958
2.12633673215618,-0.5793968017578125,2.5330653564453125,9.294290844726563,9.65069754267942
2.1288236757025616,-0.5746083984375,2.5330653564453125,9.294290844726563,9.650411246053006
2.131310619248943,-0.5889736083984375,2.5330653564453125,9.313444458007812,9.669723764607225
2.1337975627953245,-0.5889736083984375,2.5330653564453125,9.351751684570312,9.706625035576318
2.1362845063417057,-0.5889736083984375,2.518700146484375,9.399635717773437,9.749045695150498
2.1387714498880874,-0.59376201171875,2.518700146484375,9.4618849609375,9.80936648150511
2.141258393434469,-0.59376201171875,2.518700146484375,9.5001921875,9.84632192008248
2.1437453369808503,-0.5985504150390625,2.518700146484375,9.524134204101562,9.869713540168283
2.146232280527232,-0.5985504150390625,2.5139117431640625,9.552864624023437,9.896223389590599
2.1487192240736133,-0.5985504150390625,2.50912333984375,9.567229833984374,9.908877294132406
2.151206167619995,-0.6081272216796875,2.5139117431640625,9.581595043945311,9.924542032573765
2.153693111166376,-0.6081272216796875,2.5234885498046875,9.605537060546874,9.950083185596124
2.156180054712758,-0.6177040283203125,2.528276953125,9.6151138671875,9.961132330076111
2.1586669982591395,-0.6081272216796875,2.528276953125,9.595960253906249,9.94205493165268
2.161153941805521,-0.5985504150390625,2.528276953125,9.572018237304688,9.918365797163363
2.1636408853519025,-0.59376201171875,2.5330653564453125,9.533711010742186,9.882338744595355
2.1661278288982837,-0.5889736083984375,2.5426421630859375,9.490615380859374,9.842951761961283
2.1686147724446654,-0.5793968017578125,2.5522189697265625,9.447519750976562,9.803323506261107
2.171101715991047,-0.5793968017578125,2.5617957763671875,9.428366137695312,9.78736871074854
2.1735886595374283,-0.5793968017578125,2.5713725830078125,9.418789331054686,9.780656934854685
2.17607560308381,-0.5793968017578125,2.5617957763671875,9.409212524414063,9.768919007919473
2.178562546630191,-0.5746083984375,2.5665841796874997,9.404424121093749,9.765281471231999
2.181049490176573,-0.5746083984375,2.5761609863281247,9.399635717773437,9.763192708631545
2.1835364337229546,-0.5746083984375,2.5809493896484375,9.409212524414063,9.773676631292442
2.186023377269336,-0.5698199951171875,2.5809493896484375,9.428366137695312,9.791837549980167
2.1885103208157175,-0.584185205078125,2.5809493896484375,9.452308154296874,9.815737442981346
2.1909972643620987,-0.584185205078125,2.5905261962890624,9.481038574218749,9.845922545567579
2.1934842079084804,-0.5793968017578125,2.5905261962890624,9.5001921875,9.864085270666667
2.1959711514548617,-0.59376201171875,2.5953145996093747,9.519345800781249,9.884642414996987
2.1984580950012433,-0.5985504150390625,2.6001030029296874,9.543287817382812,9.909245207915415
2.200945038547625,-0.59376201171875,2.6001030029296874,9.562441430664062,9.927405253503295
2.2034319820940063,-0.5889736083984375,2.6048914062499997,9.567229833984374,9.93298725691449
2.205918925640388,-0.5985504150390625,2.6048914062499997,9.557653027343749,9.924336412516036
2.208405869186769,-0.603338818359375,2.6001030029296874,9.548076220703125,9.914147107640664
2.210892812733151,-0.603338818359375,2.6001030029296874,9.528922607421874,9.895702067757444
2.2133797562795325,-0.603338818359375,2.6001030029296874,9.509768994140625,9.877259725121217
2.2158666998259138,-0.5985504150390625,2.5905261962890624,9.490615380859374,9.856006741089812
2.2183536433722955,-0.612915625,2.5905261962890624,9.471461767578125,9.83844904198437
2.2208405869186767,-0.603338818359375,2.5857377929687497,9.447519750976562,9.813546102649054
2.2233275304650584,-0.5793968017578125,2.5761609863281247,9.428366137695312,9.791138550128165
2.2258144740114396,-0.5793968017578125,2.5617957763671875,9.418789331054686,9.778143520959873
2.2283014175578213,-0.59376201171875,2.5522189697265625,9.409212524414063,9.767274713326275
2.230788361104203,-0.5889736083984375,2.5474305664062498,9.409212524414063,9.765734623244747
2.233275304650584,-0.5889736083984375,2.5426421630859375,9.414000927734374,9.769100907876624
2.235762248196966,-0.584185205078125,2.5330653564453125,9.437942944335937,9.789405470936224
2.238249191743347,-0.584185205078125,2.5330653564453125,9.471461767578125,9.821724923278483
2.240736135289729,-0.5746083984375,2.528276953125,9.476250170898437,9.824544593247596
2.2432230788361105,-0.565031591796875,2.5234885498046875,9.471461767578125,9.818138478113763
2.2457100223824917,-0.565031591796875,2.5139117431640625,9.490615380859374,9.834164593881434
2.2481969659288734,-0.5793968017578125,2.50912333984375,9.514557397460937,9.856886073097044
2.2506839094752547,-0.584185205078125,2.50912333984375,9.524134204101562,9.86641295639495
2.2531708530216363,-0.584185205078125,2.50912333984375,9.476250170898437,9.82019804229189
2.2556577965680176,-0.584185205078125,2.50912333984375,9.471461767578125,9.815577430955091
2.2581447401143993,-0.5793968017578125,2.499546533203125,9.481038574218749,9.822093767184207
2.260631683660781,-0.5889736083984375,2.50912333984375,9.476250170898437,9.820484058710711
2.263118627207162,-0.584185205078125,2.50912333984375,9.471461767578125,9.815577430955091
2.265605570753544,-0.5889736083984375,2.5139117431640625,9.466673364257812,9.812468942593213
2.268092514299925,-0.5889736083984375,2.518700146484375,9.476250170898437,9.822935286396982
2.2705794578463068,-0.5889736083984375,2.5139117431640625,9.466673364257812,9.812468942593213
2.2730664013926885,-0.59376201171875,2.5139117431640625,9.452308154296874,9.798899684289335
2.2755533449390697,-0.59376201171875,2.5139117431640625,9.452308154296874,9.798899684289335
2.2780402884854514,-0.59376201171875,2.5139117431640625,9.457096557617186,9.80351880087315
2.2805272320318326,-0.5889736083984375,2.518700146484375,9.4618849609375,9.809077803407694
2.2830141755782143,-0.5793968017578125,2.5234885498046875,9.4618849609375,9.809738127437337
2.2855011191245955,-0.5793968017578125,2.5330653564453125,9.4618849609375,9.812206060205108
2.287988062670977,-0.5793968017578125,2.5426421630859375,9.452308154296874,9.805450487722464
2.290475006217359,-0.584185205078125,2.5570073730468748,9.466673364257812,9.823312254285545
2.29296194976374,-0.5793968017578125,2.5617957763671875,9.490615380859374,9.847348808745656
2.295448893310122,-0.5793968017578125,2.5761609863281247,9.485826977539062,9.846482596804513
2.297935836856503,-0.5985504150390625,2.5857377929687497,9.495403784179686,9.859360808792031
2.3004227804028847,-0.6081272216796875,2.5905261962890624,9.504980590820312,9.87042555938084
2.3029097239492664,-0.603338818359375,2.5953145996093747,9.490615380859374,9.857558313704738
2.3053966674956476,-0.59376201171875,2.5953145996093747,9.476250170898437,9.843146270322235
2.3078836110420293,-0.603338818359375,2.5953145996093747,9.490615380859374,9.857558313704738
2.3103705545884106,-0.612915625,2.5953145996093747,9.504980590820312,9.871979511029465
2.3128574981347922,-0.612915625,2.6001030029296874,9.5001921875,9.868629732067626
2.315344441681174,-0.6081272216796875,2.6001030029296874,9.504980590820312,9.872943349146832
2.317831385227555,-0.6081272216796875,2.5905261962890624,9.509768994140625,9.875036760099992
2.320318328773937,-0.6081272216796875,2.5953145996093747,9.5001921875,9.867072929097537
2.322805272320318,-0.6081272216796875,2.6096798095703124,9.490615380859374,9.861644271298339
2.3252922158666998,-0.6081272216796875,2.6001030029296874,9.481038574218749,9.849895775561064
2.327779159413081,-0.6081272216796875,2.5905261962890624,9.481038574218749,9.847372092961228
2.3302661029594627,-0.612915625,2.5905261962890624,9.476250170898437,9.843058916743397
2.3327530465058444,-0.603338818359375,2.5857377929687497,9.481038574218749,9.845818915130934
2.3352399900522256,-0.5985504150390625,2.5761609863281247,9.481038574218749,9.843015822025606
2.3377269335986073,-0.6081272216796875,2.5761609863281247,9.481038574218749,9.843602825746823
2.3402138771449885,-0.5985504150390625,2.5665841796874997,9.481038574218749,9.840513675443445
2.34270082069137,-0.5985504150390625,2.5522189697265625,9.476250170898437,9.832161591950582
2.345187764237752,-0.5985504150390625,2.5522189697265625,9.476250170898437,9.832161591950582
2.347674707784133,-0.59376201171875,2.5522189697265625,9.490615380859374,9.845717612413884
2.350161651330515,-0.5889736083984375,2.5474305664062498,9.490615380859374,9.844189794465326
2.352648594876896,-0.584185205078125,2.5330653564453125,9.490615380859374,9.840196784681702
2.3551355384232777,-0.5889736083984375,2.5234885498046875,9.495403784179686,9.84264077354239
2.357622481969659,-0.5985504150390625,2.518700146484375,9.5001921875,9.846611834873956
2.3601094255160406,-0.59376201171875,2.528276953125,9.5001921875,9.848776029421085
2.3625963690624223,-0.584185205078125,2.5139117431640625,9.481038574218749,9.826042797183119
2.3650833126088036,-0.584185205078125,2.5043349365234375,9.4618849609375,9.805112586918074
2.3675702561551852,-0.5889736083984375,2.5043349365234375,9.457096557617186,9.800778473456921
2.3700571997015665,-0.5889736083984375,2.5043349365234375,9.4618849609375,9.805399043368759
2.372544143247948,-0.59376201171875,2.499546533203125,9.4618849609375,9.804465983021375
2.37503108679433,-0.5985504150390625,2.4947581298828125,9.471461767578125,9.812780887223253
2.377518030340711,-0.5985504150390625,2.4851813232421875,9.471461767578125,9.810350494423192
2.3800049738870928,-0.5985504150390625,2.4851813232421875,9.457096557617186,9.79648223133335
2.382491917433474,-0.59376201171875,2.4947581298828125,9.447519750976562,9.789382048846033
2.3849788609798557,-0.5985504150390625,2.4851813232421875,9.4618849609375,9.801104826638193
2.387465804526237,-0.603338818359375,2.499546533203125,9.471461767578125,9.814292568294528
2.3899527480726186,-0.5985504150390625,2.5234885498046875,9.471461767578125,9.820124493866304
2.3924396916190003,-0.59376201171875,2.528276953125,9.457096557617186,9.807212293937466
2.3949266351653815,-0.59376201171875,2.5330653564453125,9.442731347656249,9.794597936137741
2.397413578711763,-0.59376201171875,2.5522189697265625,9.442731347656249,9.799568883374533
2.3999005222581444,-0.5889736083984375,2.5665841796874997,9.433154541015625,9.793806658163911
2.402387465804526,-0.584185205078125,2.5761609863281247,9.447519750976562,9.809867849589184
2.404874409350908,-0.59376201171875,2.5905261962890624,9.471461767578125,9.837274384447875
2.407361352897289,-0.59376201171875,2.5953145996093747,9.490615380859374,9.856976793363692
2.4098482964436707,-0.5889736083984375,2.5953145996093747,9.5001921875,9.865910975767592
2.412335239990052,-0.603338818359375,2.6001030029296874,9.495403784179686,9.863429747313921
2.4148221835364336,-0.59376201171875,2.6001030029296874,9.485826977539062,9.853628894991537
2.417309127082815,-0.59376201171875,2.6048914062499997,9.485826977539062,9.854893505904732
2.4197960706291965,-0.603338818359375,2.5953145996093747,9.471461767578125,9.839119046712414
2.4222830141755782,-0.5985504150390625,2.5953145996093747,9.4618849609375,9.829607697375529
2.4247699577219595,-0.5985504150390625,2.6144682128906247,9.4618849609375,9.834682183455353
2.427256901268341,-0.603338818359375,2.6096798095703124,9.481038574218749,9.852133722399534
2.4297438448147224,-0.5985504150390625,2.6001030029296874,9.504980590820312,9.872358089993407
2.432230788361104,-0.5889736083984375,2.5953145996093747,9.5001921875,9.865910975767592
2.4347177319074857,-0.59376201171875,2.5953145996093747,9.5001921875,9.866197990966018
2.437204675453867,-0.5985504150390625,2.5905261962890624,9.5001921875,9.86522884541658
2.4396916190002487,-0.59376201171875,2.5905261962890624,9.495403784179686,9.860328205736058
2.44217856254663,-0.59376201171875,2.5857377929687497,9.490615380859374,9.854459577671001
2.4446655060930116,-0.59376201171875,2.5809493896484375,9.476250170898437,9.839368393344138
2.4471524496393933,-0.59376201171875,2.5857377929687497,9.485826977539062,9.849848055089737
2.4496393931857745,-0.59376201171875,2.5761609863281247,9.495403784179686,9.856563893094453
2.452126336732156,-0.5889736083984375,2.5713725830078125,9.5001921875,9.859639875343834
2.4546132802785374,-0.5985504150390625,2.5713725830078125,9.495403784179686,9.855603106081412
2.457100223824919,-0.5985504150390625,2.5761609863281247,9.481038574218749,9.843015822025606
2.4595871673713003,-0.5889736083984375,2.5761609863281247,9.481038574218749,9.842438101643966
2.462074110917682,-0.59376201171875,2.5665841796874997,9.471461767578125,9.830996678499927
2.4645610544640637,-0.5985504150390625,2.5474305664062498,9.452308154296874,9.807843521069831
2.467047998010445,-0.603338818359375,2.528276953125,9.447519750976562,9.79856272759095
2.4695349415568266,-0.612915625,2.5234885498046875,9.447519750976562,9.79792271195567
2.472021885103208,-0.6081272216796875,2.50912333984375,9.447519750976562,9.793934250207561
2.4745088286495895,-0.603338818359375,2.5043349365234375,9.452308154296874,9.797032236744876
2.4769957721959712,-0.612915625,2.5139117431640625,9.447519750976562,9.795460543582397
2.4794827157423525,-0.6081272216796875,2.5043349365234375,9.442731347656249,9.788089062531547
2.481969659288734,-0.5985504150390625,2.4851813232421875,9.452308154296874,9.79185979538731
2.4844566028351154,-0.59376201171875,2.499546533203125,9.447519750976562,9.790603436116708
2.486943546381497,-0.5985504150390625,2.5139117431640625,9.466673364257812,9.813048427339483
2.4894304899278783,-0.6081272216796875,2.518700146484375,9.471461767578125,9.819483548555006
2.49191743347426,-0.5985504150390625,2.50912333984375,9.4618849609375,9.807202942118987
2.4944043770206417,-0.584185205078125,2.518700146484375,9.476250170898437,9.822649341353138
2.496891320567023,-0.5793968017578125,2.528276953125,9.476250170898437,9.824825815608278
2.4993782641134046,-0.5793968017578125,2.5330653564453125,9.490615380859374,9.839913671436102
2.501865207659786,-0.5746083984375,2.5378537597656248,9.485826977539062,9.836248775082872
2.5043521512061675,-0.5793968017578125,2.5426421630859375,9.466673364257812,9.81929907930998
2.506839094752549,-0.584185205078125,2.5617957763671875,9.476250170898437,9.833788042005867
2.5093260382989304,-0.5793968017578125,2.5617957763671875,9.476250170898437,9.833504744248238
2.511812981845312,-0.5793968017578125,2.5665841796874997,9.481038574218749,9.839367228187655
2.5142999253916933,-0.5746083984375,2.5713725830078125,9.476250170898437,9.835723108834035
2.516786868938075,-0.584185205078125,2.5809493896484375,9.471461767578125,9.834183246231126
2.5192738124844563,-0.5889736083984375,2.5905261962890624,9.471461767578125,9.836986525341178
2.521760756030838,-0.5793968017578125,2.5857377929687497,9.476250170898437,9.839769198986668
2.5242476995772196,-0.5793968017578125,2.5857377929687497,9.481038574218749,9.844380784675995
2.526734643123601,-0.59376201171875,2.5953145996093747,9.481038574218749,9.847756274569845
2.5292215866699825,-0.59376201171875,2.5953145996093747,9.481038574218749,9.847756274569845
2.5317085302163638,-0.59376201171875,2.5905261962890624,9.490615380859374,9.855717102657964
2.5341954737627455,-0.603338818359375,2.5953145996093747,9.504980590820312,9.871389549225363
2.536682417309127,-0.5985504150390625,2.5953145996093747,9.509768994140625,9.875708926057278
2.5391693608555084,-0.603338818359375,2.5905261962890624,9.504980590820312,9.87013169796989
2.54165630440189,-0.6177040283203125,2.5905261962890624,9.485826977539062,9.852578225422565
2.5441432479482713,-0.622492431640625,2.5857377929687497,9.476250170898437,9.84240082819682
2.546630191494653,-0.622492431640625,2.5713725830078125,9.485826977539062,9.847861048771048
2.549117135041034,-0.6177040283203125,2.5809493896484375,9.481038574218749,9.845453288922439
2.551604078587416,-0.6081272216796875,2.5953145996093747,9.495403784179686,9.862462654596332
2.5540910221337976,-0.612915625,2.5761609863281247,9.504980590820312,9.866961387515362
2.556577965680179,-0.622492431640625,2.5809493896484375,9.5001921875,9.864200331441598
2.5590649092265605,-0.6081272216796875,2.5761609863281247,9.481038574218749,9.843602825746823
2.5615518527729417,-0.6081272216796875,2.5665841796874997,9.481038574218749,9.841100828413145
2.5640387963193234,-0.6177040283203125,2.5665841796874997,9.485826977539062,9.84631027673987
2.566525739865705,-0.612915625,2.5570073730468748,9.466673364257812,9.825062689608323
2.5690126834120863,-0.612915625,2.5426421630859375,9.466673364257812,9.821333886922885
2.571499626958468,-0.612915625,2.528276953125,9.471461767578125,9.822242001181111
2.5739865705048492,-0.603338818359375,2.5234885498046875,9.466673364257812,9.815799344744317
2.576473514051231,-0.5985504150390625,2.518700146484375,9.471461767578125,9.818895102909389
2.5789604575976126,-0.5985504150390625,2.5043349365234375,9.466673364257812,9.81059940366457
2.581447401143994,-0.59376201171875,2.4947581298828125,9.471461767578125,9.812489972880014
2.5839343446903755,-0.59376201171875,2.499546533203125,9.471461767578125,9.813708484202198
2.5864212882367568,-0.59376201171875,2.4947581298828125,9.466673364257812,9.80786806797099
2.5889082317831384,-0.5889736083984375,2.499546533203125,9.466673364257812,9.808798467120525
2.5913951753295197,-0.5889736083984375,2.499546533203125,9.4618849609375,9.804177160631731
2.5938821188759014,-0.5793968017578125,2.4899697265625,9.476250170898437,9.815037809124199
2.596369062422283,-0.565031591796875,2.499546533203125,9.476250170898437,9.816634396412496
2.5988560059686643,-0.5602431884765625,2.5043349365234375,9.471461767578125,9.812958469249748
2.601342949515046,-0.5602431884765625,2.5043349365234375,9.4618849609375,9.803715260988636
2.603829893061427,-0.565031591796875,2.50912333984375,9.452308154296874,9.795973156254785
2.606316836607809,-0.565031591796875,2.518700146484375,9.452308154296874,9.798430515721183
2.6088037801541906,-0.5602431884765625,2.528276953125,9.4618849609375,9.809858500302267
2.611290723700572,-0.565031591796875,2.5378537597656248,9.471461767578125,9.821840480295899
2.6137776672469535,-0.565031591796875,2.5474305664062498,9.466673364257812,9.819703039091237
2.6162646107933347,-0.5698199951171875,2.5522189697265625,9.4618849609375,9.816607535716333
2.6187515543397164,-0.5793968017578125,2.5665841796874997,9.466673364257812,9.825525919301096
2.6212384978860976,-0.5698199951171875,2.5761609863281247,9.466673364257812,9.827471945513901
2.6237254414324793,-0.565031591796875,2.5665841796874997,9.476250170898437,9.83391744690809
2.626212384978861,-0.5698199951171875,2.5617957763671875,9.495403784179686,9.851405252615589
2.6286993285252422,-0.5746083984375,2.5713725830078125,9.504980590820312,9.863406501005118
2.631186272071624,-0.5746083984375,2.5761609863281247,9.504980590820312,9.864655912443416
2.633673215618005,-0.5746083984375,2.5713725830078125,9.504980590820312,9.863406501005118
2.636160159164387,-0.5746083984375,2.5713725830078125,9.5001921875,9.858792186248536
2.6386471027107685,-0.584185205078125,2.5761609863281247,9.495403784179686,9.855991619615205
2.6411340462571498,-0.59376201171875,2.5761609863281247,9.485826977539062,9.847338330830684
2.6436209898035314,-0.5985504150390625,2.5761609863281247,9.490615380859374,9.852240777316958
2.6461079333499127,-0.603338818359375,2.5809493896484375,9.490615380859374,9.853785962211196
2.6485948768962944,-0.612915625,2.5761609863281247,9.5001921875,9.862348735990036
2.6510818204426756,-0.6081272216796875,2.5857377929687497,9.5001921875,9.864558289714283
2.6535687639890573,-0.5985504150390625,2.5857377929687497,9.5001921875,9.863972533050077
2.656055707535439,-0.6081272216796875,2.5809493896484375,9.504980590820312,9.867916421491689
2.65854265108182,-0.612915625,2.5713725830078125,9.5001921875,9.8610990322301
2.661029594628202,-0.612915625,2.5617957763671875,9.485826977539062,9.844763918499508
2.663516538174583,-0.6081272216796875,2.5713725830078125,9.4618849609375,9.8239016023374
2.666003481720965,-0.6081272216796875,2.5570073730468748,9.447519750976562,9.806310971443654
2.6684904252673465,-0.6081272216796875,2.5522189697265625,9.452308154296874,9.809677356109484
2.6709773688137277,-0.6081272216796875,2.5522189697265625,9.471461767578125,9.828134533159083
2.6734643123601094,-0.603338818359375,2.5426421630859375,9.495403784179686,9.848438451036566
2.6759512559064906,-0.59376201171875,2.5330653564453125,9.481038574218749,9.831534258314294
2.6784381994528723,-0.5889736083984375,2.5330653564453125,9.476250170898437,9.826628481471452
2.6809251429992536,-0.59376201171875,2.5330653564453125,9.471461767578125,9.822299193227513
2.6834120865456352,-0.5985504150390625,2.528276953125,9.452308154296874,9.802886125771003
2.685899030092017,-0.5793968017578125,2.5234885498046875,9.433154541015625,9.782029426942358
2.688385973638398,-0.565031591796875,2.5234885498046875,9.433154541015625,9.78118907676401
2.69087291718478,-0.565031591796875,2.528276953125,9.442731347656249,9.791660755737075
2.693359860731161,-0.55545478515625,2.528276953125,9.447519750976562,9.795730897444471
2.6958468042775428,-0.5506663818359374,2.528276953125,9.471461767578125,9.818554161916175
2.6983337478239244,-0.565031591796875,2.528276953125,9.5001921875,9.847085693283448
2.7008206913703057,-0.5746083984375,2.5330653564453125,9.504980590820312,9.853489277583305
2.7033076349166874,-0.565031591796875,2.5330653564453125,9.5001921875,9.848316221526803
2.7057945784630686,-0.565031591796875,2.5474305664062498,9.509768994140625,9.861255980467588
2.7082815220094503,-0.5698199951171875,2.5617957763671875,9.504980590820312,9.860636311035863
2.7107684655558315,-0.5698199951171875,2.5617957763671875,9.490615380859374,9.846789971054152
2.713255409102213,-0.5698199951171875,2.5617957763671875,9.490615380859374,9.846789971054152
2.715742352648595,-0.5793968017578125,2.5665841796874997,9.490615380859374,9.848595601034386
2.718229296194976,-0.5889736083984375,2.5713725830078125,9.490615380859374,9.85041253854064
2.720716239741358,-0.5793968017578125,2.5665841796874997,9.490615380859374,9.848595601034386
2.723203183287739,-0.5746083984375,2.5617957763671875,9.485826977539062,9.842453243941549
2.7256901268341207,-0.584185205078125,2.5665841796874997,9.481038574218749,9.839650357155898
2.7281770703805024,-0.5889736083984375,2.5570073730468748,9.476250170898437,9.832827361377735
2.7306640139268836,-0.5889736083984375,2.5474305664062498,9.476250170898437,9.830341281130753
2.7331509574732653,-0.5889736083984375,2.5474305664062498,9.4618849609375,9.816494252841284
2.7356379010196465,-0.5889736083984375,2.5474305664062498,9.447519750976562,9.80264871589016
2.7381248445660282,-0.5985504150390625,2.5474305664062498,9.457096557617186,9.81245842743291
2.74061178811241,-0.612915625,2.5474305664062498,9.471461767578125,9.827189632276571
2.743098731658791,-0.6081272216796875,2.5522189697265625,9.471461767578125,9.828134533159083
2.745585675205173,-0.6081272216796875,2.5522189697265625,9.457096557617186,9.814291400161032
2.748072618751554,-0.612915625,2.5522189697265625,9.457096557617186,9.814589269699272
2.7505595622979357,-0.622492431640625,2.5522189697265625,9.4618849609375,9.819805777656562
2.753046505844317,-0.612915625,2.5522189697265625,9.452308154296874,9.809975365748297
2.7555334493906987,-0.612915625,2.5522189697265625,9.452308154296874,9.809975365748297
2.7580203929370803,-0.612915625,2.5617957763671875,9.466673364257812,9.82630997621845
2.7605073364834616,-0.6177040283203125,2.5570073730468748,9.471461767578125,9.829976245500971
2.7629942800298433,-0.612915625,2.5522189697265625,9.476250170898437,9.833046554057086
2.7654812235762245,-0.6081272216796875,2.5713725830078125,9.485826977539062,9.846963446982018
2.767968167122606,-0.6081272216796875,2.5713725830078125,9.495403784179686,9.856189360143505
2.770455110668988,-0.6081272216796875,2.5713725830078125,9.509768994140625,9.87002948325437
2.772942054215369,-0.612915625,2.5761609863281247,9.5001921875,9.862348735990036
2.775428997761751,-0.6081272216796875,2.5713725830078125,9.5001921875,9.860802567632522
2.777915941308132,-0.6081272216796875,2.5761609863281247,9.509768994140625,9.871278056419309
2.7804028848545137,-0.603338818359375,2.5713725830078125,9.5001921875,9.860508419438602
2.782889828400895,-0.5985504150390625,2.5713725830078125,9.495403784179686,9.855603106081412
2.7853767719472766,-0.603338818359375,2.5761609863281247,9.5001921875,9.861758198042295
2.7878637154936583,-2.4133552734375,1.350329736328125,-7.110778930664062,7.629603598707899
2.7903506590400395,-2.4516625,1.89620771484375,-5.966350537109375,6.723361617777563
2.792837602586421,-2.3415292236328122,2.4564509033203126,-3.782838623046875,5.082005331910311
2.7953245461328025,-2.0925322509765625,2.9831752685546875,-0.7900865478515624,3.728573810103452
2.797811489679184,-1.7429788085937499,3.447650390625,2.748543505859375,4.741177042337203
2.800298433225566,-1.3263877197265623,3.787627026367187,6.517016918945312,7.6535568460506
2.802785376771947,-0.8714894042968749,3.9935283691406247,10.20887587890625,10.996768131039525
2.8052723203183287,-0.430956298828125,4.060566015625,13.584700219726562,14.185133053961362
2.80775926386471,-0.033518823242187495,3.9743747558593747,16.4338001953125,16.907589037795336
2.8102462074110917,0.296881005859375,3.778050219726562,18.574216479492186,18.956880535084224
2.812733150957473,0.5123591552734374,3.4859576171874997,19.905392602539063,20.214822954308477
2.8152200945038546,0.6272808349609375,3.1220389648437497,20.38423293457031,20.63147015786158
2.8177070380502363,0.6416460449218749,2.748543505859375,20.039467895507812,20.237254620764496
2.8201939815966175,0.5506663818359374,2.379836450195312,18.957288745117186,19.114017148666296
2.822680925142999,0.36391865234375,2.04943662109375,17.247828759765625,17.372973958870773
2.8251678686893804,0.1197100830078125,1.8004396484374998,15.112200878906249,15.219544304480811
2.827654812235762,-0.16280571289062498,1.62805712890625,12.708422412109375,12.81331635134855
2.8301417557821438,-0.4644751220703125,1.5562310791015623,10.237606298828124,10.365624681628654
2.832628699328525,-0.74699091796875,1.5801730957031248,7.915230688476562,8.10591261337753
2.8351156428749067,-1.0103531005859374,1.68551796875,5.8610056640625,6.1816803221305
2.837602586421288,-1.216254443359375,1.85790048828125,4.204218115234375,4.754631327012854
2.8400895299676696,-1.3407529296874998,2.0829554443359375,3.0406361083984375,3.921962486466531
2.842576473514051,-1.407790576171875,2.327164013671875,2.437297290039062,3.652120580282021
2.8450634170604325,-1.407790576171875,2.5857377929687497,2.39420166015625,3.7947484540928644
2.847550360606814,-1.3311761230468748,2.8107927490234372,2.8730419921875,4.234023622679207
2.8500373041531954,-1.20667763671875,2.9927520751953125,3.778050219726562,4.968530906145087
2.852524247699577,-1.0390835205078124,3.1172505615234374,5.027823486328125,6.006326217879095
2.8550111912459584,-0.842758984375,3.1747114013671873,6.507440112304687,7.289431528106127
2.85749813479234,-0.63206923828125,3.1747114013671873,8.097190014648437,8.720251724421411
2.8599850783387217,-0.44532150878906246,3.1220389648437497,9.662997900390625,10.164593792530345
2.862472021885103,-0.2920926025390625,3.0166940917968748,11.113884106445312,11.5197300863969
2.8649589654314846,-0.16759411621093748,2.8730419921875,12.358868969726561,12.689527189282165
2.867445908977866,-0.086191259765625,2.7198130859375,13.302184423828125,13.577662633945227
2.8699328525242476,-0.047884033203124995,2.5617957763671875,13.88636962890625,14.120777313981637
2.8724197960706292,-0.06703764648437499,2.398990063476562,14.111424584960936,14.314047337763885
2.8749067396170105,-0.1292868896484375,2.2744915771484373,13.986926098632813,14.171243019684965
2.877393683163392,-0.2059013427734375,2.1978771240234374,13.546392993164062,13.725080048601022
2.8798806267097734,-0.32082302246093747,2.1404162841796874,12.85207451171875,13.033039880860231
2.882367570256155,-0.45489831542968745,2.1356278808593747,11.956643090820311,12.154388216777747
2.8848545138025363,-0.5793968017578125,2.1739351074218747,10.941501586914061,11.170414114150445
2.887341457348918,-0.7038952880859375,2.250549560546875,9.897629663085937,10.174650600815045
2.8898284008952997,-0.8188169677734375,2.3367408203125,8.90643017578125,9.244204528465131
2.892315344441681,-0.8954314208984374,2.43250888671875,8.020575561523437,8.429028962555822
2.8948022879880626,-0.9337386474609375,2.5474305664062498,7.302315063476562,7.790062620974221
2.897289231534444,-0.9528922607421875,2.6623522460937497,6.789955908203124,7.355244685134908
2.8997761750808255,-0.948103857421875,2.7629087158203123,6.507440112304687,7.132975698237456
2.902263118627207,-0.9002198242187499,2.839523168945312,6.4643444824218745,7.117656717369264
2.9047500621735884,-0.833182177734375,2.8730419921875,6.655880615234374,7.2972124536989895
2.90723700571997,-0.7565677246093749,2.877830395507812,7.029376074218749,7.633245083188949
2.9097239492663514,-0.6751648681640625,2.85388837890625,7.551312036132812,8.100792550454765
2.912210892812733,-0.5793968017578125,2.806004345703125,8.197746484375,8.68403180925051
2.9146978363591143,-0.5027823486328125,2.748543505859375,8.872911352539061,9.302464047966808
2.917184779905496,-0.43574470214843747,2.6719290527343746,9.548076220703125,9.924456550595247
2.9196717234518776,-0.38786066894531246,2.5809493896484375,10.165780249023436,10.495466817720704
2.922158666998259,-0.36391865234375,2.5043349365234375,10.682927807617187,10.978573532229772
2.9246456105446406,-0.3495534423828125,2.446874096679687,11.066000073242186,11.338683260197358
2.927132554091022,-0.36391865234375,2.384624853515625,11.314997045898437,11.569270963471228
2.9296194976374035,-0.40222587890625,2.3415292236328122,11.429918725585937,11.674227462075958
2.932106441183785,-0.44053310546874996,2.3319524169921872,11.396399902343749,11.64087635130063
2.9345933847301664,-0.49320554199218747,2.3367408203125,11.2240173828125,11.475285424669998
2.937080328276548,-0.55545478515625,2.360682836914062,10.931924780273437,11.197693194422234
2.9395672718229293,-0.6081272216796875,2.398990063476562,10.539275708007812,10.825955130694506
2.942054215369311,-0.6607996582031249,2.442085693359375,10.098742602539062,10.410813650927066
2.9445411589156922,-0.699106884765625,2.4899697265625,9.648632690429688,9.989234829072387
2.947028102462074,-0.7278373046875,2.5474305664062498,9.208099584960937,9.581662047855446
2.9495150460084556,-0.737414111328125,2.5905261962890624,8.834604125976561,9.236061693599053
2.952001989554837,-0.7422025146484375,2.6096798095703124,8.532934716796875,8.953896814367853
2.9544889331012185,-0.7326257080078125,2.6336218261718747,8.317456567382813,8.755157799926986
2.9569758766475998,-0.70868369140625,2.6479870361328124,8.21690009765625,8.662073373786205
2.9594628201939814,-0.6703764648437499,2.6527754394531247,8.221688500976562,8.665032252904334
2.961949763740363,-0.6368576416015624,2.6384102294921874,8.307879760742187,8.740003564856538
2.9644367072867444,-0.59376201171875,2.6096798095703124,8.44674345703125,8.860612679941465
2.966923650833126,-0.55545478515625,2.5857377929687497,8.662221606445312,9.05696710336898
2.9694105943795073,-0.5267243652343749,2.5522189697265625,8.930372192382812,9.302838691541838
2.971897537925889,-0.5027823486328125,2.5234885498046875,9.193734375,9.547017141974173
2.97438448147227,-0.4836287353515625,2.5043349365234375,9.481038574218749,9.818130304379418
2.976871425018652,-0.4740519287109375,2.4851813232421875,9.763554370117188,10.086022277327212
2.9793583685650336,-0.469263525390625,2.4660277099609376,9.9981861328125,10.308502649217363
2.981845312111415,-0.4740519287109375,2.4564509033203126,10.165780249023436,10.46909567933032
2.9843322556577965,-0.49320554199218747,2.4516625,10.275913525390624,10.575835640830658
2.9868191992041777,-0.51714755859375,2.47081611328125,10.319009155273436,10.623291571336388
2.9893061427505594,-0.5410895751953124,2.4947581298828125,10.299855541992187,10.611485298529542
2.991793086296941,-0.5698199951171875,2.5043349365234375,10.213664282226562,10.531634553627363
2.9942800298433223,-0.5985504150390625,2.528276953125,10.079588989257813,10.409061491960445
2.996766973389704,-0.6177040283203125,2.5617957763671875,9.911994873046874,10.256315041462184
2.9992539169360852,-0.63206923828125,2.5857377929687497,9.734823950195311,10.092192467311778
3.001740860482467,0.2920926025390625,2.85388837890625,9.423577734375,9.850574312369936
3.0042278040288486,0.1580173095703125,2.849099975585937,9.433154541015625,9.855290190333887
3.00671474757523,0.0143652099609375,2.839523168945312,9.452308154296874,9.869611321122106
3.0092016911216115,-0.143652099609375,2.8203695556640622,9.481038574218749,9.892684812631137
3.0116886346679927,-0.3016694091796875,2.7916391357421872,9.495403784179686,9.901865810101453
3.0141755782143744,-0.44532150878906246,2.7629087158203123,9.504980590820312,9.908412176025827
3.0166625217607557,-0.5889736083984375,2.729389892578125,9.509768994140625,9.911214124365184
3.0191494653071373,-0.718260498046875,2.6910826660156246,9.495403784179686,9.895479628749595
3.021636408853519,-0.842758984375,2.6623522460937497,9.490615380859374,9.892933968011196
3.0241233523999003,-0.9528922607421875,2.6384102294921874,9.485826977539062,9.891922242288363
3.026610295946282,-1.0295067138671874,2.6096798095703124,9.481038574218749,9.887386167648174
3.029097239492663,-1.0917559570312498,2.5761609863281247,9.476250170898437,9.880680836796873
3.031584183039045,-6.469132885742187,-8.796296899414061,10.295067138671874,15.00709588247486
3.0340711265854265,-4.65432802734375,-6.641515405273437,9.97903251953125,12.858988540723729
3.036558070131808,-2.85388837890625,-4.467580297851562,9.677363110351562,11.034278833100098
3.0390450136781895,-1.13006318359375,-2.3511060302734372,9.394847314453125,9.750276838448704
3.0415319572245707,0.47884033203125,-0.3399766357421875,9.126696728515624,9.14557080507981
3.0440189007709524,1.944091748046875,1.5131354492187499,8.863334545898438,9.199335350177373
3.0465058443173336,3.227383837890625,3.1555577880859373,8.662221606445312,9.767683172083103
3.0489927878637153,4.304774584960938,4.601655590820312,8.518569506835936,10.59586451624635
3.051479731410097,5.161898779296875,5.80354482421875,8.427589843749999,11.460829032356296
3.0539666749564782,5.7891796142578125,6.746860278320312,8.374917407226562,12.213679453759262
3.05645361850286,6.172251879882812,7.45075556640625,8.365340600585936,12.790206219716008
3.058940562049241,6.325480786132812,7.920019091796875,8.384494213867187,13.15439671032217
3.061427505595623,6.287173559570312,8.164227661132813,8.437166650390624,13.31799330820638
3.0639144491420045,6.047753393554687,8.197746484375,8.518569506835936,13.279472691870335
3.0664013926883857,5.616797094726562,8.058882788085937,8.652644799804687,13.090540990616988
3.0688883362347674,5.042188696289062,7.7763669921875,8.796296899414061,12.777730220536426
3.0713752797811487,4.338293408203125,7.3549875,8.949525805664061,12.369747085816343
3.0738622233275303,3.5577836669921874,6.83783994140625,9.112331518554686,11.93517764381629
3.0763491668739116,2.7054478759765623,6.244077929687499,9.279925634765624,11.507605189109364
3.0788361104202933,1.8052280517578123,5.61200869140625,9.437942944335937,11.127814560452249
3.081323053966675,0.9193734375,4.970362646484375,9.581595043945311,10.833130477443031
3.083809997513056,0.0430956298828125,4.338293408203125,9.710881933593749,10.635970799939756
3.086296941059438,-0.7805097412109374,3.725377783203125,9.82580361328125,10.537269652546597
3.088783884605819,-1.5514426757812498,3.1411925781249996,9.9215716796875,10.521960358425606
3.091270828152201,-2.2170307373046874,2.5953145996093747,9.993397729492187,10.560250060529766
3.0937577716985825,-2.786850732421875,2.1404162841796874,10.05564697265625,10.651946062249504
3.0962447152449637,-3.2609026611328122,1.7477672119140624,10.089165795898436,10.746136182347207
3.0987316587913454,-7.268796240234375,-7.613561279296874,10.793061083984375,15.076202495929536
3.1012186023377266,-6.248866333007812,-6.124367846679687,10.496180078124999,13.664772526524933
3.1037055458841083,-5.195417602539062,-4.572925170898437,10.184933862304687,12.3140930020416
3.1061924894304895,-4.151545678710937,-3.0071172851562498,9.868899243164062,11.120847906559694
3.108679432976871,-3.1411925781249996,-1.4796166259765624,9.557653027343749,10.168829213032687
3.111166376523253,-2.1883003173828124,-0.023942016601562498,9.289502441406249,9.543798358521062
3.113653320069634,-1.2832920898437499,1.3215993164062498,9.050082275390624,9.235661997513796
3.116140263616016,-0.45489831542968745,2.5330653564453125,8.8489693359375,9.21561777016421
3.118627207162397,0.277727392578125,3.6056677001953124,8.681375219726561,9.404480196932864
3.1211141507087787,0.9193734375,4.510675927734375,8.56166513671875,9.720779534375225
3.1236010942551604,1.465251416015625,5.248090039062499,8.480262280273436,10.079893804622708
3.1260880378015417,1.915361328125,5.827486840820312,8.418013037109375,10.415908764488776
3.1285749813479233,2.2601263671875,6.234501123046875,8.403647827148436,10.705067596781701
3.1310619248943046,2.5139117431640625,6.4834980957031245,8.44674345703125,10.940885468658578
3.1335488684406863,2.6575638427734374,6.584054565429687,8.52335791015625,11.093243446512627
3.136035811987068,2.7341782958984373,6.555324145507812,8.619125976562499,11.168587117728645
3.138522755533449,2.729389892578125,6.411672045898437,8.724470849609375,11.165818340611978
3.141009699079831,2.6336218261718747,6.186617089843749,8.863334545898438,11.125146929912983
3.143496642626212,2.47081611328125,5.889736083984375,9.006986645507812,11.041726850316211
3.1459835861725938,2.269703173828125,5.516240625,9.160215551757812,10.93114870838612
3.148470529718975,2.01112939453125,5.1140147460937495,9.299079248046874,10.801419495893489
3.1509574732653567,1.6998831787109374,4.687846850585937,9.428366137695312,10.665814499711333
3.1534444168117384,1.3742717529296875,4.2521021484374995,9.557653027343749,10.550721630426061
3.1559313603581196,1.0438719238281249,3.840299462890625,9.677363110351562,10.463695586532891
3.1584183039045013,0.699106884765625,3.423708374023437,9.782707983398437,10.388065505912659
3.1609052474508825,0.3447650390625,3.0406361083984375,9.86411083984375,10.32787555776013
3.163392190997264,0.009576806640625,2.70065947265625,9.926360083007811,10.287189985608519
3.165879134543646,-0.316034619140625,2.384624853515625,9.955090502929687,10.241588768058433
3.168366078090027,-0.6177040283203125,2.1021090576171875,9.969455712890625,10.207373215867385
3.170853021636409,-0.9002198242187499,1.8818425048828125,9.964667309570311,10.180683745973022
3.17333996518279,-1.139639990234375,1.714248388671875,9.950302099609374,10.16100087190707
3.1758269087291717,-1.3551181396484375,1.5658078857421873,9.926360083007811,10.140055424157577
3.178313852275553,-1.5370774658203123,1.465251416015625,9.878476049804688,10.10415052909611
3.1808007958219346,-1.675941162109375,1.426944189453125,9.835380419921874,10.078673350359615
3.1832877393683163,-1.7812860351562498,1.4125789794921875,9.7683427734375,10.029400772315087
3.1857746829146976,-1.838746875,1.43652099609375,9.686939916992188,9.964004596443994
3.1882616264610792,-1.8531120849609375,1.4939818359375,9.624690673828125,9.91466977223213
3.1907485700074605,-1.8531120849609375,1.5658078857421873,9.567229833984374,9.870038775544977
3.193235513553842,-1.8148048583984373,1.6519991455078125,9.5001921875,9.812047158990888
3.195722457100224,-1.7429788085937499,1.7621324218749999,9.442731347656249,9.762594998433558
3.198209400646605,-1.656787548828125,1.886630908203125,9.404424121093749,9.733833479937346
3.2006963441929868,-1.5562310791015623,2.01112939453125,9.356540087890625,9.695944462991397
3.203183287739368,-1.426944189453125,2.1308394775390624,9.303867651367186,9.650834154258881
3.2056702312857497,-1.2976572998046874,2.2553379638671873,9.270348828125,9.628594455792369
3.208157174832131,-1.1540052001953125,2.379836450195312,9.251195214843749,9.621848181867344
3.2106441183785126,-1.005564697265625,2.4851813232421875,9.2320416015625,9.613421799898275
3.2131310619248943,-0.86191259765625,2.5713725830078125,9.236830004882812,9.626727316473975
3.2156180054712755,-0.7278373046875,2.6479870361328124,9.265560424804686,9.663963600476205
3.218104949017657,-0.59376201171875,2.729389892578125,9.284714038085937,9.695774197107625
3.2205918925640384,-0.47884033203125,2.7916391357421872,9.294290844726563,9.716294532081413
3.22307883611042,-0.373495458984375,2.839523168945312,9.313444458007812,9.743851310301055
3.225565779656802,-0.26336218261718747,2.863465185546875,9.337386474609374,9.770137086258819
3.228052723203183,-0.181959326171875,2.887407202148437,9.361328491210937,9.798198848143327
