Time (s),Acceleration x (m/s^2),Acceleration y (m/s^2),Acceleration z (m/s^2),Absolute acceleration (m/s^2)
0.0,-1.905784521484375,1.2018892333984375,24.545355419921872,24.648550161459326
0.002486943546381497,-1.5131354492187499,0.967257470703125,25.665841796875,25.72859500720024
0.004973887092762994,-1.0438719238281249,0.86191259765625,25.517401293945312,25.553284147357594
0.007460830639144491,-0.5219359619140624,0.948103857421875,24.123975927734374,24.148240777222362
0.009947774185525988,-0.13407529296874998,1.0582371337890624,21.62921779785156,21.655505179108925
0.012434717731907486,0.27293898925781246,1.3168109130859373,18.310854296875,18.36017079860819
0.014921661278288981,0.6081272216796875,1.68551796875,14.494496850585938,14.604835791352556
0.01740860482467048,0.7852981445312499,2.0159177978515626,10.381258398437499,10.604298358619868
0.019895548371051976,0.8810662109374999,2.4660277099609376,6.402095239257812,6.916964203093615
0.022382491917433474,0.86191259765625,2.839523168945312,2.9448680419921875,4.180673742080656
0.02486943546381497,0.7230489013671875,3.1747114013671873,0.0526724365234375,3.2564346425666866
0.027356379010196465,0.5027823486328125,3.399766357421875,-1.9488801513671874,3.9508651229252716
0.029843322556577963,0.2059013427734375,3.6008792968749996,-2.9448680419921875,4.656283373933098
0.032330266102959464,-0.12449848632812499,3.687070556640625,-2.940079638671875,4.717420634677084
0.03481720964934096,-0.5219359619140624,3.6248213134765623,-1.9728221679687499,4.159780524186586
0.03730415319572245,-0.82360537109375,3.5482068603515624,-0.181959326171875,3.647081974335275
0.03979109674210395,-1.1109095703125,3.356670727539062,2.308010400390625,4.222353662927919
0.04227804028848545,-1.388636962890625,3.0693665283203124,5.224148022460938,6.216192247707733
0.04476498383486695,-1.5370774658203123,2.786850732421875,8.322244970703125,8.910045201519821
0.04725192738124844,-1.618480322265625,2.4660277099609376,11.449072338867186,11.822945007081355
0.04973887092762994,-1.5131354492187499,2.1930887207031247,14.298172314453124,14.544309834376861
0.05222581447401144,-1.4508862060546874,1.9680337646484374,16.582240698242188,16.76153138159386
0.05471275802039293,-1.235408056640625,1.7429788085937499,18.21508623046875,18.339944781188183
0.05719970156677443,-1.0342951171875,1.6328455322265625,19.076998828125,19.174666495400455
0.059686645113155926,-0.7805097412109374,1.5610194824218748,19.220650927734376,19.299725370233695
0.062173588659537427,-0.4836287353515625,1.5705962890624998,18.54548605957031,18.618155726134408
0.06466053220591893,-0.2442085693359375,1.6711527587890624,17.247828759765625,17.330319855523257
0.06714747575230041,-0.0383072265625,1.8243816650390623,15.370774658203125,15.478712785519248
0.06963441929868192,0.15322890625,1.9967641845703124,13.077129467773437,13.229582813656737
0.07212136284506342,0.258573779296875,2.2553379638671873,10.587159741210938,10.827804999930416
0.0746083063914449,0.2920926025390625,2.518700146484375,8.17859287109375,8.562625173827474
0.0770952499378264,0.229843359375,2.6623522460937497,5.908889697265625,6.485053963274405
0.0795821934842079,0.19153613281249998,2.920926025390625,4.070142822265625,5.013437695794916
0.0820691370305894,0.0383072265625,3.0741549316406247,2.6910826660156246,4.085807374640543
0.0845560805769709,-0.11013327636718749,3.1842882080078123,1.8722656982421875,3.6955648519590727
0.0870430241233524,-0.354341845703125,3.2034418212890623,1.6998831787109374,3.6437893006133715
0.0895299676697339,-0.584185205078125,3.1076737548828124,2.1308394775390624,3.8130546022393323
0.09201691121611538,-0.7996633544921875,3.0885201416015624,3.1555577880859373,4.4873113441732615
0.09450385476249688,-0.9433154541015625,2.9640216552734375,4.6351744140625,5.582124171644372
0.09699079830887838,-1.0342951171875,2.7964275390625,6.406883642578125,7.066677534754235
0.09947774185525989,-1.1013327636718748,2.6575638427734374,8.303091357421874,8.787315035006294
0.10196468540164137,-1.1540052001953125,2.427720483398437,10.32379755859375,10.668005941993865
0.10445162894802287,-1.120486376953125,2.3223756103515623,12.148179223632813,12.418823480748781
0.10693857249440437,-1.01514150390625,2.1452046874999997,13.713987109375,13.91782518428539
0.10942551604078586,-0.9433154541015625,1.9919757812499999,14.891934326171874,15.054152899916009
0.11191245958716736,-0.7565677246093749,1.9105729248046874,15.595829614257811,15.730625702109826
0.11439940313354886,-0.5793968017578125,1.8770541015625,15.792154150390624,15.913867080750034
0.11688634667993036,-0.411802685546875,1.9297265380859374,15.461754321289062,15.587150883195996
0.11937329022631185,-0.3064578125,1.9584569580078124,14.709975,14.842938878397247
0.12186023377269335,-0.2442085693359375,2.0829554443359375,13.508085766601562,13.66992034674268
0.12434717731907485,-0.0909796630859375,2.1930887207031247,12.090718383789062,12.288343520266077
0.12683412086545634,-0.023942016601562498,2.384624853515625,10.467449658203124,10.735665385022955
0.12932106441183785,-0.009576806640625,2.5139117431640625,8.90643017578125,9.254422858488283
0.13180800795821934,-0.033518823242187495,2.6862942626953124,7.388506323242187,7.861763546806217
0.13429495150460083,-0.15322890625,2.7437551025390623,6.124367846679687,6.712641259732543
0.13678189505098234,-0.19632453613281248,2.85388837890625,5.027823486328125,5.784654804948746
0.13926883859736383,-0.3399766357421875,2.935291235351562,4.4819455078125,5.36836607211011
0.14175578214374532,-0.430956298828125,2.987963671875,4.256890551757812,5.218694032570725
0.14424272569012683,-0.6368576416015624,2.887407202148437,4.438849877929687,5.333488187432439
0.14672966923650832,-0.74699091796875,2.877830395507812,5.05655390625,5.8658878802487
0.1492166127828898,-0.7996633544921875,2.786850732421875,5.9950809570312495,6.659353885075996
0.15170355632927132,-0.8954314208984374,2.6431986328124997,7.1395093505859375,7.665565224374397
0.1541904998756528,-0.8571241943359375,2.5426421630859375,8.470685473632813,8.885505244342175
0.15667744342203432,-0.9337386474609375,2.408566870117187,9.758765966796874,10.094878673084745
0.1591643869684158,-0.9097966308593749,2.27927998046875,11.094730493164063,11.362917400686902
0.1616513305147973,-0.7852981445312499,2.221819140625,12.243947290039062,12.468657454221233
0.1641382740611788,-0.7230489013671875,2.1021090576171875,13.081917871093749,13.269447516378612
0.1666252176075603,-0.6512228515624999,2.068590234375,13.623007446289062,13.794545612008973
0.1691121611539418,-0.4836287353515625,2.0542250244140625,13.919888452148436,14.078957053874484
0.1715991047003233,-0.4070142822265625,2.0925322509765625,13.723563916015625,13.888144527051825
0.1740860482467048,-0.3016694091796875,2.1643583007812497,13.259088793945311,13.437964389457267
0.17657299179308628,-0.2346317626953125,2.221819140625,12.516886279296875,12.714714880270162
0.1790599353394678,-0.1484405029296875,2.308010400390625,11.501744775390625,11.731968269197068
0.18154687888584928,-0.181959326171875,2.442085693359375,10.405200415039062,10.689484899059474
0.18403382243223076,-0.143652099609375,2.5570073730468748,9.275137231445312,9.622218730297147
0.18652076597861228,-0.2442085693359375,2.5809493896484375,8.1594392578125,8.561389290249307
0.18900770952499377,-0.2825157958984375,2.7150246826171873,7.192181787109375,7.692766281447818
0.19149465307137528,-0.38307226562499996,2.7820623291015623,6.41646044921875,7.004111639607522
0.19398159661775677,-0.4165910888671875,2.8012159423828122,5.894524487304687,6.539554864256264
0.19646854016413826,-0.5746083984375,2.7964275390625,5.592855078125,6.2793478736004635
0.19895548371051977,-0.6416460449218749,2.8107927490234372,5.7508723876953125,6.433101798081777
0.20144242725690126,-0.7278373046875,2.73896669921875,6.153098266601562,6.774385876223701
0.20392937080328274,-0.7613561279296874,2.710236279296875,6.766013891601562,7.328300473131432
0.20641631434966426,-0.8044517578125,2.5905261962890624,7.56567724609375,8.037253311695993
0.20890325789604575,-0.82360537109375,2.4851813232421875,8.532934716796875,8.925549109035456
0.21139020144242723,-0.814028564453125,2.365471240234375,9.610325463867188,9.93058166541999
0.21387714498880875,-0.7757213378906249,2.3415292236328122,10.563217724609375,10.847399291843505
0.21636408853519024,-0.699106884765625,2.24097275390625,11.425130322265625,11.663803504896261
0.21885103208157172,-0.5889736083984375,2.1547814941406247,12.090718383789062,12.295342379737766
0.22133797562795324,-0.507570751953125,2.1835119140624997,12.603077539062499,12.800895117245231
0.22382491917433472,-0.430956298828125,2.1595698974609374,12.8329208984375,13.020496313853515
0.22631186272071624,-0.36391865234375,2.1978771240234374,12.7563064453125,12.949380478020965
0.22879880626709773,-0.3064578125,2.1930887207031247,12.559981909179687,12.753693586041596
0.2312857498134792,-0.26336218261718747,2.2840683837890623,11.923124267578125,12.142784702084118
0.23377269335986073,-0.2442085693359375,2.375048046875,11.247959399414063,11.498568680543201
0.23625963690624222,-0.2059013427734375,2.446874096679687,10.36210478515625,10.649075254993551
0.2387465804526237,-0.239420166015625,2.50912333984375,9.4618849609375,9.791848087284588
0.24123352399900522,-0.2825157958984375,2.6431986328124997,8.585607153320312,8.987711854447655
0.2437204675453867,-0.3447650390625,2.6910826660156246,7.723694555664062,8.18634512079012
0.2462074110917682,-0.430956298828125,2.7581203125,7.091625317382812,7.621292582749307
0.2486943546381497,-0.5123591552734374,2.7246014892578123,6.636727001953124,7.192503769739165
0.2511812981845312,-0.6081272216796875,2.7437551025390623,6.426037255859375,7.013698424807676
0.2536682417309127,-0.6751648681640625,2.786850732421875,6.4356140625,7.045531418243133
0.2561551852772942,-0.7757213378906249,2.70065947265625,6.655880615234374,7.224683518712738
0.2586421288236757,-0.7852981445312499,2.6527754394531247,7.144297753906249,7.6612597596243805
0.26112907237005717,-0.8044517578125,2.5474305664062498,7.771578588867187,8.217905991446202
0.2636160159164387,-0.8379705810546875,2.4516625,8.537723120117187,8.922194785163734
0.2661029594628202,-0.7278373046875,2.4564509033203126,9.428366137695312,9.77026029381805
0.26858990300920166,-0.689530078125,2.3367408203125,10.218452685546874,10.504883848796897
0.2710768465555832,-0.6464344482421874,2.27927998046875,10.93671318359375,11.19038381761024
0.2735637901019647,-0.4261678955078125,2.001552587890625,11.717222924804688,11.894584688286587
0.27605073364834615,-0.49799394531249996,2.1739351074218747,12.023680737304687,12.22877304938975
0.27853767719472766,-0.44532150878906246,2.1547814941406247,12.263100903320312,12.458934075541796
0.2810246207411092,-0.3687070556640625,2.1643583007812497,12.27746611328125,12.472231793461287
0.28351156428749064,-0.28730419921875,2.27927998046875,12.119448803710936,12.33526247138766
0.28599850783387215,-0.2537853759765625,2.384624853515625,11.693280908203125,11.936652005785026
0.28848545138025367,-0.26336218261718747,2.446874096679687,11.089942089843749,11.35972570268855
0.2909723949266351,-0.22026655273437498,2.4851813232421875,10.40041201171875,10.695476313710808
0.29345933847301664,-0.2442085693359375,2.5617957763671875,9.610325463867188,9.94890903298467
0.29594628201939815,-0.316034619140625,2.6192566162109374,8.858546142578124,9.243063499849272
0.2984332255657796,-0.37828386230468747,2.6767174560546874,8.097190014648437,8.536533321750134
0.30092016911216113,-0.4261678955078125,2.7341782958984373,7.560888842773437,8.051359520087242
0.30340711265854264,-0.507570751953125,2.73896669921875,7.086836914062499,7.614645368905002
0.30589405620492416,-0.5889736083984375,2.748543505859375,6.818686328125,7.375355215604901
0.3083809997513056,-0.6703764648437499,2.7198130859375,6.828263134765624,7.3805125340082265
0.31086794329768713,-0.7278373046875,2.6479870361328124,6.9719152343749995,7.493275953875742
0.31335488684406865,-0.74699091796875,2.6479870361328124,7.297526660156249,7.798956733483425
0.3158418303904501,-0.7900865478515624,2.5617957763671875,7.862558251953125,8.307036572585012
0.3183287739368316,-0.7900865478515624,2.4756045166015626,8.44674345703125,8.837439080673445
0.32081571748321314,-0.7613561279296874,2.375048046875,9.236830004882812,9.567630057522303
0.3233026610295946,-0.6560112548828124,2.370259643554687,9.97903251953125,10.277624801979256
0.3257896045759761,-0.6464344482421874,2.3127988037109373,10.639832177734375,10.907471960664063
0.3282765481223576,-0.55545478515625,2.24097275390625,11.271901416015623,11.505922406938009
0.3307634916687391,-0.5123591552734374,2.1883003173828124,11.664550488281249,11.879095431753738
0.3332504352151206,-0.39743747558593745,2.24097275390625,11.990161914062499,12.204257378316191
0.3357373787615021,-0.3447650390625,2.269703173828125,12.014103930664062,12.23148023283539
0.3382243223078836,-0.296881005859375,2.2744915771484373,11.860875024414062,12.080637674019057
0.3407112658542651,-0.27293898925781246,2.3032219970703123,11.563994018554688,11.79429035257375
0.3431982094006466,-0.2537853759765625,2.384624853515625,11.066000073242186,11.322861843635648
0.34568515294702806,-0.2346317626953125,2.47081611328125,10.453084448242187,10.743693909070494
0.3481720964934096,-0.2920926025390625,2.5330653564453125,9.734823950195311,10.063226894479607
0.3506590400397911,-0.33039982910156246,2.6431986328124997,9.069235888671875,9.45233847595113
0.35314598358617255,-0.411802685546875,2.6815058593749996,8.437166650390624,8.862608882950315
0.35563292713255407,-0.45010991210937495,2.6958710693359373,7.829039428710937,8.292416905328148
0.3581198706789356,-0.6512228515624999,2.9448680419921875,7.292738256835937,7.89179132199164
0.36060681422531704,-0.6177040283203125,2.710236279296875,7.053318090820312,7.581308267476874
0.36309375777169856,-0.6512228515624999,2.7341782958984373,7.038952880859375,7.579358799734828
0.36558070131808007,-0.7900865478515624,2.6479870361328124,7.072471704101562,7.593150077664782
0.36806764486446153,-0.74699091796875,2.6001030029296874,7.45075556640625,7.926682128589835
0.37055458841084304,-0.7709329345703124,2.5474305664062498,7.862558251953125,8.300816968565337
0.37304153195722456,-0.7709329345703124,2.499546533203125,8.418013037109375,8.815044750549845
0.3755284755036061,-0.737414111328125,2.4133552734375,9.069235888671875,9.413771977894323
0.37801541904998753,-0.6943184814453125,2.3319524169921872,9.730035546875,10.029639673101087
0.38050236259636905,-0.6703764648437499,2.2649147705078123,10.414777221679687,10.679270953557594
0.38298930614275056,-0.5698199951171875,2.2553379638671873,10.97502041015625,11.218837602953444
0.385476249689132,-0.47884033203125,2.231395947265625,11.463437548828125,11.688405210846167
0.38796319323551354,-0.40222587890625,2.2266075439453124,11.741164941406248,11.957195364872286
0.39045013678189505,-0.33039982910156246,2.2936451904296873,11.880028637695311,12.103927161839346
0.3929370803282765,-0.277727392578125,2.2744915771484373,11.822567797851562,12.042572556306405
0.395424023874658,-0.2537853759765625,2.35589443359375,11.511321582031249,11.75266651293382
0.39791096742103954,-0.22505495605468748,2.437297290039062,11.171344946289063,11.43634625753587
0.400397910967421,-0.258573779296875,2.4947581298828125,10.606313354492187,10.898833033845209
0.4028848545138025,-0.2825157958984375,2.5426421630859375,9.888052856445311,10.213639588133642
0.40537179806018403,-0.33518823242187495,2.5713725830078125,9.284714038085937,9.640032307042775
0.4078587416065655,-0.38786066894531246,2.6767174560546874,8.671798413085938,9.08379545978785
0.410345685152947,-0.4261678955078125,2.7246014892578123,8.054094384765625,8.513137418668903
0.4128326286993285,-0.5123591552734374,2.6671406494140624,7.594407666015624,8.065431107224601
0.41531957224571,-0.584185205078125,2.73896669921875,7.302315063476562,7.820934485055998
0.4178065157920915,-0.6464344482421874,2.7246014892578123,7.153874560546875,7.682398844057747
0.420293459338473,-0.7278373046875,2.6479870361328124,7.144297753906249,7.653925325092484
0.42278040288485447,-0.7422025146484375,2.6001030029296874,7.378929516601562,7.858753145987485
0.425267346431236,-0.7757213378906249,2.5617957763671875,7.75721337890625,8.20602830849088
0.4277542899776175,-0.814028564453125,2.47081611328125,8.250418920898436,8.650837366389151
0.43024123352399896,-0.7326257080078125,2.442085693359375,8.920795385742187,9.277990799522469
0.43272817707038047,-0.718260498046875,2.31758720703125,9.552864624023437,9.856182381133575
0.435215120616762,-0.6847416748046875,2.3127988037109373,10.213664282226562,10.49461040428332
0.43770206416314344,-0.5698199951171875,2.2936451904296873,10.82179150390625,11.076853092843386
0.44018900770952496,-0.49799394531249996,2.2457611572265623,11.228805786132812,11.462003338315915
0.4426759512559065,-0.4213794921875,2.24097275390625,11.578359228515625,11.800759381698251
0.445162894802288,-0.4261678955078125,2.2361843505859373,11.717222924804688,11.936308164358673
0.44764983834866945,-0.3064578125,2.3511060302734372,11.765106958007811,12.001639791703225
0.45013678189505096,-0.296881005859375,2.3319524169921872,11.559205615234374,11.795820228454724
0.4526237254414325,-0.27293898925781246,2.418143676757812,11.200075366210937,11.461396195145944
0.45511066898781394,-0.2346317626953125,2.4660277099609376,10.749965454101561,11.031686271587752
0.45759761253419545,-0.2537853759765625,2.5426421630859375,10.122684619140625,10.440219350432637
0.46008455608057697,-0.3112462158203125,2.6336218261718747,9.466673364257812,9.831110960400135
0.4625714996269584,-0.3495534423828125,2.6815058593749996,8.896853369140624,9.29874513872345
0.46505844317333994,-0.44053310546874996,2.6431986328124997,8.25520732421875,8.679229020791576
0.46754538671972146,-0.5219359619140624,2.7533319091796873,7.771578588867187,8.261397431027339
0.4700323302661029,-0.6368576416015624,2.710236279296875,7.4028715332031245,7.909075501118475
0.47251927381248443,-0.6416460449218749,2.6479870361328124,7.1586629638671875,7.659634483494305
0.47500621735886595,-0.689530078125,2.7054478759765623,7.235277416992187,7.755265259106377
0.4774931609052474,-0.7326257080078125,2.6527754394531247,7.3549875,7.853012102712941
0.4799801044516289,-0.7900865478515624,2.5905261962890624,7.690175732421874,8.153150650042361
0.48246704799801043,-0.7948749511718749,2.4756045166015626,8.145074047851562,8.550010243011618
0.4849539915443919,-0.7613561279296874,2.437297290039062,8.729259252929687,9.095056258123224
0.4874409350907734,-0.737414111328125,2.418143676757812,9.299079248046874,9.63660071158319
0.4899278786371549,-0.6607996582031249,2.3415292236328122,9.993397729492187,10.285300845052003
0.4924148221835364,-0.603338818359375,2.2601263671875,10.544064111328124,10.800438736884404
0.4949017657299179,-0.5746083984375,2.2266075439453124,11.022904443359375,11.260212179783334
0.4973887092762994,-0.45968671875,2.2266075439453124,11.477802758789062,11.70081404022024
0.49987565282268087,-0.39264907226562495,2.24097275390625,11.654973681640625,11.874954471383747
0.5023625963690624,-0.3447650390625,2.288856787109375,11.7603185546875,11.985942634260498
0.5048495399154439,-0.2825157958984375,2.3223756103515623,11.611878051757811,11.84520812562543
0.5073364834618254,-0.229843359375,2.370259643554687,11.314997045898437,11.562876670465837
0.5098234270082069,-0.2442085693359375,2.418143676757812,10.836156713867187,11.105374779550207
0.5123103705545884,-0.316034619140625,2.4660277099609376,10.261548315429687,10.558434750316374
0.5147973141009698,-0.36391865234375,2.5378537597656248,9.65342109375,9.988076757050761
0.5172842576473514,-0.38786066894531246,2.6336218261718747,9.093177905273437,9.474823704890587
0.5197712011937329,-0.39743747558593745,2.7054478759765623,8.489839086914062,8.919348209276281
0.5222581447401143,-0.4644751220703125,2.7437551025390623,7.963114721679687,8.435349742148402
0.5247450882864959,-0.5363011718749999,2.7437551025390623,7.52737001953125,8.02976403268499
0.5272320318328774,-0.6607996582031249,2.70065947265625,7.311891870117187,7.822658147702424
0.5297189753792588,-0.6703764648437499,2.7198130859375,7.211335400390625,7.736287616420442
0.5322059189256404,-0.7661445312499999,2.6192566162109374,7.278373046874999,7.77317160969739
0.5346928624720219,-0.7757213378906249,2.6240450195312497,7.589619262695312,8.0678173263443
0.5371798060184033,-0.7852981445312499,2.5139117431640625,7.967903124999999,8.391896426768335
0.5396667495647849,-0.7996633544921875,2.499546533203125,8.508992700195313,8.90450173362567
0.5421536931111663,-0.7278373046875,2.437297290039062,9.198522778320312,9.543740698772371
0.5446406366575478,-0.6847416748046875,2.3223756103515623,9.749189160156249,10.045346630021196
0.5471275802039294,-0.6177040283203125,2.2601263671875,10.386046801757812,10.647051123694437
0.5496145237503108,-0.5698199951171875,2.250549560546875,10.864887133789061,11.110150340174886
0.5521014672966923,-0.507570751953125,2.2170307373046874,11.348515869140625,11.574180998693974
0.5545884108430739,-0.4070142822265625,2.2170307373046874,11.626243261718749,11.842736942816503
0.5570753543894553,-0.3495534423828125,2.2553379638671873,11.6837041015625,11.904523445867568
0.5595622979358368,-0.3016694091796875,2.365471240234375,11.635820068359374,11.877658324941223
0.5620492414822184,-0.26336218261718747,2.3511060302734372,11.401188305664062,11.644060888969621
0.5645361850285998,-0.258573779296875,2.4516625,10.979808813476561,11.25316448798931
0.5670231285749813,-0.26815058593749996,2.4564509033203126,10.448296044921875,10.736523926275762
0.5695100721213628,-0.32082302246093747,2.5617957763671875,9.86411083984375,10.196391894796742
0.5719970156677443,-0.38307226562499996,2.5809493896484375,9.270348828125,9.630545753369134
0.5744839592141258,-0.4261678955078125,2.6623522460937497,8.604760766601562,9.017297067740836
0.5769709027605073,-0.4836287353515625,2.6767174560546874,8.087613208007811,8.532772145999683
0.5794578463068888,-0.5410895751953124,2.70065947265625,7.656656909179687,8.136997882543783
0.5819447898532703,-0.6177040283203125,2.7150246826171873,7.388506323242187,7.895754744317574
0.5844317333996518,-0.689530078125,2.7150246826171873,7.259219433593749,7.780943229514323
0.5869186769460333,-0.7326257080078125,2.6767174560546874,7.259219433593749,7.771603666724583
0.5894056204924147,-0.7852981445312499,2.5905261962890624,7.493851196289062,7.967767874479471
0.5918925640387963,-0.7948749511718749,2.5665841796874997,7.8529814453124995,8.299909524798752
0.5943795075851778,-0.7757213378906249,2.480392919921875,8.389282617187499,8.782605277609925
0.5968664511315592,-0.7326257080078125,2.437297290039062,8.963891015625,9.318181187767724
0.5993533946779408,-0.7134720947265625,2.346317626953125,9.610325463867188,9.918296444347614
0.6018403382243223,-0.6368576416015624,2.29843359375,10.156203442382813,10.432490258975243
0.6043272817707037,-0.5985504150390625,2.3032219970703123,10.764330664062498,11.024241870188089
0.6068142253170853,-0.5219359619140624,2.288856787109375,11.204863769531249,11.44815507555649
0.6093011688634667,-0.4213794921875,2.2170307373046874,11.525686791992188,11.744540944357643
0.6117881124098483,-0.3591302490234375,2.2457611572265623,11.678915698242188,11.898297760508393
0.6142750559562298,-0.2825157958984375,2.27927998046875,11.669338891601562,11.89320825392974
0.6167619995026112,-0.26336218261718747,2.365471240234375,11.516109985351562,11.759489913356054
0.6192489430489928,-0.2537853759765625,2.403778466796875,11.142614526367186,11.40177251210113
0.6217358865953743,-0.24899697265624998,2.4756045166015626,10.66856259765625,10.95485486508698
0.6242228301417557,-0.2442085693359375,2.5522189697265625,10.13226142578125,10.45161141141135
0.6267097736881373,-0.3399766357421875,2.6001030029296874,9.4618849609375,9.818522635952407
0.6291967172345188,-0.373495458984375,2.710236279296875,8.844180932617187,9.257667952371609
0.6316836607809002,-0.45489831542968745,2.729389892578125,8.25520732421875,8.706603794185382
0.6341706043272818,-0.5315127685546874,2.7246014892578123,7.843404638671874,8.320153569757112
0.6366575478736632,-0.584185205078125,2.7341782958984373,7.465120776367187,7.97151375294199
0.6391444914200447,-0.6416460449218749,2.6671406494140624,7.278373046874999,7.778178649285269
0.6416314349664263,-0.7278373046875,2.710236279296875,7.307103466796875,7.827444596174836
0.6441183785128077,-0.7517793212890624,2.6288334228515624,7.45075556640625,7.936604804534054
0.6466053220591892,-0.7757213378906249,2.5713725830078125,7.752424975585937,8.20449837325791
0.6490922656055708,-0.7852981445312499,2.528276953125,8.207323291015625,8.62374820659525
0.6515792091519522,-0.7422025146484375,2.4516625,8.738836059570312,9.106523445459475
0.6540661526983337,-0.70868369140625,2.35589443359375,9.327809667968749,9.646787255794255
0.6565530962447153,-0.6943184814453125,2.2457611572265623,9.988609326171874,10.261473461441678
0.6590400397910967,-0.5698199951171875,2.360682836914062,10.596736547851561,10.871446258336974
0.6615269833374782,-0.5123591552734374,2.2553379638671873,11.051634863281249,11.291044875765335
0.6640139268838597,-0.4644751220703125,2.2361843505859373,11.434707128906249,11.660565368483942
0.6665008704302412,-0.36391865234375,2.2266075439453124,11.587936035156249,11.805527497539048
0.6689878139766227,-0.33039982910156246,2.2840683837890623,11.678915698242188,11.90475553363205
0.6714747575230042,-0.277727392578125,2.3032219970703123,11.587936035156249,11.81787737401474
0.6739617010693857,-0.239420166015625,2.384624853515625,11.252747802734374,11.505133237813574
0.6764486446157671,-0.239420166015625,2.4851813232421875,10.831368310546875,11.115394176726518
0.6789355881621487,-0.26815058593749996,2.5234885498046875,10.271125122070313,10.579976865331885
0.6814225317085302,-0.296881005859375,2.5617957763671875,9.730035546875,10.06600852746032
0.6839094752549116,-0.354341845703125,2.6144682128906247,9.064447485351561,9.44061493730827
0.6863964188012932,-0.411802685546875,2.6671406494140624,8.437166650390624,8.858273069963706
0.6888833623476747,-0.45968671875,2.767697119140625,7.972691528320312,8.45193879701249
0.6913703058940561,-0.5985504150390625,2.748543505859375,7.56567724609375,8.071692895236158
0.6938572494404377,-0.6607996582031249,2.6623522460937497,7.316680273437499,7.813999353357488
0.6963441929868192,-0.7038952880859375,2.7246014892578123,7.230489013671875,7.75879457317212
0.6988311365332006,-0.7709329345703124,2.6048914062499997,7.331045483398437,7.818185512484142
0.7013180800795822,-0.7757213378906249,2.5809493896484375,7.575254052734374,8.040367983460335
0.7038050236259636,-0.7613561279296874,2.5234885498046875,8.020575561523437,8.4425878705903
0.7062919671723451,-0.7948749511718749,2.480392919921875,8.576030346679687,8.962838374776707
0.7087789107187267,-0.718260498046875,2.437297290039062,9.169792358398437,9.515324908757908
0.7112658542651081,-0.6703764648437499,2.3367408203125,9.7683427734375,10.066294392938236
0.7137527978114896,-0.5985504150390625,2.2840683837890623,10.366893188476562,10.632389447459586
0.7162397413578712,-0.55545478515625,2.2457611572265623,10.888829150390624,11.131871965669438
0.7187266849042526,-0.49799394531249996,2.1691467041015624,11.267113012695312,11.484817414061514
0.7212136284506341,-0.4070142822265625,2.269703173828125,11.611878051757811,11.838620063677888
0.7237005719970157,-0.3447650390625,2.2649147705078123,11.6837041015625,11.906201887364945
0.7261875155433971,-0.32082302246093747,2.3367408203125,11.645396875,11.881858164837496
0.7286744590897786,-0.258573779296875,2.360682836914062,11.391611499023437,11.636515646898925
0.7311614026361601,-0.2537853759765625,2.446874096679687,10.998962426757812,11.270704251611418
0.7336483461825416,-0.28730419921875,2.4851813232421875,10.496180078124999,10.790202321768977
0.7361352897289231,-0.2920926025390625,2.5809493896484375,9.90241806640625,10.23740696672129
0.7386222332753046,-0.33518823242187495,2.6527754394531247,9.299079248046874,9.675869136401952
0.7411091768216861,-0.40222587890625,2.6336218261718747,8.647856396484375,9.048931972070877
0.7435961203680675,-0.45010991210937495,2.6815058593749996,8.145074047851562,8.586926333201339
0.7460830639144491,-0.5410895751953124,2.70065947265625,7.6997525390625,8.177562514492468
0.7485700074608306,-0.59376201171875,2.7150246826171873,7.369352709960937,7.8759933797324555
0.7510569510072121,-0.6655880615234374,2.729389892578125,7.264007836914062,7.788349408449718
0.7535438945535936,-0.7422025146484375,2.6479870361328124,7.350199096679687,7.847810310979031
0.7560308380999751,-0.7517793212890624,2.6096798095703124,7.513004809570312,7.988794785511981
0.7585177816463566,-0.7900865478515624,2.5570073730468748,7.867346655273437,8.31009427462494
0.7610047251927381,-0.7852981445312499,2.518700146484375,8.37012900390625,8.776081309202716
0.7634916687391196,-0.718260498046875,2.437297290039062,8.911218579101561,9.266398048196027
0.7659786122855011,-0.6943184814453125,2.379836450195312,9.557653027343749,9.873926831532016
0.7684655558318826,-0.6177040283203125,2.35589443359375,10.204087475585936,10.49071961584385
0.770952499378264,-0.5506663818359374,2.308010400390625,10.749965454101561,11.008719395859472
0.7734394429246456,-0.4836287353515625,2.2457611572265623,11.18571015625,11.419170356405045
0.7759263864710271,-0.45489831542968745,2.2457611572265623,11.473014355468749,11.699591191724622
0.7784133300174085,-0.373495458984375,2.2361843505859373,11.640608471679688,11.859333240053097
0.7809002735637901,-0.32082302246093747,2.2649147705078123,11.645396875,11.867941468749548
0.7833872171101716,-0.24899697265624998,2.375048046875,11.477802758789062,11.72360050867576
0.785874160656553,-0.258573779296875,2.403778466796875,11.128249316406249,11.387841945025068
0.7883611042029346,-0.2442085693359375,2.480392919921875,10.663774194335938,10.95116737751372
0.790848047749316,-0.27293898925781246,2.5330653564453125,10.1131078125,10.429087468188625
0.7933349912956975,-0.296881005859375,2.6958710693359373,9.519345800781249,9.898171731636817
0.7958219348420791,-0.3687070556640625,2.6288334228515624,8.805873706054687,9.197288827963556
0.7983088783884605,-0.45010991210937495,2.6671406494140624,8.259995727539062,8.691591775716319
0.800795821934842,-0.5458779785156249,2.729389892578125,7.838616235351562,8.318140203089452
0.8032827654812236,-0.63206923828125,2.7246014892578123,7.4794859863281244,7.985341283685133
0.805769709027605,-0.679953271484375,2.6671406494140624,7.278373046874999,7.781432381293024
0.8082566525739865,-0.7326257080078125,2.6671406494140624,7.249642626953125,7.759361951238428
0.8107435961203681,-0.7661445312499999,2.6144682128906247,7.3932947265625,7.879291109788789
0.8132305396667495,-0.7661445312499999,2.5905261962890624,7.766790185546874,8.223188749063919
0.815717483213131,-0.7805097412109374,2.4899697265625,8.17859287109375,8.58478456610464
0.8182044267595125,-0.7757213378906249,2.4851813232421875,8.705317236328124,9.086276354401848
0.820691370305894,-0.7326257080078125,2.365471240234375,9.356540087890625,9.678689840712646
0.8231783138522755,-0.6703764648437499,2.308010400390625,9.955090502929687,10.241100699360814
0.825665257398657,-0.6177040283203125,2.2649147705078123,10.572794531249999,10.8302992287516
0.8281522009450385,-0.5602431884765625,2.2170307373046874,11.037269653320312,11.271664434345693
0.83063914449142,-0.430956298828125,2.2601263671875,11.425130322265625,11.654505455312517
0.8331260880378015,-0.38307226562499996,2.2361843505859373,11.650185278320311,11.869038791312793
0.835613031584183,-0.296881005859375,2.2936451904296873,11.693280908203125,11.919805576827542
0.8380999751305644,-0.2442085693359375,2.346317626953125,11.554417211914062,11.792769027622986
0.840586918676946,-0.26815058593749996,2.403778466796875,11.329362255859374,11.584666796186498
0.8430738622233275,-0.26336218261718747,2.39420166015625,10.802637890625,11.067906153590876
0.8455608057697089,-1.66636435546875,1.3215993164062498,23.7887876953125,23.88367255953225
0.8480477493160905,-1.2976572998046874,1.2114660400390624,23.822306518554687,23.888362277432865
0.850534692862472,-0.9193734375,1.22583125,22.72097375488281,22.772583475335658
0.8530216364088534,-0.5219359619140624,1.2928688964843749,20.57576906738281,20.62295322804431
0.855508579955235,-0.1484405029296875,1.446097802734375,17.669208251953123,17.728907289759047
0.8579955235016165,0.181959326171875,1.6998831787109374,14.245499877929687,14.347716849371542
0.8604824670479979,0.4213794921875,1.9201497314453124,10.663774194335938,10.843459583333669
0.8629694105943795,0.5793968017578125,2.3319524169921872,7.173028173828125,7.56478921791843
0.8654563541407609,0.6751648681640625,2.6192566162109374,4.012681982421875,4.8392116623289905
0.8679432976871424,0.6272808349609375,2.925714428710937,1.465251416015625,3.331703449650411
0.870430241233524,0.4070142822265625,3.0885201416015624,-0.3447650390625,3.1342431659293295
0.8729171847799054,0.2825157958984375,3.294421484375,-1.20667763671875,3.519815195518204
0.8754041283262869,0.0718260498046875,3.414131567382812,-1.2497732666015624,3.636397469851488
0.8778910718726685,-0.22505495605468748,3.394977954101562,-0.40222587890625,3.426121816243887
0.8803780154190499,-0.4836287353515625,3.366247534179687,1.2737152832031249,3.631510682580156
0.8828649589654315,-0.74699091796875,3.23696064453125,3.4428619873046875,4.7842667473082585
0.885351902511813,-0.9433154541015625,3.0789433349609374,6.019022973632812,6.826300144512165
0.8878388460581944,-1.1444283935546875,2.825157958984375,8.710105639648438,9.228064482599937
0.890325789604576,-1.24498486328125,2.6192566162109374,11.319785449218749,11.685376979272373
0.8928127331509574,-1.2832920898437499,2.427720483398437,13.709198706054687,13.981516172985653
0.8952996766973389,-1.2832920898437499,2.1930887207031247,15.600618017578125,15.806193699152052
0.8977866202437205,-1.1827356201171875,1.9967641845703124,16.907852124023435,17.066381989271203
0.9002735637901019,-1.0582371337890624,1.8770541015625,17.5064025390625,17.638518299200094
0.9027605073364834,-0.9433154541015625,1.7860744384765623,17.48724892578125,17.603516152688464
0.905247450882865,-0.6703764648437499,1.8626888916015625,16.778565234374998,16.894947938235546
0.9077343944292464,-0.5123591552734374,1.89620771484375,15.538368774414062,15.662024766022796
0.9102213379756279,-0.36391865234375,1.9680337646484374,13.857639208984374,14.00141986123911
0.9127082815220094,-0.2059013427734375,2.1116858642578125,11.884817041015625,12.072716705475928
0.9151952250683909,-0.0909796630859375,2.2936451904296873,9.82580361328125,10.090366802324251
0.9176821686147724,-0.05746083984375,2.408566870117187,7.800309008789062,8.16390327897982
0.9201691121611539,0.0,2.5617957763671875,6.062118603515625,6.581191348297282
0.9226560557075354,0.0047884033203125,2.710236279296875,4.6639048339843745,5.394201694309005
0.9251429992539169,-0.1005564697265625,2.7964275390625,3.69664736328125,4.636304596689613
0.9276299428002984,-0.13407529296874998,2.863465185546875,3.31357509765625,4.381459686089932
0.9301168863466799,-0.2920926025390625,2.920926025390625,3.414131567382812,4.502601613918572
0.9326038298930613,-0.37828386230468747,2.959233251953125,3.9983167724609374,4.988656846575806
0.9350907734394429,-0.5219359619140624,2.844311572265625,5.032611889648437,5.804283582001668
0.9375777169858244,-0.6272808349609375,2.834734765625,6.37815322265625,7.007855661258487
0.9400646605322058,-0.689530078125,2.7246014892578123,7.900865478515625,8.385855967848773
0.9425516040785874,-0.814028564453125,2.5665841796874997,9.514557397460937,9.888215173869671
0.9450385476249689,-0.8092401611328125,2.518700146484375,11.046846459960937,11.359204935920566
0.9475254911713503,-0.8188169677734375,2.365471240234375,12.368445776367187,12.61920624833531
0.9500124347177319,-0.833182177734375,2.3319524169921872,13.407529296875,13.634296331786665
0.9524993782641133,-0.7948749511718749,2.2170307373046874,14.020444921874999,14.216888804709866
0.9549863218104948,-0.699106884765625,2.2266075439453124,14.30774912109375,14.496834706350207
0.9574732653568764,-0.6560112548828124,2.1547814941406247,14.111424584960936,14.290057308179831
0.9599602089032578,-0.565031591796875,2.1452046874999997,13.570335009765625,13.750460215144475
0.9624471524496393,-0.4836287353515625,2.24097275390625,12.722787622070312,12.92769045551886
0.9649340959960209,-0.4213794921875,2.2601263671875,11.659762084960937,11.884266226822124
0.9674210395424023,-0.33518823242187495,2.370259643554687,10.429142431640624,10.70035017130117
0.9699079830887838,-0.3447650390625,2.4564509033203126,9.112331518554686,9.443918661055278
0.9723949266351654,-0.32561142578124996,2.5234885498046875,7.967903124999999,8.364298982639216
0.9748818701815468,-0.3447650390625,2.5570073730468748,6.900089184570312,7.366707568038794
0.9773688137279283,-0.3687070556640625,2.6240450195312497,6.129156249999999,6.677433151618762
0.9798557572743098,-0.37828386230468747,2.7150246826171873,5.698199951171874,6.323285569325164
0.9823427008206913,-0.430956298828125,2.6910826660156246,5.61200869140625,6.238773180622027
0.9848296443670728,-0.45010991210937495,2.70065947265625,5.837063647460937,6.447284121607875
0.9873165879134543,-0.5363011718749999,2.6815058593749996,6.325480786132812,6.89128433577895
0.9898035314598358,-0.55545478515625,2.6479870361328124,7.096413720703125,7.594699010313969
0.9922904750062173,-0.5985504150390625,2.5570073730468748,8.049305981445311,8.466869320362207
0.9947774185525988,-0.622492431640625,2.5426421630859375,9.05965908203125,9.430267688649325
0.9972643620989803,-0.6272808349609375,2.47081611328125,10.098742602539062,10.415518021869914
0.9997513056453617,-0.6081272216796875,2.384624853515625,11.061211669921875,11.331666162421488
1.0022382491917432,-1.0582371337890624,3.1842882080078123,9.567229833984374,10.138611538039534
1.0047251927381249,-1.4173673828125,3.380612744140625,9.557653027343749,10.23651328406308
1.0072121362845063,-1.7094599853515624,3.5625720703124997,9.643844287109374,10.421991452294565
1.0096990798308878,-1.915361328125,3.6918589599609373,9.634267480468749,10.493690555888252
1.0121860233772693,-2.1021090576171875,3.768473413085937,9.610325463867188,10.534638573615416
1.0146729669236507,-2.231395947265625,3.825934252929687,9.548076220703125,10.525334213105566
1.0171599104700322,-2.3223756103515623,3.806780639648437,9.586383447265625,10.57278368793982
1.0196468540164139,-2.2840683837890623,3.725377783203125,9.557653027343749,10.509240667170076
1.0221337975627953,-2.212242333984375,3.6487633300781246,9.567229833984374,10.475656384183099
1.0246207411091768,-2.1787235107421874,3.4955344238281247,9.533711010742186,10.385434159474267
1.0271076846555582,0.7613561279296874,-1.0773907470703123,9.327809667968749,9.42064048657309
1.0295946282019397,-0.5267243652343749,-0.0047884033203125,9.418789331054686,9.433506980361413
1.0320815717483212,-1.599326708984375,1.005564697265625,9.509768994140625,9.695602745800597
1.0345685152947028,-2.5761609863281247,1.886630908203125,9.634267480468749,10.149635042526608
1.0370554588410843,-3.35188232421875,2.7724855224609373,9.710881933593749,10.64063057416538
1.0395424023874658,-3.9695863525390624,3.5003228271484375,9.730035546875,11.07625692406834
1.0420293459338472,-4.390965844726562,4.113238452148437,9.797073193359374,11.497041131083622
1.0445162894802287,-4.639962817382812,4.61602080078125,9.859322436523437,11.833982503252008
1.0470032330266101,-4.687846850585937,4.99909306640625,9.840168823242188,11.991487065874985
1.0494901765729918,-4.620809204101562,5.214571215820312,9.868899243164062,12.08051335570205
1.0519771201193733,-4.367023828124999,5.391742138671875,9.868899243164062,12.063869722318195
1.0544640636657547,-4.060566015625,5.492298608398437,9.82580361328125,11.966618445401982
1.0569510072121362,-3.67749375,5.386953735351562,9.80665,11.777674433036735
1.0594379507585177,-3.208230224609375,5.147533569335937,9.710881933593749,11.449500903957995
1.0619248943048991,-2.6431986328124997,5.027823486328125,9.710881933593749,11.25018826288574
1.0644118378512808,-2.0925322509765625,4.73094248046875,9.677363110351562,10.973234014841482
1.0668987813976623,-1.5801730957031248,4.414907861328125,9.672574707031249,10.749281831801673
1.0693857249440437,-1.0438719238281249,4.103661645507812,9.600748657226562,10.493049236204229
1.0718726684904252,-0.5602431884765625,3.835511059570312,9.591171850585937,10.344834217414633
1.0743596120368066,-0.15322890625,3.5434184570312497,9.509768994140625,10.149630524371746
1.076846555583188,0.21068974609375,3.1603461914062496,9.485826977539062,10.000654561900081
1.0793334991295698,0.5027823486328125,2.935291235351562,9.452308154296874,9.910340769631265
1.0818204426759512,0.70868369140625,2.7198130859375,9.423577734375,9.833790373640792
1.0843073862223327,0.8667010009765624,2.4756045166015626,9.414000927734374,9.772573960584564
1.0867943297687142,3.5960908935546874,-2.0446482177734375,9.241618408203124,10.125214410173736
1.0892812733150956,2.1691467041015624,-0.9145850341796874,9.323021264648437,9.615632517403474
1.0917682168614773,0.7565677246093749,0.24899697265624998,9.495403784179686,9.52875056022176
1.0942551604078588,-0.565031591796875,1.3024457031249999,9.619902270507811,9.724101254277365
1.0967421039542402,-1.7860744384765623,2.384624853515625,9.696516723632811,10.143911186690989
1.0992290475006217,-2.868253588867187,3.323151904296875,9.811438403320311,10.748699492088802
1.1017159910470031,-3.754108203125,4.161122485351562,9.80665,11.295072065346407
1.1042029345933846,-4.520252734375,4.908113403320312,9.859322436523437,11.904977986951996
1.1066898781397663,-5.042188696289062,5.511452221679687,9.911994873046874,12.411583895867226
1.1091768216861477,-5.430049365234375,5.928043310546875,9.964667309570311,12.803192109431969
1.1116637652325292,-5.61200869140625,6.172251879882812,9.911994873046874,12.955268317732509
1.1141507087789106,-5.616797094726562,6.296750366210937,9.935936889648437,13.035348735372711
1.116637652325292,-5.5258174316406246,6.2009822998046875,9.8449572265625,12.88060645168385
1.1191245958716736,-5.2624552490234375,6.0716954101562495,9.80665,12.677906160884248
1.1216115394180552,-4.797980126953124,5.7891796142578125,9.744400756835937,12.308068898677815
1.1240984829644367,-4.242525341796875,5.49708701171875,9.710881933593749,11.93809929672195
1.1265854265108182,-3.6248213134765623,5.05655390625,9.672574707031249,11.500729038828222
1.1290723700571996,-2.9831752685546875,4.525041137695312,9.562441430664062,10.991615809135242
1.131559313603581,-2.2936451904296873,4.04141240234375,9.524134204101562,10.597308847209106
1.1340462571499625,-1.5658078857421873,3.5003228271484375,9.495403784179686,10.240444680477639
1.1365332006963442,-0.8714894042968749,2.978386865234375,9.399635717773437,9.898658178139325
1.1390201442427257,-0.24899697265624998,2.442085693359375,9.375693701171874,9.691718857060211
1.1415070877891071,0.33518823242187495,1.9393033447265624,9.323021264648437,9.528482256640281
1.1439940313354886,0.8667010009765624,1.5370774658203123,9.270348828125,9.436797399337602
1.14648097488187,1.35990654296875,1.158793603515625,9.260772021484375,9.431545305784505
1.1489679184282515,1.7621324218749999,0.8954314208984374,9.265560424804686,9.474044441919304
1.1514548619746332,2.0302830078125,0.6847416748046875,9.255983618164063,9.500744865153889
1.1539418055210147,2.24097275390625,0.612915625,9.294290844726563,9.580264440686765
1.1564287490673961,2.288856787109375,0.5267243652343749,9.275137231445312,9.567887677589615
1.1589156926137776,2.250549560546875,0.5793968017578125,9.294290844726563,9.580423596309974
1.161402636160159,2.1930887207031247,0.63206923828125,9.323021264648437,9.598326685414685
1.1638895797065405,1.9823989746093749,0.7900865478515624,9.327809667968749,9.568812656201372
1.1663765232529222,1.7429788085937499,1.0438719238281249,9.414000927734374,9.630735028436156
1.1688634667993036,1.4173673828125,1.3024457031249999,9.437942944335937,9.632240763601688
1.171350410345685,1.0726023437499999,1.6041151123046875,9.481038574218749,9.675420069804005
1.1738373538920666,0.718260498046875,1.8531120849609375,9.5384994140625,9.7433512517282
1.176324297438448,0.296881005859375,2.2170307373046874,9.519345800781249,9.778614835274238
1.1788112409848295,-0.16280571289062498,2.528276953125,9.562441430664062,9.892369593112331
1.1812981845312112,-0.584185205078125,2.806004345703125,9.619902270507811,10.037801175359986
1.1837851280775926,-0.93852705078125,3.0454245117187497,9.595960253906249,10.111275719520956
1.186272071623974,-1.2880804931640624,3.284844677734375,9.610325463867188,10.237563745108682
1.1887590151703555,-1.6424223388671875,3.5338416503906247,9.6151138671875,10.374777232703691
1.191245958716737,-1.89620771484375,3.6439749267578123,9.643844287109374,10.482265480261635
1.1937329022631185,-2.1260510742187497,3.7014357666015623,9.576806640625,10.485034350748837
1.1962198458095001,-2.2936451904296873,3.801992236328125,9.629479077148437,10.603905908764
1.1987067893558816,-2.384624853515625,3.787627026367187,9.600748657226562,10.592777207234617
1.201193732902263,-2.4133552734375,3.778050219726562,9.572018237304688,10.569838233099787
1.2036806764486445,-2.3223756103515623,3.6631285400390623,9.543287817382812,10.48266576505288
1.206167619995026,-2.2649147705078123,3.5577836669921874,9.519345800781249,10.411801381779833
1.2086545635414074,-2.1212626708984375,3.42849677734375,9.519345800781249,10.337905491251854
1.2111415070877891,-1.93451494140625,3.1842882080078123,9.485826977539062,10.191317525128412
1.2136284506341706,-1.6903063720703124,2.959233251953125,9.452308154296874,10.047901597583136
1.216115394180552,-1.455674609375,2.7533319091796873,9.471461767578125,9.970376782508286
1.2186023377269335,-1.1827356201171875,2.50912333984375,9.423577734375,9.823358936608745
1.221089281273315,-0.8810662109374999,2.2840683837890623,9.375693701171874,9.690040166484064
1.2235762248196966,-0.622492431640625,2.0446482177734375,9.342174877929686,9.58354394844175
1.226063168366078,-0.3447650390625,1.89620771484375,9.361328491210937,9.55766382283612
1.2285501119124596,-0.0383072265625,1.7094599853515624,9.375693701171874,9.530338570235532
1.231037055458841,0.2442085693359375,1.5275006591796874,9.332598071289063,9.459930382902392
1.2335239990052225,0.4261678955078125,1.4317325927734375,9.332598071289063,9.451394820480184
1.236010942551604,0.6560112548828124,1.3311761230468748,9.390058911132812,9.506607543790148
1.2384978860979856,0.7805097412109374,1.3311761230468748,9.375693701171874,9.501834438932791
1.240984829644367,0.86191259765625,1.3168109130859373,9.366116894531249,9.497422281274243
1.2434717731907485,0.93852705078125,1.3646949462890625,9.399635717773437,9.544442202052313
1.24595871673713,0.9576806640625,1.43652099609375,9.394847314453125,9.552167339846202
1.2484456602835114,0.9337386474609375,1.5514426757812498,9.418789331054686,9.591268670034587
1.250932603829893,0.9002198242187499,1.695094775390625,9.476250170898437,9.668663782081042
1.2534195473762746,0.7565677246093749,1.8626888916015625,9.485826977539062,9.696541552358982
1.255906490922656,0.59376201171875,2.0877438476562498,9.490615380859374,9.73565652677781
1.2583934344690375,0.40222587890625,2.2649147705078123,9.5384994140625,9.811961865366019
1.260880378015419,0.21068974609375,2.47081611328125,9.490615380859374,9.809235583987359
1.2633673215618004,-0.01915361328125,2.6719290527343746,9.533711010742186,9.901071525854892
1.2658542651081819,-0.27293898925781246,2.877830395507812,9.572018237304688,9.998996780300475
1.2683412086545636,-0.5219359619140624,3.0885201416015624,9.543287817382812,10.044188179182271
1.270828152200945,-0.737414111328125,3.2225954345703123,9.605537060546874,10.158505949599023
1.2733150957473265,-1.01514150390625,3.323151904296875,9.543287817382812,10.156189896678388
1.275802039293708,-1.2306196533203124,3.4715924072265625,9.567229833984374,10.251744498831991
1.2782889828400894,-1.426944189453125,3.5721488769531247,9.619902270507811,10.360450618243052
1.2807759263864709,-1.5849614990234373,3.6152445068359373,9.562441430664062,10.345162246793164
1.2832628699328525,-1.7190367919921874,3.6200329101562496,9.572018237304688,10.37705444228422
1.285749813479234,-1.8339584716796873,3.5817256835937497,9.519345800781249,10.334897533271068
1.2882367570256155,-1.8291700683593748,3.5817256835937497,9.586383447265625,10.3958342430757
1.290723700571997,-1.886630908203125,3.42849677734375,9.543287817382812,10.314470839623864
1.2932106441183784,-1.8100164550781248,3.347093920898437,9.481038574218749,10.216128901339918
1.2956975876647598,-1.7525556152343749,3.1842882080078123,9.490615380859374,10.162820616519396
1.2981845312111415,-1.70467158203125,3.0885201416015624,9.471461767578125,10.107098984493899
1.300671474757523,-1.4891934326171874,2.868253588867187,9.466673364257812,10.003123527946057
1.3031584183039044,-1.3646949462890625,2.6527754394531247,9.447519750976562,9.907332601345574
1.305645361850286,-1.1923124267578125,2.446874096679687,9.404424121093749,9.790403199940902
1.3081323053966674,-0.948103857421875,2.269703173828125,9.418789331054686,9.734682628855102
1.3106192489430488,-0.7613561279296874,2.059013427734375,9.361328491210937,9.615283176770417
1.3131061924894305,-0.5123591552734374,1.9201497314453124,9.34696328125,9.555899197678771
1.315593136035812,-0.2442085693359375,1.7286135986328124,9.332598071289063,9.494478898757094
1.3180800795821934,-0.0430956298828125,1.5753846923828123,9.366116894531249,9.497780785232557
1.3205670231285749,0.1484405029296875,1.465251416015625,9.3086560546875,9.424440240115912
1.3230539666749563,0.3399766357421875,1.388636962890625,9.370905297851563,9.479333459102447
1.3255409102213378,0.5027823486328125,1.3311761230468748,9.399635717773437,9.50673296077622
1.3280278537677195,0.63206923828125,1.3551181396484375,9.351751684570312,9.470539386130515
1.330514797314101,0.737414111328125,1.350329736328125,9.3852705078125,9.51054532995942
1.3330017408604824,0.7517793212890624,1.446097802734375,9.433154541015625,9.572918865094111
1.3354886844068639,0.7948749511718749,1.4939818359375,9.442731347656249,9.593173782337193
1.3379756279532453,0.7948749511718749,1.6424223388671875,9.442731347656249,9.617408831448335
1.3404625714996268,0.6943184814453125,1.7573440185546874,9.452308154296874,9.639318730958824
1.3429495150460085,0.603338818359375,1.9393033447265624,9.4618849609375,9.677405758085282
1.34543645859239,0.49320554199218747,2.1356278808593747,9.524134204101562,9.773090119808218
1.3479234021387714,0.2920926025390625,2.2457611572265623,9.524134204101562,9.78968301843849
1.3504103456851528,0.143652099609375,2.4899697265625,9.514557397460937,9.836024991555204
1.3528972892315343,-0.009576806640625,2.729389892578125,9.557653027343749,9.939738039406581
1.3553842327779158,-0.277727392578125,2.91134921875,9.586383447265625,10.022566257007876
1.3578711763242974,-0.45968671875,3.0693665283203124,9.610325463867188,10.099043434208127
1.360358119870679,-0.679953271484375,3.265691064453125,9.6151138671875,10.177302651431402
1.3628450634170604,-0.9241618408203125,3.39018955078125,9.591171850585937,10.214599246457338
1.3653320069634418,-1.16837041015625,3.5338416503906247,9.567229833984374,10.265720282651623
1.3678189505098233,-1.3359645263671873,3.5960908935546874,9.6151138671875,10.352153670101687
1.370305894056205,-1.47482822265625,3.6391865234374996,9.586383447265625,10.359418151456234
1.3727928376025864,-1.5753846923828123,3.687070556640625,9.619902270507811,10.422036553033271
1.3752797811489679,-1.6998831787109374,3.6248213134765623,9.610325463867188,10.410921568110693
1.3777667246953493,-1.7669208251953124,3.5386300537109374,9.509768994140625,10.299496015895805
1.3802536682417308,-1.8291700683593748,3.4955344238281247,9.509768994140625,10.295646185114737
1.3827406117881123,-1.7525556152343749,3.394977954101562,9.600748657226562,10.333039304704245
1.385227555334494,-1.7381904052734374,3.2513258544921873,9.490615380859374,10.181562061121983
1.3877144988808754,-1.6136919189453125,3.0837317382812497,9.533711010742186,10.149140292620814
1.3902014424272569,-1.5322890624999999,2.887407202148437,9.433154541015625,9.983458054039167
1.3926883859736383,-1.350329736328125,2.6815058593749996,9.452308154296874,9.917660687604796
1.3951753295200198,-1.1923124267578125,2.4851813232421875,9.399635717773437,9.79545235092464
1.3976622730664012,-1.0007762939453124,2.2553379638671873,9.390058911132812,9.708826338766608
1.400149216612783,-0.7900865478515624,2.1308394775390624,9.366116894531249,9.637886662238701
1.4026361601591644,-0.5793968017578125,1.9297265380859374,9.356540087890625,9.571018105822631
1.4051231037055458,-0.3687070556640625,1.7669208251953124,9.375693701171874,9.54785769026745
1.4076100472519273,-0.16280571289062498,1.6424223388671875,9.356540087890625,9.500994645597064
1.4100969907983087,0.0,1.5083470458984374,9.342174877929686,9.463157097961076
1.4125839343446902,0.21068974609375,1.426944189453125,9.375693701171874,9.485999803242516
1.4150708778910719,0.4070142822265625,1.37906015625,9.366116894531249,9.475843668112955
1.4175578214374533,0.5363011718749999,1.3838485595703125,9.399635717773437,9.516081515498987
1.4200447649838348,0.6751648681640625,1.407790576171875,9.399635717773437,9.528424504208632
1.4225317085302163,0.70868369140625,1.4125789794921875,9.437942944335937,9.569345796255295
1.4250186520765977,0.74699091796875,1.5227122558593749,9.399635717773437,9.551429195283516
1.4275055956229792,0.7613561279296874,1.6136919189453125,9.485826977539062,9.652179971934494
1.4299925391693609,0.7038952880859375,1.695094775390625,9.495403784179686,9.67116890033258
1.4324794827157423,0.6177040283203125,1.8914193115234375,9.471461767578125,9.678202999178158
1.4349664262621238,0.507570751953125,2.1116858642578125,9.457096557617186,9.70327370311893
1.4374533698085052,0.39264907226562495,2.29843359375,9.548076220703125,9.828668770244832
1.4399403133548867,0.2059013427734375,2.427720483398437,9.586383447265625,9.891156135987169
1.4424272569012682,0.0383072265625,2.6384102294921874,9.5384994140625,9.896749317567187
1.4449142004476498,-0.1867477294921875,2.829946362304687,9.600748657226562,10.01088636970921
1.4474011439940313,-0.38786066894531246,3.0023288818359375,9.576806640625,10.043885704504012
1.4498880875404128,-0.5985504150390625,3.1699229980468746,9.576806640625,10.105538077945628
1.4523750310867942,-0.852335791015625,3.2800562744140622,9.610325463867188,10.19036804955657
1.4548619746331757,-1.01514150390625,3.4428619873046875,9.6151138671875,10.263246348771036
1.4573489181795571,-1.22583125,3.5386300537109374,9.619902270507811,10.323133468313978
1.4598358617259388,-1.4317325927734375,3.5721488769531247,9.557653027343749,10.303341070129648
1.4623228052723203,-1.5083470458984374,3.6439749267578123,9.629479077148437,10.405793164144175
1.4648097488187017,-1.6328455322265625,3.6104561035156246,9.572018237304688,10.359783344395723
1.4672966923650832,-1.7238251953125,3.5960908935546874,9.562441430664062,10.360681885550859
1.4697836359114647,-1.7573440185546874,3.5290532470703124,9.576806640625,10.35652935360715
1.4722705794578461,-1.8052280517578123,3.404554760742187,9.524134204101562,10.274189689483201
1.4747575230042278,-1.7621324218749999,3.2513258544921873,9.504980590820312,10.199063021483063
1.4772444665506093,-1.6424223388671875,3.1364041748046874,9.562441430664062,10.196806774761539
1.4797314100969907,-1.5801730957031248,2.9496564453125,9.442731347656249,10.01811336838267
1.4822183536433722,-1.4604630126953124,2.81558115234375,9.428366137695312,9.94758953029949
1.4847052971897536,-1.3024457031249999,2.6192566162109374,9.452308154296874,9.894594457325713
1.487192240736135,-1.1013327636718748,2.43250888671875,9.433154541015625,9.803797118208156
1.4896791842825168,-0.9433154541015625,2.2026655273437497,9.428366137695312,9.72808652807606
1.4921661278288982,-0.6847416748046875,2.04943662109375,9.394847314453125,9.640135771190238
1.4946530713752797,-0.47884033203125,1.848323681640625,9.375693701171874,9.568135705239936
1.4971400149216612,-0.2537853759765625,1.714248388671875,9.370905297851563,9.529791217882277
1.4996269584680426,-0.0383072265625,1.5562310791015623,9.361328491210937,9.48987848897583
1.5021139020144243,0.1484405029296875,1.5370774658203123,9.351751684570312,9.478391281684159
1.5046008455608058,0.3112462158203125,1.39821376953125,9.3086560546875,9.418224540572364
1.5070877891071872,0.4740519287109375,1.37906015625,9.370905297851563,9.48369117205813
1.5095747326535687,0.5746083984375,1.3551181396484375,9.414000927734374,9.528375173729401
1.5120616761999501,0.689530078125,1.4173673828125,9.409212524414063,9.540317728256763
1.5145486197463316,0.689530078125,1.3551181396484375,9.394847314453125,9.51708742015804
1.5170355632927133,0.70868369140625,1.5131354492187499,9.418789331054686,9.565845698365472
1.5195225068390947,0.7326257080078125,1.6424223388671875,9.428366137695312,9.598352962549539
1.5220094503854762,0.6607996582031249,1.8148048583984373,9.428366137695312,9.624149878757477
1.5244963939318577,0.5506663818359374,1.944091748046875,9.466673364257812,9.679908613951712
1.5269833374782391,0.469263525390625,2.0973206542968748,9.528922607421874,9.768281744577088
1.5294702810246206,0.28730419921875,2.3511060302734372,9.552864624023437,9.842127096994597
1.5319572245710023,0.1292868896484375,2.5043349365234375,9.581595043945311,9.904310786737469
1.5344441681173837,-0.0526724365234375,2.7629087158203123,9.562441430664062,9.95372920429352
1.5369311116637652,-0.2920926025390625,2.89219560546875,9.562441430664062,9.99451847882785
1.5394180552101466,-0.45489831542968745,3.1220389648437497,9.572018237304688,10.078570975623327
1.541904998756528,-0.6847416748046875,3.2704794677734372,9.600748657226562,10.16559304170591
1.5443919423029095,-0.8954314208984374,3.3710359375,9.586383447265625,10.201197396357795
1.5468788858492912,-1.1252747802734375,3.42849677734375,9.605537060546874,10.260953937374214
1.5493658293956727,-1.2593500732421874,3.5769372802734374,9.6151138671875,10.335901392378238
1.5518527729420541,-1.4508862060546874,3.5960908935546874,9.600748657226562,10.354289704120914
1.5543397164884356,-1.5610194824218748,3.6248213134765623,9.576806640625,10.358153156381388
1.556826660034817,-1.6903063720703124,3.6056677001953124,9.600748657226562,10.393861167772586
1.5593136035811985,-1.7334020019531249,3.5769372802734374,9.524134204101562,10.320285613543955
1.5618005471275802,-1.7573440185546874,3.4907460205078125,9.490615380859374,10.26378809634365
1.5642874906739617,-1.7621324218749999,3.361459130859375,9.533711010742186,10.261391903489882
1.5667744342203431,-1.6903063720703124,3.265691064453125,9.509768994140625,10.195959007461186
1.5692613777667246,-1.6424223388671875,3.0358477050781247,9.4618849609375,10.07180169789166
1.571748321313106,-1.5514426757812498,2.916137622070312,9.495403784179686,10.053533012414247
1.5742352648594875,-1.3551181396484375,2.7246014892578123,9.447519750976562,9.92549383621603
1.5767222084058692,-1.22583125,2.4756045166015626,9.418789331054686,9.815542391477111
1.5792091519522506,-1.0295067138671874,2.3127988037109373,9.447519750976562,9.780825723088855
1.581696095498632,-0.8188169677734375,2.1068974609374997,9.394847314453125,9.66295162978195
1.5841830390450136,-0.6272808349609375,1.9393033447265624,9.390058911132812,9.60872442436152
1.586669982591395,-0.3591302490234375,1.8291700683593748,9.390058911132812,9.573298492645582
1.5891569261377765,-0.1484405029296875,1.637633935546875,9.3852705078125,9.528230790371309
1.5916438696841582,0.047884033203124995,1.5035586425781249,9.351751684570312,9.471971338753661
1.5941308132305396,0.229843359375,1.4413093994140624,9.361328491210937,9.474421981052235
1.596617756776921,0.38786066894531246,1.4030021728515625,9.361328491210937,9.47382299369682
1.5991047003233025,0.4836287353515625,1.3359645263671873,9.351751684570312,9.459067477253395
1.601591643869684,0.622492431640625,1.37906015625,9.356540087890625,9.478087684670912
1.6040785874160655,0.6943184814453125,1.4173673828125,9.399635717773437,9.531220282753907
1.6065655309624471,0.7278373046875,1.4413093994140624,9.414000927734374,9.551467604212336
1.6090524745088286,0.7661445312499999,1.5801730957031248,9.428366137695312,9.590516799505012
1.61153941805521,0.689530078125,1.68551796875,9.433154541015625,9.607331947335945
1.6140263616015915,0.603338818359375,1.8100164550781248,9.414000927734374,9.605393837046794
1.616513305147973,0.5267243652343749,2.0302830078125,9.509768994140625,9.73833630404404
1.6190002486943544,0.3591302490234375,2.2457611572265623,9.485826977539062,9.754656896010186
1.6214871922407361,0.22026655273437498,2.408566870117187,9.519345800781249,9.821794957996792
1.6239741357871176,0.023942016601562498,2.5809493896484375,9.562441430664062,9.90465340569604
1.626461079333499,-0.1580173095703125,2.8107927490234372,9.5384994140625,9.945275080165315
1.6289480228798805,-0.3495534423828125,2.978386865234375,9.528922607421874,9.98966175535078
1.631434966426262,-0.5889736083984375,3.1364041748046874,9.629479077148437,10.14449547076451
1.6339219099726436,-0.7661445312499999,3.337517114257812,9.639055883789062,10.229242213455334
1.636408853519025,-0.9864110839843749,3.423708374023437,9.634267480468749,10.271995703960506
1.6388957970654066,-1.1827356201171875,3.5194764404296874,9.557653027343749,10.253502296919171
1.641382740611788,-1.350329736328125,3.5913024902343746,9.576806640625,10.316785807851915
1.6438696841581695,-1.4939818359375,3.6391865234374996,9.600748657226562,10.375453486846633
1.646356627704551,-1.6472107421875,3.5913024902343746,9.576806640625,10.359825396089482
1.6488435712509326,-1.7094599853515624,3.5673604736328124,9.562441430664062,10.348362204002933
1.651330514797314,-1.7190367919921874,3.5003228271484375,9.528922607421874,10.296004732162613
1.6538174583436955,-1.7573440185546874,3.4428619873046875,9.5384994140625,10.29196423114889
1.656304401890077,-1.7429788085937499,3.308786694335937,9.528922607421874,10.236523363625812
1.6587913454364585,-1.6807295654296874,3.1842882080078123,9.490615380859374,10.150680941255695
1.66127828898284,-1.5658078857421873,2.987963671875,9.4618849609375,10.04524505691685
1.6637652325292216,-1.4317325927734375,2.825157958984375,9.447519750976562,9.96428648501812
1.666252176075603,-1.3024457031249999,2.6862942626953124,9.452308154296874,9.912551191250701
1.6687391196219845,-1.1252747802734375,2.422932080078125,9.428366137695312,9.799537296333472
1.671226063168366,-0.9241618408203125,2.221819140625,9.409212524414063,9.712045908626383
1.6737130067147474,-0.7230489013671875,2.0542250244140625,9.447519750976562,9.6952704763606
1.676199950261129,-0.5315127685546874,1.85790048828125,9.370905297851563,9.568080588539942
1.6786868938075106,-0.3399766357421875,1.675941162109375,9.323021264648437,9.478559404930163
1.681173837353892,-0.0909796630859375,1.5801730957031248,9.366116894531249,9.498914148127822
1.6836607809002735,0.11013327636718749,1.465251416015625,9.375693701171874,9.490138219693806
1.686147724446655,0.2537853759765625,1.4030021728515625,9.361328491210937,9.469281558515588
1.6886346679930364,0.430956298828125,1.35990654296875,9.370905297851563,9.478867824714687
1.6911216115394179,0.5506663818359374,1.3742717529296875,9.452308154296874,9.567548576243128
1.6936085550857995,0.6703764648437499,1.3742717529296875,9.394847314453125,9.518465397184777
1.696095498632181,0.74699091796875,1.426944189453125,9.414000927734374,9.550789423850025
1.6985824421785625,0.7422025146484375,1.5083470458984374,9.423577734375,9.572345203732953
1.701069385724944,0.7134720947265625,1.608903515625,9.418789331054686,9.58181639436561
1.7035563292713254,0.6464344482421874,1.7477672119140624,9.437942944335937,9.620152532234432
1.7060432728177068,0.5746083984375,1.9393033447265624,9.524134204101562,9.736539663153426
1.7085302163640885,0.4740519287109375,2.1308394775390624,9.504980590820312,9.752428320271026
1.71101715991047,0.3064578125,2.288856787109375,9.548076220703125,9.823367105992498
1.7135041034568514,0.1292868896484375,2.4851813232421875,9.528922607421874,9.848512952088882
1.715991047003233,-0.0526724365234375,2.7150246826171873,9.586383447265625,9.963577721421068
1.7184779905496144,-0.2537853759765625,2.906560815429687,9.576806640625,10.01137993599134
1.7209649340959958,-0.45010991210937495,3.0550013183593747,9.6151138671875,10.098814121823313
1.7234518776423775,-0.718260498046875,3.1842882080078123,9.557653027343749,10.099718853800104
1.725938821188759,-0.9097966308593749,3.35188232421875,9.591171850585937,10.200657944093862
1.7284257647351404,-1.0821791503906248,3.438073583984375,9.576806640625,10.232628553521838
1.7309127082815219,-1.2593500732421874,3.5577836669921874,9.591171850585937,10.307005612473661
1.7333996518279033,-1.455674609375,3.6487633300781246,9.629479077148437,10.39996777420687
1.7358865953742848,-1.5418658691406248,3.6583401367187496,9.576806640625,10.36706459641625
1.7383735389206665,-1.6472107421875,3.5769372802734374,9.572018237304688,10.350425917394963
1.740860482467048,-1.7764976318359373,3.5625720703124997,9.567229833984374,10.36242009804515
1.7433474260134294,-1.7621324218749999,3.4811692138671875,9.581595043945311,10.345560079278313
1.7458343695598109,-1.7286135986328124,3.3710359375,9.548076220703125,10.272183204248805
1.7483213131061923,-1.6998831787109374,3.2513258544921873,9.5001921875,10.184025443447684
1.7508082566525738,-1.62805712890625,3.1411925781249996,9.466673364257812,10.106214197878371
1.7532952001989555,-1.5897499023437498,2.863465185546875,9.490615380859374,10.039846509197513
1.755782143745337,-1.35990654296875,2.7533319091796873,9.485826977539062,9.97051131364506
1.7582690872917184,-1.24498486328125,2.5330653564453125,9.442731347656249,9.855535638098663
1.7607560308380998,-1.0199299072265624,2.346317626953125,9.418789331054686,9.760074583987343
1.7632429743844813,-0.8379705810546875,2.1499930908203124,9.409212524414063,9.688031033955179
1.765729917930863,-0.6272808349609375,1.9967641845703124,9.423577734375,9.653204948124756
1.7682168614772444,-0.4261678955078125,1.8195932617187498,9.409212524414063,9.593008862856548
1.770703805023626,-0.21068974609375,1.6615759521484375,9.284714038085937,9.434571510296433
1.7731907485700074,-0.0143652099609375,1.5275006591796874,9.366116894531249,9.489868824439846
1.7756776921163888,0.2154781494140625,1.47482822265625,9.356540087890625,9.474512733408648
1.7781646356627703,0.354341845703125,1.4030021728515625,9.399635717773437,9.510369333915726
1.780651579209152,0.5458779785156249,1.4030021728515625,9.437942944335937,9.557257184202745
1.7831385227555334,0.5889736083984375,1.3359645263671873,9.318232861328125,9.431922115085383
1.7856254663019149,0.6607996582031249,1.369483349609375,9.409212524414063,9.531286437975156
1.7881124098482963,0.7565677246093749,1.4700398193359374,9.471461767578125,9.614676271567753
1.7905993533946778,0.7565677246093749,1.5849614990234373,9.409212524414063,9.571717609964143
1.7930862969410593,0.718260498046875,1.695094775390625,9.481038574218749,9.65812284486147
1.795573240487441,0.6081272216796875,1.8339584716796873,9.495403784179686,9.689990475651019
1.7980601840338224,0.5315127685546874,2.001552587890625,9.5001921875,9.723290090533366
1.8005471275802039,0.38786066894531246,2.231395947265625,9.509768994140625,9.775749080960832
1.8030340711265853,0.258573779296875,2.389413256835937,9.562441430664062,9.859839868180606
1.8055210146729668,0.0430956298828125,2.528276953125,9.576806640625,9.905012216899943
1.8080079582193482,-0.1197100830078125,2.825157958984375,9.572018237304688,9.98095091323868
1.81049490176573,-0.3495534423828125,2.935291235351562,9.591171850585937,10.036368850978198
1.8129818453121114,2.2936451904296873,-1.3407529296874998,9.394847314453125,9.76327725407478
1.8154687888584928,0.603338818359375,0.028730419921875,9.557653027343749,9.576720448977369
1.8179557324048743,-0.8954314208984374,1.4700398193359374,9.677363110351562,9.829250798995755
1.8204426759512558,-2.3223756103515623,2.7198130859375,9.80665,10.438447965118792
1.8229296194976372,-3.5625720703124997,3.840299462890625,9.892841259765625,11.19411130513583
1.825416563044019,-4.6064439941406246,4.908113403320312,9.993397729492187,12.04893778018736
1.8279035065904004,-3.2561142578125,1.8243816650390623,9.86411083984375,10.546626530809911
1.8303904501367818,-5.272032055664062,3.806780639648437,10.0748005859375,11.991142884677764
1.8328773936831633,-6.9336080078124995,5.45877978515625,10.213664282226562,13.497856675000767
1.8353643372295447,-8.317456567382813,6.900089184570312,10.242394702148436,14.889525302705994
1.8378512807759262,-9.289502441406249,8.073247998046874,10.352527978515624,16.08250678199171
1.8403382243223079,-9.926360083007811,8.959102612304687,10.386046801757812,16.931276156381102
1.8428251678686893,-10.184933862304687,9.514557397460937,10.357316381835936,17.364725246388044
1.8453121114150708,-10.117896215820313,9.849745629882811,10.319009155273436,17.489175588178064
1.8477990549614522,-9.758765966796874,9.892841259765625,10.266336718749999,17.27713781297089
1.8502859985078337,-9.150638745117186,9.6151138671875,10.180145458984374,16.727820111679268
1.8527729420542152,-8.336610180664062,9.188945971679686,10.1131078125,16.006584488954804
1.8552598856005968,-7.302315063476562,8.576030346679687,9.969455712890625,15.042012797652285
1.8577468291469783,-6.138733056640625,7.843404638671874,9.840168823242188,14.001141465485569
1.8602337726933598,-4.903325,6.976703637695312,9.758765966796874,12.959571864014988
1.8627207162397412,-3.6679169433593746,6.009446166992187,9.667786303710937,11.959646731888892
1.8652076597861227,-2.389413256835937,5.051765502929687,9.557653027343749,11.071511269904704
1.8676946033325041,-1.1827356201171875,4.089296435546875,9.471461767578125,10.384112716046785
1.8701815468788858,-0.023942016601562498,3.189076611328125,9.380482104492186,9.907786199034433
1.8726684904252673,0.9864110839843749,2.2601263671875,9.246406811523437,9.569598578124916
1.8751554339716487,1.924938134765625,1.5322890624999999,9.208099584960937,9.53112766467273
1.8776423775180302,2.6527754394531247,0.7709329345703124,9.179369165039063,9.58605097993125
1.8801293210644117,3.246537451171875,0.277727392578125,9.165003955078124,9.726995189833676
1.8826162646107931,3.6727053466796873,-0.1771709228515625,9.17458076171875,9.883981295648704
1.8851032081571748,3.9312791259765625,-0.45010991210937495,9.126696728515624,9.947569938111315
1.8875901517035563,4.060566015625,-0.6464344482421874,9.169792358398437,10.0494360916056
1.8900770952499377,3.9743747558593747,-0.6751648681640625,9.17458076171875,10.021199252211037
1.8925640387963192,3.754108203125,-0.5889736083984375,9.203311181640624,9.956965151002168
1.8950509823427006,3.4428619873046875,-0.411802685546875,9.260772021484375,9.888618637067514
1.897537925889082,3.0454245117187497,-0.16280571289062498,9.323021264648437,9.809171303316816
1.9000248694354638,2.47081611328125,0.239420166015625,9.327809667968749,9.652475717835113
1.9025118129818452,1.9488801513671874,0.5746083984375,9.394847314453125,9.612047894066851
1.9049987565282267,1.3359645263671873,1.0007762939453124,9.452308154296874,9.598566760200274
1.9074857000746082,0.6751648681640625,1.4891934326171874,9.495403784179686,9.635156340380112
1.9099726436209896,0.05746083984375,1.9680337646484374,9.533711010742186,9.734891077113224
1.9124595871673713,-0.5458779785156249,2.3415292236328122,9.548076220703125,9.846141446724765
1.9149465307137528,1.5658078857421873,-1.484405029296875,9.428366137695312,9.672088743001373
1.9174334742601342,-0.373495458984375,0.1197100830078125,9.610325463867188,9.61832547189529
1.9199204178065157,-2.1499930908203124,1.6903063720703124,9.801861596679688,10.17625160275141
1.9224073613528971,-3.7301661865234372,3.0980969482421874,9.911994873046874,11.034490783135299
1.9248943048992786,-5.008669873046875,4.328716601562499,9.983820922851562,11.979200371200859
1.9273812484456603,-6.086060620117187,5.406107348632812,10.036493359375,12.922744657752135
1.9298681919920417,-3.6152445068359373,1.5514426757812498,9.931148486328125,10.681979099302717
1.9323551355384232,-5.626373901367187,3.404554760742187,10.041281762695311,12.003100259296161
1.9348420790848047,-7.244854223632812,5.104437939453125,10.194510668945313,13.508191854525109
1.9373290226311861,-8.480262280273436,6.5505357421875,10.228029492187499,14.813404542675585
1.9398159661775676,-9.404424121093749,7.728482958984374,10.314220751953124,15.954804656176217
1.9423029097239493,-9.916783276367187,8.604760766601562,10.376469995117187,16.734862651376876
1.9447898532703307,-10.0748005859375,9.217676391601563,10.319009155273436,17.115756333078373
1.9472767968167122,-9.90241806640625,9.528922607421874,10.309432348632813,17.179716091110507
1.9497637403630936,-9.490615380859374,9.576806640625,10.271125122070313,16.949425270862356
1.952250683909475,-8.796296899414061,9.366116894531249,10.165780249023436,16.3842019303993
1.9547376274558566,-7.867346655273437,8.949525805664061,10.0748005859375,15.604190539303717
1.9572245710022382,-6.823474731445312,8.456320263671875,10.012551342773437,14.775667301483693
1.9597115145486197,-5.6024318847656245,7.742848168945312,9.892841259765625,13.75526259224808
1.9621984580950012,-4.386177441406249,6.919242797851562,9.7683427734375,12.74892128701446
1.9646854016413826,-3.1220389648437497,6.062118603515625,9.763554370117188,11.908963145434925
1.967172345187764,-1.9584569580078124,5.1714755859374995,9.528922607421874,11.01726279302407
1.9696592887341455,-0.7709329345703124,4.256890551757812,9.495403784179686,10.434469214285125
1.9721462322805272,0.3064578125,3.356670727539062,9.423577734375,10.008245204818284
1.9746331758269087,1.2306196533203124,2.6527754394531247,9.375693701171874,9.821164627552982
1.9771201193732901,2.0733786376953125,2.212242333984375,9.198522778320312,9.685336154352182
1.9796070629196716,2.710236279296875,1.3407529296874998,9.2320416015625,9.714607106881022
1.982094006466053,3.1555577880859373,0.7900865478515624,9.208099584960937,9.765801537692829
1.9845809500124345,3.4524387939453125,0.37828386230468747,9.193734375,9.827877902399651
1.9870678935588162,3.6008792968749996,0.15322890625,9.203311181640624,9.883862985416426
1.9895548371051976,3.6248213134765623,0.0143652099609375,9.222464794921875,9.909257934248384
1.992041780651579,3.414131567382812,-0.0430956298828125,9.255983618164063,9.86566694818127
1.9945287241979606,3.1555577880859373,0.0047884033203125,9.265560424804686,9.788165194175207
1.997015667744342,2.7916391357421872,0.1197100830078125,9.265560424804686,9.6777161331529
1.9995026112907235,2.3127988037109373,0.411802685546875,9.299079248046874,9.591219662781496
2.001989554837105,-0.373495458984375,2.24097275390625,12.014103930664062,12.227025435420906
2.0044764983834864,-0.27293898925781246,2.2936451904296873,11.97100830078125,12.191814618374572
2.006963441929868,-0.2537853759765625,2.346317626953125,11.645396875,11.882124464920837
2.0094503854762498,-0.26815058593749996,2.39420166015625,11.209652172851563,11.465618525075275
2.011937329022631,-0.239420166015625,2.480392919921875,10.635043774414061,10.923086886809827
2.0144242725690127,-0.258573779296875,2.5474305664062498,9.974244116210937,10.297660344940944
2.016911216115394,-0.33039982910156246,2.5761609863281247,9.260772021484375,9.618090658153376
2.0193981596617756,-0.36391865234375,2.70065947265625,8.566453540039062,8.989445179009625
2.021885103208157,-0.4070142822265625,2.7246014892578123,8.010998754882811,8.471435235657312
2.0243720467545385,-0.5363011718749999,2.7341782958984373,7.498639599609374,7.999559096946933
2.02685899030092,-0.565031591796875,2.7054478759765623,7.1586629638671875,7.673666942186007
2.0293459338473014,-0.63206923828125,2.7629087158203123,7.048529687499999,7.597035398726672
2.031832877393683,-0.70868369140625,2.6719290527343746,7.067683300781249,7.589043726152416
2.0343198209400644,-0.7757213378906249,2.6623522460937497,7.345410693359375,7.851427980339468
2.036806764486446,-0.7565677246093749,2.5474305664062498,7.762001782226562,8.204295757703388
2.0392937080328277,-0.7613561279296874,2.518700146484375,8.307879760742187,8.71460726024909
2.041780651579209,-0.7565677246093749,2.4564509033203126,8.935160595703124,9.297507226851161
2.0442675951255906,-0.7230489013671875,2.3511060302734372,9.610325463867188,9.920123729107944
2.046754538671972,-0.6464344482421874,2.269703173828125,10.28549033203125,10.552759893197038
2.0492414822183536,-0.59376201171875,2.269703173828125,10.888829150390624,11.138703070386711
2.0517284257647352,-0.51714755859375,2.231395947265625,11.367669482421874,11.59614069129978
2.0542153693111165,-0.43574470214843747,2.24097275390625,11.674127294921874,11.895254533940857
2.056702312857498,-0.3687070556640625,2.2457611572265623,11.860875024414062,12.07724076157188
2.0591892564038794,-0.33518823242187495,2.29843359375,11.827356201171874,12.053277680590927
2.061676199950261,-0.26336218261718747,2.2936451904296873,11.631031665039062,11.857953680629532
2.0641631434966423,-0.24899697265624998,2.375048046875,11.200075366210937,11.451835701151227
2.066650087043024,-0.258573779296875,2.437297290039062,10.749965454101561,11.025834922750684
2.0691370305894057,-0.239420166015625,2.5761609863281247,10.108319409179687,10.434176954670303
2.071623974135787,-0.28730419921875,2.6384102294921874,9.452308154296874,9.8178348776991
2.0741109176821686,-0.36391865234375,2.6623522460937497,8.810662109374999,9.211314948115737
2.07659786122855,-0.4213794921875,2.7629087158203123,8.207323291015625,8.670143069848363
2.0790848047749315,-0.5027823486328125,2.7820623291015623,7.709329345703124,8.21135919648033
2.081571748321313,-0.5602431884765625,2.7054478759765623,7.331045483398437,7.834382459359327
2.0840586918676944,-0.612915625,2.748543505859375,7.182604980468749,7.71491874697494
2.086545635414076,-0.689530078125,2.7150246826171873,7.192181787109375,7.7184382885845135
2.0890325789604574,-0.7326257080078125,2.6096798095703124,7.350199096679687,7.834066370496473
2.091519522506839,-0.7661445312499999,2.5522189697265625,7.709329345703124,8.156871831328218
2.0940064660532203,-0.7517793212890624,2.5378537597656248,8.17859287109375,8.596234943565694
2.096493409599602,-0.7661445312499999,2.442085693359375,8.810662109374999,9.174885654985086
2.0989803531459836,-0.7326257080078125,2.398990063476562,9.404424121093749,9.733195097299918
2.101467296692365,-0.6368576416015624,2.3415292236328122,10.079588989257813,10.367567745289158
2.1039542402387466,-0.612915625,2.2553379638671873,10.697293017578124,10.94962523553
2.106441183785128,-0.51714755859375,2.250549560546875,11.190498559570312,11.426271173641137
2.1089281273315095,-0.430956298828125,2.2457611572265623,11.578359228515625,11.802015460562664
2.111415070877891,-0.36391865234375,2.2936451904296873,11.812990991210937,12.039103006600437
2.1139020144242724,-0.32561142578124996,2.3127988037109373,11.832144604492187,12.060460482446747
2.116388957970654,-0.2442085693359375,2.3367408203125,11.640608471679688,11.87534256674698
2.1188759015170353,-0.277727392578125,2.360682836914062,11.329362255859374,11.576027171943743
2.121362845063417,-0.2537853759765625,2.418143676757812,10.845733520507812,11.11493416338442
2.1238497886097982,-0.2537853759765625,2.5617957763671875,10.261548315429687,10.579535833238157
2.12633673215618,-0.26815058593749996,2.6001030029296874,9.658209497070311,10.005670944613447
2.1288236757025616,-0.3591302490234375,2.6336218261718747,8.98304462890625,9.368032304810542
2.131310619248943,-0.39743747558593745,2.6767174560546874,8.437166650390624,8.860505288808971
2.1337975627953245,-0.4740519287109375,2.73896669921875,7.915230688476562,8.389132294960246
2.1362845063417057,-0.565031591796875,2.6910826660156246,7.4794859863281244,7.968933255758707
2.1387714498880874,-0.6081272216796875,2.73896669921875,7.273584643554687,7.795947079356791
2.141258393434469,-0.6560112548828124,2.7246014892578123,7.201758593749999,7.727815401809931
2.1437453369808503,-0.8044517578125,2.6384102294921874,7.287949853515625,7.792468430291845
2.146232280527232,-0.7709329345703124,2.5809493896484375,7.651868505859374,8.112134674208411
2.1487192240736133,-0.7565677246093749,2.518700146484375,8.073247998046874,8.490793743095452
2.151206167619995,-0.7565677246093749,2.518700146484375,8.700528833007812,9.08930399556651
2.153693111166376,-0.7230489013671875,2.422932080078125,9.208099584960937,9.548952693620269
2.156180054712758,-0.6703764648437499,2.370259643554687,9.911994873046874,10.213480197552053
2.1586669982591395,-0.6464344482421874,2.250549560546875,10.51533369140625,10.772886960419445
2.161153941805521,-0.5363011718749999,2.2361843505859373,11.003750830078124,11.241471065977306
2.1636408853519025,-0.45489831542968745,2.27927998046875,11.444283935546874,11.677914390170988
2.1661278288982837,-0.38307226562499996,2.221819140625,11.698069311523437,11.91335596175759
2.1686147724446654,-0.32082302246093747,2.269703173828125,11.731588134765625,11.953436329056176
2.171101715991047,-0.28730419921875,2.2553379638671873,11.645396875,11.865258590119689
2.1735886595374283,-0.2537853759765625,2.39420166015625,11.386823095703125,11.638571597038556
2.17607560308381,-0.22026655273437498,2.4133552734375,10.979808813476561,11.244065217285947
2.178562546630191,-0.2825157958984375,2.5139117431640625,10.390835205078124,10.694345407103759
2.181049490176573,-0.27293898925781246,2.6096798095703124,9.868899243164062,10.211762662344842
2.1835364337229546,-0.32561142578124996,2.6623522460937497,9.17458076171875,9.558612579039885
2.186023377269336,-0.373495458984375,2.70065947265625,8.604760766601562,9.026348558280661
2.1885103208157175,-0.469263525390625,2.6862942626953124,8.049305981445311,8.49868883446047
2.1909972643620987,-0.5123591552734374,2.7246014892578123,7.64229169921875,8.129611773953673
2.1934842079084804,-0.5985504150390625,2.710236279296875,7.345410693359375,7.85230549221556
2.1959711514548617,-0.6655880615234374,2.6767174560546874,7.244854223632812,7.752143995623443
2.1984580950012433,-0.7038952880859375,2.6575638427734374,7.316680273437499,7.816132315839833
2.200945038547625,-0.7517793212890624,2.6479870361328124,7.560888842773437,8.046368596094831
2.2034319820940063,-0.7565677246093749,2.5809493896484375,7.948749511718749,8.39144286007456
2.205918925640388,-0.7565677246093749,2.528276953125,8.465897070312499,8.86769374069433
2.208405869186769,-0.7326257080078125,2.389413256835937,9.117119921875,9.45346030878785
2.210892812733151,-0.689530078125,2.3367408203125,9.65342109375,9.956121142453583
2.2133797562795325,-0.5793968017578125,2.288856787109375,10.314220751953124,10.581007313380153
2.2158666998259138,-0.5458779785156249,2.2457611572265623,10.850521923828124,11.093928608126639
2.2183536433722955,-0.47884033203125,2.2744915771484373,11.262324609375,11.499676326098605
2.2208405869186767,-0.373495458984375,2.3319524169921872,11.602301245117188,11.840223609182619
2.2233275304650584,-0.32561142578124996,2.269703173828125,11.688492504882811,11.91127332969009
2.2258144740114396,-0.296881005859375,2.2649147705078123,11.616666455078125,11.839126520898487
2.2283014175578213,-0.277727392578125,2.379836450195312,11.429918725585937,11.67834731919575
2.230788361104203,-0.26815058593749996,2.384624853515625,11.051634863281249,11.30915441489931
2.233275304650584,-0.239420166015625,2.5043349365234375,10.577582934570312,10.872638880598394
2.235762248196966,-0.26336218261718747,2.5570073730468748,9.9981861328125,10.32334113993203
2.238249191743347,-0.27293898925781246,2.6384102294921874,9.409212524414063,9.775939062848979
2.240736135289729,-0.39264907226562495,2.6384102294921874,8.777143286132812,9.173528552217318
2.2432230788361105,-0.430956298828125,2.6671406494140624,8.192958081054687,8.626930201014485
2.2457100223824917,-0.5123591552734374,2.7150246826171873,7.75721337890625,8.234575297918841
2.2481969659288734,-0.612915625,2.7246014892578123,7.398083129882812,7.907638891305779
2.2506839094752547,-0.6560112548828124,2.6767174560546874,7.311891870117187,7.814021360756996
2.2531708530216363,-0.718260498046875,2.6767174560546874,7.302315063476562,7.810539019099714
2.2556577965680176,-0.7278373046875,2.5857377929687497,7.532158422851562,7.996824218589238
2.2581447401143993,-0.7661445312499999,2.5953145996093747,7.857769848632812,8.310666778772493
2.260631683660781,-0.7517793212890624,2.4756045166015626,8.312668164062499,8.705988851150344
2.263118627207162,-0.7565677246093749,2.442085693359375,8.877699755859375,9.238491771431999
2.265605570753544,-0.699106884765625,2.346317626953125,9.437942944335937,9.750319167258994
2.268092514299925,-0.6464344482421874,2.2744915771484373,10.122684619140625,10.395187989112056
2.2705794578463068,-0.5793968017578125,2.269703173828125,10.649408984374999,10.903997655339971
2.2730664013926885,-0.4644751220703125,2.27927998046875,11.137826123046874,11.378138033773945
2.2755533449390697,-0.411802685546875,2.231395947265625,11.5304751953125,11.751619784311178
2.2780402884854514,-0.3591302490234375,2.27927998046875,11.678915698242188,11.904669825399488
2.2805272320318326,-0.296881005859375,2.31758720703125,11.707646118164062,11.93852279061346
2.2830141755782143,-0.28730419921875,2.3032219970703123,11.583147631835937,11.813411206403668
2.2855011191245955,-0.2537853759765625,2.384624853515625,11.209652172851563,11.463295535987012
2.287988062670977,-0.24899697265624998,2.4660277099609376,10.759542260742187,11.041333335217457
2.290475006217359,-0.239420166015625,2.480392919921875,10.180145458984374,10.480698097892796
2.29296194976374,-0.3064578125,2.6048914062499997,9.581595043945311,9.934099819075442
2.295448893310122,-0.33518823242187495,2.6479870361328124,9.0021982421875,9.389555883337893
2.297935836856503,-0.4213794921875,2.6767174560546874,8.360552197265624,8.788697859136308
2.3004227804028847,-0.49320554199218747,2.7054478759765623,7.943961108398437,8.406498558140887
2.3029097239492664,-0.5410895751953124,2.7724855224609373,7.560888842773437,8.071337806920015
2.3053966674956476,-0.63206923828125,2.7054478759765623,7.287949853515625,7.7995623466298385
2.3078836110420293,-0.718260498046875,2.6862942626953124,7.287949853515625,7.800403071393344
2.3103705545884106,-0.718260498046875,2.6144682128906247,7.436390356445312,7.915253862808373
2.3128574981347922,-0.7757213378906249,2.6001030029296874,7.704540942382812,8.168367667579357
2.315344441681174,-0.7565677246093749,2.4756045166015626,8.111555224609374,8.51459573945976
2.317831385227555,-0.7422025146484375,2.446874096679687,8.695740429687499,9.06388211740721
2.320318328773937,-0.6943184814453125,2.365471240234375,9.279925634765624,9.601799421401836
2.322805272320318,-0.6560112548828124,2.375048046875,9.945513696289062,10.246191813282191
2.3252922158666998,-0.565031591796875,2.3127988037109373,10.486603271484375,10.753471401351382
2.327779159413081,-0.49799394531249996,2.27927998046875,11.018116040039061,11.262415205927171
2.3302661029594627,-0.45968671875,2.2457611572265623,11.372457885742186,11.60118758652244
2.3327530465058444,-0.3687070556640625,2.250549560546875,11.616666455078125,11.838406047518033
2.3352399900522256,-0.32082302246093747,2.2457611572265623,11.693280908203125,11.911305091600846
2.3377269335986073,-0.2537853759765625,2.3319524169921872,11.654973681640625,11.888684561881137
2.3402138771449885,-0.2346317626953125,2.346317626953125,11.314997045898437,11.558088796133502
2.34270082069137,-0.2346317626953125,2.442085693359375,10.931924780273437,11.203830327139576
2.345187764237752,-0.22505495605468748,2.5043349365234375,10.405200415039062,10.704697047776069
2.347674707784133,-0.3064578125,2.518700146484375,9.7683427734375,10.092486678619464
2.350161651330515,-0.2920926025390625,2.6527754394531247,9.188945971679686,9.568660496175633
2.352648594876896,-0.40222587890625,2.6431986328124997,8.547299926757812,8.955703250338182
2.3551355384232777,-0.44053310546874996,2.710236279296875,8.078036401367187,8.53194715222992
2.357622481969659,-0.5602431884765625,2.729389892578125,7.637503295898437,8.12987688780104
2.3601094255160406,-0.5889736083984375,2.7916391357421872,7.369352709960937,7.902372956233202
2.3625963690624223,-0.6943184814453125,2.7054478759765623,7.225700610351562,7.746759043221723
2.3650833126088036,-0.7134720947265625,2.6384102294921874,7.331045483398437,7.823968229019028
2.3675702561551852,-0.7326257080078125,2.6144682128906247,7.589619262695312,8.06067646149659
2.3700571997015665,-0.7948749511718749,2.4851813232421875,7.972691528320312,8.388787910249176
2.372544143247948,-0.7852981445312499,2.4756045166015626,8.489839086914062,8.878213706603152
2.37503108679433,-0.7230489013671875,2.384624853515625,9.045293872070312,9.382247952270578
2.377518030340711,-0.6751648681640625,2.35589443359375,9.658209497070311,9.964291087214391
2.3800049738870928,-0.603338818359375,2.346317626953125,10.347739575195313,10.627555619819333
2.382491917433474,-0.55545478515625,2.231395947265625,10.874463940429687,11.114927974734337
2.3849788609798557,-0.4213794921875,2.27927998046875,11.319785449218749,11.554662285075507
2.387465804526237,-0.3687070556640625,2.2936451904296873,11.587936035156249,11.818503065420359
2.3899527480726186,-0.316034619140625,2.24097275390625,11.650185278320311,11.86796755065655
2.3924396916190003,-0.2920926025390625,2.3367408203125,11.664550488281249,11.899891337463343
2.3949266351653815,-0.229843359375,2.346317626953125,11.458649145507811,11.698661231792578
2.397413578711763,-0.22026655273437498,2.418143676757812,11.085153686523437,11.347976403286244
2.3999005222581444,-0.2059013427734375,2.5043349365234375,10.582371337890624,10.876611235594327
2.402387465804526,-0.229843359375,2.5474305664062498,10.01733974609375,10.338729421412443
2.404874409350908,-0.2920926025390625,2.6048914062499997,9.399635717773437,9.758274896397175
2.407361352897289,-0.373495458984375,2.6815058593749996,8.820238916015624,9.226407050815657
2.4098482964436707,-0.411802685546875,2.70065947265625,8.173804467773436,8.618249388156771
2.412335239990052,-0.488417138671875,2.7341782958984373,7.766790185546874,8.248473315797158
2.4148221835364336,-0.5985504150390625,2.729389892578125,7.4411787597656245,7.948520184275695
2.417309127082815,-0.603338818359375,2.7246014892578123,7.297526660156249,7.812897436975375
2.4197960706291965,-0.7230489013671875,2.6527754394531247,7.268796240234375,7.771448772782292
2.4222830141755782,-0.737414111328125,2.6001030029296874,7.522581616210937,7.9933440667836
2.4247699577219595,-0.7661445312499999,2.5761609863281247,7.81467421875,8.263940707400998
2.427256901268341,-0.7613561279296874,2.499546533203125,8.264784130859374,8.667990121988417
2.4297438448147224,-0.7565677246093749,2.480392919921875,8.863334545898438,9.234903520429212
2.432230788361104,-0.7230489013671875,2.3223756103515623,9.399635717773437,9.709241979483581
2.4347177319074857,-0.63206923828125,2.308010400390625,10.108319409179687,10.387711240128478
2.437204675453867,-0.5410895751953124,2.2649147705078123,10.639832177734375,10.891677814570228
2.4396916190002487,-0.44532150878906246,2.2840683837890623,11.142614526367186,11.383019727261479
2.44217856254663,-0.4165910888671875,2.231395947265625,11.511321582031249,11.732996231727657
2.4446655060930116,-0.3495534423828125,2.269703173828125,11.635820068359374,11.860271867440556
2.4471524496393933,-0.26815058593749996,2.3223756103515623,11.659762084960937,11.891820091566599
2.4496393931857745,-0.27293898925781246,2.327164013671875,11.525686791992188,11.76144736269689
2.452126336732156,-0.277727392578125,2.403778466796875,11.200075366210937,11.458489064044597
2.4546132802785374,-0.2442085693359375,2.370259643554687,10.726023437499999,10.987508697835027
2.457100223824919,-0.22026655273437498,2.518700146484375,10.232817895507813,10.540537456163174
2.4595871673713003,-0.26815058593749996,2.6096798095703124,9.605537060546874,9.957342801508696
2.462074110917682,-0.316034619140625,2.6958710693359373,8.973467822265624,9.375005251209965
2.4645610544640637,-0.39743747558593745,2.7150246826171873,8.379705810546875,8.817527150257817
2.467047998010445,-0.47884033203125,2.6910826660156246,7.862558251953125,8.324123752339686
2.4695349415568266,-0.5506663818359374,2.6862942626953124,7.513004809570312,7.997790419765991
2.472021885103208,-0.6464344482421874,2.6958710693359373,7.345410693359375,7.851156384410829
2.4745088286495895,-0.70868369140625,2.6862942626953124,7.235277416992187,7.7503321697261525
2.4769957721959712,-0.7422025146484375,2.6719290527343746,7.417236743164062,7.918678572826371
2.4794827157423525,-0.7661445312499999,2.5713725830078125,7.68059892578125,8.135756526723291
2.481969659288734,-0.7661445312499999,2.50912333984375,8.14028564453125,8.552597719516246
2.4844566028351154,-0.7613561279296874,2.422932080078125,8.681375219726561,9.045249511422567
2.486943546381497,-0.718260498046875,2.375048046875,9.294290844726563,9.619802163994189
2.4894304899278783,-0.6703764648437499,2.2936451904296873,9.868899243164062,10.154082190721219
2.49191743347426,-0.603338818359375,2.3032219970703123,10.481814868164061,10.748827481543882
2.4944043770206417,-0.5123591552734374,2.250549560546875,10.965443603515624,11.205732401336022
2.496891320567023,-0.4261678955078125,2.27927998046875,11.362881079101562,11.59706008962321
2.4993782641134046,-0.3591302490234375,2.2553379638671873,11.6070896484375,11.829626113021881
2.501865207659786,-0.316034619140625,2.29843359375,11.698069311523437,11.925917175738741
2.5043521512061675,-0.277727392578125,2.3223756103515623,11.583147631835937,11.816931498534233
2.506839094752549,-0.26336218261718747,2.360682836914062,11.329362255859374,11.57569143594561
2.5093260382989304,-0.22026655273437498,2.4660277099609376,10.93671318359375,11.213451978795021
2.511812981845312,-1.5370774658203123,1.2593500732421874,24.17664836425781,24.258171733910157
2.5142999253916933,-1.1444283935546875,1.1827356201171875,23.932439794921873,23.98896109531691
2.516786868938075,-0.7661445312499999,1.1444283935546875,22.495918798828125,22.538035770541477
2.5192738124844563,-0.3687070556640625,1.24498486328125,20.09692873535156,20.138830075168098
2.521760756030838,-0.023942016601562498,1.4891934326171874,17.013196997070313,17.07826520349861
2.5242476995772196,0.32082302246093747,1.7238251953125,13.508085766601562,13.621412621075645
2.526734643123601,0.45489831542968745,2.0350714111328125,9.7683427734375,9.988441753604988
2.5292215866699825,0.612915625,2.370259643554687,6.315903979492187,6.773805386885453
2.5317085302163638,0.6464344482421874,2.6671406494140624,3.23696064453125,4.243751990146834
2.5341954737627455,0.5889736083984375,2.9640216552734375,0.7661445312499999,3.117577862232802
2.536682417309127,0.4070142822265625,3.208230224609375,-0.8714894042968749,3.349312702904171
2.5391693608555084,0.229843359375,3.385401147460937,-1.5083470458984374,3.713338081827341
2.54165630440189,-0.028730419921875,3.438073583984375,-1.35990654296875,3.6973667942914816
2.5441432479482713,-0.277727392578125,3.4620156005859375,-0.258573779296875,3.4827496210075917
2.546630191494653,-0.55545478515625,3.35188232421875,1.5418658691406248,3.7310850288064783
2.549117135041034,-0.82360537109375,3.1699229980468746,3.835511059570312,5.043598190669746
2.551604078587416,-1.0678139404296874,2.93050283203125,6.497863305664062,7.20765572145442
2.5540910221337976,-1.177947216796875,2.8012159423828122,9.303867651367186,9.787559638417326
2.556577965680179,-1.2737152832031249,2.5139117431640625,12.00931552734375,12.335548723521912
2.5590649092265605,-1.2832920898437499,2.35589443359375,14.331691137695312,14.580618918152545
2.5615518527729417,-1.2497732666015624,2.0781670410156248,16.151284399414063,16.332320693001094
2.5640387963193234,-1.16837041015625,1.9776105712890624,17.324443212890625,17.476051202250325
2.566525739865705,-1.0199299072265624,1.8626888916015625,17.79849514160156,17.924739781323616
2.5690126834120863,-0.842758984375,1.8004396484374998,17.616535815429685,17.7283434017318
2.571499626958468,-0.6464344482421874,1.8339584716796873,16.78335363769531,16.895627851597
2.5739865705048492,-0.49320554199218747,1.886630908203125,15.4378123046875,15.56048446049158
2.576473514051231,-0.296881005859375,1.9823989746093749,13.555969799804688,13.70337043356083
2.5789604575976126,-0.16280571289062498,2.1164742675781247,11.544840405273437,11.738369094925595
2.581447401143994,-0.0526724365234375,2.2649147705078123,9.3852705078125,9.65483898405607
2.5839343446903755,-0.0,2.47081611328125,7.3837179199218745,7.786155828560438
2.5864212882367568,0.0383072265625,2.6431986328124997,5.626373901367187,6.216433843780098
2.5889082317831384,0.023942016601562498,2.7629087158203123,4.2521021484374995,5.070957549897415
2.5913951753295197,-0.062249243164062495,2.89219560546875,3.366247534179687,4.438501194089969
2.5938821188759014,-0.19153613281249998,2.940079638671875,3.0119056884765625,4.213351427092593
2.596369062422283,-0.33518823242187495,2.940079638671875,3.2800562744140622,4.4175998682780335
2.5988560059686643,-0.45489831542968745,2.925714428710937,3.9408559326171875,4.929207124618747
2.601342949515046,-0.55545478515625,2.896984008789062,5.118803149414062,5.907892352437021
2.603829893061427,-0.6847416748046875,2.85388837890625,6.5601125488281244,7.186697899158048
2.606316836607809,-0.7565677246093749,2.7198130859375,8.145074047851562,8.620441356992258
2.6088037801541906,-0.8092401611328125,2.6096798095703124,9.80665,10.180161225116683
2.611290723700572,-0.8810662109374999,2.408566870117187,11.353304272460937,11.639372403139339
2.6137776672469535,-0.833182177734375,2.384624853515625,12.684480395507812,12.933548281014016
2.6162646107933347,-0.7900865478515624,2.2361843505859373,13.747505932617187,13.950579793336413
2.6187515543397164,-0.737414111328125,2.2026655273437497,14.350844750976561,14.53761534996596
2.6212384978860976,-0.6943184814453125,2.1835119140624997,14.532804077148437,14.712314460251033
2.6237254414324793,-0.6081272216796875,2.1499930908203124,14.317325927734375,14.49062147491604
2.626212384978861,-0.5267243652343749,2.1547814941406247,13.642161059570311,13.821327006466458
2.6286993285252422,-0.430956298828125,2.2553379638671873,12.713210815429687,12.918900955589008
2.631186272071624,-0.3591302490234375,2.288856787109375,11.535263598632811,11.765634118805645
2.633673215618005,-0.33039982910156246,2.370259643554687,10.228029492187499,10.504279228866281
2.636160159164387,-0.3112462158203125,2.437297290039062,8.877699755859375,9.21145185310545
2.6386471027107685,-0.2825157958984375,2.5474305664062498,7.709329345703124,8.124221601243553
2.6411340462571498,-0.32082302246093747,2.6431986328124997,6.698976245117187,7.20872451664559
2.6436209898035314,-0.3495534423828125,2.70065947265625,5.95677373046875,6.5497253738101255
2.6461079333499127,-0.3591302490234375,2.7437551025390623,5.468356591796875,6.128628754747762
2.6485948768962944,-0.44532150878906246,2.7198130859375,5.406107348632812,6.068087930606207
2.6510818204426756,-0.49799394531249996,2.7341782958984373,5.693411547851563,6.335508186131522
2.6535687639890573,-0.4644751220703125,2.729389892578125,6.2584431396484375,6.843494491627976
2.656055707535439,-0.612915625,2.6144682128906247,7.024587670898437,7.520368444811927
2.65854265108182,-0.59376201171875,2.6431986328124997,8.06367119140625,8.506576598266617
2.661029594628202,-0.6560112548828124,2.499546533203125,9.145850341796875,9.503928772498597
2.663516538174583,-0.63206923828125,2.4516625,10.251971508789062,10.559975395468985
2.666003481720965,-0.59376201171875,2.370259643554687,11.238382592773437,11.500953325962909
2.6684904252673465,-0.5793968017578125,2.3511060302734372,11.975796704101562,12.218146623667812
2.6709773688137277,-0.5363011718749999,2.2936451904296873,12.569558715820312,12.78836320711099
2.6734643123601094,-0.5027823486328125,2.3127988037109373,12.866439721679686,13.082320111821156
2.6759512559064906,-0.5027823486328125,2.29843359375,12.876016528320312,13.089208865036616
2.6784381994528723,-0.44053310546874996,2.308010400390625,12.588712329101561,12.806118050767722
2.6809251429992536,-0.38786066894531246,2.308010400390625,12.014103930664062,12.239936321877808
2.6834120865456352,-0.39264907226562495,2.422932080078125,11.276689819335937,11.540732491490196
2.685899030092017,-0.38786066894531246,2.461239306640625,10.366893188476562,10.662110916903334
2.688385973638398,-0.37828386230468747,2.5139117431640625,9.504980590820312,9.839080595501247
2.69087291718478,-0.4070142822265625,2.5905261962890624,8.614337573242187,9.004626501158633
2.693359860731161,-0.4070142822265625,2.6048914062499997,7.790732202148437,8.224757024367598
2.6958468042775428,-0.45010991210937495,2.6671406494140624,7.086836914062499,7.585479261276434
2.6983337478239244,-0.507570751953125,2.6671406494140624,6.698976245117187,7.228246678458027
2.7008206913703057,-0.5410895751953124,2.6719290527343746,6.53138212890625,7.077494987990242
2.7033076349166874,-0.55545478515625,2.6527754394531247,6.564900952148437,7.102370876125673
2.7057945784630686,-0.5985504150390625,2.6719290527343746,6.871358764648437,7.396826260951405
2.7082815220094503,-0.584185205078125,2.6384102294921874,7.417236743164062,7.894167581009679
2.7107684655558315,-0.6512228515624999,2.528276953125,8.078036401367187,8.489460975581052
2.713255409102213,-0.6272808349609375,2.47081611328125,8.90643017578125,9.264065629496931
2.715742352648595,-0.6081272216796875,2.4564509033203126,9.749189160156249,10.072271791342763
2.718229296194976,-0.5746083984375,2.27927998046875,10.51533369140625,10.774856596843595
2.720716239741358,-0.5123591552734374,2.346317626953125,11.204863769531249,11.45934947561586
2.723203183287739,-0.4644751220703125,2.3511060302734372,11.7603185546875,12.002021880180749
2.7256901268341207,-0.4740519287109375,2.3223756103515623,12.090718383789062,12.320861363669552
2.7281770703805024,-0.4070142822265625,2.31758720703125,12.148179223632813,12.373969837430316
2.7306640139268836,-0.3687070556640625,2.346317626953125,12.090718383789062,12.321794606937019
2.7331509574732653,-0.3399766357421875,2.427720483398437,11.750741748046874,12.003722026423914
2.7356379010196465,-0.354341845703125,2.43250888671875,11.18571015625,11.452631545946826
2.7381248445660282,-0.33518823242187495,2.4756045166015626,10.587159741210938,10.877909737614567
2.74061178811241,-0.39743747558593745,2.5857377929687497,9.849745629882811,10.191245530080343
2.743098731658791,-0.39743747558593745,2.6192566162109374,9.112331518554686,9.489628415939691
2.745585675205173,-0.44053310546874996,2.5905261962890624,8.327033374023436,8.731802803704053
2.748072618751554,-0.507570751953125,2.6623522460937497,7.766790185546874,8.226103411508145
2.7505595622979357,-0.565031591796875,2.6910826660156246,7.292738256835937,7.7939218560219565
2.753046505844317,-0.565031591796875,2.6527754394531247,7.000645654296875,7.507697237430392
2.7555334493906987,-0.6272808349609375,2.6575638427734374,6.9910688476562495,7.505409413016434
2.7580203929370803,-0.6655880615234374,2.5905261962890624,7.115567333984375,7.601653236353781
2.7605073364834616,-0.679953271484375,2.5665841796874997,7.431601953125,7.891666388825352
2.7629942800298433,-0.6703764648437499,2.5234885498046875,7.943961108398437,8.362052209676682
2.7654812235762245,-0.679953271484375,2.437297290039062,8.585607153320312,8.950720905188529
2.767968167122606,-0.5985504150390625,2.408566870117187,9.3086560546875,9.633822424751235
2.770455110668988,-0.612915625,2.35589443359375,9.993397729492187,10.285616283209615
2.772942054215369,-0.5123591552734374,2.327164013671875,10.663774194335938,10.926769161939268
2.775428997761751,-0.45968671875,2.327164013671875,11.243170996093749,11.490687458691417
2.777915941308132,-0.38307226562499996,2.3367408203125,11.597512841796874,11.836781916452175
2.7804028848545137,-0.4070142822265625,2.29843359375,11.8369330078125,12.064884609570703
2.782889828400895,-0.33039982910156246,2.31758720703125,11.9135474609375,12.141375029759834
2.7853767719472766,-0.296881005859375,2.437297290039062,11.726799731445311,11.981084606708094
2.7878637154936583,-0.2825157958984375,2.403778466796875,11.391611499023437,11.645891062389834
2.7903506590400395,-0.32082302246093747,2.4899697265625,10.89840595703125,11.183833379266384
2.792837602586421,-0.3495534423828125,2.5713725830078125,10.271125122070313,10.593873505142009
2.7953245461328025,-0.3495534423828125,2.5857377929687497,9.595960253906249,9.94437935406816
2.797811489679184,-0.4261678955078125,2.6862942626953124,8.911218579101561,9.317060293111565
2.800298433225566,-0.4070142822265625,2.6719290527343746,8.33182177734375,8.759230538021132
2.802785376771947,-0.51714755859375,2.6815058593749996,7.781155395507812,8.246471643088471
2.8052723203183287,-0.55545478515625,2.710236279296875,7.431601953125,7.929856133478164
2.80775926386471,-0.6512228515624999,2.7198130859375,7.201758593749999,7.725723349142527
2.8102462074110917,-0.679953271484375,2.6192566162109374,7.196970190429687,7.688902496123917
2.812733150957473,-0.7278373046875,2.6240450195312497,7.359775903320312,7.847398342999789
2.8152200945038546,-0.70868369140625,2.5570073730468748,7.675810522460937,8.12148917730014
2.8177070380502363,-0.7326257080078125,2.50912333984375,8.1594392578125,8.567898771840992
2.8201939815966175,-0.6847416748046875,2.446874096679687,8.796296899414061,9.155921753098253
2.822680925142999,-0.6847416748046875,2.379836450195312,9.409212524414063,9.729633755721897
2.8251678686893804,-0.6081272216796875,2.3415292236328122,10.084377392578125,10.370498793154315
2.827654812235762,-0.5267243652343749,2.31758720703125,10.711658227539061,10.972158903457958
2.8301417557821438,-0.488417138671875,2.2649147705078123,11.171344946289063,11.40909015338169
2.832628699328525,-0.44053310546874996,2.288856787109375,11.568782421875,11.801256777716286
2.8351156428749067,-0.37828386230468747,2.3032219970703123,11.822567797851562,12.050769252751687
2.837602586421288,-0.33518823242187495,2.2936451904296873,11.7603185546875,11.986586333
2.8400895299676696,-0.277727392578125,2.375048046875,11.592724438476562,11.836775136666436
2.842576473514051,-0.3064578125,2.422932080078125,11.233594189453123,11.496006031175739
2.8450634170604325,-0.277727392578125,2.480392919921875,10.812214697265624,11.096552086191169
2.847550360606814,-0.28730419921875,2.5426421630859375,10.175357055664062,10.49216203089923
2.8500373041531954,-0.32561142578124996,2.6288334228515624,9.543287817382812,9.904096643869543
2.852524247699577,-0.39743747558593745,2.6815058593749996,8.9255837890625,9.328155026393905
2.8550111912459584,-0.430956298828125,2.7054478759765623,8.346186987304687,8.78430468325068
2.85749813479234,-0.49320554199218747,2.6671406494140624,7.790732202148437,8.249387807346755
2.8599850783387217,-0.6177040283203125,2.6862942626953124,7.431601953125,7.926313312132205
2.862472021885103,-0.6512228515624999,2.70065947265625,7.249642626953125,7.763695705537469
2.8649589654314846,-0.699106884765625,2.6431986328124997,7.244854223632812,7.743588455652764
2.867445908977866,-0.70868369140625,2.6192566162109374,7.426813549804687,7.9069777601554225
2.8699328525242476,-0.7613561279296874,2.5522189697265625,7.704540942382812,8.151897690465775
2.8724197960706292,-0.7422025146484375,2.5330653564453125,8.197746484375,8.612219928384118
2.8749067396170105,-0.6655880615234374,2.4756045166015626,8.820238916015624,9.185218545350843
2.877393683163392,-0.7038952880859375,2.370259643554687,9.390058911132812,9.710139324901487
2.8798806267097734,-0.6177040283203125,2.3415292236328122,10.070012182617187,10.357097215426155
2.882367570256155,-0.55545478515625,2.2840683837890623,10.639832177734375,10.896399734340218
2.8848545138025363,-0.488417138671875,2.2744915771484373,11.133037719726563,11.373495157809758
2.887341457348918,-0.45010991210937495,2.250549560546875,11.559205615234374,11.784854972069988
2.8898284008952997,-0.36391865234375,2.27927998046875,11.726799731445311,11.951794256776475
2.892315344441681,-0.316034619140625,2.2744915771484373,11.745953344726562,11.968316915569526
2.8948022879880626,-0.27293898925781246,2.327164013671875,11.6070896484375,11.84122958755768
2.897289231534444,-0.26336218261718747,2.365471240234375,11.262324609375,11.511071602354951
2.8997761750808255,-0.2825157958984375,2.437297290039062,10.788272680664061,11.063772443761053
2.902263118627207,-0.2825157958984375,2.5330653564453125,10.242394702148436,10.554756487458812
2.9047500621735884,-0.32082302246093747,2.6384102294921874,9.595960253906249,9.95723802795627
2.90723700571997,-0.3447650390625,2.6815058593749996,8.992621435546875,9.390238382974063
2.9097239492663514,-0.4213794921875,2.7198130859375,8.394071020507813,8.833763195615
2.912210892812733,-0.49320554199218747,2.73896669921875,7.8721350585937495,8.349592844374023
2.9146978363591143,-0.622492431640625,2.7437551025390623,7.455543969726562,7.968740476052981
2.917184779905496,-0.603338818359375,2.7437551025390623,7.287949853515625,7.810660846548571
2.9196717234518776,-0.7134720947265625,2.6958710693359373,7.278373046874999,7.794323412709564
2.922158666998259,-0.7278373046875,2.6623522460937497,7.3932947265625,7.891683821478916
2.9246456105446406,-0.7661445312499999,2.5474305664062498,7.675810522460937,8.123696640701645
2.927132554091022,-0.7517793212890624,2.5570073730468748,8.125920434570313,8.551844348601144
2.9296194976374035,-0.7134720947265625,2.43250888671875,8.719682446289061,9.080694019624314
2.932106441183785,-0.7038952880859375,2.418143676757812,9.323021264648437,9.657205233354022
2.9345933847301664,-0.6464344482421874,2.3032219970703123,9.892841259765625,10.177967245702053
2.937080328276548,-0.5985504150390625,2.3127988037109373,10.582371337890624,10.848681211963008
2.9395672718229293,-0.51714755859375,2.24097275390625,10.989385620117186,11.227466178472685
2.942054215369311,-0.469263525390625,2.2457611572265623,11.401188305664062,11.629735431762006
2.9445411589156922,-0.37828386230468747,2.2457611572265623,11.621454858398437,11.842497831183266
2.947028102462074,-0.3399766357421875,2.2840683837890623,11.750741748046874,11.975495151515325
2.9495150460084556,-0.2537853759765625,2.3415292236328122,11.6070896484375,11.843635262412086
2.952001989554837,-0.229843359375,2.408566870117187,11.319785449218749,11.575472558561891
2.9544889331012185,-0.258573779296875,2.442085693359375,10.850521923828124,11.124948042688791
2.9569758766475998,-0.2154781494140625,2.518700146484375,10.319009155273436,10.624134374498109
2.9594628201939814,-0.3064578125,2.6240450195312497,9.734823950195311,10.086938385687962
2.961949763740363,-0.33518823242187495,2.6288334228515624,9.074024291992187,9.453096485698211
2.9644367072867444,-0.40222587890625,2.7054478759765623,8.48505068359375,8.915005270354177
2.966923650833126,-0.488417138671875,2.6575638427734374,7.958326318359375,8.404531793577595
2.9694105943795073,-0.584185205078125,2.7246014892578123,7.594407666015624,8.089484126119226
2.971897537925889,-0.603338818359375,2.748543505859375,7.359775903320312,7.879391504452316
2.97438448147227,-0.6512228515624999,2.710236279296875,7.259219433593749,7.775971879905387
2.976871425018652,-0.7038952880859375,2.6431986328124997,7.345410693359375,7.838177456731233
2.9793583685650336,-0.7517793212890624,2.5809493896484375,7.599196069335937,8.060660816586642
2.981845312111415,-0.7661445312499999,2.5234885498046875,8.087613208007811,8.50673023588394
2.9843322556577965,-0.7661445312499999,2.480392919921875,8.547299926757812,8.932841794071859
2.9868191992041777,-0.737414111328125,2.403778466796875,9.150638745117186,9.489790299720116
2.9893061427505594,-0.6607996582031249,2.3319524169921872,9.787496386718749,10.083141563194957
2.991793086296941,-0.6272808349609375,2.269703173828125,10.395623608398436,10.658987942139989
2.9942800298433223,-0.51714755859375,2.2936451904296873,10.93671318359375,11.18659667267637
2.996766973389704,-0.47884033203125,2.250549560546875,11.319785449218749,11.551268501961248
2.9992539169360852,-0.39264907226562495,2.24097275390625,11.631031665039062,11.851456862801406
3.001740860482467,-1.2880804931640624,3.327940307617187,9.6151138671875,10.25596181383854
3.0042278040288486,-1.6232687255859375,3.6104561035156246,9.648632690429688,10.429118247757431
3.00671474757523,-1.9536685546875,3.778050219726562,9.662997900390625,10.557651855753925
3.0092016911216115,-2.1739351074218747,3.9504327392578125,9.658209497070311,10.658936315035403
3.0116886346679927,-2.35589443359375,4.050989208984375,9.648632690429688,10.726456308976152
3.0141755782143744,-2.50912333984375,4.089296435546875,9.648632690429688,10.775627966255769
3.0166625217607557,-2.5378537597656248,4.074931225585937,9.639055883789062,10.768340843882141
3.0191494653071373,-2.5665841796874997,3.9935283691406247,9.600748657226562,10.710275345003543
3.021636408853519,-2.4660277099609376,3.883395092773437,9.572018237304688,10.620055708336258
3.0241233523999003,-2.3319524169921872,3.67749375,9.576806640625,10.5203226085669
3.026610295946282,-2.1930887207031247,3.5194764404296874,9.509768994140625,10.37458716641454
3.029097239492663,-1.944091748046875,3.31357509765625,9.504980590820312,10.252020712254849
3.031584183039045,-1.7238251953125,3.0837317382812497,9.466673364257812,10.104399008512361
3.0340711265854265,-1.3934253662109375,2.8203695556640622,9.457096557617186,9.966583867193995
3.036558070131808,-1.0917559570312498,2.47081611328125,9.404424121093749,9.784684787195417
3.0390450136781895,-0.82360537109375,2.269703173828125,9.3852705078125,9.690881322634956
3.0415319572245707,-0.5027823486328125,1.9728221679687499,9.399635717773437,9.617586444808687
3.0440189007709524,-0.201112939453125,1.8195932617187498,9.394847314453125,9.57154752975687
3.0465058443173336,0.11013327636718749,1.5897499023437498,9.351751684570312,9.48655330773137
3.0489927878637153,0.3495534423828125,1.43652099609375,9.370905297851563,9.486814337943077
3.051479731410097,0.5458779785156249,1.2976572998046874,9.323021264648437,9.42871267651378
3.0539666749564782,0.7709329345703124,1.2497732666015624,9.34696328125,9.461606279514747
3.05645361850286,0.9193734375,1.1875240234375,9.390058911132812,9.509398886279115
3.058940562049241,1.0007762939453124,1.158793603515625,9.356540087890625,9.480991415583919
3.061427505595623,1.1013327636718748,1.2210428466796874,9.375693701171874,9.518797816318965
3.0639144491420045,1.0678139404296874,1.3168109130859373,9.433154541015625,9.584290385150165
3.0664013926883857,1.0295067138671874,1.47482822265625,9.442731347656249,9.612501113875151
3.0688883362347674,0.9433154541015625,1.6519991455078125,9.437942944335937,9.627757383900255
3.0713752797811487,0.7852981445312499,1.8339584716796873,9.471461767578125,9.679291547749973
3.0738622233275303,0.6560112548828124,1.9967641845703124,9.495403784179686,9.725230639934951
3.0763491668739116,0.39264907226562495,2.2026655273437497,9.495403784179686,9.75543959767644
3.0788361104202933,0.19153613281249998,2.422932080078125,9.5001921875,9.80616834213448
3.081323053966675,-0.047884033203124995,2.6527754394531247,9.548076220703125,9.909857210331438
3.083809997513056,-0.28730419921875,2.863465185546875,9.610325463867188,10.031965514951784
3.086296941059438,-0.5363011718749999,3.0741549316406247,9.600748657226562,10.095168263576518
3.088783884605819,-0.7900865478515624,3.2417490478515623,9.605537060546874,10.168555249585951
3.091270828152201,-1.0007762939453124,3.447650390625,9.648632690429688,10.294851101464657
3.0937577716985825,-1.2497732666015624,3.5290532470703124,9.65342109375,10.353969714646981
3.0962447152449637,-1.4221557861328125,3.5960908935546874,9.639055883789062,10.38584590322553
3.0987316587913454,-1.618480322265625,3.6343981201171873,9.595960253906249,10.388011428739423
3.1012186023377266,-1.7573440185546874,3.6822821533203123,9.619902270507811,10.449400918250412
3.1037055458841083,-1.8004396484374998,3.6631285400390623,9.610325463867188,10.441190025565502
3.1061924894304895,-1.915361328125,3.6391865234374996,9.581595043945311,10.426852408843391
3.108679432976871,-1.9009961181640624,3.5146880371093747,9.533711010742186,10.337236762105306
3.111166376523253,-1.8914193115234375,3.380612744140625,9.495403784179686,10.255179304257126
3.113653320069634,-1.8195932617187498,3.227383837890625,9.533711010742186,10.228322037925707
3.116140263616016,-1.6807295654296874,3.1172505615234374,9.481038574218749,10.120879180251661
3.118627207162397,-1.5322890624999999,2.882618798828125,9.428366137695312,9.97754924502275
3.1211141507087787,-1.4030021728515625,2.6910826660156246,9.437942944335937,9.913884608613138
3.1236010942551604,-1.20667763671875,2.4564509033203126,9.3852705078125,9.776171257920732
3.1260880378015417,-1.0007762939453124,2.212242333984375,9.390058911132812,9.698905901664387
3.1285749813479233,-0.74699091796875,2.0446482177734375,9.390058911132812,9.63907610305659
3.1310619248943046,-0.469263525390625,1.89620771484375,9.370905297851563,9.572339215437232
3.1335488684406863,-0.296881005859375,1.7334020019531249,9.356540087890625,9.52038146548338
3.136035811987068,0.009576806640625,1.5562310791015623,9.327809667968749,9.456742572822753
3.138522755533449,0.15322890625,1.4939818359375,9.370905297851563,9.490486126912796
3.141009699079831,0.3591302490234375,1.3742717529296875,9.34696328125,9.454275221702606
3.143496642626212,0.47884033203125,1.2832920898437499,9.370905297851563,9.470480069813664
3.1459835861725938,0.6177040283203125,1.3024457031249999,9.366116894531249,9.476395346238759
3.148470529718975,0.7134720947265625,1.3168109130859373,9.366116894531249,9.485103009076887
3.1509574732653567,0.7757213378906249,1.4508862060546874,9.404424121093749,9.547251302149144
3.1534444168117384,0.7996633544921875,1.5035586425781249,9.404424121093749,9.557371140726879
3.1559313603581196,0.7948749511718749,1.5705962890624998,9.390058911132812,9.5536278578225
3.1584183039045013,0.699106884765625,1.7717092285156248,9.447519750976562,9.637599985049514
3.1609052474508825,0.612915625,1.9393033447265624,9.514557397460937,9.729510033697247
3.163392190997264,0.5363011718749999,2.0733786376953125,9.476250170898437,9.715237270579573
3.165879134543646,0.3064578125,2.288856787109375,9.495403784179686,9.772178611105756
3.168366078090027,0.143652099609375,2.50912333984375,9.548076220703125,9.873302151591803
3.170853021636409,-0.009576806640625,2.6815058593749996,9.581595043945311,9.949750196625303
3.17333996518279,-0.26336218261718747,2.849099975585937,9.576806640625,9.99509658492782
3.1758269087291717,-0.47884033203125,3.0358477050781247,9.562441430664062,10.044199593142725
3.178313852275553,-0.6560112548828124,3.21780703125,9.581595043945311,10.12875098139214
3.1808007958219346,-0.9097966308593749,3.375824340820312,9.576806640625,10.19505494450702
3.1832877393683163,-1.1061211669921875,3.4811692138671875,9.6151138671875,10.285546062831386
3.1857746829146976,-1.2737152832031249,3.5529952636718747,9.610325463867188,10.324944623957752
3.1882616264610792,-1.47482822265625,3.6296097167968746,9.557653027343749,10.32946834903437
3.1907485700074605,-1.5801730957031248,3.6727053466796873,9.610325463867188,10.408845617904399
3.193235513553842,-1.7286135986328124,3.6056677001953124,9.528922607421874,10.333891357849943
3.195722457100224,-1.7334020019531249,3.5625720703124997,9.567229833984374,10.355118973378648
3.198209400646605,-1.7477672119140624,3.4715924072265625,9.524134204101562,10.286679561777564
3.2006963441929868,-1.7717092285156248,3.42849677734375,9.519345800781249,10.271878514542289
3.203183287739368,-1.6998831787109374,3.2609026611328122,9.548076220703125,10.231756862973432
3.2056702312857497,-1.62805712890625,3.0645781249999997,9.4618849609375,10.078168291570954
3.208157174832131,-1.4939818359375,2.863465185546875,9.433154541015625,9.970748176021392
3.2106441183785126,-1.350329736328125,2.7150246826171873,9.433154541015625,9.90853944931927
3.2131310619248943,-1.216254443359375,2.528276953125,9.423577734375,9.832358645742268
3.2156180054712755,-1.005564697265625,2.346317626953125,9.428366137695312,9.767827537041052
