Time (s),Acceleration x (m/s^2),Acceleration y (m/s^2),Acceleration z (m/s^2),Absolute acceleration (m/s^2)
0.0,1.197100830078125,1.7190367919921874,17.013196997070313,17.141674654208053
0.002486943546381497,0.9193734375,1.3742717529296875,12.052411157226562,12.16529839631237
0.004973887092762994,0.584185205078125,1.139639990234375,7.144297753906249,7.258170710147527
0.007460830639144491,0.11013327636718749,1.0199299072265624,2.6575638427734374,2.848689511448251
0.009947774185525988,-0.3112462158203125,1.0007762939453124,-1.0103531005859374,1.4557612390941712
0.012434717731907486,-0.7852981445312499,1.1156979736328125,-3.782838623046875,4.021360863213816
0.014921661278288981,-1.1635820068359375,1.3742717529296875,-5.3007624755859375,5.59827015783561
0.01740860482467048,-1.5179238525390624,1.618480322265625,-5.655104321289063,6.074847838450795
0.019895548371051976,-1.7669208251953124,2.0254946044921875,-4.6639048339843745,5.38299599626441
0.022382491917433474,-1.848323681640625,2.437297290039062,-2.6910826660156246,4.0741433980009925
0.02486943546381497,-1.8626888916015625,2.729389892578125,0.105344873046875,3.3060968883081374
0.027356379010196465,-1.7764976318359373,3.0885201416015624,3.5865140869140624,5.055490460541908
0.029843322556577963,-1.5753846923828123,3.3710359375,7.4028715332031245,8.285422569671372
0.032330266102959464,-1.3407529296874998,3.5338416503906247,11.104307299804686,11.729931621156059
0.03481720964934096,-0.9911994873046874,3.6679169433593746,14.580688110351561,15.067599573202203
0.03730415319572245,-0.6464344482421874,3.6248213134765623,17.472883715820313,17.85661984803078
0.03979109674210395,-0.3112462158203125,3.5098996337890624,19.67554924316406,19.988584433778918
0.04227804028848545,0.028730419921875,3.394977954101562,20.920534106445313,21.194231480400653
0.04476498383486695,0.296881005859375,3.1603461914062496,21.18868469238281,21.42513209701153
0.04725192738124844,0.507570751953125,2.877830395507812,20.57576906738281,20.78224743784498
0.04973887092762994,0.5267243652343749,2.9496564453125,19.263746557617186,19.49538004601124
0.05222581447401144,0.622492431640625,2.346317626953125,16.91264052734375,17.085962449951456
0.05471275802039293,0.5793968017578125,2.0638018310546875,14.226346264648436,14.386935278002344
0.05719970156677443,0.4261678955078125,1.867477294921875,11.319785449218749,11.48070699645953
0.059686645113155926,0.26815058593749996,1.70467158203125,8.437166650390624,8.611828552972202
0.062173588659537427,-0.0718260498046875,1.6232687255859375,5.7077767578125,5.934549338738411
0.06466053220591893,-0.3112462158203125,1.608903515625,3.404554760742187,3.778417373497168
0.06714747575230041,-0.622492431640625,1.6998831787109374,1.68551796875,2.4734733618321796
0.06963441929868192,-0.842758984375,1.867477294921875,0.6703764648437499,2.1557176896360777
0.07212136284506342,-1.0630255371093749,1.9680337646484374,0.39264907226562495,2.270980732039361
0.0746083063914449,-1.254561669921875,2.1883003173828124,0.8714894042968749,2.668721987112296
0.0770952499378264,-1.35990654296875,2.389413256835937,2.039859814453125,3.423400295053629
0.0795821934842079,-1.3168109130859373,2.7246014892578123,3.73495458984375,4.807008429811935
0.0820691370305894,-1.3024457031249999,2.863465185546875,5.8083332275390624,6.605492605442998
0.0845560805769709,-1.1875240234375,3.0550013183593747,8.111555224609374,8.748747025906415
0.0870430241233524,-1.0582371337890624,3.1076737548828124,10.448296044921875,10.951912720636868
0.0895299676697339,-0.842758984375,3.1411925781249996,12.593500732421875,13.00667498694892
0.09201691121611538,-0.59376201171875,3.208230224609375,14.446612817382812,14.810466447618278
0.09450385476249688,-0.38307226562499996,3.1268273681640624,15.753846923828124,16.065723969071538
0.09699079830887838,-0.201112939453125,3.0119056884765625,16.57266389160156,16.845332016754288
0.09947774185525989,-0.009576806640625,2.858676782226562,16.778565234374998,17.02035181729931
0.10196468540164137,0.16759411621093748,2.7150246826171873,16.39549296875,16.619616015520325
0.10445162894802287,0.2059013427734375,2.518700146484375,15.543157177734374,15.7472531205481
0.10693857249440437,0.24899697265624998,2.365471240234375,14.221557861328124,14.419090182250464
0.10942551604078586,0.19632453613281248,2.2170307373046874,12.521674682617187,12.717944231318903
0.11191245958716736,0.1005564697265625,2.0733786376953125,10.682927807617187,10.882736655897528
0.11439940313354886,-0.0143652099609375,1.9871873779296874,8.805873706054687,9.02732140566877
0.11688634667993036,-0.1771709228515625,1.9680337646484374,7.024587670898437,7.297217166895796
0.11937329022631185,-0.3591302490234375,1.9488801513671874,5.5258174316406246,5.8704145226704405
0.12186023377269335,-0.55545478515625,2.0063409912109376,4.453215087890625,4.9157968642309635
0.12434717731907485,-0.7326257080078125,2.0829554443359375,3.7397429931640622,4.342939265755667
0.12683412086545634,-0.8906430175781249,2.1978771240234374,3.6296097167968746,4.335663217240529
0.12932106441183785,-0.9576806640625,2.327164013671875,3.892971899414062,4.635523143128089
0.13180800795821934,-1.024718310546875,2.499546533203125,4.65432802734375,5.381500708328056
0.13429495150460083,-1.0438719238281249,2.6240450195312497,5.7891796142578125,6.4412639647837455
0.13678189505098234,-1.0342951171875,2.825157958984375,7.129932543945312,7.738683477430844
0.13926883859736383,-0.9624690673828125,2.844311572265625,8.63827958984375,9.145290006232935
0.14175578214374532,-0.8571241943359375,2.940079638671875,10.237606298828124,10.685846381829297
0.14424272569012683,-0.7661445312499999,2.920926025390625,11.626243261718749,12.012007270611733
0.14672966923650832,-0.5458779785156249,2.9544448486328125,12.885593334960937,13.231222268748681
0.1492166127828898,-0.39743747558593745,2.93050283203125,13.776236352539062,14.090084862645863
0.15170355632927132,-0.32082302246093747,2.8203695556640622,14.331691137695312,14.610091810408038
0.1541904998756528,-0.201112939453125,2.7150246826171873,14.408305590820312,14.663255963124284
0.15667744342203432,-0.05746083984375,2.5905261962890624,14.240711474609375,14.47452904328312
0.1591643869684158,-0.0143652099609375,2.5139117431640625,13.5224509765625,13.754149883770042
0.1616513305147973,0.0047884033203125,2.4133552734375,12.631807958984375,12.86028300300176
0.1641382740611788,-0.0143652099609375,2.2601263671875,11.516109985351562,11.735807034440679
0.1666252176075603,-0.076614453125,2.1547814941406247,10.218452685546874,10.443453851512853
0.1691121611539418,-0.181959326171875,2.1452046874999997,8.920795385742187,9.17690594165223
0.1715991047003233,-0.2825157958984375,2.0781670410156248,7.685387329101562,7.966415242981665
0.1740860482467048,-0.4070142822265625,2.1068974609374997,6.60799658203125,6.947682805437937
0.17657299179308628,-0.5123591552734374,2.1930887207031247,5.889736083984375,6.30564359759219
0.1790599353394678,-0.6560112548828124,2.2026655273437497,5.410895751953125,5.878765093996002
0.18154687888584928,-0.7709329345703124,2.308010400390625,5.334281298828125,5.863088484147578
0.18403382243223076,-0.8762778076171874,2.389413256835937,5.49708701171875,6.0576500495219
0.18652076597861228,-0.9241618408203125,2.5713725830078125,6.0525417968749995,6.640729950208148
0.18900770952499377,-0.9097966308593749,2.6048914062499997,6.904877587890625,7.4357597898017405
0.19149465307137528,-0.8667010009765624,2.7054478759765623,7.881711865234375,8.378066648177024
0.19398159661775677,-0.852335791015625,2.786850732421875,8.963891015625,9.425728377449095
0.19646854016413826,-0.7422025146484375,2.834734765625,10.122684619140625,10.538279255304428
0.19895548371051977,-0.6416460449218749,2.868253588867187,11.156979736328124,11.537624761355769
0.20144242725690126,-0.5315127685546874,2.844311572265625,12.057199560546874,12.399543353934957
0.20392937080328274,-0.4644751220703125,2.7964275390625,12.722787622070312,13.034763864242226
0.20641631434966426,-0.3447650390625,2.7150246826171873,13.144167114257812,13.426069830256242
0.20890325789604575,-0.26815058593749996,2.6527754394531247,13.225569970703123,13.491657545271025
0.21139020144242723,-0.1484405029296875,2.5905261962890624,13.067552661132812,13.322679651933733
0.21387714498880875,-0.11013327636718749,2.5474305664062498,12.564770312499999,12.820880813544191
0.21636408853519024,-0.12449848632812499,2.379836450195312,11.85608662109375,12.093217577206426
0.21885103208157172,-0.1149216796875,2.346317626953125,10.955866796875,11.204884232774617
0.22133797562795324,-0.1580173095703125,2.2744915771484373,9.97903251953125,10.23617953293636
0.22382491917433472,-0.22026655273437498,2.221819140625,8.9255837890625,9.20060017735128
0.22631186272071624,-0.3064578125,2.1547814941406247,8.0062103515625,8.296770689358585
0.22879880626709773,-0.37828386230468747,2.1835119140624997,7.216123803710937,7.548726098476261
0.2312857498134792,-0.5027823486328125,2.2553379638671873,6.60799658203125,7.000354151719326
0.23377269335986073,-0.5985504150390625,2.29843359375,6.2584431396484375,6.693965201316375
0.23625963690624222,-0.6751648681640625,2.35589443359375,6.148309863281249,6.618746131735414
0.2387465804526237,-0.7517793212890624,2.4899697265625,6.358999609374999,6.870370981187767
0.24123352399900522,-0.7805097412109374,2.528276953125,6.785167504882812,7.282848198139643
0.2437204675453867,-0.82360537109375,2.6096798095703124,7.493851196289062,7.977879434279289
0.2462074110917682,-0.8283937744140625,2.7054478759765623,8.303091357421874,8.771944513322453
0.2486943546381497,-0.74699091796875,2.767697119140625,9.141061938476563,9.580039464318089
0.2511812981845312,-0.718260498046875,2.7629087158203123,10.103531005859374,10.499090508295094
0.2536682417309127,-0.679953271484375,2.786850732421875,10.941501586914061,11.311292164586925
0.2561551852772942,-0.51714755859375,2.8107927490234372,11.650185278320311,11.995616469965748
0.2586421288236757,-0.4213794921875,2.7964275390625,12.215216870117187,12.53830494292027
0.26112907237005717,-0.354341845703125,2.70065947265625,12.550405102539061,12.842577154477318
0.2636160159164387,-0.3016694091796875,2.6192566162109374,12.650961572265624,12.922783692260003
0.2661029594628202,-0.258573779296875,2.50912333984375,12.492944262695312,12.745046750981349
0.26858990300920166,-0.22505495605468748,2.427720483398437,12.00931552734375,12.25431091143263
0.2710768465555832,-0.181959326171875,2.39420166015625,11.425130322265625,11.674712573191226
0.2735637901019647,-0.19153613281249998,2.3319524169921872,10.711658227539061,10.964228661829965
0.27605073364834615,-0.1771709228515625,2.2601263671875,9.878476049804688,10.135277489942002
0.27853767719472766,-0.2920926025390625,2.250549560546875,8.997409838867187,9.279206605172654
0.2810246207411092,-0.354341845703125,2.212242333984375,8.21690009765625,8.516866883000592
0.28351156428749064,-0.4070142822265625,2.2601263671875,7.493851196289062,7.837833729654871
0.28599850783387215,-0.4836287353515625,2.308010400390625,7.015010864257812,7.400755784892795
0.28848545138025367,-0.5602431884765625,2.308010400390625,6.72291826171875,7.1301061978274305
0.2909723949266351,-0.6512228515624999,2.389413256835937,6.598419775390624,7.047874179254804
0.29345933847301664,-0.7134720947265625,2.4516625,6.742071875,7.209384482154199
0.29594628201939815,-0.7565677246093749,2.499546533203125,7.173028173828125,7.633640073785272
0.2984332255657796,-0.7709329345703124,2.5905261962890624,7.64229169921875,8.106157288087426
0.30092016911216113,-0.74699091796875,2.6958710693359373,8.403647827148436,8.857031842369482
0.30340711265854264,-0.7326257080078125,2.729389892578125,9.217676391601563,9.641154893166606
0.30589405620492416,-0.679953271484375,2.729389892578125,9.97903251953125,10.36788289203597
0.3083809997513056,-0.5793968017578125,2.7533319091796873,10.740388647460938,11.102814307845648
0.31086794329768713,-0.5458779785156249,2.77727392578125,11.425130322265625,11.770507045450765
0.31335488684406865,-0.47884033203125,2.6862942626953124,11.875240234375,12.184695135845145
0.3158418303904501,-0.373495458984375,2.6719290527343746,12.229582080078124,12.523632922363062
0.3183287739368316,-0.32082302246093747,2.5713725830078125,12.291831323242187,12.562006274931683
0.32081571748321314,-0.2346317626953125,2.5378537597656248,12.16254443359375,12.42671480598007
0.3233026610295946,-0.21068974609375,2.4564509033203126,11.808202587890625,12.062843345007805
0.3257896045759761,-0.1771709228515625,2.403778466796875,11.276689819335937,11.531403805905645
0.3282765481223576,-0.1771709228515625,2.379836450195312,10.649408984374999,10.913520182877257
0.3307634916687391,-0.2154781494140625,2.31758720703125,9.945513696289062,10.214249065797404
0.3332504352151206,-0.296881005859375,2.2361843505859373,9.121908325195312,9.396694646242
0.3357373787615021,-0.33518823242187495,2.231395947265625,8.355763793945313,8.65507178507694
0.3382243223078836,-0.4261678955078125,2.2266075439453124,7.762001782226562,8.086289130200827
0.3407112658542651,-0.507570751953125,2.2936451904296873,7.268796240234375,7.638968196678454
0.3431982094006466,-0.5698199951171875,2.3415292236328122,6.962338427734375,7.367605466789641
0.34568515294702806,-0.63206923828125,2.408566870117187,6.823474731445312,7.263643252561363
0.3481720964934096,-0.63206923828125,2.4516625,6.938396411132812,7.385899085007077
0.3506590400397911,-0.718260498046875,2.5522189697265625,7.287949853515625,7.755251954633394
0.35314598358617255,-0.7422025146484375,2.6096798095703124,7.752424975585937,8.21348807044352
0.35563292713255407,-0.7517793212890624,2.6527754394531247,8.389282617187499,8.830767379516226
0.3581198706789356,-0.7134720947265625,2.7150246826171873,9.088389501953124,9.512056833113741
0.36060681422531704,-0.6703764648437499,2.7150246826171873,9.873687646484374,10.262089035482742
0.36309375777169856,-0.5889736083984375,2.729389892578125,10.539275708007812,10.902879965701773
0.36558070131808007,-0.584185205078125,2.7150246826171873,11.156979736328124,11.497427025986687
0.36806764486446153,-0.49320554199218747,2.7341782958984373,11.702857714843748,12.028127923924478
0.37055458841084304,-0.411802685546875,2.6479870361328124,12.033257543945313,12.328045421487861
0.37304153195722456,-0.373495458984375,2.5905261962890624,12.114660400390624,12.394164814473566
0.3755284755036061,-0.3016694091796875,2.5378537597656248,12.04762275390625,12.31571841829907
0.37801541904998753,-0.22026655273437498,2.461239306640625,11.808202587890625,12.063990410949154
0.38050236259636905,-0.22505495605468748,2.375048046875,11.291055029296874,11.540339103892041
0.38298930614275056,-0.2442085693359375,2.370259643554687,10.663774194335938,10.92674922705679
0.385476249689132,-0.24899697265624998,2.269703173828125,9.983820922851562,10.241593245645232
0.38796319323551354,-0.2825157958984375,2.308010400390625,9.270348828125,9.557515083867877
0.39045013678189505,-0.36391865234375,2.212242333984375,8.552088330078124,8.841078426032356
0.3929370803282765,-0.39264907226562495,2.29843359375,7.939172705078125,8.27450503171562
0.395424023874658,-0.45968671875,2.3032219970703123,7.45075556640625,7.81216371804364
0.39791096742103954,-0.5506663818359374,2.3223756103515623,7.105990527343749,7.496116548876436
0.400397910967421,-0.603338818359375,2.365471240234375,7.015010864257812,7.427640900297374
0.4028848545138025,-0.6847416748046875,2.50912333984375,7.024587670898437,7.490621005090386
0.40537179806018403,-0.7230489013671875,2.5474305664062498,7.340622290039062,7.803649006038617
0.4078587416065655,-0.7517793212890624,2.6288334228515624,7.6997525390625,8.170809413749577
0.410345685152947,-0.70868369140625,2.6719290527343746,8.298302954101562,8.746614736877458
0.4128326286993285,-0.679953271484375,2.6623522460937497,8.978256225585938,9.389331221442525
0.41531957224571,-0.689530078125,2.7581203125,9.710881933593749,10.118493332263537
0.4178065157920915,-0.6272808349609375,2.73896669921875,10.395623608398436,10.768677264772563
0.420293459338473,-0.5889736083984375,2.6958710693359373,10.9941740234375,11.33518739110652
0.42278040288485447,-0.5123591552734374,2.6910826660156246,11.549628808593749,11.87006164413736
0.425267346431236,-0.4213794921875,2.7054478759765623,11.846509814453125,12.15881588272462
0.4277542899776175,-0.354341845703125,2.6240450195312497,12.071564770507813,12.358553572999892
0.43024123352399896,-0.3112462158203125,2.5426421630859375,11.985373510742187,12.256063053377511
0.43272817707038047,-0.28730419921875,2.461239306640625,11.769895361328125,12.02791251398408
0.435215120616762,-0.239420166015625,2.43250888671875,11.382034692382812,11.641526327697177
0.43770206416314344,-0.1867477294921875,2.39420166015625,10.807426293945312,11.0710225093722
0.44018900770952496,-0.22026655273437498,2.2936451904296873,10.156203442382813,10.414307176999495
0.4426759512559065,-0.27293898925781246,2.27927998046875,9.452308154296874,9.727062370778235
0.445162894802288,-0.32082302246093747,2.2840683837890623,8.786720092773438,9.084401234110821
0.44764983834866945,-0.4070142822265625,2.2601263671875,8.169016064453125,8.485673531481504
0.45013678189505096,-0.45968671875,2.250549560546875,7.570465649414062,7.9112726759245975
0.4526237254414325,-0.507570751953125,2.35589443359375,7.273584643554687,7.662434353221622
0.45511066898781394,-0.5746083984375,2.365471240234375,7.053318090820312,7.461563180073191
0.45759761253419545,-0.63206923828125,2.461239306640625,7.029376074218749,7.474579482441354
0.46008455608057697,-0.6943184814453125,2.499546533203125,7.283161450195312,7.73138097204732
0.4625714996269584,-0.7278373046875,2.5474305664062498,7.651868505859374,8.09754538509777
0.46505844317333994,-0.7326257080078125,2.6336218261718747,8.21690009765625,8.659685419585756
0.46754538671972146,-0.7038952880859375,2.6671406494140624,8.82981572265625,9.25066232852621
0.4700323302661029,-0.70868369140625,2.6910826660156246,9.528922607421874,9.926959481534649
0.47251927381248443,-0.6560112548828124,2.7341782958984373,10.20887587890625,10.589014516526497
0.47500621735886595,-0.6368576416015624,2.710236279296875,10.850521923828124,11.20199956993206
0.4774931609052474,-0.5315127685546874,2.729389892578125,11.362881079101562,11.698168293653865
0.4799801044516289,-0.4644751220703125,2.70065947265625,11.774683764648437,12.089353848893069
0.48246704799801043,-0.3687070556640625,2.6192566162109374,11.975796704101562,12.264426477109765
0.4849539915443919,-0.32561142578124996,2.5713725830078125,12.00931552734375,12.285830830535769
0.4874409350907734,-0.277727392578125,2.5043349365234375,11.789048974609374,12.055310104042054
0.4899278786371549,-0.2825157958984375,2.437297290039062,11.449072338867186,11.709034574873268
0.4924148221835364,-0.22026655273437498,2.398990063476562,10.965443603515624,11.226959699793817
0.4949017657299179,-0.2346317626953125,2.29843359375,10.299855541992187,10.555798086116049
0.4973887092762994,-0.258573779296875,2.2744915771484373,9.677363110351562,9.944422009521332
0.49987565282268087,-0.296881005859375,2.29843359375,8.939948999023438,9.235454694905865
0.5023625963690624,-0.39264907226562495,2.2649147705078123,8.279149340820313,8.592341125631647
0.5048495399154439,-0.43574470214843747,2.2840683837890623,7.800309008789062,8.139512421507263
0.5073364834618254,-0.49320554199218747,2.360682836914062,7.3837179199218745,7.767584275959151
0.5098234270082069,-0.5363011718749999,2.384624853515625,7.153874560546875,7.559892583033085
0.5123103705545884,-0.5889736083984375,2.427720483398437,7.082048510742187,7.509735532321217
0.5147973141009698,-0.6560112548828124,2.5043349365234375,7.211335400390625,7.661945085795889
0.5172842576473514,-0.689530078125,2.5617957763671875,7.517793212890624,7.972168094078057
0.5197712011937329,-0.689530078125,2.6240450195312497,8.058882788085937,8.503332040163643
0.5222581447401143,-0.718260498046875,2.6240450195312497,8.59997236328125,9.020035202635441
0.5247450882864959,-0.70868369140625,2.6336218261718747,9.255983618164063,9.649426368312033
0.5272320318328774,-0.6560112548828124,2.710236279296875,9.988609326171874,10.37053748496372
0.5297189753792588,-0.6177040283203125,2.7246014892578123,10.654197387695312,11.014396647925961
0.5322059189256404,-0.5506663818359374,2.70065947265625,11.180921752929686,11.515633126166726
0.5346928624720219,-0.469263525390625,2.7054478759765623,11.640608471679688,11.960076172701788
0.5371798060184033,-0.38786066894531246,2.6575638427734374,11.908759057617187,12.207850907072498
0.5396667495647849,-0.3399766357421875,2.5570073730468748,11.990161914062499,12.264495649805644
0.5421536931111663,-0.2825157958984375,2.499546533203125,11.85608662109375,12.119997442799157
0.5446406366575478,-0.21068974609375,2.4564509033203126,11.573570825195311,11.833261716675766
0.5471275802039294,-0.2059013427734375,2.375048046875,11.089942089843749,11.343282776339864
0.5496145237503108,-0.2346317626953125,2.379836450195312,10.544064111328124,10.811843579035976
0.5521014672966923,-0.2346317626953125,2.35589443359375,9.840168823242188,10.120978861563296
0.5545884108430739,-0.28730419921875,2.27927998046875,9.131485131835937,9.41603322239228
0.5570753543894553,-0.33039982910156246,2.2744915771484373,8.508992700195313,8.813934011187436
0.5595622979358368,-0.38307226562499996,2.29843359375,7.953537915039062,8.287840895645472
0.5620492414822184,-0.45968671875,2.308010400390625,7.4794859863281244,7.840977905043811
0.5645361850285998,-0.5267243652343749,2.35589443359375,7.196970190429687,7.5910511170129205
0.5670231285749813,-0.612915625,2.422932080078125,7.062894897460937,7.492045766052192
0.5695100721213628,-0.6416460449218749,2.39420166015625,7.206546997070312,7.620907482540511
0.5719970156677443,-0.6943184814453125,2.5474305664062498,7.50821640625,7.958944292267603
0.5744839592141258,-0.74699091796875,2.528276953125,7.886500268554687,8.31547150011014
0.5769709027605073,-0.7230489013671875,2.6144682128906247,8.461108666992187,8.885302674902757
0.5794578463068888,-0.7038952880859375,2.6623522460937497,9.083601098632812,9.491859511073331
0.5819447898532703,-0.6607996582031249,2.73896669921875,9.80665,10.20338076277714
0.5844317333996518,-0.5985504150390625,2.7341782958984373,10.453084448242187,10.821320068974403
0.5869186769460333,-0.5410895751953124,2.7246014892578123,11.022904443359375,11.367526273164394
0.5894056204924147,-0.47884033203125,2.7150246826171873,11.477802758789062,11.804262080302443
0.5918925640387963,-0.4213794921875,2.6671406494140624,11.812990991210937,12.117671231660967
0.5943795075851778,-0.36391865234375,2.6144682128906247,11.9518546875,12.239881996688322
0.5968664511315592,-0.2537853759765625,2.5761609863281247,11.923124267578125,12.200897702408993
0.5993533946779408,-0.26815058593749996,2.461239306640625,11.654973681640625,11.915033159040181
0.6018403382243223,-0.2442085693359375,2.422932080078125,11.219228979492186,11.480476322186554
0.6043272817707037,-0.2346317626953125,2.384624853515625,10.682927807617187,10.948353040472822
0.6068142253170853,-0.258573779296875,2.3319524169921872,10.079588989257813,10.349056800830834
0.6093011688634667,-0.277727392578125,2.2649147705078123,9.394847314453125,9.66799500848753
0.6117881124098483,-0.32561142578124996,2.2361843505859373,8.724470849609375,9.012376759550639
0.6142750559562298,-0.39743747558593745,2.2601263671875,8.10197841796875,8.420699616296005
0.6167619995026112,-0.49320554199218747,2.231395947265625,7.6470801025390625,7.9812413617666085
0.6192489430489928,-0.5363011718749999,2.3319524169921872,7.297526660156249,7.679812261882541
0.6217358865953743,-0.565031591796875,2.398990063476562,7.110778930664062,7.525795042728957
0.6242228301417557,-0.6177040283203125,2.442085693359375,7.144297753906249,7.575376637288971
0.6267097736881373,-0.6943184814453125,2.5139117431640625,7.350199096679687,7.799183108949654
0.6291967172345188,-0.7134720947265625,2.5570073730468748,7.6997525390625,8.144539170423887
0.6316836607809002,-0.7278373046875,2.5905261962890624,8.25520732421875,8.682685130856095
0.6341706043272818,-0.70868369140625,2.6815058593749996,8.877699755859375,9.30087410964761
0.6366575478736632,-0.6847416748046875,2.7581203125,9.552864624023437,9.966610323693702
0.6391444914200447,-0.6560112548828124,2.6623522460937497,10.204087475585936,10.566071713660811
0.6416314349664263,-0.565031591796875,2.6815058593749996,10.86009873046875,11.200512435112953
0.6441183785128077,-0.5506663818359374,2.6958710693359373,11.334150659179686,11.663358240727671
0.6466053220591892,-0.4836287353515625,2.6671406494140624,11.650185278320311,11.961369194895957
0.6490922656055708,-0.39264907226562495,2.6240450195312497,11.927912670898436,12.219447051444565
0.6515792091519522,-0.32082302246093747,2.4947581298828125,11.903970654296874,12.166809889067821
0.6540661526983337,-0.2825157958984375,2.4564509033203126,11.707646118164062,11.965907564556787
0.6565530962447153,-0.3064578125,2.4133552734375,11.386823095703125,11.643794067206315
0.6590400397910967,-0.2154781494140625,2.384624853515625,10.893617553710937,11.153643796150135
0.6615269833374782,-0.239420166015625,2.3223756103515623,10.256759912109374,10.519119468192413
0.6640139268838597,-0.27293898925781246,2.269703173828125,9.624690673828125,9.89245767016552
0.6665008704302412,-0.32082302246093747,2.24097275390625,8.911218579101561,9.194275548405974
0.6689878139766227,-0.3495534423828125,2.2553379638671873,8.312668164062499,8.620277776624166
0.6714747575230042,-0.45010991210937495,2.29843359375,7.819462622070312,8.162682868751693
0.6739617010693857,-0.49799394531249996,2.31758720703125,7.3932947265625,7.764020565762284
0.6764486446157671,-0.55545478515625,2.3319524169921872,7.196970190429687,7.585704450833964
0.6789355881621487,-0.63206923828125,2.418143676757812,7.086836914062499,7.514664850140964
0.6814225317085302,-0.679953271484375,2.499546533203125,7.316680273437499,7.76169308506588
0.6839094752549116,-0.7134720947265625,2.5617957763671875,7.6087728759765625,8.060103269063177
0.6863964188012932,-0.7326257080078125,2.5953145996093747,8.068459594726562,8.507199217763427
0.6888833623476747,-0.737414111328125,2.6767174560546874,8.633491186523438,9.06894514146555
0.6913703058940561,-0.699106884765625,2.6815058593749996,9.289502441406249,9.694022886247062
0.6938572494404377,-0.6703764648437499,2.7150246826171873,10.007762939453125,10.391154059301037
0.6963441929868192,-0.6177040283203125,2.710236279296875,10.63025537109375,10.987687118356057
0.6988311365332006,-0.5506663818359374,2.710236279296875,11.209652172851563,11.545774811160012
0.7013180800795822,-0.49320554199218747,2.6862942626953124,11.592724438476562,11.91010866780372
0.7038050236259636,-0.4261678955078125,2.6479870361328124,11.841721411132811,12.141656410785567
0.7062919671723451,-0.3687070556640625,2.6048914062499997,11.9135474609375,12.200574463330073
0.7087789107187267,-0.3112462158203125,2.5474305664062498,11.841721411132811,12.116626703683027
0.7112658542651081,-0.2346317626953125,2.4899697265625,11.5304751953125,11.798595659356247
0.7137527978114896,-0.258573779296875,2.346317626953125,11.118672509765624,11.366483413321317
0.7162397413578712,-0.2442085693359375,2.365471240234375,10.481814868164061,10.748187519027487
0.7187266849042526,-0.28730419921875,2.3127988037109373,9.82580361328125,10.098415650789303
0.7212136284506341,-0.296881005859375,2.2744915771484373,9.17458076171875,9.4569753314397
0.7237005719970157,-0.3591302490234375,2.2601263671875,8.52335791015625,8.825235169446927
0.7261875155433971,-0.39743747558593745,2.212242333984375,7.953537915039062,8.265031037887073
0.7286744590897786,-0.45489831542968745,2.288856787109375,7.4411787597656245,7.798521603744167
0.7311614026361601,-0.55545478515625,2.3367408203125,7.230489013671875,7.618980184808029
0.7336483461825416,-0.6081272216796875,2.4133552734375,7.149086157226562,7.569909859240392
0.7361352897289231,-0.6512228515624999,2.4851813232421875,7.230489013671875,7.673342738899303
0.7386222332753046,-0.6751648681640625,2.5139117431640625,7.52737001953125,7.964728448764531
0.7411091768216861,-0.74699091796875,2.5761609863281247,7.876923461914062,8.321089116447384
0.7435961203680675,-0.737414111328125,2.6192566162109374,8.422801440429687,8.851433155035123
0.7460830639144491,-0.6847416748046875,2.6815058593749996,9.102754711914063,9.51417301610342
0.7485700074608306,-0.6607996582031249,2.7341782958984373,9.801861596679688,10.197493706911885
0.7510569510072121,-0.59376201171875,2.767697119140625,10.443507641601562,10.820330518521596
0.7535438945535936,-0.5602431884765625,2.7054478759765623,11.003750830078124,11.345300920218268
0.7560308380999751,-0.5219359619140624,2.729389892578125,11.511321582031249,11.841980868882755
0.7585177816463566,-0.45968671875,2.6623522460937497,11.803414184570311,12.108675310461965
0.7610047251927381,-0.411802685546875,2.5570073730468748,11.93270107421875,12.210537379014118
0.7634916687391196,-0.2825157958984375,2.50912333984375,11.89439384765625,12.15944571568308
0.7659786122855011,-0.28730419921875,2.422932080078125,11.693280908203125,11.945122936399947
0.7684655558318826,-0.26815058593749996,2.43250888671875,11.247959399414063,11.511107456347172
0.770952499378264,-0.258573779296875,2.327164013671875,10.66856259765625,10.922489672505034
0.7734394429246456,-0.27293898925781246,2.2936451904296873,10.060435375976562,10.322192785723342
0.7759263864710271,-0.33518823242187495,2.2457611572265623,9.337386474609374,9.609504696012161
0.7784133300174085,-0.316034619140625,2.29843359375,8.75320126953125,9.055451801555645
0.7809002735637901,-0.3447650390625,2.308010400390625,8.169016064453125,8.49579886777955
0.7833872171101716,-0.47884033203125,2.3367408203125,7.651868505859374,8.015031962248004
0.785874160656553,-0.5315127685546874,2.2936451904296873,7.249642626953125,7.622377076821489
0.7883611042029346,-0.59376201171875,2.375048046875,7.110778930664062,7.520411129207033
0.790848047749316,-0.6703764648437499,2.427720483398437,7.1586629638671875,7.588786910987321
0.7933349912956975,-0.6847416748046875,2.5043349365234375,7.3549875,7.799769596639534
0.7958219348420791,-0.7230489013671875,2.5761609863281247,7.733271362304687,8.18308567132773
0.7983088783884605,-0.7038952880859375,2.6575638427734374,8.2360537109375,8.682781517719635
0.800795821934842,-0.7278373046875,2.7437551025390623,8.86812294921875,9.311366379176803
0.8032827654812236,-0.737414111328125,2.6862942626953124,9.543287817382812,9.941544085441798
0.805769709027605,-0.6512228515624999,2.7054478759765623,10.204087475585936,10.576716911283626
0.8082566525739865,-0.5698199951171875,2.7341782958984373,10.797849487304687,11.153204890572194
0.8107435961203681,-0.5506663818359374,2.6767174560546874,11.353304272460937,11.677566857300024
0.8132305396667495,-0.4740519287109375,2.6767174560546874,11.702857714843748,12.014425507053605
0.815717483213131,-0.373495458984375,2.5905261962890624,11.903970654296874,12.1883076007255
0.8182044267595125,-0.33518823242187495,2.5713725830078125,11.927912670898436,12.206531399065742
0.820691370305894,-0.2825157958984375,2.528276953125,11.745953344726562,12.01829519953343
0.8231783138522755,-0.3016694091796875,2.384624853515625,11.3772462890625,11.62837792843119
0.825665257398657,-0.24899697265624998,2.389413256835937,10.97502041015625,11.234872861215722
0.8281522009450385,-0.26815058593749996,2.288856787109375,10.275913525390624,10.531152306843788
0.83063914449142,-0.296881005859375,2.2601263671875,9.6151138671875,9.881635704997306
0.8331260880378015,-0.33039982910156246,2.2601263671875,8.920795385742187,9.208578910831225
0.835613031584183,1.0821791503906248,1.484405029296875,14.245499877929687,14.363454903909322
0.8380999751305644,0.7278373046875,1.2737152832031249,9.323021264648437,9.437734011183348
0.840586918676946,0.3447650390625,1.0438719238281249,4.649539624023437,4.777734844136958
0.8430738622233275,-0.1005564697265625,1.0007762939453124,0.622492431640625,1.1828616240189052
0.8455608057697089,-0.584185205078125,1.0486603271484374,-2.6144682128906247,2.8768741494515773
0.8480477493160905,-1.0390835205078124,1.1875240234375,-4.65432802734375,4.91453733884988
0.850534692862472,-1.3742717529296875,1.5658078857421873,-5.453991381835937,5.838355862663181
0.8530216364088534,-1.695094775390625,1.8435352783203125,-5.046977099609375,5.634176644723664
0.855508579955235,-1.8243816650390623,2.24097275390625,-3.5386300537109374,4.568613575310034
0.8579955235016165,-1.93451494140625,2.6048914062499997,-1.0917559570312498,3.4234103415442836
0.8604824670479979,-1.848323681640625,2.935291235351562,2.1356278808593747,4.07346799594021
0.8629694105943795,-1.6711527587890624,3.1938650146484373,5.741295581054687,6.779085500570238
0.8654563541407609,-1.4604630126953124,3.4524387939453125,9.533711010742186,10.24421453669028
0.8679432976871424,-1.120486376953125,3.5338416503906247,13.105859887695312,13.620098748793051
0.870430241233524,-0.7661445312499999,3.6487633300781246,16.328455322265626,16.74869859102228
0.8729171847799054,-0.47884033203125,3.5386300537109374,18.689138159179688,19.027219341078517
0.8754041283262869,-0.0909796630859375,3.4620156005859375,20.336348901367185,20.629127852527695
0.8778910718726685,0.19153613281249998,3.2704794677734372,21.04982099609375,21.303231820709495
0.8803780154190499,0.38786066894531246,2.935291235351562,20.738574780273435,20.948862843883433
0.8828649589654315,0.507570751953125,2.7198130859375,19.627665209960938,19.821711653764567
0.885351902511813,0.5889736083984375,2.427720483398437,17.784129931640624,17.958730302623795
0.8878388460581944,0.5889736083984375,2.1499930908203124,15.270218188476562,15.4320745114079
0.890325789604576,0.4740519287109375,1.93451494140625,12.50730947265625,12.664906771644052
0.8928127331509574,0.296881005859375,1.7477672119140624,9.586383447265625,9.748926923343426
0.8952996766973389,0.0,1.6807295654296874,6.789955908203124,6.9948804927212285
0.8977866202437205,-0.26336218261718747,1.5945383056640625,4.3239281982421875,4.616087857809559
0.9002735637901019,-0.5267243652343749,1.6424223388671875,2.389413256835937,2.9469111639282306
0.9027605073364834,-0.8044517578125,1.7908628417968748,1.139639990234375,2.2700466198115414
0.905247450882865,-1.024718310546875,1.9105729248046874,0.5506663818359374,2.236866107090691
0.9077343944292464,-1.22583125,2.1164742675781247,0.7709329345703124,2.564461574756408
0.9102213379756279,-1.3120225097656248,2.35589443359375,1.6519991455078125,3.1623951089527456
0.9127082815220094,-1.3455413330078123,2.5905261962890624,3.1268273681640624,4.277657868833378
0.9151952250683909,-1.3263877197265623,2.7581203125,5.013458276367187,5.8737803780990285
0.9176821686147724,-1.24498486328125,2.9640216552734375,7.259219433593749,7.939249238296684
0.9201691121611539,-1.0678139404296874,3.1411925781249996,9.552864624023437,10.112593136736097
0.9226560557075354,-0.8906430175781249,3.1699229980468746,11.741164941406248,12.194121984776697
0.9251429992539169,-0.6847416748046875,3.1603461914062496,13.6756798828125,14.05278902808666
0.9276299428002984,-0.45968671875,3.1507693847656246,15.231910961914062,15.561162268514819
0.9301168863466799,-0.2920926025390625,3.0214824951171875,16.2039568359375,16.485839126282997
0.9326038298930613,-0.1149216796875,2.93050283203125,16.678008764648435,16.933901800668842
0.9350907734394429,0.086191259765625,2.748543505859375,16.50562624511719,16.733129357067764
0.9375777169858244,0.16280571289062498,2.5953145996093747,15.806519360351562,16.018995532188157
0.9400646605322058,0.24899697265624998,2.437297290039062,14.571111303710937,14.77564557633799
0.9425516040785874,0.1771709228515625,2.2457611572265623,13.091494677734374,13.28390249920403
0.9450385476249689,0.1292868896484375,2.1404162841796874,11.305420239257812,11.506981522347061
0.9475254911713503,-0.0143652099609375,2.0302830078125,9.442731347656249,9.658541854497468
0.9500124347177319,-0.16280571289062498,1.9297265380859374,7.64229169921875,7.8838425040008735
0.9524993782641133,-0.316034619140625,1.9728221679687499,6.133944653320312,6.451138054399481
0.9549863218104948,-0.5267243652343749,1.9009961181640624,4.8698061767578125,5.2541637771766245
0.9574732653568764,-0.6464344482421874,2.0302830078125,4.055777612304687,4.581403565301605
0.9599602089032578,-0.8283937744140625,2.1404162841796874,3.7301661865234372,4.379698379358144
0.9624471524496393,-0.9528922607421875,2.288856787109375,3.878606689453125,4.603309559865547
0.9649340959960209,-1.0199299072265624,2.4516625,4.510675927734375,5.234224236179015
0.9674210395424023,-1.0390835205078124,2.5857377929687497,5.444414575195312,6.116157663368151
0.9699079830887838,-1.0390835205078124,2.6910826660156246,6.737283471679687,7.32888866443535
0.9723949266351654,-0.9624690673828125,2.7724855224609373,8.202534887695313,8.711750757556313
0.9748818701815468,-0.8571241943359375,2.91134921875,9.715670336914062,10.178647565056178
0.9773688137279283,-0.7661445312499999,2.9496564453125,11.142614526367186,11.551853057901441
0.9798557572743098,-0.6512228515624999,2.916137622070312,12.435483422851561,12.78941741414624
0.9823427008206913,-0.469263525390625,2.906560815429687,13.48414375,13.801827295714048
0.9848296443670728,-0.33039982910156246,2.8730419921875,14.11621298828125,14.409406770109008
0.9873165879134543,-0.229843359375,2.70065947265625,14.341267944335936,14.595148365410138
0.9898035314598358,-0.086191259765625,2.6336218261718747,14.202404248046873,14.444780347291154
0.9922904750062173,-0.0383072265625,2.5139117431640625,13.713987109375,13.942548623982946
0.9947774185525988,-0.0143652099609375,2.408566870117187,12.866439721679686,13.089945448270598
0.9972643620989803,0.009576806640625,2.3223756103515623,11.803414184570311,12.029717644371244
0.9997513056453617,-0.09576806640624999,2.1930887207031247,10.539275708007812,10.765460608298284
1.0022382491917432,0.612915625,3.2704794677734372,9.562441430664062,10.12482037506727
1.0047251927381249,0.3591302490234375,3.366247534179687,9.591171850585937,10.17109504746694
1.0072121362845063,0.17238251953125,3.4620156005859375,9.624690673828125,10.229855244264918
1.0096990798308878,-0.047884033203124995,3.4763808105468748,9.634267480468749,10.242393582839512
1.0121860233772693,-0.2920926025390625,3.4524387939453125,9.639055883789062,10.242853608502132
1.0146729669236507,-0.55545478515625,3.423708374023437,9.682151513671874,10.284666595588297
1.0171599104700322,-0.7517793212890624,3.327940307617187,9.65342109375,10.238598422256752
1.0196468540164139,6.9910688476562495,-1.2641384765625,9.715670336914062,12.036084903995453
1.0221337975627953,5.9376201171875,-0.1005564697265625,9.811438403320311,11.468642805571294
1.0246207411091768,4.821922143554687,0.9911994873046874,9.94072529296875,11.092854859431126
1.0271076846555582,3.6152445068359373,2.0542250244140625,9.993397729492187,10.823947130088726
1.0295946282019397,2.3319524169921872,2.925714428710937,10.089165795898436,10.760533139701304
1.0320815717483212,1.1731588134765625,3.778050219726562,10.117896215820313,10.863783360253677
1.0345685152947028,0.01915361328125,4.525041137695312,10.13226142578125,11.09680520506291
1.0370554588410843,-1.024718310546875,4.951209033203125,10.09395419921875,11.289483153907804
1.0395424023874658,-2.0063409912109376,5.415684155273437,10.041281762695311,11.583711774752102
1.0420293459338472,-2.7916391357421872,5.6311623046875,10.012551342773437,11.821777461854667
1.0445162894802287,-3.4332851806640625,5.736507177734374,9.97903251953125,12.01149664937004
1.0470032330266101,-3.907337109375,5.760449194335937,9.888052856445311,12.09229703152717
1.0494901765729918,-4.2521021484374995,5.616797094726562,9.849745629882811,12.109759339370502
1.0519771201193733,-4.395754248046875,5.396530541992187,9.840168823242188,12.052971408320198
1.0544640636657547,-4.434061474609375,5.118803149414062,9.667786303710937,11.803776465914929
1.0569510072121362,-4.247313745117188,4.802768530273437,9.610325463867188,11.55268865356893
1.0594379507585177,-4.050989208984375,4.414907861328125,9.576806640625,11.296776107688592
1.0619248943048991,-3.687070556640625,4.0222587890625,9.481038574218749,10.939065202368099
1.0644118378512808,-3.2130186279296873,3.6343981201171873,9.394847314453125,10.573338851130309
1.0668987813976623,-2.7581203125,3.265691064453125,9.399635717773437,10.325943899398071
1.0693857249440437,-2.1404162841796874,2.987963671875,9.361328491210937,10.057026394237212
1.0718726684904252,-1.6328455322265625,2.6192566162109374,9.299079248046874,9.797936752966567
1.0743596120368066,-1.1156979736328125,2.3367408203125,9.265560424804686,9.620589878764706
1.076846555583188,-0.5410895751953124,2.1260510742187497,9.270348828125,9.526396931352918
1.0793334991295698,-0.08140285644531249,1.9584569580078124,9.265560424804686,9.470627754648234
1.0818204426759512,0.33039982910156246,1.7717092285156248,9.265560424804686,9.439212235307805
1.0843073862223327,0.7326257080078125,1.7764976318359373,9.275137231445312,9.472109317680811
1.0867943297687142,1.0534487304687499,1.7477672119140624,9.323021264648437,9.543750308754678
1.0892812733150956,1.20667763671875,1.6807295654296874,9.303867651367186,9.531152924238672
1.0917682168614773,1.350329736328125,1.7669208251953124,9.342174877929686,9.603209414000165
1.0942551604078588,1.369483349609375,1.867477294921875,9.409212524414063,9.690007039290348
1.0967421039542402,1.3359645263671873,1.9536685546875,9.433154541015625,9.725534773572607
1.0992290475006217,1.2737152832031249,2.1116858642578125,9.509768994140625,9.82432054311594
1.1017159910470031,1.0678139404296874,2.1930887207031247,9.548076220703125,9.854725986277229
1.1042029345933846,0.8906430175781249,2.31758720703125,9.576806640625,9.893416036884059
1.1066898781397663,0.63206923828125,2.398990063476562,9.572018237304688,9.888285897056894
1.1091768216861477,0.3399766357421875,2.461239306640625,9.643844287109374,9.958765770486597
1.1116637652325292,0.0383072265625,2.5330653564453125,9.629479077148437,9.957145918428123
1.1141507087789106,-0.24899697265624998,2.6048914062499997,9.710881933593749,10.057270338364408
1.116637652325292,-0.5315127685546874,2.6192566162109374,9.686939916992188,10.048871379419584
1.1191245958716736,-0.8571241943359375,2.6192566162109374,9.710881933593749,10.094374425108187
1.1216115394180552,-1.1156979736328125,2.5474305664062498,9.6917283203125,10.082845942182027
1.1240984829644367,-1.3407529296874998,2.5857377929687497,9.734823950195311,10.161223139649517
1.1265854265108182,-1.4939818359375,2.4947581298828125,9.701305126953125,10.127740173354299
1.1290723700571996,-1.6615759521484375,2.389413256835937,9.658209497070311,10.087177060307827
1.131559313603581,-1.7238251953125,2.3367408203125,9.65342109375,10.080697881524193
1.1340462571499625,-1.7669208251953124,2.2601263671875,9.605537060546874,10.024795390415933
1.1365332006963442,-1.7429788085937499,2.1691467041015624,9.581595043945311,9.977481452615129
1.1390201442427257,-1.6711527587890624,2.04943662109375,9.562441430664062,9.921352131739354
1.1415070877891071,-1.5418658691406248,2.04943662109375,9.528922607421874,9.868024466960783
1.1439940313354886,-1.369483349609375,2.0254946044921875,9.543287817382812,9.851520461486718
1.14648097488187,-1.254561669921875,1.89620771484375,9.471461767578125,9.740539856505093
1.1489679184282515,-0.9720458740234375,1.9584569580078124,9.476250170898437,9.725211778620961
1.1514548619746332,-0.8092401611328125,1.9105729248046874,9.457096557617186,9.682036657619193
1.1539418055210147,-0.5363011718749999,1.9584569580078124,9.433154541015625,9.649226766845487
1.1564287490673961,-0.3064578125,2.0159177978515626,9.404424121093749,9.622943105305513
1.1589156926137776,-0.11013327636718749,2.0973206542968748,9.366116894531249,9.598699336239642
1.161402636160159,0.05746083984375,2.1499930908203124,9.418789331054686,9.661229968357041
1.1638895797065405,0.3016694091796875,2.327164013671875,9.409212524414063,9.697421157635398
1.1663765232529222,0.469263525390625,2.4564509033203126,9.390058911132812,9.71738471252579
1.1688634667993036,0.5315127685546874,2.5617957763671875,9.370905297851563,9.72929440012234
1.171350410345685,0.6464344482421874,2.6862942626953124,9.423577734375,9.820278594697413
1.1738373538920666,0.6751648681640625,2.806004345703125,9.457096557617186,9.887678356793502
1.176324297438448,0.622492431640625,2.9735984619140625,9.457096557617186,9.933099211235252
1.1788112409848295,0.6416460449218749,3.0885201416015624,9.514557397460937,10.0238450098563
1.1812981845312112,0.5458779785156249,3.1794998046874996,9.5001921875,10.032988257487007
1.1837851280775926,0.4836287353515625,3.303998291015625,9.562441430664062,10.128701179103492
1.186272071623974,0.296881005859375,3.323151904296875,9.572018237304688,10.136814590687035
1.1887590151703555,0.11013327636718749,3.380612744140625,9.562441430664062,10.143025090143963
1.191245958716737,-0.086191259765625,3.366247534179687,9.600748657226562,10.17415481373605
1.1937329022631185,-0.28730419921875,3.347093920898437,9.605537060546874,10.176046562380868
1.1962198458095001,-0.5027823486328125,3.31357509765625,9.667786303710937,10.23223641400672
1.1987067893558816,-0.6847416748046875,3.299209887695312,9.648632690429688,10.220067017349216
1.201193732902263,-0.9050082275390624,3.1268273681640624,9.662997900390625,10.196549303816798
1.2036806764486445,-1.1013327636718748,3.0406361083984375,9.639055883789062,10.167093986525455
1.206167619995026,-1.2737152832031249,2.901772412109375,9.686939916992188,10.192126309547037
1.2086545635414074,-1.4413093994140624,2.7341782958984373,9.677363110351562,10.158959617411355
1.2111415070877891,-1.5610194824218748,2.5761609863281247,9.639055883789062,10.09875168438101
1.2136284506341706,-1.6472107421875,2.422932080078125,9.634267480468749,10.069906304383734
1.216115394180552,-1.7190367919921874,2.2361843505859373,9.643844287109374,10.047852535544118
1.2186023377269335,-1.68551796875,2.039859814453125,9.581595043945311,9.940269738380202
1.221089281273315,-1.68551796875,1.9009961181640624,9.595960253906249,9.926591069385422
1.2235762248196966,-1.5753846923828123,1.8052280517578123,9.567229833984374,9.862685838255626
1.226063168366078,-1.5083470458984374,1.675941162109375,9.552864624023437,9.815350840119853
1.2285501119124596,-1.369483349609375,1.5945383056640625,9.562441430664062,9.790726386125183
1.231037055458841,-1.1875240234375,1.5227122558593749,9.485826977539062,9.680381158208254
1.2335239990052225,-1.005564697265625,1.4125789794921875,9.476250170898437,9.633579658420995
1.236010942551604,-0.7948749511718749,1.407790576171875,9.485826977539062,9.622609518325405
1.2384978860979856,-0.6560112548828124,1.4413093994140624,9.447519750976562,9.579319025717043
1.240984829644367,-0.4213794921875,1.5801730957031248,9.423577734375,9.564430197592978
1.2434717731907485,-0.181959326171875,1.637633935546875,9.481038574218749,9.623151591295834
1.24595871673713,0.0047884033203125,1.7238251953125,9.423577734375,9.579948514924743
1.2484456602835114,0.201112939453125,1.85790048828125,9.423577734375,9.607083738293293
1.250932603829893,0.3447650390625,1.9680337646484374,9.3852705078125,9.595588691465009
1.2534195473762746,0.4836287353515625,2.1595698974609374,9.466673364257812,9.721910485147736
1.255906490922656,0.6081272216796875,2.379836450195312,9.423577734375,9.738442255475684
1.2583934344690375,0.689530078125,2.5330653564453125,9.399635717773437,9.759355688543412
1.260880378015419,0.718260498046875,2.7246014892578123,9.423577734375,9.835810527563485
1.2633673215618004,0.7757213378906249,2.89219560546875,9.514557397460937,9.974634904793769
1.2658542651081819,0.7038952880859375,3.0837317382812497,9.548076220703125,10.058361174994124
1.2683412086545636,0.6464344482421874,3.19865341796875,9.504980590820312,10.049572986750642
1.270828152200945,0.55545478515625,3.337517114257812,9.509768994140625,10.093723635419943
1.2733150957473265,0.39743747558593745,3.380612744140625,9.543287817382812,10.132168644384741
1.275802039293708,0.17238251953125,3.5146880371093747,9.524134204101562,10.15341716216649
1.2782889828400894,0.062249243164062495,3.5577836669921874,9.586383447265625,10.225480291282128
1.2807759263864709,-0.17238251953125,3.5769372802734374,9.581595043945311,10.228937365445505
1.2832628699328525,-0.316034619140625,3.5529952636718747,9.619902270507811,10.259930453872066
1.285749813479234,-0.5746083984375,3.4763808105468748,9.600748657226562,10.226914154852924
1.2882367570256155,-0.7517793212890624,3.447650390625,9.65342109375,10.27813232922947
1.290723700571997,-0.9816226806640624,3.308786694335937,9.667786303710937,10.265366261854927
1.2932106441183784,-1.1923124267578125,3.19865341796875,9.639055883789062,10.22567312904597
1.2956975876647598,-1.350329736328125,3.0406361083984375,9.658209497070311,10.215178365051074
1.2981845312111415,-1.4796166259765624,2.858676782226562,9.629479077148437,10.153234243449079
1.300671474757523,-1.6041151123046875,2.6431986328124997,9.624690673828125,10.109122359181347
1.3031584183039044,-1.70467158203125,2.47081611328125,9.619902270507811,10.077368563387791
1.305645361850286,-1.70467158203125,2.27927998046875,9.581595043945311,9.995398242096606
1.3081323053966674,-1.695094775390625,2.1404162841796874,9.595960253906249,9.976832230807865
1.3106192489430488,-1.675941162109375,1.9776105712890624,9.610325463867188,9.953797158470774
1.3131061924894305,-1.62805712890625,1.7477672119140624,9.528922607421874,9.823727719163434
1.315593136035812,-1.5131354492187499,1.68551796875,9.562441430664062,9.827046139381972
1.3180800795821934,-1.3838485595703125,1.5035586425781249,9.586383447265625,9.80175867002981
1.3205670231285749,-1.2018892333984375,1.4317325927734375,9.519345800781249,9.701151499766429
1.3230539666749563,-1.0199299072265624,1.3311761230468748,9.490615380859374,9.637638050561446
1.3255409102213378,-0.852335791015625,1.3263877197265623,9.466673364257812,9.597066492904798
1.3280278537677195,-0.6272808349609375,1.2832920898437499,9.418789331054686,9.526484781731108
1.330514797314101,-0.4213794921875,1.39821376953125,9.447519750976562,9.559717143662528
1.3330017408604824,-0.181959326171875,1.455674609375,9.447519750976562,9.56073884225755
1.3354886844068639,-0.033518823242187495,1.5897499023437498,9.433154541015625,9.566233995580351
1.3379756279532453,0.1771709228515625,1.7238251953125,9.428366137695312,9.586294949892679
1.3404625714996268,0.32561142578124996,1.8722656982421875,9.390058911132812,9.580428382904302
1.3429495150460085,0.4836287353515625,2.039859814453125,9.370905297851563,9.60254085737629
1.34543645859239,0.603338818359375,2.231395947265625,9.418789331054686,9.698285315765995
1.3479234021387714,0.6751648681640625,2.442085693359375,9.433154541015625,9.767498898264451
1.3504103456851528,0.737414111328125,2.5905261962890624,9.452308154296874,9.828567290761807
1.3528972892315343,0.74699091796875,2.8203695556640622,9.4618849609375,9.901502253499705
1.3553842327779158,0.718260498046875,2.978386865234375,9.504980590820312,9.986558090449684
1.3578711763242974,0.6560112548828124,3.1507693847656246,9.5001921875,10.030520927745743
1.360358119870679,0.5602431884765625,3.246537451171875,9.5001921875,10.055223988133331
1.3628450634170604,0.430956298828125,3.418919970703125,9.543287817382812,10.146382580160255
1.3653320069634418,0.277727392578125,3.5098996337890624,9.548076220703125,10.176555775910497
1.3678189505098233,0.1292868896484375,3.6104561035156246,9.548076220703125,10.20871529094649
1.370305894056205,-0.11013327636718749,3.6200329101562496,9.548076220703125,10.21188166429352
1.3727928376025864,-0.3016694091796875,3.6248213134765623,9.629479077148437,10.293551441767233
1.3752797811489679,-0.47884033203125,3.5960908935546874,9.619902270507811,10.281229375537153
1.3777667246953493,-0.70868369140625,3.5338416503906247,9.629479077148437,10.28188390722927
1.3802536682417308,-0.9193734375,3.418919970703125,9.629479077148437,10.259684623851394
1.3827406117881123,-1.0965443603515623,3.31357509765625,9.65342109375,10.265024514110227
1.385227555334494,-1.2401964599609374,3.265691064453125,9.437942944335937,10.06367688314212
1.3877144988808754,-1.4125789794921875,2.978386865234375,9.6151138671875,10.164476492731202
1.3902014424272569,-1.5945383056640625,2.7629087158203123,9.643844287109374,10.157753177459963
1.3926883859736383,-1.68551796875,2.5665841796874997,9.600748657226562,10.079816464283411
1.3951753295200198,-1.6903063720703124,2.389413256835937,9.572018237304688,10.009493717401414
1.3976622730664012,6.0908490234374995,-2.001552587890625,9.696516723632811,11.624417884784252
1.400149216612783,5.228936425781249,-0.9241618408203125,9.744400756835937,11.097260804483021
1.4026361601591644,4.314351391601562,0.1388636962890625,9.873687646484374,10.77602054548429
1.4051231037055458,3.327940307617187,1.16837041015625,9.911994873046874,10.520832593939483
1.4076100472519273,2.3367408203125,2.1068974609374997,9.955090502929687,10.44045983152756
1.4100969907983087,1.3168109130859373,2.940079638671875,9.950302099609374,10.458803523159133
1.4125839343446902,0.38307226562499996,3.7205893798828122,9.988609326171874,10.665919836810868
1.4150708778910719,-0.4740519287109375,4.328716601562499,9.964667309570311,10.87460837171512
1.4175578214374533,-1.2114660400390624,4.8506525634765625,9.988609326171874,11.169995368334645
1.4200447649838348,-1.886630908203125,5.228936425781249,9.911994873046874,11.364365124896192
1.4225317085302163,-2.35589443359375,5.5545478515625,9.907206469726562,11.599826742297811
1.4250186520765977,-2.767697119140625,5.68862314453125,9.8449572265625,11.702297356358756
1.4275055956229792,-3.0550013183593747,5.746083984375,9.792284790039062,11.757523362507037
1.4299925391693609,-3.1938650146484373,5.7508723876953125,9.710881933593749,11.729217146917739
1.4324794827157423,-3.208230224609375,5.592855078125,9.65342109375,11.608673822287503
1.4349664262621238,-3.1603461914062496,5.406107348632812,9.562441430664062,11.430401166597708
1.4374533698085052,-3.0358477050781247,5.128379956054687,9.509768994140625,11.222849842353323
1.4399403133548867,-2.7820623291015623,4.903325,9.481038574218749,11.03052851428502
1.4424272569012682,-2.4899697265625,4.57771357421875,9.466673364257812,10.806170246314494
1.4449142004476498,-2.1643583007812497,4.2521021484374995,9.404424121093749,10.545520972636554
1.4474011439940313,-1.8291700683593748,3.9312791259765625,9.361328491210937,10.316748025694848
1.4498880875404128,-1.4508862060546874,3.6056677001953124,9.409212524414063,10.18033352482825
1.4523750310867942,-1.149216796875,3.289633081054687,9.3086560546875,9.939490057274531
1.4548619746331757,-0.833182177734375,2.925714428710937,9.380482104492186,9.86141176365533
1.4573489181795571,-0.5219359619140624,2.7054478759765623,9.375693701171874,9.772179784273272
1.4598358617259388,-0.277727392578125,2.4564509033203126,9.390058911132812,9.710020077196345
1.4623228052723203,-0.1005564697265625,2.2457611572265623,9.404424121093749,9.669371635650446
1.4648097488187017,0.0718260498046875,2.0973206542968748,9.375693701171874,9.607681577080122
1.4672966923650832,0.143652099609375,1.9297265380859374,9.447519750976562,9.643656458139079
1.4697836359114647,0.22026655273437498,1.8004396484374998,9.433154541015625,9.605961944365745
1.4722705794578461,0.22026655273437498,1.68551796875,9.504980590820312,9.655782941279462
1.4747575230042278,0.181959326171875,1.5610194824218748,9.533711010742186,9.66237738122603
1.4772444665506093,0.11013327636718749,1.6041151123046875,9.6151138671875,9.74862704749079
1.4797314100969907,-0.01915361328125,1.5227122558593749,9.595960253906249,9.716042026956993
1.4822183536433722,-0.12449848632812499,1.5035586425781249,9.576806640625,9.69491691025191
1.4847052971897536,-0.2442085693359375,1.484405029296875,9.576806640625,9.6942416695819
1.487192240736135,-0.39264907226562495,1.5179238525390624,9.619902270507811,9.746834655937251
1.4896791842825168,-0.49799394531249996,1.5466542724609373,9.605537060546874,9.741995669760334
1.4921661278288982,-0.6560112548828124,1.5275006591796874,9.6151138671875,9.7577673526944
1.4946530713752797,-0.7565677246093749,1.5418658691406248,9.595960253906249,9.748445941527802
1.4971400149216612,-0.8188169677734375,1.5945383056640625,9.624690673828125,9.790183052518364
1.4996269584680426,-0.86191259765625,1.695094775390625,9.586383447265625,9.773176925727043
1.5021139020144243,-0.8714894042968749,1.7286135986328124,9.610325463867188,9.803364436591862
1.5046008455608058,-0.8858546142578124,1.8100164550781248,9.572018237304688,9.781841907358194
1.5070877891071872,-0.8475473876953125,1.9009961181640624,9.591171850585937,9.814412885299662
1.5095747326535687,-0.7805097412109374,1.9680337646484374,9.562441430664062,9.794010336414907
1.5120616761999501,-0.70868369140625,2.0733786376953125,9.524134204101562,9.772935274903531
1.5145486197463316,-0.6177040283203125,2.1499930908203124,9.524134204101562,9.783310323960675
1.5170355632927133,-0.49320554199218747,2.2170307373046874,9.471461767578125,9.739972536485908
1.5195225068390947,-0.3687070556640625,2.418143676757812,9.490615380859374,9.80077262473448
1.5220094503854762,-0.2346317626953125,2.4660277099609376,9.476250170898437,9.794675187662598
1.5244963939318577,-0.13407529296874998,2.5761609863281247,9.4618849609375,9.807234504470616
1.5269833374782391,-0.01915361328125,2.6815058593749996,9.414000927734374,9.788475570902133
1.5294702810246206,0.076614453125,2.806004345703125,9.452308154296874,9.860307277479725
1.5319572245710023,0.1771709228515625,2.940079638671875,9.476250170898437,9.923445728127387
1.5344441681173837,0.24899697265624998,3.0597897216796874,9.457096557617186,9.942886297920914
1.5369311116637652,0.27293898925781246,3.1411925781249996,9.490615380859374,10.000668318273993
1.5394180552101466,0.296881005859375,3.2417490478515623,9.466673364257812,10.010743219483501
1.541904998756528,0.258573779296875,3.342305517578125,9.457096557617186,10.033670408791982
1.5443919423029095,0.229843359375,3.347093920898437,9.519345800781249,10.093255676936737
1.5468788858492912,0.143652099609375,3.399766357421875,9.528922607421874,10.11827125891649
1.5493658293956727,0.033518823242187495,3.438073583984375,9.504980590820312,10.107726228597288
1.5518527729420541,-0.076614453125,3.4332851806640625,9.572018237304688,10.169407556071722
1.5543397164884356,-0.21068974609375,3.361459130859375,9.572018237304688,10.14728194113283
1.556826660034817,-0.38786066894531246,3.318363500976562,9.595960253906249,10.16092640548472
1.5593136035811985,-0.5506663818359374,3.19865341796875,9.576806640625,10.11186642436927
1.5618005471275802,-0.7038952880859375,3.0980969482421874,9.562441430664062,10.076406075192569
1.5642874906739617,-0.8667010009765624,3.0502129150390624,9.639055883789062,10.14723448940515
1.5667744342203431,-0.9911994873046874,2.91134921875,9.629479077148437,10.108674393528997
1.5692613777667246,-1.1444283935546875,2.7533319091796873,9.677363110351562,10.1262979276572
1.571748321313106,-1.3215993164062498,2.5665841796874997,9.634267480468749,10.057489199087676
1.5742352648594875,-1.407790576171875,2.43250888671875,9.605537060546874,10.00826238724103
1.5767222084058692,-1.484405029296875,2.24097275390625,9.629479077148437,9.997613938935206
1.5792091519522506,-1.484405029296875,2.0973206542968748,9.624690673828125,9.961771066673647
1.581696095498632,-1.5370774658203123,1.9536685546875,9.552864624023437,9.871000480317372
1.5841830390450136,-1.5131354492187499,1.838746875,9.610325463867188,9.900955735657986
1.586669982591395,-1.47482822265625,1.66636435546875,9.581595043945311,9.836607750524442
1.5891569261377765,-1.3838485595703125,1.5801730957031248,9.572018237304688,9.799771271999278
1.5916438696841582,-1.254561669921875,1.446097802734375,9.552864624023437,9.742809982937613
1.5941308132305396,-1.13006318359375,1.455674609375,9.5001921875,9.677276629647885
1.596617756776921,-0.9528922607421875,1.4221557861328125,9.495403784179686,9.648482977402576
1.5991047003233025,-0.7709329345703124,1.4125789794921875,9.490615380859374,9.626084212716659
1.601591643869684,-0.59376201171875,1.4173673828125,9.476250170898437,9.600041714798625
1.6040785874160655,-0.39743747558593745,1.5370774658203123,9.457096557617186,9.589433715450957
1.6065655309624471,-0.21068974609375,1.608903515625,9.394847314453125,9.533945497724782
1.6090524745088286,-0.023942016601562498,1.7477672119140624,9.447519750976562,9.607855790564981
1.61153941805521,0.1197100830078125,1.8818425048828125,9.404424121093749,9.591603347020104
1.6140263616015915,0.277727392578125,2.0254946044921875,9.409212524414063,9.628761147053428
1.616513305147973,0.44532150878906246,2.1835119140624997,9.485826977539062,9.744072504494767
1.6190002486943544,0.5363011718749999,2.35589443359375,9.452308154296874,9.756228111979532
1.6214871922407361,0.6368576416015624,2.5043349365234375,9.428366137695312,9.776061024584378
1.6239741357871176,0.689530078125,2.7246014892578123,9.452308154296874,9.86128969494823
1.626461079333499,0.679953271484375,2.858676782226562,9.414000927734374,9.861936060633692
1.6289480228798805,0.6464344482421874,3.0980969482421874,9.428366137695312,9.945359230466305
1.631434966426262,0.565031591796875,3.2130186279296873,9.524134204101562,10.067367170262987
1.6339219099726436,0.507570751953125,3.327940307617187,9.509768994140625,10.088038515054343
1.636408853519025,0.36391865234375,3.4524387939453125,9.528922607421874,10.14160423550919
1.6388957970654066,0.2059013427734375,3.5098996337890624,9.562441430664062,10.188330428343452
1.641382740611788,0.06703764648437499,3.5721488769531247,9.581595043945311,10.226030766202545
1.6438696841581695,-0.1580173095703125,3.5817256835937497,9.600748657226562,10.248321966150195
1.646356627704551,-0.32561142578124996,3.5817256835937497,9.624690673828125,10.274699617993146
1.6488435712509326,-0.5410895751953124,3.5769372802734374,9.6151138671875,10.273153017179114
1.651330514797314,-0.7565677246093749,3.418919970703125,9.65342109375,10.268882475773628
1.6538174583436955,-0.9433154541015625,3.289633081054687,9.624690673828125,10.214998796905963
1.656304401890077,-1.1252747802734375,3.1747114013671873,9.634267480468749,10.206083759126608
1.6587913454364585,-1.3215993164062498,3.0119056884765625,9.634267480468749,10.180241181554619
1.66127828898284,-1.4317325927734375,2.85388837890625,9.6151138671875,10.131384494502578
1.6637652325292216,-1.5610194824218748,2.6719290527343746,9.682151513671874,10.164646802572396
1.666252176075603,-1.6424223388671875,2.43250888671875,9.610325463867188,10.048532536874712
1.6687391196219845,-1.6424223388671875,2.308010400390625,9.639055883789062,10.046684103639857
1.671226063168366,-1.714248388671875,2.1116858642578125,9.595960253906249,9.973982049408294
1.6737130067147474,-1.675941162109375,1.944091748046875,9.624690673828125,9.961071331465837
1.676199950261129,-1.6328455322265625,1.8004396484374998,9.567229833984374,9.87115262550725
1.6786868938075106,-1.5322890624999999,1.6136919189453125,9.572018237304688,9.82728062668509
1.681173837353892,-1.3838485595703125,1.5035586425781249,9.528922607421874,9.745567786729099
1.6836607809002735,-1.2497732666015624,1.3742717529296875,9.519345800781249,9.698891717287289
1.686147724446655,-1.0869675537109373,1.3551181396484375,9.5001921875,9.657716874844727
1.6886346679930364,-0.8906430175781249,1.350329736328125,9.452308154296874,9.589721832532987
1.6911216115394179,-0.6655880615234374,1.3215993164062498,9.476250170898437,9.591086983351817
1.6936085550857995,-0.4740519287109375,1.388636962890625,9.433154541015625,9.546593237406963
1.696095498632181,-0.26336218261718747,1.47482822265625,9.428366137695312,9.546652080809055
1.6985824421785625,-0.047884033203124995,1.5849614990234373,9.447519750976562,9.579667284364039
1.701069385724944,0.16280571289062498,1.714248388671875,9.428366137695312,9.584322681580245
1.7035563292713254,0.32082302246093747,1.8291700683593748,9.428366137695312,9.609520205356894
1.7060432728177068,0.4070142822265625,1.9776105712890624,9.404424121093749,9.618721185636923
1.7085302163640885,0.5793968017578125,2.1691467041015624,9.418789331054686,9.682690253260786
1.71101715991047,0.6847416748046875,2.408566870117187,9.442731347656249,9.769096213726755
1.7135041034568514,0.718260498046875,2.5761609863281247,9.442731347656249,9.814157063881932
1.715991047003233,0.7278373046875,2.7533319091796873,9.481038574218749,9.899529089306506
1.7184779905496144,0.70868369140625,2.93050283203125,9.452308154296874,9.92150234928136
1.7209649340959958,0.6464344482421874,3.0885201416015624,9.509768994140625,10.019607800850846
1.7234518776423775,0.5698199951171875,3.2704794677734372,9.485826977539062,10.049957423978016
1.725938821188759,0.47884033203125,3.4332851806640625,9.519345800781249,10.130877537025055
1.7284257647351404,0.33518823242187495,3.5242648437499997,9.552864624023437,10.187738530457324
1.7309127082815219,0.16280571289062498,3.6008792968749996,9.572018237304688,10.22821443586838
1.7333996518279033,-0.033518823242187495,3.5865140869140624,9.567229833984374,10.217440653286186
1.7358865953742848,-0.2442085693359375,3.6343981201171873,9.572018237304688,10.241680558196588
1.7383735389206665,-0.4213794921875,3.5960908935546874,9.643844287109374,10.301124357328925
1.740860482467048,-0.6703764648437499,3.5242648437499997,9.600748657226562,10.249108355010511
1.7433474260134294,-0.8714894042968749,3.4428619873046875,9.648632690429688,10.281483610853918
1.7458343695598109,-1.0726023437499999,3.35188232421875,9.643844287109374,10.26593023243584
1.7483213131061923,-1.254561669921875,3.2130186279296873,9.672574707031249,10.26918278881825
1.7508082566525738,-1.3838485595703125,3.0310593017578125,9.662997900390625,10.221344615536207
1.7532952001989555,-1.4987702392578124,2.849099975585937,9.643844287109374,10.166976715571883
1.755782143745337,-1.618480322265625,2.6479870361328124,9.629479077148437,10.117222009738049
1.7582690872917184,-1.714248388671875,2.446874096679687,9.619902270507811,10.073150454410353
1.7607560308380998,-1.7334020019531249,2.221819140625,9.629479077148437,10.033345907087138
1.7632429743844813,-1.7190367919921874,2.039859814453125,9.591171850585937,9.955234453407694
1.765729917930863,-1.6328455322265625,1.9105729248046874,9.591171850585937,9.914991220398587
1.7682168614772444,-1.5849614990234373,1.695094775390625,9.572018237304688,9.849313802810668
1.770703805023626,-1.5035586425781249,1.6136919189453125,9.572018237304688,9.822841917501997
1.7731907485700074,-1.3215993164062498,1.4508862060546874,9.519345800781249,9.719549372830864
1.7756776921163888,-1.1923124267578125,1.3742717529296875,9.471461767578125,9.64462647221735
1.7781646356627703,-1.005564697265625,1.3311761230468748,9.457096557617186,9.6031174902243
1.780651579209152,-0.7661445312499999,1.3359645263671873,9.466673364257812,9.591125233465785
1.7831385227555334,-0.5985504150390625,1.3072341064453123,9.457096557617186,9.56576180492135
1.7856254663019149,-0.38307226562499996,1.4125789794921875,9.447519750976562,9.560217214011745
1.7881124098482963,-0.1484405029296875,1.4508862060546874,9.394847314453125,9.507379314391368
1.7905993533946778,0.076614453125,1.6136919189453125,9.452308154296874,9.589369156909344
1.7930862969410593,0.2154781494140625,1.7238251953125,9.423577734375,9.582370346249268
1.795573240487441,0.4213794921875,1.905784521484375,9.457096557617186,9.656409820365976
1.7980601840338224,0.5506663818359374,2.0877438476562498,9.433154541015625,9.67710248122828
1.8005471275802039,0.63206923828125,2.2553379638671873,9.452308154296874,9.738182083789006
1.8030340711265853,0.7230489013671875,2.4564509033203126,9.437942944335937,9.779147088306422
1.8055210146729668,0.7517793212890624,2.6623522460937497,9.471461767578125,9.867212354302122
1.8080079582193482,0.74699091796875,2.85388837890625,9.452308154296874,9.901959591645035
1.81049490176573,0.70868369140625,3.0502129150390624,9.466673364257812,9.971155198224757
1.8129818453121114,0.6560112548828124,3.1747114013671873,9.485826977539062,10.02447288870151
1.8154687888584928,0.5410895751953124,3.361459130859375,9.524134204101562,10.114411389426486
1.8179557324048743,0.44053310546874996,3.4332851806640625,9.5384994140625,10.147141844916334
1.8204426759512558,0.2442085693359375,3.5338416503906247,9.543287817382812,10.17949001673364
1.8229296194976372,0.0383072265625,3.6008792968749996,9.562441430664062,10.218027464689575
1.825416563044019,-0.105344873046875,3.6918589599609373,9.605537060546874,10.291125416788029
1.8279035065904004,-0.32561142578124996,3.6152445068359373,9.591171850585937,10.255076455701282
1.8303904501367818,-0.5410895751953124,3.5386300537109374,9.639055883789062,10.282318751926525
1.8328773936831633,-0.74699091796875,3.4955344238281247,9.643844287109374,10.284964218397034
1.8353643372295447,-0.9959878906249999,3.337517114257812,9.619902270507811,10.231008359900638
1.8378512807759262,-1.1061211669921875,3.265691064453125,9.677363110351562,10.273246757189783
1.8403382243223079,-1.3120225097656248,3.1124621582031247,9.643844287109374,10.218246248079474
1.8428251678686893,-1.4939818359375,2.916137622070312,9.648632690429688,10.189796521608933
1.8453121114150708,-1.5753846923828123,2.7246014892578123,9.648632690429688,10.148960685660795
1.8477990549614522,-1.675941162109375,2.5522189697265625,9.634267480468749,10.106518210219694
1.8502859985078337,-1.7190367919921874,2.403778466796875,9.6151138671875,10.059008553960002
1.8527729420542152,-1.7381904052734374,2.1356278808593747,9.595960253906249,9.983219196483518
1.8552598856005968,-1.6903063720703124,1.9776105712890624,9.586383447265625,9.933117677806104
1.8577468291469783,-1.656787548828125,1.7764976318359373,9.548076220703125,9.85224077731696
1.8602337726933598,-1.5562310791015623,1.6519991455078125,9.557653027343749,9.823425458536002
1.8627207162397412,-1.407790576171875,1.5514426757812498,9.509768994140625,9.7377900472598
1.8652076597861227,-1.2737152832031249,1.388636962890625,9.490615380859374,9.675869136401952
1.8676946033325041,-1.0678139404296874,1.388636962890625,9.528922607421874,9.688596662278691
1.8701815468788858,-0.9193734375,1.35990654296875,9.490615380859374,9.631530181159913
1.8726684904252673,-0.6943184814453125,1.407790576171875,9.452308154296874,9.581757766914276
1.8751554339716487,-0.5123591552734374,1.39821376953125,9.481038574218749,9.597270762832691
1.8776423775180302,-0.27293898925781246,1.4700398193359374,9.476250170898437,9.59347851739623
1.8801293210644117,-0.0383072265625,1.5227122558593749,9.433154541015625,9.555340111813653
1.8826162646107931,0.08140285644531249,1.66636435546875,9.394847314453125,9.541831724155553
1.8851032081571748,0.296881005859375,1.8339584716796873,9.466673364257812,9.647250727177877
1.8875901517035563,0.45968671875,1.9967641845703124,9.414000927734374,9.634406704907239
1.8900770952499377,0.565031591796875,2.2170307373046874,9.447519750976562,9.72060262715098
1.8925640387963192,0.679953271484375,2.370259643554687,9.414000927734374,9.731591889133552
1.8950509823427006,0.7422025146484375,2.6479870361328124,9.399635717773437,9.793663846749084
1.897537925889082,0.7613561279296874,2.7581203125,9.452308154296874,9.87588073315734
1.9000248694354638,0.7278373046875,2.920926025390625,9.466673364257812,9.933753599392697
1.9025118129818452,0.699106884765625,3.1076737548828124,9.495403784179686,10.015442058527823
1.9049987565282267,0.603338818359375,3.289633081054687,9.504980590820312,10.076227447292935
1.9074857000746082,0.5027823486328125,3.385401147460937,9.528922607421874,10.124924546758965
1.9099726436209896,0.38307226562499996,3.4763808105468748,9.543287817382812,10.163971185812994
1.9124595871673713,0.2059013427734375,3.5817256835937497,9.586383447265625,10.23571696724169
1.9149465307137528,-0.0047884033203125,3.6008792968749996,9.591171850585937,10.244849052423438
1.9174334742601342,-0.21068974609375,3.5913024902343746,9.595960253906249,10.248136266659472
1.9199204178065157,-0.469263525390625,3.6200329101562496,9.619902270507811,10.28918685907675
1.9224073613528971,-0.6272808349609375,3.5625720703124997,9.629479077148437,10.286509043369353
1.9248943048992786,-0.8571241943359375,3.4572271972656248,9.667786303710937,10.303066232546986
1.9273812484456603,-1.0582371337890624,3.3327287109375,9.648632690429688,10.262702338412902
1.9298681919920417,-1.24498486328125,3.19865341796875,9.65342109375,10.245482409888762
1.9323551355384232,-1.4173673828125,2.978386865234375,9.610325463867188,10.160613866214751
1.9348420790848047,-1.4987702392578124,2.834734765625,9.634267480468749,10.153873315476494
1.9373290226311861,-1.5849614990234373,2.6719290527343746,9.643844287109374,10.131882374477348
1.9398159661775676,-1.695094775390625,2.4133552734375,9.6151138671875,10.05723842077767
1.9423029097239493,-1.7286135986328124,2.250549560546875,9.629479077148437,10.038921535458654
1.9447898532703307,-1.7094599853515624,2.0781670410156248,9.605537060546874,9.975338285663364
1.9472767968167122,-1.695094775390625,1.8531120849609375,9.552864624023437,9.877479092455895
1.9497637403630936,-1.5897499023437498,1.714248388671875,9.572018237304688,9.853399688704382
1.952250683909475,-1.4796166259765624,1.5897499023437498,9.576806640625,9.819969223158864
1.9547376274558566,-1.3551181396484375,1.5131354492187499,9.490615380859374,9.70555018365735
1.9572245710022382,-1.1540052001953125,1.4030021728515625,9.504980590820312,9.677024291122498
1.9597115145486197,-1.024718310546875,1.3168109130859373,9.471461767578125,9.617308698980521
1.9621984580950012,-0.8283937744140625,1.3359645263671873,9.4618849609375,9.591574660878928
1.9646854016413826,-0.5793968017578125,1.3551181396484375,9.457096557617186,9.571244492038966
1.967172345187764,-0.4165910888671875,1.4317325927734375,9.447519750976562,9.564467355667306
1.9696592887341455,-0.19153613281249998,1.4939818359375,9.418789331054686,9.538462154827345
1.9721462322805272,0.023942016601562498,1.608903515625,9.428366137695312,9.564686705229242
1.9746331758269087,0.201112939453125,1.68551796875,9.380482104492186,9.532830731220017
1.9771201193732901,0.4213794921875,1.89620771484375,9.418789331054686,9.617003526933882
1.9796070629196716,0.5410895751953124,2.0973206542968748,9.437942944335937,9.683299999270176
1.982094006466053,0.6368576416015624,2.2361843505859373,9.428366137695312,9.710828807671946
1.9845809500124345,0.7230489013671875,2.47081611328125,9.428366137695312,9.77352648770433
1.9870678935588162,0.7805097412109374,2.6862942626953124,9.471461767578125,9.875928327838809
1.9895548371051976,0.7278373046875,2.858676782226562,9.457096557617186,9.906485521486962
1.992041780651579,0.718260498046875,2.9640216552734375,9.447519750976562,9.927585404370827
1.9945287241979606,0.689530078125,3.19865341796875,9.481038574218749,10.02980198522115
1.997015667744342,0.5698199951171875,3.303998291015625,9.471461767578125,10.04737217129751
1.9995026112907235,0.45010991210937495,3.4620156005859375,9.5384994140625,10.157318643409301
2.001989554837105,-0.43574470214843747,2.2170307373046874,7.824251025390624,8.143954987837938
2.0044764983834864,-0.469263525390625,2.2840683837890623,7.4028715332031245,7.761422780340986
2.006963441929868,-0.5793968017578125,2.269703173828125,7.043741284179687,7.423041454123097
2.0094503854762498,-0.63206923828125,2.346317626953125,6.9719152343749995,7.38324589620599
2.011937329022631,-0.6607996582031249,2.43250888671875,7.072471704101562,7.508236256109973
2.0144242725690127,-0.718260498046875,2.480392919921875,7.287949853515625,7.731911810646285
2.016911216115394,-0.7230489013671875,2.5522189697265625,7.7763669921875,8.216355942897295
2.0193981596617756,-0.7565677246093749,2.6144682128906247,8.303091357421874,8.73780091601027
2.021885103208157,-0.70868369140625,2.710236279296875,8.963891015625,9.391429891346938
2.0243720467545385,-0.6655880615234374,2.7150246826171873,9.686939916992188,10.0822205614775
2.02685899030092,-0.6607996582031249,2.70065947265625,10.342951171874999,10.710128697607686
2.0293459338473014,-0.5985504150390625,2.6815058593749996,10.951078393554686,11.290476263426012
2.031832877393683,-0.5363011718749999,2.7054478759765623,11.482591162109374,11.809189936347577
2.0343198209400644,-0.411802685546875,2.6336218261718747,11.865663427734374,12.161394408347487
2.036806764486446,-0.37828386230468747,2.6384102294921874,12.038045947265624,12.329592752724945
2.0392937080328277,-0.2920926025390625,2.5330653564453125,12.033257543945313,12.300448175062494
2.041780651579209,-0.2825157958984375,2.4947581298828125,11.832144604492187,12.09558924745554
2.0442675951255906,-0.2920926025390625,2.39420166015625,11.473014355468749,11.723803908234945
2.046754538671972,-0.2825157958984375,2.360682836914062,10.93671318359375,11.192155015528781
2.0492414822183536,-0.24899697265624998,2.29843359375,10.314220751953124,10.57014409538919
2.0517284257647352,-0.2537853759765625,2.269703173828125,9.624690673828125,9.891947739511119
2.0542153693111165,-0.3016694091796875,2.221819140625,8.954314208984375,9.23077611467757
2.056702312857498,-0.373495458984375,2.269703173828125,8.327033374023436,8.638896698494985
2.0591892564038794,-0.44532150878906246,2.27927998046875,7.781155395507812,8.120332983603328
2.061676199950261,-0.5315127685546874,2.24097275390625,7.364564306640625,7.71629912156935
2.0641631434966423,-0.5506663818359374,2.3032219970703123,7.062894897460937,7.449332142175739
2.066650087043024,-0.5889736083984375,2.389413256835937,7.053318090820312,7.4703066679773125
2.0691370305894057,-0.6655880615234374,2.398990063476562,7.1778165771484375,7.5973160792143375
2.071623974135787,-0.7326257080078125,2.6144682128906247,7.575254052734374,8.047152193647017
2.0741109176821686,-0.7326257080078125,2.6384102294921874,8.030152368164062,8.484179160240185
2.07659786122855,-0.7278373046875,2.6767174560546874,8.542511523437499,8.981595994571627
2.0790848047749315,-0.6751648681640625,2.6958710693359373,9.270348828125,9.677961346110246
2.081571748321313,-0.6751648681640625,2.6719290527343746,9.911994873046874,10.287987890027697
2.0840586918676944,-0.59376201171875,2.7150246826171873,10.625466967773438,10.982916763639125
2.086545635414076,-0.5793968017578125,2.7198130859375,11.18571015625,11.526196058368885
2.0890325789604574,-0.507570751953125,2.6384102294921874,11.559205615234374,11.867353161619198
2.091519522506839,-0.40222587890625,2.6288334228515624,11.865663427734374,12.160037804342403
2.0940064660532203,-0.3399766357421875,2.5857377929687497,12.014103930664062,12.293913831796411
2.096493409599602,-0.3064578125,2.499546533203125,11.947066284179687,12.209588120042097
2.0989803531459836,-0.24899697265624998,2.461239306640625,11.678915698242188,11.938038796368213
2.101467296692365,-0.22505495605468748,2.375048046875,11.228805786132812,11.479441726011734
2.1039542402387466,-0.2154781494140625,2.27927998046875,10.678139404296875,10.920815409109256
2.106441183785128,-0.21068974609375,2.29843359375,9.9981861328125,10.261136053105998
2.1089281273315095,-0.3064578125,2.2649147705078123,9.34696328125,9.622342640414677
2.111415070877891,-0.296881005859375,2.2601263671875,8.662221606445312,8.957141993206552
2.1139020144242724,-0.39743747558593745,2.24097275390625,8.054094384765625,8.369489338631327
2.116388957970654,-0.4740519287109375,2.2457611572265623,7.580042456054687,7.91992500229729
2.1188759015170353,-0.507570751953125,2.2601263671875,7.235277416992187,7.5970414349753
2.121362845063417,-0.584185205078125,2.408566870117187,7.062894897460937,7.485115299996254
2.1238497886097982,-0.6512228515624999,2.437297290039062,7.1395093505859375,7.572126719062022
2.12633673215618,-0.679953271484375,2.528276953125,7.3837179199218745,7.834143930518557
2.1288236757025616,-0.689530078125,2.5570073730468748,7.71890615234375,8.160591315777634
2.131310619248943,-0.7422025146484375,2.5761609863281247,8.245630517578125,8.670518590755991
2.1337975627953245,-0.679953271484375,2.6575638427734374,8.90643017578125,9.319306868318366
2.1362845063417057,-0.699106884765625,2.6719290527343746,9.567229833984374,9.957903493981723
2.1387714498880874,-0.6560112548828124,2.710236279296875,10.256759912109374,10.629057124261013
2.141258393434469,-0.5793968017578125,2.70065947265625,10.8409451171875,11.187285339840342
2.1437453369808503,-0.47884033203125,2.7246014892578123,11.415553515625,11.745961152964195
2.146232280527232,-0.4213794921875,2.6479870361328124,11.789048974609374,12.090122900355562
2.1487192240736133,-0.40222587890625,2.5761609863281247,12.004527124023436,12.284423574452136
2.151206167619995,-0.316034619140625,2.5234885498046875,11.994950317382811,12.261594735513514
2.153693111166376,-0.26815058593749996,2.4899697265625,11.77947216796875,12.042749625060166
2.156180054712758,-0.27293898925781246,2.442085693359375,11.4538607421875,11.714486934005757
2.1586669982591395,-0.2442085693359375,2.365471240234375,10.927136376953124,11.182906662144923
2.161153941805521,-0.2059013427734375,2.365471240234375,10.342951171874999,10.611997384805665
2.1636408853519025,-0.2537853759765625,2.2840683837890623,9.648632690429688,9.918542644648596
2.1661278288982837,-0.32082302246093747,2.231395947265625,8.963891015625,9.243018848039693
2.1686147724446654,-0.39264907226562495,2.1883003173828124,8.303091357421874,8.59558943078964
2.171101715991047,-0.45489831542968745,2.27927998046875,7.785943798828124,8.125452020980527
2.1735886595374283,-0.507570751953125,2.288856787109375,7.3932947265625,7.7561137416848
2.17607560308381,-0.584185205078125,2.360682836914062,7.153874560546875,7.555925955061533
2.178562546630191,-0.622492431640625,2.4133552734375,7.129932543945312,7.552994014593744
2.181049490176573,-0.6751648681640625,2.4756045166015626,7.244854223632812,7.685855713159807
2.1835364337229546,-0.7134720947265625,2.4947581298828125,7.532158422851562,7.966572102448055
2.186023377269336,-0.7661445312499999,2.5809493896484375,8.020575561523437,8.460372895611512
2.1885103208157175,-0.6847416748046875,2.6431986328124997,8.671798413085938,9.091504709943013
2.1909972643620987,-0.7038952880859375,2.6431986328124997,9.313444458007812,9.706812827158453
2.1934842079084804,-0.6847416748046875,2.6910826660156246,10.022128149414062,10.399704309249461
2.1959711514548617,-0.603338818359375,2.6862942626953124,10.63025537109375,10.98100741508704
2.1984580950012433,-0.5506663818359374,2.6910826660156246,11.161768139648437,11.494791315316906
2.200945038547625,-0.49320554199218747,2.6910826660156246,11.631031665039062,11.94847585322592
2.2034319820940063,-0.411802685546875,2.5953145996093747,11.880028637695311,12.167182079480437
2.205918925640388,-0.3399766357421875,2.5953145996093747,11.990161914062499,12.272539456413698
2.208405869186769,-0.3447650390625,2.47081611328125,11.8369330078125,12.09697392860095
2.210892812733151,-0.2825157958984375,2.4133552734375,11.549628808593749,11.80245840776655
2.2133797562795325,-0.2537853759765625,2.384624853515625,11.104307299804686,11.360302958880967
2.2158666998259138,-0.2154781494140625,2.3032219970703123,10.577582934570312,10.82758159232137
2.2183536433722955,-0.26815058593749996,2.2553379638671873,9.883264453125,10.140876210584734
2.2208405869186767,-0.26336218261718747,2.2266075439453124,9.227253198242186,9.495753913115994
2.2233275304650584,-0.354341845703125,2.221819140625,8.571241943359375,8.861615365658054
2.2258144740114396,-0.39264907226562495,2.231395947265625,7.987056738281249,8.302191066697297
2.2283014175578213,-0.4644751220703125,2.31758720703125,7.522581616210937,7.885187491351863
2.230788361104203,-0.5458779785156249,2.3032219970703123,7.201758593749999,7.580774444466003
2.233275304650584,-0.5746083984375,2.384624853515625,7.129932543945312,7.540062903236935
2.235762248196966,-0.679953271484375,2.422932080078125,7.196970190429687,7.624258405773478
2.238249191743347,-0.7230489013671875,2.461239306640625,7.4220251464843745,7.852831076329576
2.240736135289729,-0.7038952880859375,2.5522189697265625,7.8721350585937495,8.305407914531504
2.2432230788361105,-0.6703764648437499,2.6288334228515624,8.379705810546875,8.807930474352696
2.2457100223824917,-0.6847416748046875,2.6815058593749996,9.026140258789061,9.440897881367505
2.2481969659288734,-0.6847416748046875,2.6671406494140624,9.696516723632811,10.079927925171983
2.2506839094752547,-0.6272808349609375,2.6719290527343746,10.314220751953124,10.673136175875195
2.2531708530216363,-0.565031591796875,2.7054478759765623,10.951078393554686,11.294460008833308
2.2556577965680176,-0.49320554199218747,2.6767174560546874,11.415553515625,11.735541321741318
2.2581447401143993,-0.411802685546875,2.6431986328124997,11.822567797851562,12.121435137768227
2.260631683660781,-0.354341845703125,2.6001030029296874,11.927912670898436,12.213156613015316
2.263118627207162,-0.3447650390625,2.4756045166015626,11.927912670898436,12.186984095310756
2.265605570753544,-0.26815058593749996,2.461239306640625,11.726799731445311,11.985300814027042
2.268092514299925,-0.22505495605468748,2.398990063476562,11.324573852539062,11.57807306936329
2.2705794578463068,-0.2442085693359375,2.3319524169921872,10.86009873046875,11.110327823065427
2.2730664013926885,-0.2442085693359375,2.2601263671875,10.122684619140625,10.374803753304418
2.2755533449390697,-0.3016694091796875,2.2457611572265623,9.481038574218749,9.748053141708159
2.2780402884854514,-0.2920926025390625,2.2744915771484373,8.872911352539061,9.164452296400139
2.2805272320318326,-0.3591302490234375,2.2170307373046874,8.21690009765625,8.518312452638767
2.2830141755782143,-0.44532150878906246,2.288856787109375,7.733271362304687,8.077169219542736
2.2855011191245955,-0.5267243652343749,2.3127988037109373,7.311891870117187,7.6870176000620765
2.287988062670977,-0.5458779785156249,2.3511060302734372,7.1203557373046875,7.518320833722394
2.290475006217359,-0.63206923828125,2.379836450195312,7.144297753906249,7.55672703279201
2.29296194976374,-0.6751648681640625,2.5330653564453125,7.359775903320312,7.812718415911374
2.295448893310122,-0.7038952880859375,2.4564509033203126,7.656656909179687,8.071803679593664
2.297935836856503,-0.7613561279296874,2.6048914062499997,8.169016064453125,8.608016371568098
2.3004227804028847,-0.689530078125,2.6384102294921874,8.743624462890624,9.159018998549323
2.3029097239492664,-0.699106884765625,2.7150246826171873,9.471461767578125,9.877686848561327
2.3053966674956476,-0.6943184814453125,2.6623522460937497,10.1131078125,10.480703567185053
2.3078836110420293,-0.59376201171875,2.70065947265625,10.759542260742187,11.109179293471923
2.3103705545884106,-0.5506663818359374,2.6862942626953124,11.286266625976562,11.614612549823022
2.3128574981347922,-0.4740519287109375,2.6479870361328124,11.659762084960937,11.966060857798384
2.315344441681174,-0.45489831542968745,2.5857377929687497,11.875240234375,12.162002427046561
2.317831385227555,-0.3495534423828125,2.50912333984375,11.961431494140625,12.226762896721663
2.320318328773937,-0.28730419921875,2.4516625,11.812990991210937,12.068137755065019
2.322805272320318,-0.24899697265624998,2.418143676757812,11.482591162109374,11.737091553276223
2.3252922158666998,-0.2059013427734375,2.384624853515625,11.03248125,11.289130771966542
2.327779159413081,-0.27293898925781246,2.3319524169921872,10.419565624999999,10.68081670944008
2.3302661029594627,-0.258573779296875,2.2649147705078123,9.734823950195311,9.998174666322877
2.3327530465058444,-0.27293898925781246,2.2553379638671873,9.064447485351561,9.344798191390433
2.3352399900522256,-0.2920926025390625,2.2649147705078123,8.461108666992187,8.763875676934994
2.3377269335986073,-0.4165910888671875,2.2361843505859373,7.8529814453124995,8.175780462166985
2.3402138771449885,-0.4644751220703125,2.2744915771484373,7.4603323730468745,7.81316889551689
2.34270082069137,-0.5746083984375,2.327164013671875,7.220912207031249,7.608379608020174
2.345187764237752,-0.6416460449218749,2.389413256835937,7.096413720703125,7.515323882195016
2.347674707784133,-0.6943184814453125,2.4516625,7.196970190429687,7.634730321990181
2.350161651330515,-0.6943184814453125,2.50912333984375,7.5465236328125,7.9829691862628875
2.352648594876896,-0.6703764648437499,2.6144682128906247,8.044517578125,8.485229030827277
2.3551355384232777,-0.6847416748046875,2.6767174560546874,8.556876733398436,8.991875606976427
2.357622481969659,-0.679953271484375,2.6815058593749996,9.251195214843749,9.655952725050629
2.3601094255160406,-0.6751648681640625,2.7198130859375,9.897629663085937,10.28670519501937
2.3625963690624223,-0.63206923828125,2.6910826660156246,10.558429321289061,10.914296457855988
2.3650833126088036,-0.5746083984375,2.6623522460937497,11.118672509765624,11.447408993883862
2.3675702561551852,-0.4644751220703125,2.6479870361328124,11.573570825195311,11.881713434028013
2.3700571997015665,-0.43574470214843747,2.6001030029296874,11.865663427734374,12.1550145064318
2.372544143247948,-0.3399766357421875,2.5617957763671875,11.966219897460936,12.242091338780861
2.37503108679433,-0.296881005859375,2.5234885498046875,11.903970654296874,12.172125949520757
2.377518030340711,-0.2920926025390625,2.43250888671875,11.616666455078125,11.872209444790009
2.3800049738870928,-0.258573779296875,2.389413256835937,11.233594189453123,11.487810693278252
2.382491917433474,-0.22505495605468748,2.3127988037109373,10.587159741210938,10.839171528562927
2.3849788609798557,-0.26815058593749996,2.24097275390625,9.9215716796875,10.175040452777857
2.387465804526237,-0.3016694091796875,2.2601263671875,9.332598071289063,9.607109991476069
2.3899527480726186,-0.32082302246093747,2.2601263671875,8.662221606445312,8.957967501981972
2.3924396916190003,-0.373495458984375,2.269703173828125,8.10197841796875,8.422179387806866
2.3949266351653815,-0.5027823486328125,2.2840683837890623,7.6087728759765625,7.960099443481731
2.397413578711763,-0.5363011718749999,2.384624853515625,7.240065820312499,7.641505592579005
2.3999005222581444,-0.6081272216796875,2.370259643554687,7.125144140624999,7.533633155410119
2.402387465804526,-0.679953271484375,2.4133552734375,7.1778165771484375,7.603135599370684
2.404874409350908,-0.7134720947265625,2.50912333984375,7.455543969726562,7.89872636879062
2.407361352897289,-0.689530078125,2.5570073730468748,7.819462622070312,8.255769748025308
2.4098482964436707,-0.737414111328125,2.6192566162109374,8.360552197265624,8.79221916448593
2.412335239990052,-0.7038952880859375,2.6575638427734374,9.02135185546875,9.430954535738985
2.4148221835364336,-0.6464344482421874,2.7054478759765623,9.6917283203125,10.083001712796026
2.417309127082815,-0.6368576416015624,2.6767174560546874,10.347739575195313,10.707292762938605
2.4197960706291965,-0.5746083984375,2.7150246826171873,10.946289990234375,11.292599275148337
2.4222830141755782,-0.488417138671875,2.6958710693359373,11.473014355468749,11.795606407668192
2.4247699577219595,-0.45968671875,2.6575638427734374,11.8369330078125,12.140302322811113
2.427256901268341,-0.38786066894531246,2.5570073730468748,11.990161914062499,12.265916408070197
2.4297438448147224,-0.3112462158203125,2.5043349365234375,11.93270107421875,12.196635708580281
2.432230788361104,-0.28730419921875,2.4756045166015626,11.693280908203125,11.95591819241226
2.4347177319074857,-0.28730419921875,2.39420166015625,11.372457885742186,11.625297572766183
2.437204675453867,-0.26336218261718747,2.308010400390625,10.817003100585938,11.063626337039315
2.4396916190002487,-0.2442085693359375,2.2840683837890623,10.223241088867187,10.47813268518128
2.44217856254663,-0.296881005859375,2.1978771240234374,9.524134204101562,9.77895365167884
2.4446655060930116,-0.33518823242187495,2.2361843505859373,8.8489693359375,9.133297866013224
2.4471524496393933,-0.37828386230468747,2.2266075439453124,8.25520732421875,8.558582113940908
2.4496393931857745,-0.44053310546874996,2.2553379638671873,7.714117749023437,8.04911370239438
2.452126336732156,-0.5123591552734374,2.269703173828125,7.331045483398437,7.691442795791606
2.4546132802785374,-0.5458779785156249,2.422932080078125,7.144297753906249,7.563701013959363
2.457100223824919,-0.622492431640625,2.427720483398437,7.153874560546875,7.580187649458418
2.4595871673713003,-0.6607996582031249,2.4516625,7.321468676757812,7.749271500401402
2.462074110917682,-0.718260498046875,2.5139117431640625,7.666233715820312,8.099801835912583
2.4645610544640637,-0.74699091796875,2.5617957763671875,8.169016064453125,8.593812686615514
2.467047998010445,-0.679953271484375,2.6527754394531247,8.777143286132812,9.194443879260687
2.4695349415568266,-0.6703764648437499,2.6767174560546874,9.4618849609375,9.856038147155251
2.472021885103208,-0.6464344482421874,2.6527754394531247,10.117896215820313,10.479833913862896
2.4745088286495895,-0.6560112548828124,2.6958710693359373,10.74517705078125,11.097607915296496
2.4769957721959712,-0.5363011718749999,2.70065947265625,11.281478222656249,11.612619490126662
2.4794827157423525,-0.4644751220703125,2.6671406494140624,11.702857714843748,12.011921373229885
2.481969659288734,-0.43574470214843747,2.6001030029296874,11.903970654296874,12.192412657454453
2.4844566028351154,-0.354341845703125,2.518700146484375,11.999738720703125,12.266341668837477
2.486943546381497,-0.26815058593749996,2.5139117431640625,11.8369330078125,12.103910112876658
2.4894304899278783,-0.258573779296875,2.437297290039062,11.525686791992188,11.783409290458971
2.49191743347426,-0.2442085693359375,2.3127988037109373,10.984597216796875,11.228092097371016
2.4944043770206417,-0.258573779296875,2.2936451904296873,10.409988818359375,10.66281087974875
2.496891320567023,-0.28730419921875,2.2457611572265623,9.782707983398437,10.041282904422314
2.4993782641134046,-0.28730419921875,2.27927998046875,9.102754711914063,9.388173639080607
2.501865207659786,-0.37828386230468747,2.1835119140624997,8.418013037109375,8.70481283269643
2.5043521512061675,-0.4070142822265625,2.2601263671875,7.896077075195312,8.223251485818583
2.506839094752549,-0.5027823486328125,2.2936451904296873,7.431601953125,7.7937350442114255
2.5093260382989304,-0.565031591796875,2.3032219970703123,7.220912207031249,7.6003727125168
2.511812981845312,0.7038952880859375,1.4939818359375,11.286266625976562,11.40645714739389
2.5142999253916933,0.36391865234375,1.2880804931640624,6.9910688476562495,7.118049717096892
2.516786868938075,0.0383072265625,1.1635820068359375,3.23696064453125,3.4399570846862937
2.5192738124844563,-0.44532150878906246,1.1635820068359375,0.0430956298828125,1.2466320893260814
2.521760756030838,-0.8283937744140625,1.3311761230468748,-2.1212626708984375,2.6378061784379185
2.5242476995772196,-1.16837041015625,1.5035586425781249,-3.2609026611328122,3.776144087873649
2.526734643123601,-1.4508862060546874,1.7812860351562498,-3.308786694335937,4.028165849437802
2.5292215866699825,-1.62805712890625,2.059013427734375,-2.375048046875,3.5399095377619005
2.5317085302163638,-1.7429788085937499,2.3223756103515623,-0.44532150878906246,2.9376376306401113
2.5341954737627455,-1.695094775390625,2.6384102294921874,2.0925322509765625,3.770045896010107
2.536682417309127,-1.5705962890624998,2.9640216552734375,5.137956762695312,6.136024508708654
2.5391693608555084,-1.3646949462890625,3.1747114013671873,8.418013037109375,9.099677371827044
2.54165630440189,-1.120486376953125,3.2609026611328122,11.496956372070311,12.002873893680993
2.5441432479482713,-0.7757213378906249,3.394977954101562,14.326902734374999,14.744075449587752
2.546630191494653,-0.507570751953125,3.366247534179687,16.610971118164063,16.956226349577012
2.549117135041034,-0.22505495605468748,3.289633081054687,18.157625390625,18.454584670685055
2.551604078587416,0.0430956298828125,3.1268273681640624,18.971653955078125,19.22765093335237
2.5540910221337976,0.277727392578125,2.9640216552734375,18.966865551757813,19.199076689673788
2.556577965680179,0.39264907226562495,2.710236279296875,18.176779003906248,18.381916356583037
2.5590649092265605,0.39743747558593745,2.50912333984375,16.764200024414063,16.95559078711542
2.5615518527729417,0.4213794921875,2.2936451904296873,14.820108276367186,15.002465739313141
2.5640387963193234,0.316034619140625,2.0829554443359375,12.54561669921875,12.721284511687506
2.566525739865705,0.1484405029296875,1.9297265380859374,10.160991845703125,10.343676057531411
2.5690126834120863,-0.0383072265625,1.8339584716796873,7.862558251953125,8.073703820726196
2.571499626958468,-0.258573779296875,1.7956512451171873,5.774814404296874,6.053074028748156
2.5739865705048492,-0.49320554199218747,1.7956512451171873,4.146757275390625,4.545680477304558
2.576473514051231,-0.6751648681640625,1.886630908203125,3.0454245117187497,3.6455224919848908
2.5789604575976126,-0.8954314208984374,1.9967641845703124,2.5426421630859375,3.3546823706302322
2.581447401143994,-1.01514150390625,2.1404162841796874,2.6192566162109374,3.5316284295066196
2.5839343446903755,-1.139639990234375,2.3415292236328122,3.246537451171875,4.161915885061766
2.5864212882367568,-1.1923124267578125,2.47081611328125,4.414907861328125,5.197879626604318
2.5889082317831384,-1.139639990234375,2.6288334228515624,5.908889697265625,6.566926368316818
2.5913951753295197,-1.0726023437499999,2.7724855224609373,7.637503295898437,8.195645694814594
2.5938821188759014,-0.9720458740234375,2.85388837890625,9.375693701171874,9.848511788014273
2.596369062422283,-0.7996633544921875,2.920926025390625,11.128249316406249,11.532961595982972
2.5988560059686643,-0.6416460449218749,2.9735984619140625,12.574347119140624,12.937086338596558
2.601342949515046,-0.43574470214843747,2.9544448486328125,13.7906015625,14.110255464189542
2.603829893061427,-0.27293898925781246,2.858676782226562,14.53759248046875,14.81850612461593
2.606316836607809,-0.1388636962890625,2.77727392578125,14.839261889648437,15.097556988286017
2.6088037801541906,-0.033518823242187495,2.70065947265625,14.686032983398437,14.93232232066487
2.611290723700572,-0.0143652099609375,2.5426421630859375,14.073117358398436,14.300974362329825
2.6137776672469535,0.062249243164062495,2.4516625,13.148955517578123,13.375707651762912
2.6162646107933347,0.05746083984375,2.3319524169921872,11.937489477539062,12.16326267288457
2.6187515543397164,-0.062249243164062495,2.221819140625,10.59194814453125,10.822648509415849
2.6212384978860976,-0.1149216796875,2.1978771240234374,9.251195214843749,9.509389241582006
2.6237254414324793,-0.2920926025390625,2.1116858642578125,7.934384301757812,8.215776866842546
2.626212384978861,-0.4165910888671875,2.1308394775390624,6.909665991210937,7.242755630591129
2.6286993285252422,-0.5746083984375,2.1452046874999997,5.980715747070312,6.3797365784240405
2.631186272071624,-0.6751648681640625,2.221819140625,5.5641246582031245,6.02924631317005
2.633673215618005,-0.7900865478515624,2.231395947265625,5.482721801757812,5.971901119579918
2.636160159164387,-0.8810662109374999,2.384624853515625,5.679046337890624,6.222080091735327
2.6386471027107685,-0.8954314208984374,2.4756045166015626,6.248866333007812,6.780762906926385
2.6411340462571498,-0.9145850341796874,2.5426421630859375,7.058106494140625,7.557669100779543
2.6436209898035314,-0.8858546142578124,2.6144682128906247,8.0828248046875,8.541208301937663
2.6461079333499127,-0.8092401611328125,2.710236279296875,9.126696728515624,9.554938173651623
2.6485948768962944,-0.7565677246093749,2.7341782958984373,10.237606298828124,10.623403805065868
2.6510818204426756,-0.63206923828125,2.7533319091796873,11.176133349609374,11.527632227493179
2.6535687639890573,-0.4740519287109375,2.7054478759765623,12.042834350585936,12.352086165356573
2.656055707535439,-0.39743747558593745,2.7246014892578123,12.550405102539061,12.84889404034855
2.65854265108182,-0.3064578125,2.6288334228515624,12.808978881835937,13.079549745739062
2.661029594628202,-0.2154781494140625,2.5570073730468748,12.770671655273437,13.025926917708981
2.663516538174583,-0.17238251953125,2.5378537597656248,12.526463085937499,12.78212403641708
2.666003481720965,-0.1388636962890625,2.442085693359375,11.903970654296874,12.152678017549002
2.6684904252673465,-0.1484405029296875,2.35589443359375,11.195286962890624,11.44144760712633
2.6709773688137277,-0.201112939453125,2.29843359375,10.328585961914062,10.58314373765859
2.6734643123601094,-0.239420166015625,2.3127988037109373,9.404424121093749,9.687597915466538
2.6759512559064906,-0.316034619140625,2.1978771240234374,8.489839086914062,8.775415058816003
2.6784381994528723,-0.44053310546874996,2.212242333984375,7.790732202148437,8.110708588457559
2.6809251429992536,-0.5267243652343749,2.250549560546875,7.249642626953125,7.609187216775855
2.6834120865456352,-0.6368576416015624,2.31758720703125,6.833051538085937,7.243437819157406
2.685899030092017,-0.6655880615234374,2.3511060302734372,6.751648681640624,7.180213572974709
2.688385973638398,-0.7230489013671875,2.461239306640625,6.9144543945312495,7.3749697092512605
2.69087291718478,-0.7948749511718749,2.47081611328125,7.240065820312499,7.691249023150144
2.693359860731161,-0.7996633544921875,2.5809493896484375,7.829039428710937,8.28218688564529
2.6958468042775428,-0.7948749511718749,2.5522189697265625,8.44674345703125,8.859634466857695
2.6983337478239244,-0.7134720947265625,2.6767174560546874,9.337386474609374,9.739642957815212
2.7008206913703057,-0.689530078125,2.6240450195312497,10.089165795898436,10.447599267309823
2.7033076349166874,-0.622492431640625,2.6336218261718747,10.831368310546875,11.16431817127485
2.7057945784630686,-0.49320554199218747,2.6431986328124997,11.429918725585937,11.741924577881333
2.7082815220094503,-0.4261678955078125,2.6288334228515624,11.789048974609374,12.08611020825151
2.7107684655558315,-0.373495458984375,2.5809493896484375,12.042834350585936,12.321958359183867
2.713255409102213,-0.27293898925781246,2.5043349365234375,12.028469140624999,12.289436888365424
2.715742352648595,-0.2442085693359375,2.4516625,11.827356201171874,12.081251654884197
2.718229296194976,-0.201112939453125,2.403778466796875,11.415553515625,11.667624411162286
2.720716239741358,-0.2059013427734375,2.389413256835937,10.8409451171875,11.10305282833378
2.723203183287739,-0.2537853759765625,2.288856787109375,10.165780249023436,10.42335648821392
2.7256901268341207,-0.3016694091796875,2.2553379638671873,9.423577734375,9.694398954009664
2.7281770703805024,-0.32082302246093747,2.2744915771484373,8.748412866210938,9.044941515783572
2.7306640139268836,-0.430956298828125,2.24097275390625,8.116343627929687,8.431056642075454
2.7331509574732653,-0.45010991210937495,2.3127988037109373,7.6087728759765625,7.965240857477099
2.7356379010196465,-0.5506663818359374,2.3223756103515623,7.268796240234375,7.650624858250825
2.7381248445660282,-0.622492431640625,2.346317626953125,7.153874560546875,7.554510206627597
2.74061178811241,-0.689530078125,2.43250888671875,7.220912207031249,7.65075972137785
2.743098731658791,-0.7661445312499999,2.43250888671875,7.498639599609374,7.920459126310785
2.745585675205173,-0.718260498046875,2.5665841796874997,7.977479931640625,8.410911874119572
2.748072618751554,-0.7230489013671875,2.6240450195312497,8.566453540039062,8.988466956714188
2.7505595622979357,-0.6943184814453125,2.6240450195312497,9.179369165039063,9.572278134606893
2.753046505844317,-0.6464344482421874,2.6479870361328124,9.911994873046874,10.279949182885543
2.7555334493906987,-0.6464344482421874,2.70065947265625,10.59194814453125,10.949922583267934
2.7580203929370803,-0.584185205078125,2.6671406494140624,11.113884106445312,11.444358065400031
2.7605073364834616,-0.43574470214843747,2.6527754394531247,11.573570825195311,11.881693171574
2.7629942800298433,-0.38786066894531246,2.6192566162109374,11.851298217773437,12.143484284449801
2.7654812235762245,-0.33039982910156246,2.5378537597656248,11.908759057617187,12.180657126994678
2.767968167122606,-0.26815058593749996,2.4660277099609376,11.769895361328125,12.028451031601996
2.770455110668988,-0.239420166015625,2.422932080078125,11.4538607421875,11.709775735768412
2.772942054215369,-0.22026655273437498,2.403778466796875,10.960655200195312,11.223307475484148
2.775428997761751,-0.258573779296875,2.2744915771484373,10.338162768554687,10.588568447292078
2.777915941308132,-0.2825157958984375,2.2936451904296873,9.753977563476562,10.024006272110844
2.7804028848545137,-0.296881005859375,2.308010400390625,9.0788126953125,9.372293758548054
2.782889828400895,-0.4165910888671875,2.269703173828125,8.40843623046875,8.719340598604262
2.7853767719472766,-0.4261678955078125,2.2649147705078123,7.886500268554687,8.216346175687777
2.7878637154936583,-0.507570751953125,2.2744915771484373,7.445967163085937,7.802138616848042
2.7903506590400395,-0.584185205078125,2.31758720703125,7.287949853515625,7.669856314389826
2.792837602586421,-0.6512228515624999,2.39420166015625,7.235277416992187,7.648890906054895
2.7953245461328025,-0.718260498046875,2.4660277099609376,7.3837179199218745,7.8177030597436445
2.797811489679184,-0.7326257080078125,2.499546533203125,7.771578588867187,8.196456982295498
2.800298433225566,-0.718260498046875,2.6001030029296874,8.202534887695313,8.634698162226476
2.802785376771947,-0.718260498046875,2.5809493896484375,8.882488159179687,9.277704122947041
2.8052723203183287,-0.699106884765625,2.6719290527343746,9.519345800781249,9.911906969600972
2.80775926386471,-0.6416460449218749,2.6671406494140624,10.156203442382813,10.520162415751443
2.8102462074110917,-0.59376201171875,2.6575638427734374,10.773907470703124,11.112708089941425
2.812733150957473,-0.55545478515625,2.6384102294921874,11.3006318359375,11.61783191687873
2.8152200945038546,-0.4644751220703125,2.5905261962890624,11.659762084960937,11.953100643371775
2.8177070380502363,-0.38786066894531246,2.528276953125,11.865663427734374,12.138228405763783
2.8201939815966175,-0.3447650390625,2.5139117431640625,11.841721411132811,12.110531828266636
2.822680925142999,-0.2825157958984375,2.4660277099609376,11.674127294921874,11.935089272362701
2.8251678686893804,-0.2537853759765625,2.4133552734375,11.324573852539062,11.581652025272543
2.827654812235762,-0.2442085693359375,2.3367408203125,10.855310327148437,11.106653761837872
2.8301417557821438,-0.24899697265624998,2.3127988037109373,10.218452685546874,10.479876577784628
2.832628699328525,-0.2920926025390625,2.2074539306640624,9.519345800781249,9.776303770818185
2.8351156428749067,-0.33518823242187495,2.2601263671875,8.892064965820312,9.180922704346184
2.837602586421288,-0.373495458984375,2.31758720703125,8.288726147460936,8.614736819408906
2.8400895299676696,-0.488417138671875,2.27927998046875,7.766790185546874,8.10905039551619
2.842576473514051,-0.5267243652343749,2.327164013671875,7.4220251464843745,7.796126485538017
2.8450634170604325,-0.6081272216796875,2.360682836914062,7.268796240234375,7.666683830463721
2.847550360606814,-0.6464344482421874,2.379836450195312,7.240065820312499,7.648532676795576
2.8500373041531954,-0.737414111328125,2.5043349365234375,7.4028715332031245,7.849712095547638
2.852524247699577,-0.6847416748046875,2.5330653564453125,7.762001782226562,8.193531773815616
2.8550111912459584,-0.74699091796875,2.5857377929687497,8.312668164062499,8.737533254376368
2.85749813479234,-0.7134720947265625,2.6431986328124997,8.8872765625,9.299420742219228
2.8599850783387217,-0.6847416748046875,2.6815058593749996,9.576806640625,9.968679464552759
2.862472021885103,-0.689530078125,2.6671406494140624,10.232817895507813,10.59715306367804
2.8649589654314846,-0.5889736083984375,2.7198130859375,10.845733520507812,11.19706250458992
2.867445908977866,-0.5219359619140624,2.6288334228515624,11.324573852539062,11.637403286603591
2.8699328525242476,-0.5027823486328125,2.6240450195312497,11.669338891601562,11.971293686217386
2.8724197960706292,-0.38786066894531246,2.5761609863281247,11.870451831054687,12.152969513636714
2.8749067396170105,-0.33518823242187495,2.5234885498046875,11.85608662109375,12.126299335701214
2.877393683163392,-0.3016694091796875,2.499546533203125,11.693280908203125,11.961252263129904
2.8798806267097734,-0.26336218261718747,2.39420166015625,11.353304272460937,11.605993241933566
2.882367570256155,-0.239420166015625,2.3511060302734372,10.793061083984375,11.04876414555497
2.8848545138025363,-0.26815058593749996,2.3032219970703123,10.194510668945313,10.454892829855645
2.887341457348918,-0.26815058593749996,2.212242333984375,9.572018237304688,9.827993387070668
2.8898284008952997,-0.354341845703125,2.212242333984375,8.8872765625,9.165329180463228
2.892315344441681,-0.36391865234375,2.269703173828125,8.317456567382813,8.629256806533727
2.8948022879880626,-0.411802685546875,2.29843359375,7.7763669921875,8.11937571700469
2.897289231534444,-0.55545478515625,2.27927998046875,7.4028715332031245,7.765703714720758
2.8997761750808255,-0.5985504150390625,2.365471240234375,7.220912207031249,7.622026626125908
2.902263118627207,-0.6607996582031249,2.437297290039062,7.220912207031249,7.649748189971095
2.9047500621735884,-0.6703764648437499,2.480392919921875,7.345410693359375,7.781825743097388
2.90723700571997,-0.7278373046875,2.499546533203125,7.714117749023437,8.14156573759255
2.9097239492663514,-0.7326257080078125,2.5665841796874997,8.188169677734374,8.612213272488365
2.912210892812733,-0.70868369140625,2.6527754394531247,8.805873706054687,9.224037176508787
2.9146978363591143,-0.689530078125,2.6958710693359373,9.4618849609375,9.862577734301352
2.917184779905496,-0.6655880615234374,2.710236279296875,10.13226142578125,10.509572291850615
2.9196717234518776,-0.6081272216796875,2.7150246826171873,10.764330664062498,11.118093019499549
2.922158666998259,-0.5746083984375,2.6527754394531247,11.252747802734374,11.575479491393171
2.9246456105446406,-0.4836287353515625,2.6288334228515624,11.654973681640625,11.95755298706616
2.927132554091022,-0.39743747558593745,2.5761609863281247,11.860875024414062,12.143925161135032
2.9296194976374035,-0.33039982910156246,2.5234885498046875,11.947066284179687,12.215136155878442
2.932106441183785,-0.33039982910156246,2.4899697265625,11.7603185546875,12.025564676720805
2.9345933847301664,-0.28730419921875,2.384624853515625,11.429918725585937,11.679555705093973
2.937080328276548,-0.24899697265624998,2.346317626953125,10.965443603515624,11.21642364217867
2.9395672718229293,-0.2442085693359375,2.2553379638671873,10.32379755859375,10.57009854199212
2.942054215369311,-0.26815058593749996,2.269703173828125,9.677363110351562,9.9435815480951
2.9445411589156922,-0.3399766357421875,2.2026655273437497,8.992621435546875,9.26469426485603
2.947028102462074,-0.36391865234375,2.2649147705078123,8.394071020507813,8.701879337276358
2.9495150460084556,-0.4165910888671875,2.269703173828125,7.857769848632812,8.189606072741958
2.952001989554837,-0.49320554199218747,2.2936451904296873,7.431601953125,7.793123093851678
2.9544889331012185,-0.565031591796875,2.2936451904296873,7.206546997070312,7.583824139594277
2.9569758766475998,-0.7996633544921875,2.6910826660156246,7.235277416992187,7.760839303624615
2.9594628201939814,-0.689530078125,2.418143676757812,7.311891870117187,7.73218166434084
2.961949763740363,-0.7517793212890624,2.50912333984375,7.6231380859375,8.060589702976907
2.9644367072867444,-0.7038952880859375,2.5426421630859375,8.039729174804688,8.461544950557053
2.966923650833126,-0.7326257080078125,2.6671406494140624,8.67658681640625,9.106785297481519
2.9694105943795073,-0.718260498046875,2.6910826660156246,9.299079248046874,9.707249812374272
2.971897537925889,-0.6368576416015624,2.7054478759765623,9.988609326171874,10.368092984545429
2.97438448147227,-0.5889736083984375,2.6862942626953124,10.649408984374999,10.998771681131787
2.976871425018652,-0.5458779785156249,2.6910826660156246,11.195286962890624,11.527114073532317
2.9793583685650336,-0.5027823486328125,2.6719290527343746,11.6070896484375,11.92126356808739
2.981845312111415,-0.39264907226562495,2.6192566162109374,11.9135474609375,12.204396405374833
2.9843322556577965,-0.33039982910156246,2.6001030029296874,11.927912670898436,12.212485429161985
2.9868191992041777,-0.33518823242187495,2.4756045166015626,11.85608662109375,12.116425167542214
2.9893061427505594,-0.2920926025390625,2.427720483398437,11.535263598632811,11.791583910735385
2.991793086296941,-0.22505495605468748,2.379836450195312,11.142614526367186,11.396145389829494
2.9942800298433223,-0.2825157958984375,2.2649147705078123,10.539275708007812,10.783598033216936
2.996766973389704,-0.296881005859375,2.2936451904296873,9.868899243164062,10.136277367107981
2.9992539169360852,-0.354341845703125,2.231395947265625,9.222464794921875,9.495185248886044
3.001740860482467,-0.2059013427734375,4.027047192382812,9.682151513671874,10.488258310431373
3.0042278040288486,-0.430956298828125,3.9983167724609374,9.591171850585937,10.400136432370209
3.00671474757523,-0.5793968017578125,3.9887399658203124,9.595960253906249,10.408083414508546
3.0092016911216115,-0.7709329345703124,3.912125512695312,9.624690673828125,10.417952494783265
3.0116886346679927,-0.9433154541015625,3.84987626953125,9.648632690429688,10.431083555004012
3.0141755782143744,-1.120486376953125,3.7158009765625,9.667786303710937,10.41771369507634
3.0166625217607557,-1.235408056640625,3.4668040039062498,9.624690673828125,10.30435022865523
3.0191494653071373,-1.4173673828125,3.318363500976562,9.662997900390625,10.314746484787099
3.021636408853519,-1.5322890624999999,3.1124621582031247,9.648632690429688,10.253362533926712
3.0241233523999003,-1.599326708984375,2.882618798828125,9.672574707031249,10.218905935790227
3.026610295946282,-1.6711527587890624,2.6862942626953124,9.610325463867188,10.117671863153703
3.029097239492663,-1.6807295654296874,2.418143676757812,9.619902270507811,10.060556167910132
3.031584183039045,-1.7094599853515624,2.1930887207031247,9.610325463867188,10.004511337384125
3.0340711265854265,-1.695094775390625,1.9871873779296874,9.648632690429688,9.995917805153667
3.036558070131808,-1.62805712890625,1.7812860351562498,9.562441430664062,9.862242953248805
3.0390450136781895,-1.4891934326171874,1.637633935546875,9.581595043945311,9.833946591921386
3.0415319572245707,-1.39821376953125,1.4604630126953124,9.557653027343749,9.769170146325171
3.0440189007709524,-1.2737152832031249,1.2689268798828124,9.552864624023437,9.720583756857033
3.0465058443173336,-1.0917559570312498,1.22583125,9.533711010742186,9.673998085566101
3.0489927878637153,-0.948103857421875,1.16837041015625,9.528922607421874,9.646986907735629
3.051479731410097,-0.7565677246093749,1.139639990234375,9.495403784179686,9.593428326405316
3.0539666749564782,-0.5219359619140624,1.1635820068359375,9.495403784179686,9.580659333239305
3.05645361850286,-0.3591302490234375,1.2018892333984375,9.481038574218749,9.563660633405318
3.058940562049241,-0.1388636962890625,1.3024457031249999,9.485826977539062,9.575832150969632
3.061427505595623,0.0430956298828125,1.4508862060546874,9.481038574218749,9.591507726215866
3.0639144491420045,0.2346317626953125,1.5801730957031248,9.442731347656249,9.576908393654994
3.0664013926883857,0.3447650390625,1.7621324218749999,9.447519750976562,9.616631585408431
3.0688883362347674,0.49320554199218747,1.9488801513671874,9.442731347656249,9.654354502246889
3.0713752797811487,0.6368576416015624,2.1547814941406247,9.414000927734374,9.678433985441078
3.0738622233275303,0.6655880615234374,2.365471240234375,9.466673364257812,9.780407263584006
3.0763491668739116,0.7326257080078125,2.5953145996093747,9.481038574218749,9.857103567722284
3.0788361104202933,0.737414111328125,2.85388837890625,9.514557397460937,9.96068576556959
3.081323053966675,0.718260498046875,2.9735984619140625,9.533711010742186,10.012483787357612
3.083809997513056,0.6368576416015624,3.2034418212890623,9.504980590820312,10.050486714081112
3.086296941059438,0.5602431884765625,3.39018955078125,9.572018237304688,10.170092957085215
3.088783884605819,0.4261678955078125,3.4763808105468748,9.600748657226562,10.219648594464378
3.091270828152201,0.26336218261718747,3.5529952636718747,9.548076220703125,10.191118412581817
3.0937577716985825,0.11013327636718749,3.6535517333984373,9.605537060546874,10.277495406407224
3.0962447152449637,-0.0718260498046875,3.7014357666015623,9.605537060546874,10.294276464970588
3.0987316587913454,-0.24899697265624998,3.6918589599609373,9.624690673828125,10.311473834496692
3.1012186023377266,-0.488417138671875,3.6104561035156246,9.65342109375,10.318065874475657
3.1037055458841083,-0.6512228515624999,3.6200329101562496,9.619902270507811,10.299089725171486
3.1061924894304895,-0.8571241943359375,3.447650390625,9.658209497070311,10.290868077562353
3.108679432976871,-1.0582371337890624,3.337517114257812,9.643844287109374,10.25975725606147
3.111166376523253,-1.2210428466796874,3.2225954345703123,9.672574707031249,10.26814337801346
3.113653320069634,-1.3838485595703125,3.0262708984374997,9.682151513671874,10.23803742522233
3.116140263616016,-1.5227122558593749,2.8203695556640622,9.624690673828125,10.144348555305813
3.118627207162397,-1.599326708984375,2.6240450195312497,9.686939916992188,10.162689759213068
3.1211141507087787,-1.70467158203125,2.422932080078125,9.658209497070311,10.102351991321417
3.1236010942551604,-1.675941162109375,2.221819140625,9.634267480468749,10.028178745800146
3.1260880378015417,-1.6807295654296874,2.0829554443359375,9.600748657226562,9.966841527506888
3.1285749813479233,-1.6807295654296874,1.8818425048828125,9.629479077148437,9.954549230504242
3.1310619248943046,-1.6328455322265625,1.7094599853515624,9.586383447265625,9.873559923940238
3.1335488684406863,-1.47482822265625,1.6136919189453125,9.572018237304688,9.818485271716119
3.136035811987068,-1.35990654296875,1.484405029296875,9.557653027343749,9.767370960893427
3.138522755533449,-1.1923124267578125,1.3742717529296875,9.562441430664062,9.733987769089403
3.141009699079831,-1.01514150390625,1.35990654296875,9.519345800781249,9.66942617498132
3.143496642626212,-0.82360537109375,1.3215993164062498,9.509768994140625,9.63642344868356
3.1459835861725938,-0.6272808349609375,1.3407529296874998,9.490615380859374,9.605356837295501
3.148470529718975,-0.40222587890625,1.3934253662109375,9.452308154296874,9.562925773666194
3.1509574732653567,-0.201112939453125,1.4413093994140624,9.471461767578125,9.582609624415937
3.1534444168117384,-0.023942016601562498,1.5370774658203123,9.4618849609375,9.585950519907078
3.1559313603581196,0.16280571289062498,1.7381904052734374,9.404424121093749,9.565093028013077
3.1584183039045013,0.32561142578124996,1.8626888916015625,9.423577734375,9.611422892751282
3.1609052474508825,0.5027823486328125,2.04943662109375,9.428366137695312,9.661628671213592
3.163392190997264,0.59376201171875,2.2553379638671873,9.466673364257812,9.749718316103763
3.165879134543646,0.689530078125,2.418143676757812,9.409212524414063,9.739412246109788
3.168366078090027,0.7134720947265625,2.6144682128906247,9.476250170898437,9.856155628216392
3.170853021636409,0.699106884765625,2.7724855224609373,9.4618849609375,9.88446728066806
3.17333996518279,0.7278373046875,2.9448680419921875,9.485826977539062,9.959061621189495
3.1758269087291717,0.6368576416015624,3.189076611328125,9.524134204101562,10.064041416166951
3.178313852275553,0.5602431884765625,3.299209887695312,9.528922607421874,10.099456637440284
3.1808007958219346,0.4261678955078125,3.414131567382812,9.514557397460937,10.117544954391851
3.1832877393683163,0.24899697265624998,3.4668040039062498,9.514557397460937,10.129537598699706
3.1857746829146976,0.1149216796875,3.5817256835937497,9.591171850585937,10.238776456806223
3.1882616264610792,-0.033518823242187495,3.6439749267578123,9.639055883789062,10.304905390597222
3.1907485700074605,-0.258573779296875,3.6248213134765623,9.686939916992188,10.346158461447923
3.193235513553842,-0.4836287353515625,3.6056677001953124,9.648632690429688,10.311685076296596
3.195722457100224,-0.6847416748046875,3.5482068603515624,9.667786303710937,10.321082070174668
3.198209400646605,-0.9002198242187499,3.438073583984375,9.667786303710937,10.300331922565814
3.2006963441929868,-1.0821791503906248,3.2800562744140622,9.65342109375,10.252727426890889
3.203183287739368,-1.2641384765625,3.1459809814453124,9.662997900390625,10.240545436962574
3.2056702312857497,-1.4173673828125,3.0358477050781247,9.648632690429688,10.213785506907676
3.208157174832131,-1.5370774658203123,2.8107927490234372,9.667786303710937,10.184756012203538
3.2106441183785126,-1.66636435546875,2.6192566162109374,9.682151513671874,10.167661152912213
3.2131310619248943,-1.7238251953125,2.35589443359375,9.662997900390625,10.094322181760687
