Time (s),Acceleration x (m/s^2),Acceleration y (m/s^2),Acceleration z (m/s^2),Absolute acceleration (m/s^2)
0.0,2.0925322509765625,3.1220389648437497,29.73119621582031,29.967813516220826
0.002486943546381497,1.9488801513671874,3.5960908935546874,30.008923608398437,30.286391328347342
0.004973887092762994,1.5849614990234373,3.9695863525390624,28.323405639648435,28.644109792271774
0.007460830639144491,1.0438719238281249,4.228160131835938,24.918850878906248,25.29656371563083
0.009947774185525988,0.37828386230468747,4.367023828124999,20.202273608398436,20.672345167989132
0.012434717731907486,-0.3064578125,4.376600634765625,14.666879370117186,15.30901368359968
0.014921661278288981,-0.967257470703125,4.242525341796875,8.872911352539061,9.882467513755675
0.01740860482467048,-1.5610194824218748,4.007893579101562,3.39018955078125,5.476621034555026
0.019895548371051976,-2.0063409912109376,3.706224169921875,-1.3024457031249999,4.4111071830454485
0.022382491917433474,-2.27927998046875,3.3327287109375,-4.783614916992187,6.25980587272025
0.02486943546381497,-2.370259643554687,2.920926025390625,-6.7803791015625,7.753933220280773
0.027356379010196465,-2.269703173828125,2.50912333984375,-7.153874560546875,7.913606867912624
0.029843322556577963,-2.0254946044921875,2.1260510742187497,-5.951985327148437,6.636930834173575
0.032330266102959464,-1.6519991455078125,1.7812860351562498,-3.342305517578125,4.131959255442192
0.03481720964934096,-1.1923124267578125,1.5083470458984374,0.37828386230468747,1.9595454611597556
0.03730415319572245,-0.699106884765625,1.3215993164062498,4.797980126953124,5.025533652070124
0.03979109674210395,-0.22505495605468748,1.216254443359375,9.481038574218749,9.561381545051953
0.04227804028848545,0.19632453613281248,1.216254443359375,13.958195678710936,14.012460340699054
0.04476498383486695,0.5267243652343749,1.2976572998046874,17.822437158203122,17.877377304368988
0.04725192738124844,0.718260498046875,1.4604630126953124,20.738574780273435,20.80233963455791
0.04973887092762994,0.7757213378906249,1.6711527587890624,22.462399975585935,22.537832810642424
0.05222581447401144,0.70868369140625,1.93451494140625,22.874202661132813,22.966796207036904
0.05471275802039293,0.5315127685546874,2.24097275390625,21.988348046875,22.108638911914014
0.05719970156677443,0.258573779296875,2.528276953125,19.967641845703124,20.12872985633513
0.059686645113155926,-0.076614453125,2.8107927490234372,17.05150422363281,17.281788736729716
0.062173588659537427,-0.430956298828125,3.0645781249999997,13.551181396484374,13.900067613366215
0.06466053220591893,-0.7709329345703124,3.2609026611328122,9.80665,10.363310666842342
0.06714747575230041,-1.0630255371093749,3.399766357421875,6.157886669921875,7.113930194850509
0.06963441929868192,-1.2880804931640624,3.4763808105468748,2.978386865234375,4.755540265396664
0.07212136284506342,-1.43652099609375,3.4859576171874997,0.5458779785156249,3.8096556075942134
0.0746083063914449,-1.4891934326171874,3.42849677734375,-0.9624690673828125,3.8598748603646955
0.0770952499378264,-1.426944189453125,3.308786694335937,-1.4221557861328125,3.873856758897986
0.0795821934842079,-1.2785036865234374,3.1459809814453124,-0.833182177734375,3.4965641068574485
0.0820691370305894,-1.0869675537109373,2.959233251953125,0.718260498046875,3.233335436563913
0.0845560805769709,-0.8379705810546875,2.7437551025390623,3.0166940917968748,4.16303134757648
0.0870430241233524,-0.5793968017578125,2.5234885498046875,5.84185205078125,6.389908489023895
0.0895299676697339,-0.3447650390625,2.3127988037109373,8.896853369140624,9.19901631211704
0.09201691121611538,-0.1388636962890625,2.1308394775390624,11.851298217773437,12.042135585176984
0.09450385476249688,0.0383072265625,1.9728221679687499,14.451401220703124,14.585489089906295
0.09699079830887838,0.143652099609375,1.8770541015625,16.486472631835937,16.593605631874894
0.09947774185525989,0.17238251953125,1.8291700683593748,17.75539951171875,17.850204219917604
0.10196468540164137,0.1388636962890625,1.8148048583984373,18.181567407226563,18.27244354714872
0.10445162894802287,0.047884033203124995,1.848323681640625,17.779341528320312,17.875222473955525
0.10693857249440437,-0.1005564697265625,1.93451494140625,16.610971118164063,16.72354092740555
0.10942551604078586,-0.277727392578125,2.0542250244140625,14.81053146972656,14.954892690062273
0.11191245958716736,-0.45489831542968745,2.1883003173828124,12.58392392578125,12.780873683997047
0.11439940313354886,-0.6272808349609375,2.346317626953125,10.146626635742187,10.43325067932392
0.11688634667993036,-0.7900865478515624,2.50912333984375,7.747636572265624,8.182041868846216
0.11937329022631185,-0.9145850341796874,2.6575638427734374,5.61200869140625,6.276444289211963
0.12186023377269335,-0.9911994873046874,2.786850732421875,3.9312791259765625,4.919752940420125
0.12434717731907485,-1.01514150390625,2.901772412109375,2.825157958984375,4.175202138561062
0.12683412086545634,-0.9959878906249999,2.9831752685546875,2.389413256835937,3.949762305902887
0.12932106441183785,-0.93852705078125,3.0310593017578125,2.6575638427734374,4.138936952194057
0.13180800795821934,-0.852335791015625,3.0454245117187497,3.5625720703124997,4.763717719743091
0.13429495150460083,-0.7278373046875,3.0262708984374997,4.965574243164062,5.860459901509337
0.13678189505098234,-0.59376201171875,2.9735984619140625,6.72291826171875,7.375125157786099
0.13926883859736383,-0.4740519287109375,2.887407202148437,8.67658681640625,9.156691780592375
0.14175578214374532,-0.3687070556640625,2.7916391357421872,10.620678564453124,10.987629731954836
0.14424272569012683,-0.277727392578125,2.6767174560546874,12.35408056640625,12.643783274217915
0.14672966923650832,-0.22026655273437498,2.5570073730468748,13.747505932617187,13.985017820060664
0.1492166127828898,-0.2059013427734375,2.4516625,14.69082138671875,14.895411286477964
0.15170355632927132,-0.22026655273437498,2.346317626953125,15.088258862304686,15.271191153826878
0.1541904998756528,-0.26336218261718747,2.2553379638671873,14.939818359375,15.111389134742437
0.15667744342203432,-0.33039982910156246,2.2074539306640624,14.274230297851561,14.447687271642408
0.1591643869684158,-0.4165910888671875,2.1691467041015624,13.187262744140623,13.370962726828518
0.1616513305147973,-0.5123591552734374,2.1595698974609374,11.79862578125,12.005574720603304
0.1641382740611788,-0.6081272216796875,2.1787235107421874,10.223241088867187,10.470497276400533
0.1666252176075603,-0.6847416748046875,2.212242333984375,8.652644799804687,8.957184230385911
0.1691121611539418,-0.7422025146484375,2.2744915771484373,7.235277416992187,7.62059156549587
0.1715991047003233,-0.7805097412109374,2.3415292236328122,6.066907006835937,6.549756880285454
0.1740860482467048,-0.7852981445312499,2.427720483398437,5.276820458984375,5.861344050443775
0.17657299179308628,-0.7805097412109374,2.518700146484375,4.92247861328125,5.58424941977316
0.1790599353394678,-0.7565677246093749,2.6001030029296874,4.99909306640625,5.685407798421818
0.18154687888584928,-0.699106884765625,2.6815058593749996,5.492298608398437,6.1517938939795895
0.18403382243223076,-0.6368576416015624,2.73896669921875,6.335057592773437,6.931124074697548
0.18652076597861228,-0.5698199951171875,2.7820623291015623,7.45075556640625,7.973601704385232
0.18900770952499377,-0.5027823486328125,2.8203695556640622,8.719682446289061,9.17824255970254
0.19149465307137528,-0.44532150878906246,2.829946362304687,10.002974536132811,10.405114474633766
0.19398159661775677,-0.38786066894531246,2.8203695556640622,11.156979736328124,11.514474246176755
0.19646854016413826,-0.3591302490234375,2.806004345703125,12.105083593749999,12.431238222137965
0.19895548371051977,-0.3399766357421875,2.7581203125,12.780248461914061,13.07889760336598
0.20144242725690126,-0.3399766357421875,2.7054478759765623,13.105859887695312,13.38650797326837
0.20392937080328274,-0.3687070556640625,2.6479870361328124,13.077129467773437,13.347625082887678
0.20641631434966426,-0.4070142822265625,2.5713725830078125,12.708422412109375,12.972340490103726
0.20890325789604575,-0.45010991210937495,2.5139117431640625,12.04762275390625,12.315338615151308
0.21139020144242723,-0.49320554199218747,2.4564509033203126,11.166556542968749,11.44418576284015
0.21387714498880875,-0.5506663818359374,2.398990063476562,10.146626635742187,10.440901248163225
0.21636408853519024,-0.59376201171875,2.365471240234375,9.112331518554686,9.43305852939445
0.21885103208157172,-0.6272808349609375,2.3319524169921872,8.149862451171874,8.50010242844439
0.22133797562795324,-0.6512228515624999,2.3127988037109373,7.335833886718749,7.719299730051622
0.22382491917433472,-0.6560112548828124,2.3127988037109373,6.785167504882812,7.19846422108892
0.22631186272071624,-0.6655880615234374,2.3223756103515623,6.497863305664062,6.932435609675275
0.22879880626709773,-0.6512228515624999,2.3367408203125,6.4834980957031245,6.9224415072066865
0.2312857498134792,-0.6177040283203125,2.370259643554687,6.742071875,7.1732295524493805
0.23377269335986073,-0.5889736083984375,2.408566870117187,7.259219433593749,7.6710071740470385
0.23625963690624222,-0.565031591796875,2.461239306640625,7.963114721679687,8.35393055363241
0.2387465804526237,-0.5267243652343749,2.50912333984375,8.777143286132812,9.143926003461889
0.24123352399900522,-0.49799394531249996,2.5522189697265625,9.610325463867188,9.955911568533244
0.2437204675453867,-0.47884033203125,2.5905261962890624,10.381258398437499,10.710305316486957
0.2462074110917682,-0.45489831542968745,2.6144682128906247,11.03248125,11.347159073759292
0.2486943546381497,-0.430956298828125,2.6384102294921874,11.506533178710937,11.813011371507447
0.2511812981845312,-0.43574470214843747,2.6575638427734374,11.7603185546875,12.064725920284895
0.2536682417309127,-0.45489831542968745,2.6623522460937497,11.789048974609374,12.09449162575259
0.2561551852772942,-0.4740519287109375,2.6527754394531247,11.611878051757811,11.92047208176652
0.2586421288236757,-0.49320554199218747,2.6431986328124997,11.233594189453123,11.5509042560515
0.26112907237005717,-0.51714755859375,2.6288334228515624,10.687716210937499,11.018415701360933
0.2636160159164387,-0.5458779785156249,2.5905261962890624,10.050858569335936,10.393679171587019
0.2661029594628202,-0.5698199951171875,2.5617957763671875,9.390058911132812,9.749907629367204
0.26858990300920166,-0.5746083984375,2.5426421630859375,8.757989672851561,9.137701411779213
0.2710768465555832,-0.584185205078125,2.5043349365234375,8.226476904296874,8.619042179097043
0.2735637901019647,-0.59376201171875,2.480392919921875,7.8338278320312495,8.238553323591848
0.27605073364834615,-0.5889736083984375,2.4660277099609376,7.599196069335937,8.010990168380923
0.27853767719472766,-0.584185205078125,2.4564509033203126,7.560888842773437,7.971352676116594
0.2810246207411092,-0.5793968017578125,2.446874096679687,7.704540942382812,8.104495334796749
0.28351156428749064,-0.565031591796875,2.437297290039062,8.001421948242188,8.383461813211298
0.28599850783387215,-0.5410895751953124,2.442085693359375,8.422801440429687,8.786361281383778
0.28848545138025367,-0.5267243652343749,2.461239306640625,8.920795385742187,9.269073729114655
0.2909723949266351,-0.5219359619140624,2.4899697265625,9.447519750976562,9.784068470356754
0.29345933847301664,-0.5027823486328125,2.5234885498046875,9.950302099609374,10.27761141630597
0.29594628201939815,-0.49320554199218747,2.5426421630859375,10.40041201171875,10.718061899879931
0.2984332255657796,-0.49320554199218747,2.5570073730468748,10.730811840820312,11.04227608672946
0.30092016911216113,-0.49799394531249996,2.5761609863281247,10.927136376953124,11.237745005007866
0.30340711265854264,-0.49320554199218747,2.5905261962890624,10.989385620117186,11.301357174602972
0.30589405620492416,-0.5027823486328125,2.6048914062499997,10.893617553710937,11.212009308548174
0.3083809997513056,-0.5123591552734374,2.6144682128906247,10.663774194335938,10.991543840971254
0.31086794329768713,-0.5267243652343749,2.6048914062499997,10.328585961914062,10.665016913626292
0.31335488684406865,-0.5363011718749999,2.6001030029296874,9.911994873046874,10.261374027687813
0.3158418303904501,-0.5458779785156249,2.6001030029296874,9.4618849609375,9.827806744502434
0.3183287739368316,-0.55545478515625,2.5761609863281247,9.045293872070312,9.421384010746236
0.32081571748321314,-0.565031591796875,2.5522189697265625,8.695740429687499,9.080142289064767
0.3233026610295946,-0.5602431884765625,2.5378537597656248,8.427589843749999,8.819231526083723
0.3257896045759761,-0.5602431884765625,2.5139117431640625,8.269572534179687,8.661377175756268
0.3282765481223576,-0.55545478515625,2.499546533203125,8.221688500976562,8.611180215109364
0.3307634916687391,-0.5506663818359374,2.4851813232421875,8.279149340820313,8.661620719073394
0.3332504352151206,-0.5458779785156249,2.4660277099609376,8.441955053710936,8.811689994694497
0.3357373787615021,-0.5315127685546874,2.4516625,8.695740429687499,9.05036222797434
0.3382243223078836,-0.5219359619140624,2.4516625,9.006986645507812,9.349271340302488
0.3407112658542651,-0.5123591552734374,2.446874096679687,9.356540087890625,9.684758498036947
0.3431982094006466,-0.507570751953125,2.427720483398437,9.696516723632811,10.008690792778115
0.34568515294702806,-0.507570751953125,2.43250888671875,9.993397729492187,10.297704876914251
0.3481720964934096,-0.49799394531249996,2.442085693359375,10.242394702148436,10.541272681127113
0.3506590400397911,-0.49799394531249996,2.4564509033203126,10.409988818359375,10.707474782055678
0.35314598358617255,-0.49799394531249996,2.47081611328125,10.472238061523436,10.771290556494996
0.35563292713255407,-0.5027823486328125,2.480392919921875,10.405200415039062,10.708563620039074
0.3581198706789356,-0.507570751953125,2.4947581298828125,10.266336718749999,10.577292461571115
0.36060681422531704,-0.5123591552734374,2.50912333984375,10.065223779296874,10.385901095517154
0.36309375777169856,-0.5219359619140624,2.5234885498046875,9.787496386718749,10.121042294614082
0.36558070131808007,-0.5267243652343749,2.5474305664062498,9.509768994140625,9.859135224222804
0.36806764486446153,-0.5267243652343749,2.5570073730468748,9.255983618164063,9.61711796758619
0.37055458841084304,-0.5267243652343749,2.5570073730468748,9.02135185546875,9.391512900641573
0.37304153195722456,-0.5219359619140624,2.5570073730468748,8.825027319335938,9.202815386672759
0.3755284755036061,-0.5267243652343749,2.5570073730468748,8.700528833007812,9.08377274246488
0.37801541904998753,-0.5267243652343749,2.5617957763671875,8.652644799804687,9.039275313227902
0.38050236259636905,-0.5219359619140624,2.5617957763671875,8.681375219726561,9.066503761309225
0.38298930614275056,-0.5219359619140624,2.5474305664062498,8.777143286132812,9.154237483499449
0.385476249689132,-0.5219359619140624,2.5378537597656248,8.9255837890625,9.294039209615535
0.38796319323551354,-0.51714755859375,2.5378537597656248,9.121908325195312,9.482476195413492
0.39045013678189505,-0.5123591552734374,2.528276953125,9.34696328125,9.696412678755546
0.3929370803282765,-0.5123591552734374,2.5139117431640625,9.576806640625,9.914509044240656
0.395424023874658,-0.5123591552734374,2.50912333984375,9.777919580078125,10.107716020596163
0.39791096742103954,-0.507570751953125,2.50912333984375,9.950302099609374,10.274329169161247
0.400397910967421,-0.51714755859375,2.50912333984375,10.079588989257813,10.400060371184173
0.4028848545138025,-0.5219359619140624,2.50912333984375,10.127473022460936,10.44671368917335
0.40537179806018403,-0.51714755859375,2.5139117431640625,10.1131078125,10.433702290032343
0.4078587416065655,-0.51714755859375,2.5139117431640625,10.026916552734374,10.350181129104758
0.410345685152947,-0.51714755859375,2.5139117431640625,9.883264453125,10.211077812855107
0.4128326286993285,-0.5267243652343749,2.528276953125,9.710881933593749,10.048425291399248
0.41531957224571,-0.5410895751953124,2.5426421630859375,9.524134204101562,9.872534600376172
0.4178065157920915,-0.5410895751953124,2.5522189697265625,9.332598071289063,9.690406924275445
0.420293459338473,-0.5410895751953124,2.5522189697265625,9.165003955078124,9.529107885548092
0.42278040288485447,-0.55545478515625,2.5474305664062498,9.026140258789061,9.395165803770922
0.425267346431236,-0.5458779785156249,2.5617957763671875,8.939948999023438,9.31576451357489
0.4277542899776175,-0.5410895751953124,2.5665841796874997,8.90643017578125,9.284644891210112
0.43024123352399896,-0.5410895751953124,2.5617957763671875,8.935160595703124,9.310889882240236
0.43272817707038047,-0.5458779785156249,2.5617957763671875,8.992621435546875,9.366323753228809
0.435215120616762,-0.5458779785156249,2.5570073730468748,9.074024291992187,9.44320847619646
0.43770206416314344,-0.5410895751953124,2.5378537597656248,9.198522778320312,9.557525879516058
0.44018900770952496,-0.5458779785156249,2.5426421630859375,9.356540087890625,9.711223113142594
0.4426759512559065,-0.5410895751953124,2.5426421630859375,9.514557397460937,9.863296080290098
0.445162894802288,-0.5363011718749999,2.528276953125,9.662997900390625,10.002666230641266
0.44764983834866945,-0.5506663818359374,2.528276953125,9.777919580078125,10.114500933326491
0.45013678189505096,-0.565031591796875,2.5234885498046875,9.8449572265625,10.178921256870447
0.4526237254414325,-0.55545478515625,2.518700146484375,9.86411083984375,10.195737496962952
0.45511066898781394,-0.5458779785156249,2.50912333984375,9.8449572265625,10.174323834772615
0.45759761253419545,-0.5506663818359374,2.50912333984375,9.80665,10.137520289554686
0.46008455608057697,-0.5506663818359374,2.518700146484375,9.730035546875,10.065817186668738
0.4625714996269584,-0.55545478515625,2.5139117431640625,9.619902270507811,9.958453793882487
0.46505844317333994,-0.5458779785156249,2.5139117431640625,9.5001921875,9.842326280879053
0.46754538671972146,-0.5458779785156249,2.5043349365234375,9.375693701171874,9.719738094203677
0.4700323302661029,-0.55545478515625,2.5043349365234375,9.265560424804686,9.614095562160365
0.47251927381248443,-0.5458779785156249,2.5139117431640625,9.169792358398437,9.52380317499206
0.47500621735886595,-0.5506663818359374,2.5234885498046875,9.102754711914063,9.462101842104286
0.4774931609052474,-0.5458779785156249,2.528276953125,9.069235888671875,9.430864579851905
0.4799801044516289,-0.55545478515625,2.5330653564453125,9.0788126953125,9.441916652615815
0.48246704799801043,-0.5410895751953124,2.5330653564453125,9.112331518554686,9.473319573014184
0.4849539915443919,-0.5267243652343749,2.5426421630859375,9.193734375,9.553387853766354
0.4874409350907734,-0.5267243652343749,2.5474305664062498,9.289502441406249,9.646849053265273
0.4899278786371549,-0.5363011718749999,2.5426421630859375,9.390058911132812,9.74299001698152
0.4924148221835364,-0.5410895751953124,2.5474305664062498,9.495403784179686,9.846058777178806
0.4949017657299179,-0.5315127685546874,2.5474305664062498,9.586383447265625,9.933310420590203
0.4973887092762994,-0.5267243652343749,2.5522189697265625,9.65342109375,9.998989900966052
0.49987565282268087,-0.5219359619140624,2.5570073730468748,9.6917283203125,10.036946831028974
0.5023625963690624,-0.5363011718749999,2.5570073730468748,9.725247143554688,10.070071382864631
0.5048495399154439,-0.5315127685546874,2.5570073730468748,9.730035546875,10.074442132068842
0.5073364834618254,-0.5315127685546874,2.5570073730468748,9.710881933593749,10.055944533317108
0.5098234270082069,-0.5363011718749999,2.5617957763671875,9.662997900390625,10.011190986577017
0.5123103705545884,-0.5410895751953124,2.5617957763671875,9.605537060546874,9.95599908345402
0.5147973141009698,-0.5458779785156249,2.5617957763671875,9.533711010742186,9.886982654156315
0.5172842576473514,-0.5410895751953124,2.5665841796874997,9.433154541015625,9.791043707107578
0.5197712011937329,-0.5458779785156249,2.5665841796874997,9.34696328125,9.708298496641223
0.5222581447401143,-0.5410895751953124,2.5617957763671875,9.294290844726563,9.656056018611626
0.5247450882864959,-0.5506663818359374,2.5474305664062498,9.255983618164063,9.615917465040278
0.5272320318328774,-0.5458779785156249,2.5378537597656248,9.2320416015625,9.590061345286875
0.5297189753792588,-0.5363011718749999,2.5234885498046875,9.217676391601563,9.571894873442702
0.5322059189256404,-0.5410895751953124,2.5234885498046875,9.241618408203124,9.595221893850045
0.5346928624720219,-0.5458779785156249,2.518700146484375,9.279925634765624,9.631139755091755
0.5371798060184033,-0.5363011718749999,2.50912333984375,9.337386474609374,9.683496530578262
0.5396667495647849,-0.5363011718749999,2.5043349365234375,9.390058911132812,9.733063175372441
0.5421536931111663,-0.5458779785156249,2.4947581298828125,9.442731347656249,9.781971999451576
0.5446406366575478,-0.5506663818359374,2.4899697265625,9.504980590820312,9.841129952152489
0.5471275802039294,-0.5410895751953124,2.50912333984375,9.557653027343749,9.896323016859688
0.5496145237503108,-0.5363011718749999,2.5043349365234375,9.600748657226562,9.9364826372557
0.5521014672966923,-0.5410895751953124,2.5043349365234375,9.624690673828125,9.959876604132754
0.5545884108430739,-0.5363011718749999,2.5139117431640625,9.629479077148437,9.966656334830262
0.5570753543894553,-0.5363011718749999,2.5139117431640625,9.610325463867188,9.948151924896742
0.5595622979358368,-0.5315127685546874,2.499546533203125,9.572018237304688,9.907258542607938
0.5620492414822184,-0.5315127685546874,2.5043349365234375,9.528922607421874,9.86684171129061
0.5645361850285998,-0.5267243652343749,2.5139117431640625,9.481038574218749,9.82279406559934
0.5670231285749813,-0.5267243652343749,2.499546533203125,9.437942944335937,9.777522101694263
0.5695100721213628,-0.5363011718749999,2.4851813232421875,9.390058911132812,9.728152523007182
0.5719970156677443,-0.5363011718749999,2.4899697265625,9.361328491210937,9.701651370076636
0.5744839592141258,-0.5363011718749999,2.4899697265625,9.323021264648437,9.664693150185327
0.5769709027605073,-0.5315127685546874,2.4947581298828125,9.289502441406249,9.633336885972883
0.5794578463068888,-0.51714755859375,2.499546533203125,9.294290844726563,9.638413602630633
0.5819447898532703,-0.5219359619140624,2.4947581298828125,9.313444458007812,9.655904046092834
0.5844317333996518,-0.5219359619140624,2.4947581298828125,9.332598071289063,9.674379671854101
0.5869186769460333,-0.5123591552734374,2.4947581298828125,9.366116894531249,9.70620810165497
0.5894056204924147,-0.51714755859375,2.50912333984375,9.418789331054686,9.760980175919716
0.5918925640387963,-0.5219359619140624,2.5139117431640625,9.4618849609375,9.804052040598956
0.5943795075851778,-0.51714755859375,2.518700146484375,9.485826977539062,9.82813336667079
0.5968664511315592,-0.5219359619140624,2.528276953125,9.514557397460937,9.858570077329716
0.5993533946779408,-0.5219359619140624,2.5378537597656248,9.5384994140625,9.884133241026566
0.6018403382243223,-0.51714755859375,2.5426421630859375,9.543287817382812,9.889732712883044
0.6043272817707037,-0.5219359619140624,2.5378537597656248,9.557653027343749,9.902618353010924
0.6068142253170853,-0.5267243652343749,2.5378537597656248,9.567229833984374,9.912115160709583
0.6093011688634667,-0.5267243652343749,2.5522189697265625,9.557653027343749,9.90656305776412
0.6117881124098483,-0.5315127685546874,2.5570073730468748,9.519345800781249,9.871106169209424
0.6142750559562298,-0.5363011718749999,2.5617957763671875,9.485826977539062,9.840291153953482
0.6167619995026112,-0.5219359619140624,2.5570073730468748,9.447519750976562,9.801343443592184
0.6192489430489928,-0.51714755859375,2.5617957763671875,9.409212524414063,9.765424697716053
0.6217358865953743,-0.5219359619140624,2.5665841796874997,9.375693701171874,9.734649653580517
0.6242228301417557,-0.5363011718749999,2.5665841796874997,9.361328491210937,9.721596803958407
0.6267097736881373,-0.5410895751953124,2.5617957763671875,9.342174877929686,9.702154759537612
0.6291967172345188,-0.5363011718749999,2.5522189697265625,9.332598071289063,9.690140730485545
0.6316836607809002,-0.5315127685546874,2.5474305664062498,9.332598071289063,9.688616778159092
0.6341706043272818,-0.5363011718749999,2.5426421630859375,9.342174877929686,9.696848950369258
0.6366575478736632,-0.5363011718749999,2.5378537597656248,9.361328491210937,9.714051254408156
0.6391444914200447,-0.5410895751953124,2.528276953125,9.3852705078125,9.734899320737897
0.6416314349664263,-0.5458779785156249,2.528276953125,9.409212524414063,9.75825022474428
0.6441183785128077,1.2210428466796874,3.5290532470703124,22.041020483398437,22.355127966613715
0.6466053220591892,1.0917559570312498,4.094084838867187,21.73935107421875,22.148427638676548
0.6490922656055708,0.8283937744140625,4.505887524414062,20.42254016113281,20.930107626604332
0.6515792091519522,0.4644751220703125,4.75009609375,18.239028247070312,18.853150968374226
0.6540661526983337,0.01915361328125,4.817133740234374,15.452177514648437,16.18563975493131
0.6565530962447153,-0.45489831542968745,4.716577270507813,12.320561743164061,13.200351332186942
0.6590400397910967,-0.9145850341796874,4.458003491210937,9.126696728515624,10.19837507089694
0.6615269833374782,-1.3120225097656248,4.070142822265625,6.177040283203125,7.512875103453152
0.6640139268838597,-1.62805712890625,3.5960908935546874,3.6918589599609373,5.404836936479515
0.6665008704302412,-1.838746875,3.0645781249999997,1.8243816650390623,4.012604841531431
0.6689878139766227,-1.9201497314453124,2.518700146484375,0.7326257080078125,3.2507792676685794
0.6714747575230042,-1.867477294921875,2.001552587890625,0.45968671875,2.775787471788055
0.6739617010693857,-1.714248388671875,1.5705962890624998,0.9528922607421875,2.5126527618959553
0.6764486446157671,-1.465251416015625,1.2306196533203124,2.1356278808593747,2.8674540778847537
0.6789355881621487,-1.149216796875,0.9911994873046874,3.859453076171875,4.1471139021041195
0.6814225317085302,-0.7757213378906249,0.8906430175781249,5.966350537109375,6.08213180640512
0.6839094752549116,-0.4070142822265625,0.9193734375,8.245630517578125,8.306703965829808
0.6863964188012932,-0.076614453125,1.0726023437499999,10.481814868164061,10.53683009698414
0.6888833623476747,0.201112939453125,1.3072341064453123,12.492944262695312,12.562760993280143
0.6913703058940561,0.411802685546875,1.6136919189453125,14.11621298828125,14.214114541244323
0.6938572494404377,0.5315127685546874,1.9919757812499999,15.246276171875,15.385038525961079
0.6963441929868192,0.5410895751953124,2.384624853515625,15.820884570312499,16.008735184502914
0.6988311365332006,0.45010991210937495,2.7629087158203123,15.777788940429687,16.024196933190765
0.7013180800795822,0.2825157958984375,3.1124621582031247,15.227122558593749,15.544532713324426
0.7038050236259636,0.05746083984375,3.39018955078125,14.226346264648436,14.624828716262575
0.7062919671723451,-0.2059013427734375,3.5913024902343746,12.871228125,13.364443960940182
0.7087789107187267,-0.49320554199218747,3.7110125732421873,11.314997045898437,11.918222357973683
0.7112658542651081,-0.7661445312499999,3.725377783203125,9.696516723632811,10.415750267841414
0.7137527978114896,-1.01514150390625,3.6487633300781246,8.164227661132813,8.999922189368196
0.7162397413578712,-1.2018892333984375,3.5003228271484375,6.823474731445312,7.7625128041303855
0.7187266849042526,-1.3072341064453123,3.27526787109375,5.779602807617187,6.770527989033745
0.7212136284506341,-1.350329736328125,3.0214824951171875,5.1140147460937495,6.091460718774758
0.7237005719970157,-1.3168109130859373,2.73896669921875,4.8650177734375,5.73622937966346
0.7261875155433971,-1.2210428466796874,2.4516625,5.0182466796875,5.717026708484796
0.7286744590897786,-1.0726023437499999,2.1883003173828124,5.53539423828125,6.048117346751216
0.7311614026361601,-0.8667010009765624,1.9680337646484374,6.349422802734375,6.703692822002908
0.7336483461825416,-0.6512228515624999,1.7860744384765623,7.37414111328125,7.61525510148947
0.7361352897289231,-0.4261678955078125,1.66636435546875,8.52335791015625,8.695172183744347
0.7386222332753046,-0.2154781494140625,1.618480322265625,9.662997900390625,9.799971316763616
0.7411091768216861,-0.0526724365234375,1.62805712890625,10.702081420898438,10.825335613277367
0.7435961203680675,0.0526724365234375,1.7094599853515624,11.578359228515625,11.703992064746132
0.7460830639144491,0.105344873046875,1.838746875,12.215216870117187,12.353283401452225
0.7485700074608306,0.1149216796875,2.0063409912109376,12.574347119140624,12.733923850805596
0.7510569510072121,0.062249243164062495,2.2074539306640624,12.655749975585938,12.8469737786306
0.7535438945535936,-0.047884033203124995,2.418143676757812,12.464213842773436,12.696705810581914
0.7560308380999751,-0.1867477294921875,2.6192566162109374,12.014103930664062,12.297726342411142
0.7585177816463566,-0.354341845703125,2.8012159423828122,11.372457885742186,11.717728758699597
0.7610047251927381,-0.5315127685546874,2.9448680419921875,10.601524951171875,11.015765288812366
0.7634916687391196,-0.7038952880859375,3.0454245117187497,9.787496386718749,10.274490963215625
0.7659786122855011,-0.842758984375,3.1076737548828124,8.997409838867187,9.556215918504368
0.7684655558318826,-0.9528922607421875,3.1172505615234374,8.283937744140625,8.902183960843441
0.770952499378264,-1.01514150390625,3.0837317382812497,7.723694555664062,8.378267798049356
0.7734394429246456,-1.0342951171875,3.0166940917968748,7.345410693359375,8.007825415619294
0.7759263864710271,-1.0103531005859374,2.906560815429687,7.163451367187499,7.796405880385869
0.7784133300174085,-0.9528922607421875,2.77727392578125,7.182604980468749,7.7595791396738285
0.7809002735637901,-0.852335791015625,2.6384102294921874,7.3932947265625,7.896106113367026
0.7833872171101716,-0.718260498046875,2.4899697265625,7.7763669921875,8.196812244978869
0.785874160656553,-0.59376201171875,2.370259643554687,8.283937744140625,8.636799676571291
0.7883611042029346,-0.4644751220703125,2.2649147705078123,8.863334545898438,9.15992769235671
0.790848047749316,-0.3447650390625,2.1787235107421874,9.4618849609375,9.715604257195523
0.7933349912956975,-0.258573779296875,2.1260510742187497,10.012551342773437,10.23904966103792
0.7958219348420791,-0.1867477294921875,2.1212626708984375,10.481814868164061,10.69593721764871
0.7983088783884605,-0.143652099609375,2.1452046874999997,10.826579907226561,11.037996718814336
0.800795821934842,-0.143652099609375,2.1978771240234374,11.018116040039061,11.23611057482943
0.8032827654812236,-0.181959326171875,2.2744915771484373,11.075576879882812,11.308175111533018
0.805769709027605,-0.2442085693359375,2.379836450195312,10.998962426757812,11.25612872262242
0.8082566525739865,-0.33039982910156246,2.4851813232421875,10.788272680664061,11.075744565889224
0.8107435961203681,-0.430956298828125,2.5809493896484375,10.472238061523436,10.794201827863255
0.8132305396667495,-0.5363011718749999,2.6767174560546874,10.103531005859374,10.465838431433198
0.815717483213131,-0.6368576416015624,2.7629087158203123,9.696516723632811,10.102558527388641
0.8182044267595125,-0.7278373046875,2.81558115234375,9.294290844726563,9.738638851189426
0.820691370305894,-0.7948749511718749,2.844311572265625,8.935160595703124,9.410580714234932
0.8231783138522755,-0.8283937744140625,2.858676782226562,8.623914379882812,9.123056966953497
0.825665257398657,-0.842758984375,2.844311572265625,8.398859423828124,8.907367211869927
0.8281522009450385,-0.82360537109375,2.806004345703125,8.288726147460936,8.789480493351236
0.83063914449142,-0.7900865478515624,2.7629087158203123,8.279149340820313,8.7636873023093
0.8331260880378015,-0.7278373046875,2.6958710693359373,8.379705810546875,8.832719707762175
0.835613031584183,-0.6464344482421874,2.6192566162109374,8.556876733398436,8.972096864613892
0.8380999751305644,-0.5602431884765625,2.5426421630859375,8.79150849609375,9.168943408955325
0.840586918676946,-0.4836287353515625,2.461239306640625,9.074024291992187,9.414324857889431
0.8430738622233275,-0.4070142822265625,2.403778466796875,9.366116894531249,9.67822076754795
0.8455608057697089,-0.3495534423828125,2.346317626953125,9.639055883789062,9.926670758438659
0.8480477493160905,-0.316034619140625,2.308010400390625,9.888052856445311,10.158758742123121
0.850534692862472,-0.28730419921875,2.2840683837890623,10.089165795898436,10.348467448943367
0.8530216364088534,-0.28730419921875,2.2744915771484373,10.20887587890625,10.463125840222022
0.855508579955235,-0.316034619140625,2.2936451904296873,10.261548315429687,10.519508542226411
0.8579955235016165,-0.36391865234375,2.3223756103515623,10.261548315429687,10.527356700092257
0.8604824670479979,-0.40222587890625,2.365471240234375,10.180145458984374,10.459091806276396
0.8629694105943795,-0.45968671875,2.408566870117187,10.036493359375,10.331684528671968
0.8654563541407609,-0.5363011718749999,2.4564509033203126,9.859322436523437,10.174871443645474
0.8679432976871424,-0.6081272216796875,2.518700146484375,9.648632690429688,9.99048456985329
0.870430241233524,-0.6607996582031249,2.5665841796874997,9.442731347656249,9.807608569050537
0.8729171847799054,-0.6847416748046875,2.6144682128906247,9.241618408203124,9.628698042844041
0.8754041283262869,-0.70868369140625,2.6527754394531247,9.064447485351561,9.471201524691953
0.8778910718726685,-0.718260498046875,2.6671406494140624,8.939948999023438,9.356934620480768
0.8803780154190499,-0.70868369140625,2.6815058593749996,8.863334545898438,9.28716348089363
0.8828649589654315,-0.679953271484375,2.6862942626953124,8.839392529296875,9.263550809715541
0.885351902511813,-0.6368576416015624,2.6623522460937497,8.872911352539061,9.28559438097332
0.8878388460581944,-0.5889736083984375,2.6384102294921874,8.954314208984375,9.35349354004686
0.890325789604576,-0.5410895751953124,2.6192566162109374,9.05965908203125,9.446200603024536
0.8928127331509574,-0.5027823486328125,2.5905261962890624,9.208099584960937,9.578763700515552
0.8952996766973389,-0.45489831542968745,2.5665841796874997,9.361328491210937,9.71744606103685
0.8977866202437205,-0.411802685546875,2.5474305664062498,9.504980590820312,9.84904259176268
0.9002735637901019,-0.39264907226562495,2.5043349365234375,9.643844287109374,9.971439184102515
0.9027605073364834,-0.38786066894531246,2.4851813232421875,9.758765966796874,10.077701885976754
0.905247450882865,-0.38307226562499996,2.47081611328125,9.835380419921874,10.148220761834258
0.9077343944292464,-0.39743747558593745,2.4564509033203126,9.86411083984375,10.173140628544672
0.9102213379756279,-0.411802685546875,2.4564509033203126,9.859322436523437,10.169069347761438
0.9127082815220094,-0.45010991210937495,2.4660277099609376,9.821015209960937,10.135888286359434
0.9151952250683909,-0.49320554199218747,2.4756045166015626,9.763554370117188,10.08458543359638
0.9176821686147724,-0.5410895751953124,2.499546533203125,9.677363110351562,10.009588781245014
0.9201691121611539,-0.5698199951171875,2.5139117431640625,9.572018237304688,9.913020741153883
0.9226560557075354,-0.5985504150390625,2.5234885498046875,9.476250170898437,9.82474296670358
0.9251429992539169,-0.6272808349609375,2.5426421630859375,9.3852705078125,9.743808953393263
0.9276299428002984,-0.63206923828125,2.5665841796874997,9.284714038085937,9.65364079725539
0.9301168863466799,-0.6416460449218749,2.5809493896484375,9.203311181640624,9.57987192529221
0.9326038298930613,-0.6512228515624999,2.5953145996093747,9.165003955078124,9.547619942684166
0.9350907734394429,-0.63206923828125,2.6001030029296874,9.145850341796875,9.529251052541927
0.9375777169858244,-0.5985504150390625,2.6001030029296874,9.145850341796875,9.527086474874332
0.9400646605322058,-0.5698199951171875,2.6001030029296874,9.179369165039063,9.557512684833291
0.9425516040785874,-0.55545478515625,2.5905261962890624,9.236830004882812,9.609286369503005
0.9450385476249689,-0.5267243652343749,2.5713725830078125,9.3086560546875,9.671632388694583
0.9475254911713503,-0.49799394531249996,2.5522189697265625,9.394847314453125,9.748075487032665
0.9500124347177319,-0.47884033203125,2.518700146484375,9.476250170898437,9.816947376498097
0.9524993782641133,-0.4644751220703125,2.5043349365234375,9.5384994140625,9.872709946381729
0.9549863218104948,-0.44532150878906246,2.4947581298828125,9.600748657226562,9.92957723934127
0.9574732653568764,-0.45010991210937495,2.4756045166015626,9.639055883789062,9.96205877248301
0.9599602089032578,-0.469263525390625,2.4564509033203126,9.643844287109374,9.962835536668129
0.9624471524496393,-0.488417138671875,2.446874096679687,9.639055883789062,9.956763654780552
0.9649340959960209,-0.5027823486328125,2.437297290039062,9.624690673828125,9.941221189421478
0.9674210395424023,-0.5267243652343749,2.446874096679687,9.591171850585937,9.912376550020971
0.9699079830887838,-0.5506663818359374,2.446874096679687,9.548076220703125,9.871989962790824
0.9723949266351654,-0.5698199951171875,2.442085693359375,9.514557397460937,9.839475587150188
0.9748818701815468,-0.5889736083984375,2.437297290039062,9.485826977539062,9.81163704175962
0.9773688137279283,-0.612915625,2.4516625,9.447519750976562,9.779669934224142
0.9798557572743098,-0.6177040283203125,2.4756045166015626,9.399635717773437,9.739780675973323
0.9823427008206913,-0.612915625,2.4947581298828125,9.366116894531249,9.712035284738684
0.9848296443670728,-0.612915625,2.5139117431640625,9.327809667968749,9.680054287948936
0.9873165879134543,-0.59376201171875,2.528276953125,9.299079248046874,9.654926853152196
0.9898035314598358,-0.584185205078125,2.5474305664062498,9.294290844726563,9.654766550821465
0.9922904750062173,-0.5698199951171875,2.5617957763671875,9.299079248046874,9.662316869576578
0.9947774185525988,-0.5410895751953124,2.5761609863281247,9.313444458007812,9.678307239815265
0.9972643620989803,-0.507570751953125,2.5905261962890624,9.337386474609374,9.70336231510069
0.9997513056453617,-0.49799394531249996,2.5953145996093747,9.375693701171874,9.741010636412806
1.0022382491917432,-0.44053310546874996,2.480392919921875,9.404424121093749,9.735995660620564
1.0047251927381249,-0.4213794921875,2.5139117431640625,9.414000927734374,9.752985511946484
1.0072121362845063,-0.411802685546875,2.5570073730468748,9.423577734375,9.773008005391583
1.0096990798308878,-0.4070142822265625,2.5857377929687497,9.428366137695312,9.784977699839837
1.0121860233772693,-0.40222587890625,2.5953145996093747,9.452308154296874,9.810380878049264
1.0146729669236507,-0.411802685546875,2.6240450195312497,9.476250170898437,9.841468946138226
1.0171599104700322,-0.4165910888671875,2.6384102294921874,9.481038574218749,9.85011924396027
1.0196468540164139,-0.4165910888671875,2.6527754394531247,9.481038574218749,9.853976766428524
1.0221337975627953,-0.4261678955078125,2.6671406494140624,9.490615380859374,9.867473771250824
1.0246207411091768,-0.45010991210937495,2.6815058593749996,9.485826977539062,9.867825801798967
1.0271076846555582,-0.45010991210937495,2.6815058593749996,9.466673364257812,9.84941506854036
1.0295946282019397,-0.4644751220703125,2.6815058593749996,9.466673364257812,9.85008199957914
1.0320815717483212,-0.49799394531249996,2.6767174560546874,9.471461767578125,9.855019143756644
1.0345685152947028,-0.507570751953125,2.6719290527343746,9.466673364257812,9.849605957429596
1.0370554588410843,-0.51714755859375,2.6671406494140624,9.481038574218749,9.8626149314946
1.0395424023874658,-0.5267243652343749,2.6479870361328124,9.466673364257812,9.844144375516203
1.0420293459338472,-0.5315127685546874,2.6431986328124997,9.4618849609375,9.838509635592871
1.0445162894802287,-0.5363011718749999,2.6288334228515624,9.452308154296874,9.825706771313865
1.0470032330266101,-0.5458779785156249,2.6001030029296874,9.428366137695312,9.795540129044028
1.0494901765729918,-0.5602431884765625,2.5905261962890624,9.414000927734374,9.779985269481642
1.0519771201193733,-0.5698199951171875,2.5857377929687497,9.409212524414063,9.77466189136037
1.0544640636657547,-0.5793968017578125,2.5617957763671875,9.418789331054686,9.778143520959873
1.0569510072121362,-0.584185205078125,2.518700146484375,9.437942944335937,9.785698227631643
1.0594379507585177,-0.584185205078125,2.499546533203125,9.452308154296874,9.794648266745831
1.0619248943048991,-0.584185205078125,2.4851813232421875,9.457096557617186,9.795615032417249
1.0644118378512808,-0.5793968017578125,2.461239306640625,9.452308154296874,9.784657838791665
1.0668987813976623,-0.5746083984375,2.4564509033203126,9.466673364257812,9.797052129979019
1.0693857249440437,-0.5746083984375,2.4564509033203126,9.471461767578125,9.801679135060086
1.0718726684904252,4.826710546875,1.9488801513671874,8.365340600585936,9.852623605493047
1.0743596120368066,5.03740029296875,3.83072265625,8.44674345703125,10.554492541548786
1.076846555583188,5.013458276367187,5.492298608398437,8.571241943359375,11.347523797917017
1.0793334991295698,4.7884033203125,6.885723974609375,8.719682446289061,12.098547969761151
1.0818204426759512,4.390965844726562,7.991845141601562,8.853757739257812,12.709807076520217
1.0843073862223327,3.835511059570312,8.810662109374999,8.997409838867187,13.164053163908392
1.0867943297687142,3.1747114013671873,9.34696328125,9.141061938476563,13.453755179356857
1.0892812733150956,2.437297290039062,9.605537060546874,9.275137231445312,13.573316874062664
1.0917682168614773,1.656787548828125,9.591171850585937,9.404424121093749,13.534353161449346
1.0942551604078588,0.852335791015625,9.351751684570312,9.514557397460937,13.368191289029662
1.0967421039542402,0.08140285644531249,8.911218579101561,9.648632690429688,13.134403518408847
1.0992290475006217,-0.6368576416015624,8.288726147460936,9.749189160156249,12.812308850623959
1.1017159910470031,-1.2928688964843749,7.551312036132812,9.82580361328125,12.459544136817842
1.1042029345933846,-1.8626888916015625,6.72291826171875,9.888052856445311,12.101273864866608
1.1066898781397663,-2.327164013671875,5.8226984375,9.926360083007811,11.741044840137745
1.1091768216861477,-2.7198130859375,4.912901806640625,9.935936889648437,11.413011401869634
1.1116637652325292,-2.96881005859375,4.017470385742187,9.916783276367187,11.1038953531974
1.1141507087789106,-3.0980969482421874,3.1507693847656246,9.892841259765625,10.83484474312415
1.116637652325292,-3.1316157714843746,2.35589443359375,9.854534033203125,10.605144833240438
1.1191245958716736,-3.0597897216796874,1.6424223388671875,9.821015209960937,10.416919123924822
1.1216115394180552,-2.887407202148437,1.0295067138671874,9.7683427734375,10.238043024146993
1.1240984829644367,-2.6575638427734374,0.5315127685546874,9.706093530273437,10.07737083866468
1.1265854265108182,-2.379836450195312,0.1580173095703125,9.648632690429688,9.939049441200627
1.1290723700571996,-2.0542250244140625,-0.105344873046875,9.576806640625,9.79521124964262
1.131559313603581,-1.6998831787109374,-0.26336218261718747,9.495403784179686,9.649956242652667
1.1340462571499625,-1.3263877197265623,-0.3112462158203125,9.437942944335937,9.535771893792573
1.1365332006963442,-0.9720458740234375,-0.2537853759765625,9.399635717773437,9.45317046419389
1.1390201442427257,-0.622492431640625,-0.1149216796875,9.361328491210937,9.382706162950521
1.1415070877891071,-0.3016694091796875,0.0909796630859375,9.332598071289063,9.337915639571735
1.1439940313354886,-0.01915361328125,0.36391865234375,9.313444458007812,9.320571405167273
1.14648097488187,0.22026655273437498,0.689530078125,9.303867651367186,9.331983838233397
1.1489679184282515,0.39743747558593745,1.0390835205078124,9.294290844726563,9.360635310488227
1.1514548619746332,0.5267243652343749,1.388636962890625,9.275137231445312,9.39329132060646
1.1539418055210147,0.612915625,1.7525556152343749,9.270348828125,9.454442561197208
1.1564287490673961,0.6512228515624999,2.1116858642578125,9.289502441406249,9.548725778898257
1.1589156926137776,0.6272808349609375,2.437297290039062,9.299079248046874,9.633627260144388
1.161402636160159,0.5698199951171875,2.73896669921875,9.313444458007812,9.72455043067087
1.1638895797065405,0.488417138671875,2.9975404785156248,9.34696328125,9.827996886584971
1.1663765232529222,0.3687070556640625,3.208230224609375,9.370905297851563,9.911738100267584
1.1688634667993036,0.2346317626953125,3.375824340820312,9.399635717773437,9.990214896136248
1.171350410345685,0.0718260498046875,3.5003228271484375,9.423577734375,10.052921773867299
1.1738373538920666,-0.105344873046875,3.5960908935546874,9.433154541015625,10.095908668944462
1.176324297438448,-0.27293898925781246,3.6343981201171873,9.442731347656249,10.121685664521419
1.1788112409848295,-0.4261678955078125,3.6248213134765623,9.442731347656249,10.123543052400453
1.1812981845312112,-0.5793968017578125,3.5913024902343746,9.442731347656249,10.119205973507052
1.1837851280775926,-0.7134720947265625,3.5290532470703124,9.452308154296874,10.114810363738817
1.186272071623974,-0.8283937744140625,3.423708374023437,9.466673364257812,10.100788081204085
1.1887590151703555,-0.9241618408203125,3.294421484375,9.490615380859374,10.08856126175306
1.191245958716737,-0.9911994873046874,3.1699229980468746,9.504980590820312,10.068542311032438
1.1937329022631185,-1.0390835205078124,3.0262708984374997,9.504980590820312,10.029090992965987
1.1962198458095001,-1.0582371337890624,2.8730419921875,9.509768994140625,9.990492602575772
1.1987067893558816,-1.0534487304687499,2.73896669921875,9.504980590820312,9.947680575844116
1.201193732902263,-1.0295067138671874,2.6096798095703124,9.495403784179686,9.90116184126845
1.2036806764486445,-0.9959878906249999,2.47081611328125,9.490615380859374,9.857418751951569
1.206167619995026,-0.9528922607421875,2.35589443359375,9.481038574218749,9.815718755579963
1.2086545635414074,-0.8906430175781249,2.2744915771484373,9.476250170898437,9.78600399656226
1.2111415070877891,-0.814028564453125,2.1978771240234374,9.481038574218749,9.766442484440024
1.2136284506341706,-0.7422025146484375,2.1308394775390624,9.481038574218749,9.745841877314309
1.216115394180552,-0.6655880615234374,2.1068974609374997,9.471461767578125,9.7257705295386
1.2186023377269335,-0.5793968017578125,2.1068974609374997,9.471461767578125,9.720252341348253
1.221089281273315,-0.47884033203125,2.1116858642578125,9.471461767578125,9.715816654691473
1.2235762248196966,-0.4070142822265625,2.1308394775390624,9.447519750976562,9.693387795299826
1.226063168366078,-0.3591302490234375,2.1499930908203124,9.452308154296874,9.70039041843811
1.2285501119124596,8.671798413085938,1.3168109130859373,8.882488159179687,12.483295822657947
1.231037055458841,9.006986645507812,3.1411925781249996,8.892064965820312,13.040771395956323
1.2335239990052225,9.0788126953125,4.73094248046875,8.935160595703124,13.588368245712104
1.236010942551604,8.877699755859375,6.0333881835937495,9.006986645507812,14.012178073428498
1.2384978860979856,8.461108666992187,7.067683300781249,9.069235888671875,14.27562771716769
1.240984829644367,7.881711865234375,7.819462622070312,9.1554271484375,14.390525490574605
1.2434717731907485,7.125144140624999,8.283937744140625,9.251195214843749,14.316980005456049
1.24595871673713,6.244077929687499,8.48505068359375,9.337386474609374,14.077335702162657
1.2484456602835114,5.276820458984375,8.441955053710936,9.418789331054686,13.704927279924592
1.250932603829893,4.261678955078125,8.173804467773436,9.481038574218749,13.22358043191679
1.2534195473762746,3.227383837890625,7.728482958984374,9.543287817382812,12.697235827131696
1.255906490922656,2.1883003173828124,7.134720947265625,9.586383447265625,12.148730339933346
1.2583934344690375,1.1731588134765625,6.4356140625,9.6151138671875,11.62943870709446
1.260880378015419,0.229843359375,5.659892724609374,9.639055883789062,11.180277812055632
1.2633673215618004,-0.6464344482421874,4.8698061767578125,9.667786303710937,10.844306419005482
1.2658542651081819,-1.4317325927734375,4.084508032226562,9.6917283203125,10.614266904373585
1.2683412086545636,-2.1260510742187497,3.318363500976562,9.701305126953125,10.471243988230201
1.270828152200945,-2.7150246826171873,2.6192566162109374,9.701305126953125,10.408995408541225
1.2733150957473265,-3.189076611328125,1.9967641845703124,9.682151513671874,10.387556727902927
1.275802039293708,-3.5434184570312497,1.4508862060546874,9.648632690429688,10.380606819419466
1.2782889828400894,-3.787627026367187,1.01514150390625,9.605537060546874,10.375113155303882
1.2807759263864709,-3.921702319335937,0.699106884765625,9.572018237304688,10.367836449959322
1.2832628699328525,-3.9552211425781247,0.4740519287109375,9.543287817382812,10.341317221863894
1.285749813479234,-3.902548706054687,0.3447650390625,9.504980590820312,10.280729807127495
1.2882367570256155,-3.768473413085937,0.33518823242187495,9.471461767578125,10.19913383729147
1.290723700571997,-3.5625720703124997,0.40222587890625,9.442731347656249,10.100439629929115
1.2932106441183784,-3.299209887695312,0.5219359619140624,9.409212524414063,9.984512174412735
1.2956975876647598,-2.9927520751953125,0.718260498046875,9.390058911132812,9.881582336912702
1.2981845312111415,-2.6479870361328124,0.9624690673828125,9.3852705078125,9.79905528885368
1.300671474757523,-2.2936451904296873,1.22583125,9.375693701171874,9.729702096737174
1.3031584183039044,-1.915361328125,1.5227122558593749,9.370905297851563,9.685098230411686
1.305645361850286,-1.5466542724609373,1.8148048583984373,9.366116894531249,9.66487463936351
1.3081323053966674,-1.1875240234375,2.0877438476562498,9.375693701171874,9.678456491500164
1.3106192489430488,-0.8475473876953125,2.346317626953125,9.380482104492186,9.706543539985708
1.3131061924894305,-0.5315127685546874,2.5905261962890624,9.390058911132812,9.755333830850754
1.315593136035812,-0.24899697265624998,2.7964275390625,9.409212524414063,9.819128617306609
1.3180800795821934,-0.009576806640625,2.9735984619140625,9.418789331054686,9.877042674338949
1.3205670231285749,0.201112939453125,3.1172505615234374,9.404424121093749,9.909636245954923
1.3230539666749563,0.37828386230468747,3.208230224609375,9.399635717773437,9.93926513789724
1.3255409102213378,0.507570751953125,3.27526787109375,9.418789331054686,9.98491863554465
1.3280278537677195,0.584185205078125,3.294421484375,9.437942944335937,10.013453564634144
1.330514797314101,0.6368576416015624,3.27526787109375,9.452308154296874,10.023926213159815
1.3330017408604824,0.6655880615234374,3.246537451171875,9.447519750976562,10.011925006440887
1.3354886844068639,0.6512228515624999,3.1938650146484373,9.442731347656249,9.989496495730025
1.3379756279532453,0.603338818359375,3.1076737548828124,9.442731347656249,9.959258466398827
1.3404625714996268,0.5363011718749999,3.0071172851562498,9.452308154296874,9.933604721219139
1.3429495150460085,0.44532150878906246,2.91134921875,9.433154541015625,9.882240136446296
1.34543645859239,0.33518823242187495,2.8107927490234372,9.423577734375,9.839548990930686
1.3479234021387714,0.2154781494140625,2.710236279296875,9.447519750976562,9.8309430355172
1.3504103456851528,0.086191259765625,2.6144682128906247,9.457096557617186,9.812214238874441
1.3528972892315343,-0.0430956298828125,2.5139117431640625,9.452308154296874,9.780988647857656
1.3553842327779158,-0.17238251953125,2.408566870117187,9.452308154296874,9.755872054545058
1.3578711763242974,-0.3016694091796875,2.35589443359375,9.466673364257812,9.760079282476202
1.360358119870679,-0.411802685546875,2.308010400390625,9.476250170898437,9.76195732225805
1.3628450634170604,-0.5219359619140624,2.2744915771484373,9.4618849609375,9.745408975352117
1.3653320069634418,-0.6272808349609375,2.2553379638671873,9.442731347656249,9.728576765446212
1.3678189505098233,-0.70868369140625,2.2553379638671873,9.423577734375,9.71558537719339
1.370305894056205,-0.7852981445312499,2.2601263671875,9.414000927734374,9.713304166906545
1.3727928376025864,-0.8475473876953125,2.27927998046875,9.418789331054686,9.727643407657599
1.3752797811489679,-0.8954314208984374,2.308010400390625,9.423577734375,9.743332425492406
1.3777667246953493,-0.928950244140625,2.3319524169921872,9.452308154296874,9.779932518938553
1.3802536682417308,-0.9576806640625,2.35589443359375,9.466673364257812,9.802310718504364
1.3827406117881123,-0.9624690673828125,2.398990063476562,9.457096557617186,9.803987725942076
1.385227555334494,-0.9528922607421875,2.442085693359375,9.452308154296874,9.809073128388842
1.3877144988808754,-0.9433154541015625,2.4756045166015626,9.452308154296874,9.816546806914948
1.3902014424272569,-0.928950244140625,2.5139117431640625,9.457096557617186,9.829515558185049
1.3926883859736383,-0.8906430175781249,2.5570073730468748,9.447519750976562,9.8278767358809
1.3951753295200198,-0.8571241943359375,2.5857377929687497,9.457096557617186,9.841614558526349
1.3976622730664012,-0.82360537109375,2.6001030029296874,9.476250170898437,9.860942081494603
1.400149216612783,-0.7709329345703124,2.6096798095703124,9.485826977539062,9.868418300107267
1.4026361601591644,-0.7230489013671875,2.6240450195312497,9.481038574218749,9.864000427013318
1.4051231037055458,-0.6847416748046875,2.6384102294921874,9.466673364257812,9.851293533635655
1.4076100472519273,-0.6416460449218749,2.6431986328124997,9.466673364257812,9.849675793903781
1.4100969907983087,4.5968671875,2.3223756103515623,8.432378247070313,9.880770178317809
1.4125839343446902,4.826710546875,3.1603461914062496,8.513781103515624,10.284424701043324
1.4150708778910719,4.8650177734375,3.859453076171875,8.633491186523438,10.634892855633911
1.4175578214374533,4.740519287109374,4.429273071289062,8.79150849609375,10.926188937062685
1.4200447649838348,4.472368701171875,4.8650177734375,8.939948999023438,11.117246414478036
1.4225317085302163,4.089296435546875,5.166687182617188,9.074024291992187,11.214050054840197
1.4250186520765977,3.5960908935546874,5.353434912109375,9.212887988281249,11.245818785553828
1.4275055956229792,3.0166940917968748,5.410895751953125,9.34696328125,11.21356137286555
1.4299925391693609,2.389413256835937,5.372588525390625,9.4618849609375,11.140074963352696
1.4324794827157423,1.7286135986328124,5.252878442382812,9.591171850585937,11.071197512974846
1.4349664262621238,1.0582371337890624,5.046977099609375,9.696516723632811,10.982453289088115
1.4374533698085052,0.4070142822265625,4.7931917236328125,9.782707983398437,10.90145508700036
1.4399403133548867,-0.2154781494140625,4.50109912109375,9.859322436523437,10.840321168587224
1.4424272569012682,-0.7852981445312499,4.180276098632812,9.916783276367187,10.790458377058915
1.4449142004476498,-1.2976572998046874,3.84987626953125,9.931148486328125,10.730012675478703
1.4474011439940313,-1.7381904052734374,3.5146880371093747,9.931148486328125,10.677174164575652
1.4498880875404128,-2.0973206542968748,3.1794998046874996,9.897629663085937,10.605236719778901
1.4523750310867942,-2.379836450195312,2.8730419921875,9.859322436523437,10.541547833496056
1.4548619746331757,-2.5857377929687497,2.6001030029296874,9.811438403320311,10.474297069587987
1.4573489181795571,-2.710236279296875,2.360682836914062,9.744400756835937,10.386122965570086
1.4598358617259388,-2.7533319091796873,2.1499930908203124,9.682151513671874,10.29307363358393
1.4623228052723203,-2.729389892578125,1.9728221679687499,9.624690673828125,10.196875357628466
1.4648097488187017,-2.6384102294921874,1.848323681640625,9.567229833984374,10.09501835894731
1.4672966923650832,-2.4899697265625,1.7573440185546874,9.504980590820312,9.981626283858684
1.4697836359114647,-2.3032219970703123,1.7094599853515624,9.442731347656249,9.868751709984233
1.4722705794578461,-2.0733786376953125,1.6903063720703124,9.375693701171874,9.749854716092273
1.4747575230042278,-1.8195932617187498,1.6903063720703124,9.327809667968749,9.652776205393195
1.4772444665506093,-1.5562310791015623,1.7238251953125,9.3086560546875,9.593982802779356
1.4797314100969907,-1.2832920898437499,1.7812860351562498,9.303867651367186,9.55938135033094
1.4822183536433722,-1.005564697265625,1.8531120849609375,9.294290844726563,9.530426384280148
1.4847052971897536,-0.7517793212890624,1.93451494140625,9.279925634765624,9.509181878228118
1.487192240736135,-0.507570751953125,2.020706201171875,9.275137231445312,9.506263844530917
1.4896791842825168,-0.28730419921875,2.1212626708984375,9.265560424804686,9.509621917171192
1.4921661278288982,-0.1005564697265625,2.2170307373046874,9.270348828125,9.532297954264553
1.4946530713752797,0.0718260498046875,2.31758720703125,9.294290844726563,9.579155064513438
1.4971400149216612,0.19632453613281248,2.408566870117187,9.299079248046874,9.607945282565357
1.4996269584680426,0.277727392578125,2.4851813232421875,9.313444458007812,9.64331407693312
1.5021139020144243,0.3447650390625,2.5665841796874997,9.337386474609374,9.689840218486577
1.5046008455608058,0.36391865234375,2.6384102294921874,9.366116894531249,9.73744273444709
1.5070877891071872,0.3591302490234375,2.6862942626953124,9.414000927734374,9.79635467247573
1.5095747326535687,0.3399766357421875,2.7341782958984373,9.4618849609375,9.854876056076398
1.5120616761999501,0.28730419921875,2.7820623291015623,9.495403784179686,9.898742724735735
1.5145486197463316,0.22026655273437498,2.8012159423828122,9.519345800781249,9.925385261286571
1.5170355632927133,0.13407529296874998,2.806004345703125,9.524134204101562,9.929791987248613
1.5195225068390947,0.028730419921875,2.806004345703125,9.528922607421874,9.93352162545436
1.5220094503854762,-0.076614453125,2.8012159423828122,9.533711010742186,9.937017971536234
1.5244963939318577,-0.1867477294921875,2.786850732421875,9.528922607421874,9.92984278714958
1.5269833374782391,-0.3064578125,2.7629087158203123,9.519345800781249,9.916931251029713
1.5294702810246206,-0.4165910888671875,2.7246014892578123,9.519345800781249,9.910345396879013
1.5319572245710023,-0.51714755859375,2.6862942626953124,9.533711010742186,9.918430526020536
1.5344441681173837,-0.6081272216796875,2.6623522460937497,9.5384994140625,9.921739226168915
1.5369311116637652,-0.689530078125,2.6240450195312497,9.533711010742186,9.912250482585305
1.5394180552101466,-0.7613561279296874,2.5809493896484375,9.524134204101562,9.89697404478763
1.541904998756528,-0.814028564453125,2.5378537597656248,9.495403784179686,9.86235454819568
1.5443919423029095,-0.852335791015625,2.50912333984375,9.466673364257812,9.8305686926415
1.5468788858492912,-0.8810662109374999,2.4851813232421875,9.457096557617186,9.817794007695536
1.5493658293956727,-0.8954314208984374,2.4564509033203126,9.442731347656249,9.798016318314914
1.5518527729420541,-0.9002198242187499,2.43250888671875,9.423577734375,9.774012100038059
1.5543397164884356,-0.8858546142578124,2.4133552734375,9.423577734375,9.767949600056232
1.556826660034817,-0.8571241943359375,2.408566870117187,9.423577734375,9.764203683258065
1.5593136035811985,-0.8283937744140625,2.408566870117187,9.418789331054686,9.757101161518397
1.5618005471275802,-0.7996633544921875,2.408566870117187,9.418789331054686,9.754703906891965
1.5642874906739617,-0.7565677246093749,2.418143676757812,9.409212524414063,9.744387815196749
1.5667744342203431,-0.70868369140625,2.43250888671875,9.390058911132812,9.72586954534018
1.5692613777667246,-0.6655880615234374,2.442085693359375,9.394847314453125,9.729848203504522
1.571748321313106,-0.622492431640625,2.4516625,9.404424121093749,9.73865180046838
1.5742352648594875,-0.5698199951171875,2.47081611328125,9.409212524414063,9.744891349936955
1.5767222084058692,-0.5267243652343749,2.4899697265625,9.418789331054686,9.756586506505176
1.5792091519522506,-0.488417138671875,2.4947581298828125,9.437942944335937,9.77431002416566
1.581696095498632,-0.45010991210937495,2.5043349365234375,9.4618849609375,9.798038549693821
1.5841830390450136,-0.430956298828125,2.518700146484375,9.471461767578125,9.810105084763068
1.586669982591395,-0.4070142822265625,2.528276953125,9.490615380859374,9.830036891336876
1.5891569261377765,-0.38786066894531246,2.5474305664062498,9.485826977539062,9.82958553739594
1.5916438696841582,-0.37828386230468747,2.5665841796874997,9.466673364257812,9.815719923543593
1.5941308132305396,-0.3687070556640625,2.5761609863281247,9.4618849609375,9.813247033188903
1.596617756776921,-0.38307226562499996,2.5809493896484375,9.4618849609375,9.815055329779499
1.5991047003233025,-0.39743747558593745,2.5953145996093747,9.471461767578125,9.828641942437411
1.601591643869684,-0.39743747558593745,2.6144682128906247,9.476250170898437,9.838329018927364
1.6040785874160655,-0.40222587890625,2.6096798095703124,9.481038574218749,9.84186500679443
1.6065655309624471,-0.4165910888671875,2.6096798095703124,9.485826977539062,9.847075215088507
1.6090524745088286,-0.44053310546874996,2.6192566162109374,9.471461767578125,9.836826858965896
1.61153941805521,-0.4644751220703125,2.6144682128906247,9.4618849609375,9.827433448731819
1.6140263616015915,-0.488417138671875,2.6144682128906247,9.452308154296874,9.819374968975932
1.616513305147973,-0.5123591552734374,2.6096798095703124,9.457096557617186,9.823930777065069
1.6190002486943544,-0.5315127685546874,2.6048914062499997,9.457096557617186,9.823677537540949
1.6214871922407361,-0.5458779785156249,2.5953145996093747,9.452308154296874,9.817319903220076
1.6239741357871176,-0.5698199951171875,2.5761609863281247,9.452308154296874,9.813634887140525
1.626461079333499,-0.5889736083984375,2.5713725830078125,9.452308154296874,9.813509887691627
1.6289480228798805,-0.6081272216796875,2.5617957763671875,9.452308154296874,9.812173345459598
1.631434966426262,-0.622492431640625,2.5570073730468748,9.442731347656249,9.80259959588659
1.6339219099726436,-0.6272808349609375,2.5474305664062498,9.4618849609375,9.818867080808529
1.636408853519025,-0.6368576416015624,2.5378537597656248,9.471461767578125,9.82623414011273
1.6388957970654066,-0.6416460449218749,2.528276953125,9.457096557617186,9.810227790360516
1.641382740611788,-0.63206923828125,2.50912333984375,9.447519750976562,9.795450010164021
1.6438696841581695,-0.6368576416015624,2.4947581298828125,9.447519750976562,9.792090442156615
1.646356627704551,-0.63206923828125,2.499546533203125,9.466673364257812,9.811480468266627
1.6488435712509326,-0.6177040283203125,2.4899697265625,9.466673364257812,9.808129897760795
1.651330514797314,-0.6177040283203125,2.4756045166015626,9.457096557617186,9.795246361848998
1.6538174583436955,-0.59376201171875,2.47081611328125,9.452308154296874,9.787932112351298
1.656304401890077,-0.584185205078125,2.4660277099609376,9.437942944335937,9.772273637218099
1.6587913454364585,-0.59376201171875,2.47081611328125,9.428366137695312,9.76481303551943
1.66127828898284,-0.5793968017578125,2.4660277099609376,9.428366137695312,9.762739438632067
1.6637652325292216,-0.5602431884765625,2.4756045166015626,9.437942944335937,9.773293056764079
1.666252176075603,-0.5458779785156249,2.480392919921875,9.442731347656249,9.77831821473595
1.6687391196219845,-0.5363011718749999,2.4660277099609376,9.442731347656249,9.774154025656628
1.671226063168366,-0.5267243652343749,2.461239306640625,9.442731347656249,9.772426146331032
1.6737130067147474,-0.5123591552734374,2.47081611328125,9.442731347656249,9.774078957817599
1.676199950261129,-0.507570751953125,2.47081611328125,9.447519750976562,9.778455388198116
1.6786868938075106,-0.507570751953125,2.4756045166015626,9.457096557617186,9.78891827991996
1.681173837353892,-0.49799394531249996,2.4756045166015626,9.4618849609375,9.793052777668525
1.6836607809002735,-0.5027823486328125,2.4851813232421875,9.4618849609375,9.795722705012825
1.686147724446655,-0.49320554199218747,2.4899697265625,9.457096557617186,9.791827012664408
1.6886346679930364,-0.488417138671875,2.4899697265625,9.452308154296874,9.786962244963108
1.6911216115394179,-0.488417138671875,2.4899697265625,9.452308154296874,9.786962244963108
1.6936085550857995,-0.49320554199218747,2.4947581298828125,9.452308154296874,9.788421694893175
1.696095498632181,-0.49799394531249996,2.50912333984375,9.447519750976562,9.787713080654175
1.6985824421785625,-0.5027823486328125,2.5139117431640625,9.457096557617186,9.798429345696674
1.701069385724944,-0.49799394531249996,2.5139117431640625,9.4618849609375,9.80280659994888
1.7035563292713254,-0.507570751953125,2.5234885498046875,9.4618849609375,9.805757979026856
1.7060432728177068,-0.5123591552734374,2.528276953125,9.4618849609375,9.807240349339398
1.7085302163640885,-0.507570751953125,2.518700146484375,9.4618849609375,9.804526786650843
1.71101715991047,-0.5123591552734374,2.5378537597656248,9.466673364257812,9.81433228475057
1.7135041034568514,-0.5219359619140624,2.5378537597656248,9.466673364257812,9.814836903374605
1.715991047003233,-0.5315127685546874,2.5330653564453125,9.447519750976562,9.795639609961789
1.7184779905496144,-0.5363011718749999,2.5378537597656248,9.447519750976562,9.797139893765081
1.7209649340959958,-0.5410895751953124,2.5522189697265625,9.452308154296874,9.805749794972556
1.7234518776423775,-0.5363011718749999,2.5522189697265625,9.452308154296874,9.805486732445962
1.725938821188759,-0.5363011718749999,2.5426421630859375,9.452308154296874,9.802998396421577
1.7284257647351404,-0.5410895751953124,2.5426421630859375,9.466673364257812,9.817113205185917
1.7309127082815219,-0.5410895751953124,2.5474305664062498,9.476250170898437,9.827588601508438
1.7333996518279033,-0.5363011718749999,2.5570073730468748,9.471461767578125,9.825196876778842
1.7358865953742848,-0.5410895751953124,2.5570073730468748,9.466673364257812,9.820843610390577
1.7383735389206665,-0.55545478515625,2.5474305664062498,9.452308154296874,9.80530784589658
1.740860482467048,-0.5506663818359374,2.5522189697265625,9.433154541015625,9.787822011469157
1.7433474260134294,-0.5458779785156249,2.5378537597656248,9.423577734375,9.774584481664327
1.7458343695598109,-0.5410895751953124,2.528276953125,9.423577734375,9.771836040166471
1.7483213131061923,-0.5458779785156249,2.5330653564453125,9.428366137695312,9.777959444275238
1.7508082566525738,-0.5410895751953124,2.528276953125,9.428366137695312,9.776453871753688
1.7532952001989555,-0.5315127685546874,2.518700146484375,9.428366137695312,9.773456107103398
1.755782143745337,-0.5315127685546874,2.518700146484375,9.433154541015625,9.77807551851185
1.7582690872917184,-0.5315127685546874,2.518700146484375,9.423577734375,9.768836858441507
1.7607560308380998,-0.5219359619140624,2.518700146484375,9.433154541015625,9.777559622468342
1.7632429743844813,-0.5219359619140624,2.50912333984375,9.442731347656249,9.784339138996451
1.765729917930863,-0.5219359619140624,2.5139117431640625,9.442731347656249,9.785568185075782
1.7682168614772444,-0.5219359619140624,2.518700146484375,9.457096557617186,9.800660328586764
1.770703805023626,-0.5123591552734374,2.5139117431640625,9.4618849609375,9.803546866844975
1.7731907485700074,-0.5219359619140624,2.5139117431640625,9.452308154296874,9.794809791136554
1.7756776921163888,-0.51714755859375,2.5139117431640625,9.452308154296874,9.794555798685554
1.7781646356627703,-0.49799394531249996,2.5139117431640625,9.442731347656249,9.784320391626395
1.780651579209152,-0.5123591552734374,2.518700146484375,9.428366137695312,9.772433185155707
1.7831385227555334,-0.5219359619140624,2.528276953125,9.433154541015625,9.780030986388843
1.7856254663019149,-0.51714755859375,2.5330653564453125,9.428366137695312,9.77639758417294
1.7881124098482963,-0.5219359619140624,2.5426421630859375,9.423577734375,9.774521146002487
1.7905993533946778,-0.5219359619140624,2.5378537597656248,9.437942944335937,9.787128581705472
1.7930862969410593,-0.5123591552734374,2.528276953125,9.442731347656249,9.788762514215243
1.795573240487441,-0.5123591552734374,2.5378537597656248,9.452308154296874,9.800476674822312
1.7980601840338224,-0.51714755859375,2.5474305664062498,9.452308154296874,9.803212408787617
1.8005471275802039,8.94473740234375,1.9871873779296874,8.724470849609375,12.652020885122424
1.8030340711265853,9.327809667968749,3.404554760742187,8.79150849609375,13.262339460202039
1.8055210146729668,9.380482104492186,4.69263525390625,8.858546142578124,13.72909719898172
1.8080079582193482,9.131485131835937,5.813121630859374,8.935160595703124,14.036149709913746
1.81049490176573,8.609549169921875,6.742071875,9.045293872070312,14.191448527514067
1.8129818453121114,7.862558251953125,7.4794859863281244,9.1554271484375,14.198041384479106
1.8154687888584928,6.928819604492187,7.996633544921875,9.275137231445312,14.070638216708867
1.8179557324048743,5.832275244140624,8.298302954101562,9.3852705078125,13.818848321994182
1.8204426759512558,4.649539624023437,8.403647827148436,9.5001921875,13.509003187413077
1.8229296194976372,3.4093431640625,8.307879760742187,9.605537060546874,13.149556233988616
1.825416563044019,2.1499930908203124,8.02536396484375,9.677363110351562,12.754618529316389
1.8279035065904004,0.9145850341796874,7.589619262695312,9.730035546875,12.373858657705455
1.8303904501367818,-0.258573779296875,7.034164477539062,9.777919580078125,12.047989110672678
1.8328773936831633,-1.3311761230468748,6.373364819335937,9.811438403320311,11.775233863200668
1.8353643372295447,-2.29843359375,5.635950708007812,9.835380419921874,11.56639292833141
1.8378512807759262,-3.1459809814453124,4.855440966796874,9.849745629882811,11.42322162487713
1.8403382243223079,-3.825934252929687,4.046200805664062,9.835380419921874,11.302398943236772
1.8428251678686893,-4.347870214843749,3.246537451171875,9.801861596679688,11.203591905610052
1.8453121114150708,-4.721365673828124,2.4947581298828125,9.763554370117188,11.128436812547095
1.8477990549614522,-4.927267016601562,1.7908628417968748,9.710881933593749,11.03568656220427
1.8502859985078337,-4.989516259765625,1.1731588134765625,9.658209497070311,10.93401046265287
1.8527729420542152,-4.903325,0.6512228515624999,9.610325463867188,10.808563400354195
1.8552598856005968,-4.697423657226563,0.2154781494140625,9.562441430664062,10.656101818358684
1.8577468291469783,-4.386177441406249,-0.1149216796875,9.509768994140625,10.47317840303896
1.8602337726933598,-3.9839515624999997,-0.32561142578124996,9.442731347656249,10.253929400817789
1.8627207162397412,-3.5098996337890624,-0.43574470214843747,9.390058911132812,10.034065738237304
1.8652076597861227,-2.9831752685546875,-0.44532150878906246,9.356540087890625,9.830691142814468
1.8676946033325041,-2.43250888671875,-0.3591302490234375,9.313444458007812,9.632565685845373
1.8701815468788858,-1.8770541015625,-0.1771709228515625,9.294290844726563,9.483594463201422
1.8726684904252673,-1.3215993164062498,0.0718260498046875,9.279925634765624,9.373836115557824
1.8751554339716487,-0.7900865478515624,0.373495458984375,9.270348828125,9.311450102218048
1.8776423775180302,-0.296881005859375,0.7230489013671875,9.265560424804686,9.298470198431309
1.8801293210644117,0.16280571289062498,1.1156979736328125,9.246406811523437,9.314898098890035
1.8826162646107931,0.5506663818359374,1.5083470458984374,9.255983618164063,9.39423104967492
1.8851032081571748,0.86191259765625,1.9105729248046874,9.270348828125,9.504343723904025
1.8875901517035563,1.1156979736328125,2.3127988037109373,9.284714038085937,9.633261910892134
1.8900770952499377,1.3024457031249999,2.6862942626953124,9.3086560546875,9.77566464338097
1.8925640387963192,1.4173673828125,3.0214824951171875,9.332598071289063,9.911391099456658
1.8950509823427006,1.465251416015625,3.323151904296875,9.375693701171874,10.054547860016466
1.897537925889082,1.43652099609375,3.5817256835937497,9.404424121093749,10.16540921429842
1.9000248694354638,1.3646949462890625,3.782838623046875,9.433154541015625,10.254592382885132
1.9025118129818452,1.2880804931640624,3.9408559326171875,9.466673364257812,10.334766636168528
1.9049987565282267,1.13006318359375,4.031835595703125,9.471461767578125,10.35573894439151
1.9074857000746082,0.9145850341796874,4.055777612304687,9.524134204101562,10.392060919902013
1.9099726436209896,0.689530078125,4.017470385742187,9.572018237304688,10.403799938688175
1.9124595871673713,0.4213794921875,3.9504327392578125,9.572018237304688,10.363735457793668
1.9149465307137528,0.1580173095703125,3.854664672851562,9.572018237304688,10.320220072534656
1.9174334742601342,-0.0909796630859375,3.7014357666015623,9.576806640625,10.267625307990723
1.9199204178065157,-0.3447650390625,3.5242648437499997,9.567229833984374,10.201528920575223
1.9224073613528971,-0.5746083984375,3.342305517578125,9.552864624023437,10.13698197242683
1.9248943048992786,-0.7852981445312499,3.1459809814453124,9.533711010742186,10.070031536582526
1.9273812484456603,-0.9720458740234375,2.9448680419921875,9.504980590820312,9.998088667231539
1.9298681919920417,-1.120486376953125,2.7533319091796873,9.490615380859374,9.945255483417665
1.9323551355384232,-1.24498486328125,2.5617957763671875,9.481038574218749,9.899640263940709
1.9348420790848047,-1.3455413330078123,2.379836450195312,9.466673364257812,9.853527672567779
1.9373290226311861,-1.4173673828125,2.221819140625,9.466673364257812,9.826663481419148
1.9398159661775676,-1.4508862060546874,2.0829554443359375,9.452308154296874,9.78723166221152
1.9423029097239493,-1.4508862060546874,1.9728221679687499,9.447519750976562,9.759750382793657
1.9447898532703307,-1.4221557861328125,1.89620771484375,9.4618849609375,9.754250242426592
1.9472767968167122,-1.369483349609375,1.8291700683593748,9.476250170898437,9.747854383672943
1.9497637403630936,-1.2976572998046874,1.7860744384765623,9.466673364257812,9.72069343992825
1.952250683909475,-1.20667763671875,1.7812860351562498,9.457096557617186,9.698748690325708
1.9547376274558566,-1.1061211669921875,1.8004396484374998,9.447519750976562,9.680946049267405
1.9572245710022382,-1.0007762939453124,1.838746875,9.423577734375,9.653308271087868
1.9597115145486197,-0.8762778076171874,1.8914193115234375,9.418789331054686,9.6467052546927
1.9621984580950012,-0.7613561279296874,1.9488801513671874,9.399635717773437,9.62969099321319
1.9646854016413826,-0.6512228515624999,2.0254946044921875,9.380482104492186,9.618740255767504
1.967172345187764,-0.5410895751953124,2.1164742675781247,9.3852705078125,9.636158143083813
1.9696592887341455,-0.44532150878906246,2.212242333984375,9.390058911132812,9.6574082312496
1.9721462322805272,-0.3687070556640625,2.3127988037109373,9.380482104492186,9.668424262104004
1.9746331758269087,-0.28730419921875,2.4133552734375,9.370905297851563,9.680944865043898
1.9771201193732901,-0.22505495605468748,2.50912333984375,9.380482104492186,9.712867454078204
1.9796070629196716,-0.1771709228515625,2.6001030029296874,9.390058911132812,9.74500546517511
1.982094006466053,-0.1388636962890625,2.6815058593749996,9.404424121093749,9.780232607122361
1.9845809500124345,-0.11013327636718749,2.748543505859375,9.414000927734374,9.80765181934742
1.9870678935588162,-0.1005564697265625,2.806004345703125,9.423577734375,9.832984760870778
1.9895548371051976,-0.1005564697265625,2.858676782226562,9.433154541015625,9.857309427198112
1.992041780651579,-0.11013327636718749,2.896984008789062,9.452308154296874,9.886899166550153
1.9945287241979606,-0.13407529296874998,2.920926025390625,9.466673364257812,9.907960921175317
1.997015667744342,-0.17238251953125,2.925714428710937,9.4618849609375,9.905391848151316
1.9995026112907235,-0.22026655273437498,2.916137622070312,9.457096557617186,9.898941927559845
2.001989554837105,-0.469263525390625,2.5522189697265625,9.423577734375,9.774346384362609
2.0044764983834864,-0.4740519287109375,2.5522189697265625,9.423577734375,9.774577444388834
2.006963441929868,-0.47884033203125,2.5570073730468748,9.452308154296874,9.803759697849753
2.0094503854762498,-0.4836287353515625,2.5570073730468748,9.471461767578125,9.82246259723945
2.011937329022631,-0.488417138671875,2.5570073730468748,9.490615380859374,9.841169560299681
2.0144242725690127,-0.49799394531249996,2.5570073730468748,9.5001921875,9.85088505033025
2.016911216115394,-0.5123591552734374,2.5522189697265625,9.509768994140625,9.859616620099537
2.0193981596617756,-0.51714755859375,2.5378537597656248,9.495403784179686,9.84229832548932
2.021885103208157,-0.5315127685546874,2.5330653564453125,9.4618849609375,9.809495039867002
2.0243720467545385,-0.5458779785156249,2.5474305664062498,9.4618849609375,9.814002866929702
2.02685899030092,-0.5602431884765625,2.5522189697265625,9.4618849609375,9.816056291285301
2.0293459338473014,-0.5602431884765625,2.5570073730468748,9.447519750976562,9.80345799099189
2.031832877393683,-0.5602431884765625,2.5474305664062498,9.452308154296874,9.805580266597303
2.0343198209400644,-0.5698199951171875,2.5426421630859375,9.457096557617186,9.809505558203865
2.036806764486446,-0.584185205078125,2.5570073730468748,9.452308154296874,9.809469328329408
2.0392937080328277,-0.584185205078125,2.5522189697265625,9.442731347656249,9.798993281315907
2.041780651579209,-0.5889736083984375,2.5426421630859375,9.433154541015625,9.787559638417328
2.0442675951255906,-0.59376201171875,2.5426421630859375,9.428366137695312,9.78323415453715
2.046754538671972,-0.6081272216796875,2.5378537597656248,9.414000927734374,9.769029321846057
2.0492414822183536,-0.603338818359375,2.528276953125,9.418789331054686,9.770864575063555
2.0517284257647352,-0.59376201171875,2.528276953125,9.447519750976562,9.79797770580009
2.0542153693111165,-0.603338818359375,2.518700146484375,9.466673364257812,9.81456941201131
2.056702312857498,-0.59376201171875,2.499546533203125,9.481038574218749,9.822951625862357
2.0591892564038794,-0.584185205078125,2.4899697265625,9.509768994140625,9.847686424483078
2.061676199950261,-0.584185205078125,2.4899697265625,9.514557397460937,9.852310595114657
2.0641631434966423,-0.5746083984375,2.480392919921875,9.490615380859374,9.826204972223916
2.066650087043024,-0.565031591796875,2.480392919921875,9.466673364257812,9.802525915419729
2.0691370305894057,-0.55545478515625,2.4851813232421875,9.452308154296874,9.789319980035996
2.071623974135787,-0.5506663818359374,2.480392919921875,9.442731347656249,9.778586697743844
2.0741109176821686,-0.5458779785156249,2.4899697265625,9.433154541015625,9.77150636295703
2.07659786122855,-0.5267243652343749,2.4947581298828125,9.418789331054686,9.757809649011273
2.0790848047749315,-0.5219359619140624,2.5043349365234375,9.404424121093749,9.74614301516456
2.081571748321313,-0.5219359619140624,2.5043349365234375,9.409212524414063,9.750763608672987
2.0840586918676944,-0.507570751953125,2.5043349365234375,9.404424121093749,9.74538427112754
2.086545635414076,-0.49799394531249996,2.4947581298828125,9.414000927734374,9.751678294712555
2.0890325789604574,-0.5123591552734374,2.4947581298828125,9.423577734375,9.761667242147581
2.091519522506839,-0.5027823486328125,2.50912333984375,9.414000927734374,9.755608822212432
2.0940064660532203,-0.4836287353515625,2.5043349365234375,9.414000927734374,9.753409849654286
2.096493409599602,-0.47884033203125,2.4899697265625,9.423577734375,9.758742471168393
2.0989803531459836,-0.488417138671875,2.4947581298828125,9.433154541015625,9.769686485381634
2.101467296692365,-0.4836287353515625,2.5139117431640625,9.433154541015625,9.774356940523486
2.1039542402387466,-0.47884033203125,2.5139117431640625,9.442731347656249,9.78336422811744
2.106441183785128,-0.4836287353515625,2.518700146484375,9.442731347656249,9.784831244613683
2.1089281273315095,-0.47884033203125,2.5426421630859375,9.452308154296874,9.800022789609692
2.111415070877891,-0.47884033203125,2.5522189697265625,9.452308154296874,9.802511880982298
2.1139020144242724,-0.488417138671875,2.5570073730468748,9.437942944335937,9.790383293196696
2.116388957970654,-0.488417138671875,2.5665841796874997,9.428366137695312,9.78365952388012
2.1188759015170353,-0.49320554199218747,2.5713725830078125,9.437942944335937,9.794384906048801
2.121362845063417,-0.49799394531249996,2.5761609863281247,9.452308154296874,9.809726440672756
2.1238497886097982,-0.49320554199218747,2.5857377929687497,9.452308154296874,9.812003928068204
2.12633673215618,-0.49799394531249996,2.5905261962890624,9.452308154296874,9.813508719464968
2.1288236757025616,-0.5123591552734374,2.5857377929687497,9.452308154296874,9.812985339934356
2.131310619248943,-0.5219359619140624,2.5905261962890624,9.457096557617186,9.819364461211014
2.1337975627953245,-0.5219359619140624,2.5953145996093747,9.4618849609375,9.825240049652729
2.1362845063417057,-0.5363011718749999,2.5953145996093747,9.466673364257812,9.83062467005268
2.1387714498880874,-0.5410895751953124,2.5857377929687497,9.471461767578125,9.832975433563641
2.141258393434469,-0.5410895751953124,2.5857377929687497,9.4618849609375,9.823751059365621
2.1437453369808503,-0.5506663818359374,2.5809493896484375,9.4618849609375,9.823023986025188
2.146232280527232,-0.55545478515625,2.5665841796874997,9.466673364257812,9.824143166471234
2.1487192240736133,-0.55545478515625,2.5570073730468748,9.457096557617186,9.812415198322169
2.151206167619995,-0.55545478515625,2.5570073730468748,9.452308154296874,9.807800271618312
2.153693111166376,-0.5602431884765625,2.5570073730468748,9.452308154296874,9.808072623091533
2.156180054712758,-0.5602431884765625,2.5426421630859375,9.452308154296874,9.804337358716493
2.1586669982591395,-0.55545478515625,2.5378537597656248,9.457096557617186,9.807441410704646
2.161153941805521,-0.55545478515625,2.5378537597656248,9.4618849609375,9.81205884299135
2.1636408853519025,-0.55545478515625,2.528276953125,9.457096557617186,9.804967601687975
2.1661278288982837,-0.5506663818359374,2.528276953125,9.452308154296874,9.800078941497079
2.1686147724446654,-0.55545478515625,2.5330653564453125,9.447519750976562,9.79696787600473
2.171101715991047,-0.55545478515625,2.528276953125,9.433154541015625,9.781877067554044
2.1735886595374283,-0.5458779785156249,2.5234885498046875,9.423577734375,9.770864575063555
2.17607560308381,-0.55545478515625,2.5139117431640625,9.423577734375,9.76893543773217
2.178562546630191,-0.5602431884765625,2.50912333984375,9.418789331054686,9.763358276104212
2.181049490176573,-0.55545478515625,2.5139117431640625,9.404424121093749,9.750460261966154
2.1835364337229546,-0.55545478515625,2.518700146484375,9.404424121093749,9.751695929204484
2.186023377269336,-0.5506663818359374,2.518700146484375,9.414000927734374,9.760660703014338
2.1885103208157175,-0.5410895751953124,2.50912333984375,9.423577734375,9.766897930189604
2.1909972643620987,-0.5363011718749999,2.4947581298828125,9.452308154296874,9.790687744860321
2.1934842079084804,-0.5315127685546874,2.4899697265625,9.466673364257812,9.803079090157475
2.1959711514548617,-0.5315127685546874,2.4899697265625,9.452308154296874,9.78920755251014
2.1984580950012433,-0.5363011718749999,2.4899697265625,9.447519750976562,9.784845304410513
2.200945038547625,-0.5458779785156249,2.4899697265625,9.452308154296874,9.789998031175145
2.2034319820940063,-0.5315127685546874,2.4947581298828125,9.437942944335937,9.776558237452154
2.205918925640388,-0.5219359619140624,2.4947581298828125,9.428366137695312,9.766796982706007
2.208405869186769,-0.5219359619140624,2.5043349365234375,9.433154541015625,9.773868999393983
2.210892812733151,-0.5315127685546874,2.5139117431640625,9.452308154296874,9.79532477865548
2.2133797562795325,-0.5315127685546874,2.528276953125,9.4618849609375,9.80825964118278
2.2158666998259138,-0.5315127685546874,2.5234885498046875,9.457096557617186,9.802406622061078
2.2183536433722955,-0.5219359619140624,2.518700146484375,9.452308154296874,9.79603986415055
2.2208405869186767,-0.5219359619140624,2.5330653564453125,9.457096557617186,9.80436191439593
2.2233275304650584,-0.5315127685546874,2.5426421630859375,9.452308154296874,9.802737599080482
2.2258144740114396,-0.5363011718749999,2.5474305664062498,9.442731347656249,9.795008766796759
2.2283014175578213,-0.5363011718749999,2.5378537597656248,9.4618849609375,9.810993204916935
2.230788361104203,-0.5315127685546874,2.5426421630859375,9.481038574218749,9.830443908515164
2.233275304650584,-0.5363011718749999,2.5570073730468748,9.471461767578125,9.825196876778842
2.235762248196966,-0.5363011718749999,2.5522189697265625,9.4618849609375,9.814718927733074
2.238249191743347,-0.5363011718749999,2.5426421630859375,9.481038574218749,9.830703970839561
2.240736135289729,-0.5315127685546874,2.5522189697265625,9.485826977539062,9.83754242381585
2.2432230788361105,-0.5315127685546874,2.5570073730468748,9.471461767578125,9.824936668683767
2.2457100223824917,-0.5458779785156249,2.5426421630859375,9.466673364257812,9.817378291706953
2.2481969659288734,-0.5506663818359374,2.5426421630859375,9.476250170898437,9.826880478312498
2.2506839094752547,-0.5458779785156249,2.5378537597656248,9.466673364257812,9.81613921350615
2.2531708530216363,-0.5458779785156249,2.518700146484375,9.4618849609375,9.806584533329836
2.2556577965680176,-0.5506663818359374,2.5139117431640625,9.466673364257812,9.81024415099088
2.2581447401143993,-0.55545478515625,2.5139117431640625,9.447519750976562,9.79203307367083
2.260631683660781,-0.565031591796875,2.5234885498046875,9.437942944335937,9.785807180874983
2.263118627207162,-0.5602431884765625,2.518700146484375,9.433154541015625,9.77967931237106
2.265605570753544,-0.5602431884765625,2.518700146484375,9.433154541015625,9.77967931237106
2.268092514299925,-0.5602431884765625,2.5378537597656248,9.423577734375,9.775397252899708
2.2705794578463068,-0.5602431884765625,2.5330653564453125,9.409212524414063,9.760305981876195
2.2730664013926885,-0.5602431884765625,2.518700146484375,9.409212524414063,9.756587681547542
2.2755533449390697,-0.5506663818359374,2.5139117431640625,9.414000927734374,9.759426170830235
2.2780402884854514,-0.5458779785156249,2.5139117431640625,9.428366137695312,9.773015043797184
2.2805272320318326,-0.5458779785156249,2.5139117431640625,9.437942944335937,9.782254445698443
2.2830141755782143,-0.5458779785156249,2.4947581298828125,9.437942944335937,9.777349738788379
2.2855011191245955,-0.5315127685546874,2.480392919921875,9.447519750976562,9.782151312744425
2.287988062670977,-0.5219359619140624,2.480392919921875,9.452308154296874,9.78626055392584
2.290475006217359,-0.5267243652343749,2.4899697265625,9.452308154296874,9.788948730068846
2.29296194976374,-0.5315127685546874,2.5043349365234375,9.4618849609375,9.802115399822824
2.295448893310122,-0.5219359619140624,2.5043349365234375,9.457096557617186,9.79697840779114
2.297935836856503,-0.5123591552734374,2.499546533203125,9.452308154296874,9.79062685528498
2.3004227804028847,-0.5123591552734374,2.499546533203125,9.442731347656249,9.781381297120069
2.3029097239492664,-0.5123591552734374,2.50912333984375,9.428366137695312,9.769969286798233
2.3053966674956476,-0.51714755859375,2.50912333984375,9.428366137695312,9.770221571609712
2.3078836110420293,-0.5123591552734374,2.50912333984375,9.423577734375,9.765348388785187
2.3103705545884106,-0.51714755859375,2.5043349365234375,9.428366137695312,9.768992941858999
2.3128574981347922,-0.5219359619140624,2.5043349365234375,9.442731347656249,9.78311228222599
2.315344441681174,-0.51714755859375,2.5043349365234375,9.442731347656249,9.78285798607244
2.317831385227555,-0.5219359619140624,2.5139117431640625,9.433154541015625,9.776327224241271
2.320318328773937,-0.5363011718749999,2.5330653564453125,9.433154541015625,9.782047006719075
2.322805272320318,-0.5410895751953124,2.5378537597656248,9.433154541015625,9.783551718523558
2.3252922158666998,-0.5315127685546874,2.5426421630859375,9.428366137695312,9.779653522445395
2.327779159413081,-0.5315127685546874,2.5474305664062498,9.433154541015625,9.785515464628384
2.3302661029594627,-0.5363011718749999,2.5617957763671875,9.433154541015625,9.789526093813274
2.3327530465058444,-0.5363011718749999,2.5761609863281247,9.442731347656249,9.802520067739907
2.3352399900522256,-0.5458779785156249,2.5857377929687497,9.452308154296874,9.814792516665973
2.3377269335986073,-0.5506663818359374,2.5905261962890624,9.447519750976562,9.811711822247759
2.3402138771449885,-0.5506663818359374,2.6001030029296874,9.447519750976562,9.814244674707295
2.34270082069137,-0.5506663818359374,2.6001030029296874,9.4618849609375,9.828073875584346
2.345187764237752,-0.5506663818359374,2.6048914062499997,9.466673364257812,9.8339512551155
2.347674707784133,-0.5458779785156249,2.6001030029296874,9.471461767578125,9.837027315605381
2.350161651330515,-0.55545478515625,2.5857377929687497,9.471461767578125,9.833776383822952
2.352648594876896,-0.55545478515625,2.5857377929687497,9.466673364257812,9.829164488291372
2.3551355384232777,-0.5458779785156249,2.5857377929687497,9.471461767578125,9.833240092467454
2.357622481969659,-0.5602431884765625,2.5809493896484375,9.476250170898437,9.837402578100262
2.3601094255160406,-0.565031591796875,2.5809493896484375,9.466673364257812,9.82845181283418
2.3625963690624223,-0.55545478515625,2.5809493896484375,9.457096557617186,9.81868143237036
2.3650833126088036,-0.5410895751953124,2.5761609863281247,9.466673364257812,9.825847950248999
2.3675702561551852,-0.5410895751953124,2.5617957763671875,9.4618849609375,9.817476383583157
2.3700571997015665,-0.5410895751953124,2.5617957763671875,9.447519750976562,9.803632233682068
2.372544143247948,1.120486376953125,3.5865140869140624,21.150377465820313,21.481551153565476
2.37503108679433,1.0295067138671874,4.103661645507812,20.815189233398435,21.240810384655656
2.377518030340711,0.8475473876953125,4.486733911132812,19.646818823242185,20.170438954990587
2.3800049738870928,0.5793968017578125,4.7117888671875,17.79849514160156,18.420724314978866
2.382491917433474,0.258573779296875,4.754884497070313,15.418658691406248,16.137249543274002
2.3849788609798557,-0.0909796630859375,4.611232397460937,12.727576025390624,13.537464053676626
2.387465804526237,-0.45010991210937495,4.338293408203125,9.969455712890625,10.881793778597595
2.3899527480726186,-0.8092401611328125,3.9695863525390624,7.335833886718749,8.380151804244703
2.3924396916190003,-1.1252747802734375,3.5051112304687497,5.0182466796875,6.223732626589305
2.3949266351653815,-1.3742717529296875,2.9927520751953125,3.1603461914062496,4.5643154890982585
2.397413578711763,-1.5658078857421873,2.4851813232421875,1.8818425048828125,3.488439731115879
2.3999005222581444,-1.695094775390625,2.020706201171875,1.2593500732421874,2.922766233551046
2.402387465804526,-1.7334020019531249,1.618480322265625,1.2976572998046874,2.7033452464812067
2.404874409350908,-1.6903063720703124,1.3072341064453123,1.9536685546875,2.8953095623939973
2.407361352897289,-1.5753846923828123,1.1013327636718748,3.1220389648437497,3.666319419163291
2.4098482964436707,-1.4030021728515625,1.0199299072265624,4.687846850585937,4.9984577828796235
2.412335239990052,-1.1827356201171875,1.0486603271484374,6.555324145507812,6.7432059646363145
2.4148221835364336,-0.9337386474609375,1.1731588134765625,8.537723120117187,8.668384251934352
2.417309127082815,-0.6751648681640625,1.3934253662109375,10.457872851562499,10.571877147879228
2.4197960706291965,-0.4165910888671875,1.6807295654296874,12.186486450195313,12.308893208092552
2.4222830141755782,-0.17238251953125,2.001552587890625,13.613430639648437,13.76086560778974
2.4247699577219595,0.023942016601562498,2.3511060302734372,14.633360546874998,14.821049682144137
2.427256901268341,0.19153613281249998,2.6815058593749996,15.193603735351562,15.429606418535897
2.4297438448147224,0.2920926025390625,2.96881005859375,15.303737011718749,15.5917772488038
2.432230788361104,0.3399766357421875,3.208230224609375,14.963760375976562,15.30759451633711
2.4347177319074857,0.3399766357421875,3.361459130859375,14.221557861328124,14.617376632090734
2.437204675453867,0.2825157958984375,3.447650390625,13.163320727539062,13.61025793168404
2.4396916190002487,0.16280571289062498,3.4668040039062498,11.889605444335936,12.385796434772896
2.44217856254663,0.009576806640625,3.414131567382812,10.505756884765624,11.046597385458817
2.4446655060930116,-0.16759411621093748,3.294421484375,9.126696728515624,9.70452955473875
2.4471524496393933,-0.354341845703125,3.1172505615234374,7.862558251953125,8.465378401010238
2.4496393931857745,-0.5506663818359374,2.901772412109375,6.789955908203124,7.404526847213525
2.452126336732156,-0.737414111328125,2.6862942626953124,5.980715747070312,6.597644828621074
2.4546132802785374,-0.9050082275390624,2.461239306640625,5.482721801757812,6.077579877873811
2.457100223824919,-1.0342951171875,2.250549560546875,5.310339282226562,5.859559966949238
2.4595871673713003,-1.1252747802734375,2.0781670410156248,5.453991381835937,5.943992225316563
2.462074110917682,-1.1827356201171875,1.9488801513671874,5.899312890625,6.324467564386845
2.4645610544640637,-1.1923124267578125,1.867477294921875,6.58884296875,6.951397847691941
2.467047998010445,-1.158793603515625,1.8435352783203125,7.445967163085937,7.757825206313579
2.4695349415568266,-1.0965443603515623,1.8722656982421875,8.418013037109375,8.69314280752229
2.472021885103208,-0.9959878906249999,1.9297265380859374,9.418789331054686,9.665889966932914
2.4745088286495895,-0.86191259765625,2.0254946044921875,10.342951171874999,10.574599787349682
2.4769957721959712,-0.718260498046875,2.1499930908203124,11.133037719726563,11.361465455762476
2.4794827157423525,-0.5793968017578125,2.29843359375,11.755530151367187,11.992121863059463
2.481969659288734,-0.430956298828125,2.4564509033203126,12.16254443359375,12.415609589185104
2.4844566028351154,-0.28730419921875,2.6144682128906247,12.349292163085936,12.626282297983042
2.486943546381497,-0.1867477294921875,2.7437551025390623,12.306196533203124,12.609739881972198
2.4894304899278783,-0.1005564697265625,2.849099975585937,12.042834350585936,12.375675394504343
2.49191743347426,-0.0430956298828125,2.935291235351562,11.597512841796874,11.963281154653606
2.4944043770206417,-0.0047884033203125,2.9831752685546875,11.022904443359375,11.419447446315191
2.496891320567023,-0.009576806640625,2.987963671875,10.357316381835936,10.779704135694876
2.4993782641134046,-0.047884033203124995,2.959233251953125,9.658209497070311,10.10150310643916
2.501865207659786,-0.1149216796875,2.906560815429687,8.992621435546875,9.451377838670433
2.5043521512061675,-0.201112939453125,2.829946362304687,8.398859423828124,8.865093482257448
2.506839094752549,-0.3064578125,2.73896669921875,7.900865478515625,8.367767341404246
2.5093260382989304,-0.4070142822265625,2.6336218261718747,7.551312036132812,8.007742379489336
2.511812981845312,-0.507570751953125,2.5378537597656248,7.378929516601562,7.819650285349629
2.5142999253916933,-0.612915625,2.4564509033203126,7.369352709960937,7.792122686893536
2.516786868938075,-0.699106884765625,2.370259643554687,7.50821640625,7.904441461436244
2.5192738124844563,-0.7709329345703124,2.3223756103515623,7.781155395507812,8.156846532465922
2.521760756030838,-0.8283937744140625,2.2936451904296873,8.164227661132813,8.520660643862973
2.5242476995772196,-0.8667010009765624,2.2840683837890623,8.623914379882812,8.963260469185759
2.526734643123601,-0.8762778076171874,2.2936451904296873,9.117119921875,9.441956721228584
2.5292215866699825,-0.852335791015625,2.3223756103515623,9.605537060546874,9.918984171665036
2.5317085302163638,-0.8188169677734375,2.365471240234375,10.05564697265625,10.362526306542264
2.5341954737627455,-0.7661445312499999,2.427720483398437,10.43871923828125,10.744657440976873
2.536682417309127,-0.70868369140625,2.4899697265625,10.716446630859375,11.024718146316493
2.5391693608555084,-0.6368576416015624,2.5570073730468748,10.864887133789061,11.179876868349556
2.54165630440189,-0.565031591796875,2.6192566162109374,10.9175595703125,11.241568969348334
2.5441432479482713,-0.5027823486328125,2.6815058593749996,10.850521923828124,11.18825678036726
2.546630191494653,-0.43574470214843747,2.729389892578125,10.658985791015624,11.011513098763087
2.549117135041034,-0.37828386230468747,2.7533319091796873,10.395623608398436,10.760712127460623
2.551604078587416,-0.3399766357421875,2.7629087158203123,10.098742602539062,10.475392634032572
2.5540910221337976,-0.316034619140625,2.767697119140625,9.758765966796874,10.14857322082802
2.556577965680179,-0.3064578125,2.73896669921875,9.418789331054686,9.813737689232433
2.5590649092265605,-0.316034619140625,2.710236279296875,9.09796630859375,9.498328775233004
2.5615518527729417,-0.3399766357421875,2.6767174560546874,8.815450512695312,9.219141402222796
2.5640387963193234,-0.373495458984375,2.6336218261718747,8.59997236328125,9.001943536279935
2.566525739865705,-0.4165910888671875,2.5857377929687497,8.456320263671875,8.852623366612749
2.5690126834120863,-0.4644751220703125,2.5378537597656248,8.40843623046875,8.795353244005511
2.571499626958468,-0.5267243652343749,2.4947581298828125,8.44674345703125,8.823192829834797
2.5739865705048492,-0.5746083984375,2.461239306640625,8.566453540039062,8.931517227758983
2.576473514051231,-0.6368576416015624,2.43250888671875,8.719682446289061,9.074995818387665
2.5789604575976126,-0.6847416748046875,2.4133552734375,8.901641772460938,9.248371807094719
2.581447401143994,-0.70868369140625,2.408566870117187,9.1554271484375,9.493433162593904
2.5839343446903755,-0.7326257080078125,2.4133552734375,9.418789331054686,9.750621342594128
2.5864212882367568,-0.7278373046875,2.43250888671875,9.658209497070311,9.98638359544433
2.5889082317831384,-0.7326257080078125,2.4564509033203126,9.859322436523437,10.187106084447711
2.5913951753295197,-0.7326257080078125,2.47081611328125,10.002974536132811,10.329625949868932
2.5938821188759014,-0.7278373046875,2.4899697265625,10.127473022460936,10.454444327747245
2.596369062422283,-0.699106884765625,2.518700146484375,10.184933862304687,10.515012061036725
2.5988560059686643,-0.6464344482421874,2.5474305664062498,10.165780249023436,10.500017526555375
2.601342949515046,-0.603338818359375,2.5761609863281247,10.117896215820313,10.458128273803558
2.603829893061427,-0.55545478515625,2.6001030029296874,10.022128149414062,10.368805055910478
2.606316836607809,-0.5123591552734374,2.6144682128906247,9.86411083984375,10.217565199250307
2.6088037801541906,-0.4740519287109375,2.6192566162109374,9.706093530273437,10.064466308309408
2.611290723700572,-0.44053310546874996,2.6144682128906247,9.528922607421874,9.890898822223647
2.6137776672469535,-0.411802685546875,2.5953145996093747,9.361328491210937,9.723153317886478
2.6162646107933347,-0.4070142822265625,2.5857377929687497,9.227253198242186,9.591345168660856
2.6187515543397164,-0.39264907226562495,2.5665841796874997,9.112331518554686,9.47502577038281
2.6212384978860976,-0.38786066894531246,2.5378537597656248,9.02135185546875,9.379548331590422
2.6237254414324793,-0.411802685546875,2.5139117431640625,8.963891015625,9.318834468121237
2.626212384978861,-0.4261678955078125,2.4899697265625,8.94473740234375,9.294616480051584
2.6286993285252422,-0.44053310546874996,2.47081611328125,8.963891015625,9.308616643877155
2.631186272071624,-0.469263525390625,2.4564509033203126,9.02135185546875,9.361578317615821
2.633673215618005,-0.5027823486328125,2.446874096679687,9.102754711914063,9.439286322618488
2.636160159164387,-0.5315127685546874,2.43250888671875,9.222464794921875,9.552667805418324
2.6386471027107685,-0.565031591796875,2.422932080078125,9.34696328125,9.67241351191294
2.6411340462571498,-0.59376201171875,2.427720483398437,9.457096557617186,9.781771586587343
2.6436209898035314,-0.603338818359375,2.427720483398437,9.562441430664062,9.884236469759928
2.6461079333499127,-0.6177040283203125,2.437297290039062,9.65342109375,9.975495735044566
2.6485948768962944,-0.63206923828125,2.4564509033203126,9.730035546875,10.055210306396166
2.6510818204426756,-0.6368576416015624,2.4660277099609376,9.782707983398437,10.108820693355334
2.6535687639890573,-0.63206923828125,2.4899697265625,9.811438403320311,10.142178479169443
2.656055707535439,-0.6177040283203125,2.50912333984375,9.80665,10.141382668238675
2.65854265108182,-0.603338818359375,2.50912333984375,9.7683427734375,10.103476540461534
2.661029594628202,-0.584185205078125,2.518700146484375,9.710881933593749,10.049196520614474
2.663516538174583,-0.565031591796875,2.5234885498046875,9.639055883789062,9.979912499192185
2.666003481720965,-0.55545478515625,2.5330653564453125,9.552864624023437,9.89859447817188
2.6684904252673465,-0.5363011718749999,2.5522189697265625,9.457096557617186,9.810102747498695
2.6709773688137277,-0.51714755859375,2.5522189697265625,9.394847314453125,9.7490727419934
2.6734643123601094,-0.49320554199218747,2.5474305664062498,9.327809667968749,9.681977452936147
2.6759512559064906,-0.47884033203125,2.5474305664062498,9.265560424804686,9.621294119812962
2.6784381994528723,-0.4644751220703125,2.5474305664062498,9.217676391601563,9.574481588575535
2.6809251429992536,-0.45968671875,2.5426421630859375,9.188945971679686,9.54531660655349
2.6834120865456352,-0.4644751220703125,2.5330653564453125,9.179369165039063,9.533780756190882
2.685899030092017,-0.469263525390625,2.5378537597656248,9.179369165039063,9.53528857614118
2.688385973638398,-0.47884033203125,2.5378537597656248,9.208099584960937,9.563424477460682
2.69087291718478,-0.488417138671875,2.528276953125,9.270348828125,9.62133582451886
2.693359860731161,-0.507570751953125,2.5139117431640625,9.337386474609374,9.683189892637369
2.6958468042775428,-0.51714755859375,2.5139117431640625,9.394847314453125,9.739114431593087
2.6983337478239244,-0.5315127685546874,2.528276953125,9.442731347656249,9.789783729932429
2.7008206913703057,-0.5410895751953124,2.5234885498046875,9.495403784179686,9.839891534666137
2.7033076349166874,-0.55545478515625,2.5139117431640625,9.543287817382812,9.884463801146643
2.7057945784630686,-0.565031591796875,2.5234885498046875,9.576806640625,9.919802447258865
2.7082815220094503,-0.565031591796875,2.5378537597656248,9.595960253906249,9.941952303256816
2.7107684655558315,-0.5746083984375,2.5474305664062498,9.6151138671875,9.963432740837725
2.713255409102213,-0.5793968017578125,2.5474305664062498,9.629479077148437,9.977573374412616
2.715742352648595,-0.565031591796875,2.5522189697265625,9.605537060546874,9.954869390941305
2.718229296194976,-0.5506663818359374,2.5665841796874997,9.581595043945311,9.934664131296225
2.720716239741358,-0.5458779785156249,2.5761609863281247,9.552864624023437,9.909178105162196
2.723203183287739,-0.5315127685546874,2.5761609863281247,9.514557397460937,9.871469683901907
2.7256901268341207,-0.5267243652343749,2.5665841796874997,9.476250170898437,9.831790793635022
2.7281770703805024,-0.507570751953125,2.5713725830078125,9.437942944335937,9.795118786897023
2.7306640139268836,-0.4836287353515625,2.5761609863281247,9.394847314453125,9.75364845803989
2.7331509574732653,-0.47884033203125,2.5665841796874997,9.356540087890625,9.713983983480015
2.7356379010196465,-0.4740519287109375,2.5617957763671875,9.327809667968749,9.684810583216306
2.7381248445660282,-0.469263525390625,2.5570073730468748,9.303867651367186,9.660250940645117
2.74061178811241,-0.4644751220703125,2.5665841796874997,9.299079248046874,9.657948351068171
2.743098731658791,-0.4740519287109375,2.5617957763671875,9.313444458007812,9.670975674838797
2.745585675205173,-0.49799394531249996,2.5522189697265625,9.337386474609374,9.692708899746144
2.748072618751554,-0.488417138671875,2.5522189697265625,9.375693701171874,9.7291317880361
2.7505595622979357,-0.49320554199218747,2.5474305664062498,9.418789331054686,9.76965949560691
2.753046505844317,-0.49799394531249996,2.5426421630859375,9.447519750976562,9.796359353564084
2.7555334493906987,-0.5123591552734374,2.5330653564453125,9.466673364257812,9.813095158489205
2.7580203929370803,-0.5267243652343749,2.528276953125,9.481038574218749,9.826480313645291
2.7605073364834616,-0.5267243652343749,2.5330653564453125,9.504980590820312,9.850812894823747
2.7629942800298433,-0.5363011718749999,2.528276953125,9.524134204101562,9.868583263893294
2.7654812235762245,-0.55545478515625,2.528276953125,9.533711010742186,9.878884552741914
2.767968167122606,-0.565031591796875,2.5378537597656248,9.5384994140625,9.886502590792949
2.770455110668988,-0.5793968017578125,2.5522189697265625,9.528922607421874,9.881795807521778
2.772942054215369,-0.5793968017578125,2.5522189697265625,9.519345800781249,9.872561308909198
2.775428997761751,-0.5746083984375,2.5570073730468748,9.514557397460937,9.86890388984256
2.777915941308132,-0.5746083984375,2.5617957763671875,9.485826977539062,9.842453243941549
2.7804028848545137,-0.5602431884765625,2.5617957763671875,9.457096557617186,9.813936281133172
2.782889828400895,-0.55545478515625,2.5713725830078125,9.437942944335937,9.797716774817372
2.7853767719472766,-0.55545478515625,2.5761609863281247,9.414000927734374,9.775916781213706
2.7878637154936583,-0.5410895751953124,2.5761609863281247,9.399635717773437,9.761277323317184
2.7903506590400395,-0.5410895751953124,2.5761609863281247,9.399635717773437,9.761277323317184
2.792837602586421,-0.5410895751953124,2.5713725830078125,9.409212524414063,9.769238210762381
2.7953245461328025,-0.5315127685546874,2.5570073730468748,9.404424121093749,9.760327124556978
2.797811489679184,-0.5267243652343749,2.5474305664062498,9.404424121093749,9.757562917911539
2.800298433225566,-0.5267243652343749,2.5378537597656248,9.404424121093749,9.755067058318872
2.802785376771947,-0.5267243652343749,2.5378537597656248,9.414000927734374,9.764299961096635
2.8052723203183287,-0.5267243652343749,2.528276953125,9.423577734375,9.771051132014552
2.80775926386471,-0.5315127685546874,2.518700146484375,9.423577734375,9.768836858441507
2.8102462074110917,-0.5267243652343749,2.528276953125,9.442731347656249,9.789524922724523
2.812733150957473,-0.5315127685546874,2.518700146484375,9.476250170898437,9.81965750688331
2.8152200945038546,-0.5363011718749999,2.5139117431640625,9.495403784179686,9.837177655404348
2.8177070380502363,-0.5315127685546874,2.5139117431640625,9.490615380859374,9.83229568223817
2.8201939815966175,-0.5219359619140624,2.50912333984375,9.490615380859374,9.83055936304198
2.822680925142999,-0.5267243652343749,2.5043349365234375,9.504980590820312,9.843464230802805
2.8251678686893804,-0.5315127685546874,2.5043349365234375,9.495403784179686,9.834474684600211
2.827654812235762,-0.5267243652343749,2.5043349365234375,9.485826977539062,9.824970507794477
2.8301417557821438,-0.5363011718749999,2.499546533203125,9.490615380859374,9.828892721258422
2.832628699328525,-0.5458779785156249,2.4899697265625,9.495403784179686,9.831613551764528
2.8351156428749067,-0.5410895751953124,2.499546533203125,9.481038574218749,9.819908515147006
2.837602586421288,-0.5363011718749999,2.499546533203125,9.457096557617186,9.796531382009507
2.8400895299676696,-0.5458779785156249,2.4899697265625,9.442731347656249,9.780751878594815
2.842576473514051,-0.5602431884765625,2.50912333984375,9.414000927734374,9.758738946819241
2.8450634170604325,-0.55545478515625,2.50912333984375,9.375693701171874,9.721515433876325
2.847550360606814,-0.5458779785156249,2.5043349365234375,9.361328491210937,9.705882101183684
2.8500373041531954,-0.5458779785156249,2.5139117431640625,9.375693701171874,9.722210005859802
2.852524247699577,-0.5410895751953124,2.5139117431640625,9.390058911132812,9.735796656429711
2.8550111912459584,-0.5315127685546874,2.5139117431640625,9.394847314453125,9.73988778875003
2.85749813479234,-0.5267243652343749,2.5139117431640625,9.409212524414063,9.753485076573408
2.8599850783387217,-0.5219359619140624,2.5043349365234375,9.4618849609375,9.80160076909105
2.862472021885103,-0.5219359619140624,2.4947581298828125,9.457096557617186,9.794534729891481
2.8649589654314846,-0.5219359619140624,2.5043349365234375,9.452308154296874,9.792356206062879
2.867445908977866,-0.5267243652343749,2.5043349365234375,9.457096557617186,9.79723467777098
2.8699328525242476,-0.5315127685546874,2.4947581298828125,9.437942944335937,9.776558237452154
2.8724197960706292,-0.5219359619140624,2.4947581298828125,9.414000927734374,9.7529302644046
2.8749067396170105,-0.5219359619140624,2.4947581298828125,9.418789331054686,9.75755234358213
2.877393683163392,-0.5363011718749999,2.4899697265625,9.433154541015625,9.770976040336807
2.8798806267097734,-0.5363011718749999,2.4899697265625,9.437942944335937,9.775598969203509
2.882367570256155,-0.5315127685546874,2.4947581298828125,9.442731347656249,9.781180872152557
2.8848545138025363,-0.5315127685546874,2.4947581298828125,9.452308154296874,9.79042661958815
2.887341457348918,-0.5267243652343749,2.4947581298828125,9.457096557617186,9.794791063807477
2.8898284008952997,-0.5219359619140624,2.4947581298828125,9.452308154296874,9.789911374406957
2.892315344441681,-0.5219359619140624,2.5043349365234375,9.452308154296874,9.792356206062879
2.8948022879880626,-0.5267243652343749,2.50912333984375,9.457096557617186,9.798459766288529
2.897289231534444,-0.5315127685546874,2.5139117431640625,9.452308154296874,9.79532477865548
2.8997761750808255,-0.5315127685546874,2.5139117431640625,9.442731347656249,9.78608365892939
2.902263118627207,-0.5267243652343749,2.518700146484375,9.433154541015625,9.777816401401473
2.9047500621735884,-0.5267243652343749,2.5330653564453125,9.447519750976562,9.795380957474151
2.90723700571997,-0.5315127685546874,2.5378537597656248,9.4618849609375,9.810732620100724
2.9097239492663514,-0.5219359619140624,2.5426421630859375,9.452308154296874,9.802223001015058
2.912210892812733,-0.51714755859375,2.5570073730468748,9.452308154296874,9.805705367130033
2.9146978363591143,-0.5219359619140624,2.5522189697265625,9.457096557617186,9.809327913667996
2.917184779905496,-0.51714755859375,2.5426421630859375,9.457096557617186,9.806586871432723
2.9196717234518776,-0.5123591552734374,2.5570073730468748,9.447519750976562,9.800838130226458
2.922158666998259,-0.51714755859375,2.5617957763671875,9.447519750976562,9.802339957493032
2.9246456105446406,-0.5219359619140624,2.5570073730468748,9.4618849609375,9.81519082179101
2.927132554091022,-0.5315127685546874,2.5570073730468748,9.457096557617186,9.8110890236022
2.9296194976374035,-0.5267243652343749,2.5617957763671875,9.452308154296874,9.80746478966565
2.932106441183785,-0.5267243652343749,2.5570073730468748,9.447519750976562,9.801599599444975
2.9345933847301664,-0.5506663818359374,2.5570073730468748,9.437942944335937,9.79368608800797
2.937080328276548,-0.5506663818359374,2.5713725830078125,9.428366137695312,9.788221414085816
2.9395672718229293,-0.5410895751953124,2.5617957763671875,9.428366137695312,9.785175703820418
2.942054215369311,-0.5410895751953124,2.5617957763671875,9.437942944335937,9.79440363415447
2.9445411589156922,-0.5410895751953124,2.5761609863281247,9.433154541015625,9.793558492731222
2.947028102462074,-0.5458779785156249,2.5809493896484375,9.414000927734374,9.77664032205024
2.9495150460084556,-0.5458779785156249,2.5617957763671875,9.404424121093749,9.762375398265066
2.952001989554837,-0.5458779785156249,2.5665841796874997,9.404424121093749,9.763633041458512
2.9544889331012185,-0.5363011718749999,2.5761609863281247,9.404424121093749,9.76562427210076
2.9569758766475998,-0.5315127685546874,2.5665841796874997,9.399635717773437,9.758227902718863
2.9594628201939814,-0.5315127685546874,2.5665841796874997,9.409212524414063,9.767453122700374
2.961949763740363,-0.5315127685546874,2.5713725830078125,9.437942944335937,9.796388610315612
2.9644367072867444,-0.5363011718749999,2.5617957763671875,9.447519750976562,9.803369114333067
2.966923650833126,-0.5410895751953124,2.5617957763671875,9.457096557617186,9.81286150051516
2.9694105943795073,-0.5410895751953124,2.5665841796874997,9.476250170898437,9.832570853101434
2.971897537925889,-0.5410895751953124,2.5713725830078125,9.485826977539062,9.84305076370315
2.97438448147227,-0.5458779785156249,2.5665841796874997,9.471461767578125,9.828220852908455
2.976871425018652,-0.5458779785156249,2.5617957763671875,9.4618849609375,9.817741460298102
2.9793583685650336,-0.5458779785156249,2.5617957763671875,9.471461767578125,9.826971475583676
2.981845312111415,-0.5458779785156249,2.5713725830078125,9.471461767578125,9.829472404089994
2.9843322556577965,-0.5458779785156249,2.5713725830078125,9.457096557617186,9.81563115791172
2.9868191992041777,-0.55545478515625,2.5570073730468748,9.442731347656249,9.798570917648096
2.9893061427505594,-0.5746083984375,2.5522189697265625,9.442731347656249,9.798427005647234
2.991793086296941,-0.5698199951171875,2.5522189697265625,9.409212524414063,9.765848494926487
2.9942800298433223,-0.5602431884765625,2.5665841796874997,9.370905297851563,9.7321679436269
2.996766973389704,-0.5602431884765625,2.5809493896484375,9.3852705078125,9.749793571505815
2.9992539169360852,-0.55545478515625,2.5809493896484375,9.394847314453125,9.758738946819241
3.001740860482467,-0.5602431884765625,2.5761609863281247,9.399635717773437,9.762357783064276
3.0042278040288486,-0.5458779785156249,2.5665841796874997,9.423577734375,9.782083338157507
3.00671474757523,-0.5506663818359374,2.5617957763671875,9.466673364257812,9.822623664248027
3.0092016911216115,-0.55545478515625,2.5426421630859375,9.485826977539062,9.836385140673539
3.0116886346679927,-0.5410895751953124,2.5378537597656248,9.485826977539062,9.83434761853319
3.0141755782143744,-0.5410895751953124,2.5378537597656248,9.490615380859374,9.838966406170218
3.0166625217607557,-0.5363011718749999,2.5139117431640625,9.476250170898437,9.818690773256144
3.0191494653071373,-0.5315127685546874,2.5043349365234375,9.457096557617186,9.797493281320655
3.021636408853519,-0.5315127685546874,2.5139117431640625,9.447519750976562,9.790704138142829
3.0241233523999003,-0.5267243652343749,2.4947581298828125,9.447519750976562,9.785544753800894
3.026610295946282,-0.5219359619140624,2.4899697265625,9.452308154296874,9.788692243161192
3.029097239492663,-0.5267243652343749,2.4899697265625,9.452308154296874,9.788948730068846
3.031584183039045,-0.5219359619140624,2.499546533203125,9.437942944335937,9.77726531503198
3.0340711265854265,-0.51714755859375,2.4947581298828125,9.437942944335937,9.775787781274527
3.036558070131808,-0.5219359619140624,2.4947581298828125,9.428366137695312,9.766796982706007
3.0390450136781895,-0.51714755859375,2.50912333984375,9.404424121093749,9.747119296557218
3.0415319572245707,-0.5123591552734374,2.4947581298828125,9.394847314453125,9.733934769274756
3.0440189007709524,-0.51714755859375,2.4899697265625,9.409212524414063,9.74682877484506
3.0465058443173336,-0.51714755859375,2.4899697265625,9.418789331054686,9.756074174551298
3.0489927878637153,-0.5123591552734374,2.4851813232421875,9.418789331054686,9.754600482652986
3.051479731410097,-0.5123591552734374,2.480392919921875,9.428366137695312,9.762630227947318
3.0539666749564782,-0.5123591552734374,2.4851813232421875,9.437942944335937,9.77309598509729
3.05645361850286,-0.5219359619140624,2.4851813232421875,9.452308154296874,9.787475302728387
3.058940562049241,-0.5219359619140624,2.4851813232421875,9.4618849609375,9.796724471564268
3.061427505595623,-0.5219359619140624,2.4756045166015626,9.466673364257812,9.798925423560766
3.0639144491420045,-0.5363011718749999,2.4756045166015626,9.476250170898437,9.808952745886037
3.0664013926883857,6.449979272460937,0.86191259765625,8.690952026367187,10.857153082912212
3.0688883362347674,6.861781958007812,2.896984008789062,8.729259252929687,11.475039655324927
3.0713752797811487,7.005434057617187,4.716577270507813,8.786720092773438,12.187233380593078
3.0738622233275303,6.9336080078124995,6.311115576171875,8.844180932617187,12.888934641415103
3.0763491668739116,6.6510922119140625,7.632714892578124,8.930372192382812,13.49988561941367
3.0788361104202933,6.167463476562499,8.667010009765624,9.02135185546875,13.947740230742733
3.081323053966675,5.521029028320312,9.442731347656249,9.112331518554686,14.236626093973625
3.083809997513056,4.75009609375,9.945513696289062,9.212887988281249,14.365025606226716
3.086296941059438,3.873818286132812,10.180145458984374,9.3086560546875,14.328046176102566
3.088783884605819,2.93050283203125,10.189722265624999,9.399635717773437,14.169383837201927
3.091270828152201,1.9632453613281249,9.988609326171874,9.495403784179686,13.920824028924367
3.0937577716985825,1.0007762939453124,9.600748657226562,9.562441430664062,13.587354933343027
3.0962447152449637,0.0718260498046875,9.054870678710937,9.610325463867188,13.204324954766287
3.0987316587913454,-0.82360537109375,8.384494213867187,9.662997900390625,12.819968699361961
3.1012186023377266,-1.6424223388671875,7.613561279296874,9.701305126953125,12.441028400380155
3.1037055458841083,-2.360682836914062,6.7803791015625,9.734823950195311,12.095997749615464
3.1061924894304895,-2.96881005859375,5.91846650390625,9.763554370117188,11.796994229891872
3.108679432976871,-3.4620156005859375,5.042188696289062,9.782707983398437,11.537356471745731
3.111166376523253,-3.840299462890625,4.189852905273438,9.792284790039062,11.32217332236778
3.113653320069634,-4.089296435546875,3.375824340820312,9.782707983398437,11.127439544041513
3.116140263616016,-4.209006518554688,2.6144682128906247,9.773131176757811,10.957430032063488
3.118627207162397,-4.228160131835938,1.93451494140625,9.753977563476562,10.80554322872178
3.1211141507087787,-4.122815258789062,1.3359645263671873,9.710881933593749,10.634078935291617
3.1236010942551604,-3.9264907226562498,0.8283937744140625,9.672574707031249,10.47197532004799
3.1260880378015417,-3.6535517333984373,0.43574470214843747,9.634267480468749,10.312973557577214
3.1285749813479233,-3.294421484375,0.1292868896484375,9.600748657226562,10.151073972530403
3.1310619248943046,-2.882618798828125,-0.076614453125,9.557653027343749,9.983190487257971
3.1335488684406863,-2.43250888671875,-0.1867477294921875,9.514557397460937,9.822361053637502
3.136035811987068,-1.9536685546875,-0.21068974609375,9.481038574218749,9.682525674456416
3.138522755533449,-1.484405029296875,-0.15322890625,9.447519750976562,9.564651945251573
3.141009699079831,-1.0199299072265624,-0.033518823242187495,9.418789331054686,9.473910121483964
3.143496642626212,-0.5746083984375,0.1388636962890625,9.399635717773437,9.418206281694202
3.1459835861725938,-0.1580173095703125,0.3687070556640625,9.370905297851563,9.379487217557406
3.148470529718975,0.22026655273437498,0.6464344482421874,9.356540087890625,9.381430448840517
3.1509574732653567,0.5506663818359374,0.948103857421875,9.351751684570312,9.41580553953862
3.1534444168117384,0.8188169677734375,1.254561669921875,9.342174877929686,9.461533578663207
3.1559313603581196,1.0199299072265624,1.5658078857421873,9.327809667968749,9.513151136850443
3.1584183039045013,1.1635820068359375,1.8722656982421875,9.318232861328125,9.575425086615319
3.1609052474508825,1.2593500732421874,2.1739351074218747,9.313444458007812,9.646357039351845
3.163392190997264,1.2832920898437499,2.461239306640625,9.313444458007812,9.718270689006598
3.165879134543646,1.2497732666015624,2.710236279296875,9.313444458007812,9.77995713589407
3.168366078090027,1.16837041015625,2.93050283203125,9.299079248046874,9.819664511852118
3.170853021636409,1.0438719238281249,3.1172505615234374,9.3086560546875,9.872081705554562
3.17333996518279,0.8906430175781249,3.27526787109375,9.323021264648437,9.9216606529989
3.1758269087291717,0.70868369140625,3.39018955078125,9.323021264648437,9.945569026746458
3.178313852275553,0.49320554199218747,3.4668040039062498,9.337386474609374,9.972400307066012
3.1808007958219346,0.26815058593749996,3.5098996337890624,9.370905297851563,10.010253057606171
3.1832877393683163,0.028730419921875,3.5242648437499997,9.404424121093749,10.04313004871146
3.1857746829146976,-0.201112939453125,3.5242648437499997,9.428366137695312,10.067520902871138
3.1882616264610792,-0.4261678955078125,3.4859576171874997,9.437942944335937,10.070168151750476
3.1907485700074605,-0.6368576416015624,3.418919970703125,9.437942944335937,10.058298486437925
3.193235513553842,-0.8283937744140625,3.35188232421875,9.452308154296874,10.063174489428535
3.195722457100224,-1.0007762939453124,3.2513258544921873,9.476250170898437,10.068365820929676
3.198209400646605,-1.1348515869140625,3.1507693847656246,9.5001921875,10.073176631020313
3.2006963441929868,-1.24498486328125,3.0502129150390624,9.514557397460937,10.068792807802193
3.203183287739368,-1.3263877197265623,2.925714428710937,9.524134204101562,10.051280596975994
3.2056702312857497,-1.3742717529296875,2.8107927490234372,9.528922607421874,10.029433921568
3.208157174832131,-1.39821376953125,2.7150246826171873,9.509768994140625,9.988096269782634
3.2106441183785126,-1.39821376953125,2.6192566162109374,9.504980590820312,9.957919611984343
3.2131310619248943,-1.3742717529296875,2.5234885498046875,9.5001921875,9.925233947435789
3.2156180054712755,-1.3311761230468748,2.427720483398437,9.490615380859374,9.886234719218788
3.218104949017657,-1.2641384765625,2.3415292236328122,9.485826977539062,9.851990592812202
3.2205918925640384,-1.177947216796875,2.2744915771484373,9.481038574218749,9.82094516968212
3.22307883611042,-1.0726023437499999,2.2266075439453124,9.471461767578125,9.788607917230433
