Time (s),Acceleration x (m/s^2),Acceleration y (m/s^2),Acceleration z (m/s^2),Absolute acceleration (m/s^2)
0.0,1.1013327636718748,3.246537451171875,6.335057592773437,7.203186377010877
0.002486943546381497,0.7517793212890624,2.6527754394531247,1.9919757812499999,3.401522775635952
0.004973887092762994,0.3687070556640625,2.2266075439453124,-1.4891934326171874,2.703964335452818
0.007460830639144491,-0.028730419921875,1.85790048828125,-3.9600095458984375,4.37427654189711
0.009947774185525988,-0.5219359619140624,1.4987702392578124,-5.315127685546875,5.54700925653554
0.012434717731907486,-0.9433154541015625,1.216254443359375,-5.391742138671875,5.607138504341427
0.014921661278288981,-1.3838485595703125,1.0965443603515623,-4.295197778320312,4.643939095738809
0.01740860482467048,-1.6615759521484375,1.0773907470703123,-2.1643583007812497,2.9336073903628295
0.019895548371051976,-1.9105729248046874,1.149216796875,0.7661445312499999,2.3575337940272787
0.022382491917433474,-1.9680337646484374,1.4796166259765624,4.271255761718749,4.930116432770952
0.02486943546381497,-1.9536685546875,1.7429788085937499,7.982268334960937,8.400678765439235
0.027356379010196465,-1.8148048583984373,2.020706201171875,11.640608471679688,11.953264650983929
0.029843322556577963,-1.5418658691406248,2.5234885498046875,14.9781255859375,15.267271887522398
0.032330266102959464,-1.2497732666015624,2.829946362304687,17.702727075195313,17.971006525241894
0.03481720964934096,-0.9193734375,3.1794998046874996,19.608511596679687,19.885879250430698
0.03730415319572245,-0.5458779785156249,3.4093431640625,20.681113940429686,20.96735742516932
0.03979109674210395,-0.21068974609375,3.5913024902343746,20.78645881347656,21.095466663476067
0.04227804028848545,0.08140285644531249,3.7301661865234372,19.967641845703124,20.313234284140837
0.04476498383486695,0.33039982910156246,3.73495458984375,18.358738330078126,18.737724592584474
0.04725192738124844,0.5123591552734374,3.6583401367187496,16.165649609375,16.582345785593965
0.04973887092762994,0.5746083984375,3.4859576171874997,13.469778540039062,13.925408763769891
0.05222581447401144,0.5219359619140624,3.1794998046874996,10.563217724609375,11.043695253575619
0.05471275802039293,0.44053310546874996,2.9735984619140625,7.781155395507812,8.341626730965128
0.05719970156677443,0.2920926025390625,2.6958710693359373,5.161898779296875,5.830800795658098
0.059686645113155926,0.062249243164062495,2.442085693359375,3.1459809814453124,3.9830709054196674
0.062173588659537427,-0.22026655273437498,2.1260510742187497,1.5705962890624998,2.652429683828976
0.06466053220591893,-0.4740519287109375,1.9105729248046874,0.74699091796875,2.1054713400184513
0.06714747575230041,-0.7422025146484375,1.7717092285156248,0.6655880615234374,2.0329352254315487
0.06963441929868192,-0.9959878906249999,1.7190367919921874,1.254561669921875,2.3496817559260212
0.07212136284506342,-1.158793603515625,1.70467158203125,2.4564509033203126,3.2066897041274247
0.0746083063914449,-1.3455413330078123,1.7669208251953124,4.247313745117188,4.792928617328107
0.0770952499378264,-1.407790576171875,1.9009961181640624,6.349422802734375,6.775753129764721
0.0795821934842079,-1.369483349609375,2.0446482177734375,8.556876733398436,8.9037189089659
0.0820691370305894,-1.3311761230468748,2.308010400390625,10.802637890625,11.126361816642866
0.0845560805769709,-1.2018892333984375,2.5043349365234375,12.828132495117186,13.125441497943314
0.0870430241233524,-0.9959878906249999,2.77727392578125,14.523227270507812,14.819897863612887
0.0895299676697339,-0.8044517578125,2.925714428710937,15.686809277343748,15.97757593794418
0.09201691121611538,-0.5985504150390625,3.1124621582031247,16.33803212890625,16.64262530764791
0.09450385476249688,-0.33518823242187495,3.227383837890625,16.390704565429687,16.708786722543
0.09699079830887838,-0.16280571289062498,3.284844677734375,15.907075830078124,16.243514758845922
0.09947774185525989,0.0047884033203125,3.284844677734375,14.877569116210937,15.2358882344706
0.10196468540164137,0.11013327636718749,3.246537451171875,13.508085766601562,13.893182351005425
0.10445162894802287,0.1484405029296875,3.1268273681640624,11.81777939453125,12.225342277049638
0.10693857249440437,0.181959326171875,3.0023288818359375,9.9981861328125,10.440824385911839
0.10942551604078586,0.11013327636718749,2.8203695556640622,8.212111694335936,8.683627827661036
0.11191245958716736,-0.033518823242187495,2.6240450195312497,6.636727001953124,7.13672761666662
0.11439940313354886,-0.16280571289062498,2.4851813232421875,5.324704492187499,5.8783594512979
0.11688634667993036,-0.3064578125,2.35589443359375,4.347870214843749,4.954606985241688
0.11937329022631185,-0.45010991210937495,2.1787235107421874,3.907337109375,4.496300518819761
0.12186023377269335,-0.6751648681640625,2.059013427734375,3.859453076171875,4.426145268963277
0.12434717731907485,-0.7852981445312499,2.0302830078125,4.290409374999999,4.811065876986541
0.12683412086545634,-0.97683427734375,2.0063409912109376,5.085284326171875,5.553352686118208
0.12932106441183785,-1.0630255371093749,2.020706201171875,6.244077929687499,6.64844237667829
0.13180800795821934,-1.0630255371093749,2.1547814941406247,7.671022119140624,8.03851273136905
0.13429495150460083,-1.1013327636718748,2.24097275390625,9.093177905273437,9.429781394976255
0.13678189505098234,-1.0342951171875,2.379836450195312,10.510545288085936,10.826123506224267
0.13926883859736383,-0.967257470703125,2.528276953125,11.875240234375,12.179864612977141
0.14175578214374532,-0.8667010009765624,2.6815058593749996,12.9095353515625,13.213544085225513
0.14424272569012683,-0.699106884765625,2.829946362304687,13.6756798828125,13.98290267101258
0.14672966923650832,-0.59376201171875,2.935291235351562,14.053963745117187,14.369494942828029
0.1492166127828898,-0.45968671875,3.0119056884765625,14.053963745117187,14.380430616109551
0.15170355632927132,-0.3016694091796875,3.0502129150390624,13.642161059570311,13.982251665406487
0.1541904998756528,-0.1484405029296875,3.0933085449218747,13.02445703125,13.387571598160521
0.15667744342203432,-0.062249243164062495,3.0071172851562498,11.966219897460936,12.33843782532254
0.1591643869684158,-0.05746083984375,2.93050283203125,10.797849487304687,11.188596969555423
0.1616513305147973,-0.05746083984375,2.868253588867187,9.600748657226562,10.020207342036525
0.1641382740611788,-0.08140285644531249,2.729389892578125,8.384494213867187,8.817932798174265
0.1666252176075603,-0.1580173095703125,2.6192566162109374,7.302315063476562,7.759463897587597
0.1691121611539418,-0.2825157958984375,2.518700146484375,6.406883642578125,6.889979942813163
0.1715991047003233,-0.3687070556640625,2.3319524169921872,5.7891796142578125,6.25208345866803
0.1740860482467048,-0.507570751953125,2.221819140625,5.5258174316406246,5.977354485866575
0.17657299179308628,-0.6177040283203125,2.2074539306640624,5.506663818359375,5.964709341706066
0.1790599353394678,-0.7613561279296874,2.1356278808593747,5.8226984375,6.248550767426391
0.18154687888584928,-0.842758984375,2.221819140625,6.4643444824218745,6.887268877197298
0.18403382243223076,-0.9050082275390624,2.2170307373046874,7.307103466796875,7.689475031271125
0.18652076597861228,-0.8810662109374999,2.2744915771484373,8.350975390624999,8.699906871765887
0.18900770952499377,-0.93852705078125,2.3415292236328122,9.409212524414063,9.741502577106116
0.19149465307137528,-0.9193734375,2.4899697265625,10.443507641601562,10.775530085196204
0.19398159661775677,-0.842758984375,2.5665841796874997,11.410765112304686,11.726174035266435
0.19646854016413826,-0.7661445312499999,2.6240450195312497,12.148179223632813,12.451941541655058
0.19895548371051977,-0.6751648681640625,2.748543505859375,12.641384765624998,12.954340886180992
0.20144242725690126,-0.5506663818359374,2.887407202148437,12.9095353515625,13.239956828039315
0.20392937080328274,-0.45010991210937495,2.91134921875,12.880804931640624,13.213390514681413
0.20641631434966426,-0.354341845703125,2.9640216552734375,12.492944262695312,12.844634633470815
0.20890325789604575,-0.27293898925781246,2.9544448486328125,11.947066284179687,12.309981025738955
0.21139020144242723,-0.1771709228515625,2.906560815429687,11.200075366210937,11.572431616497045
0.21387714498880875,-0.1771709228515625,2.839523168945312,10.28549033203125,10.671719296026748
0.21636408853519024,-0.15322890625,2.7820623291015623,9.380482104492186,9.785540067539182
0.21885103208157172,-0.1771709228515625,2.6958710693359373,8.456320263671875,8.877413066889146
0.22133797562795324,-0.24899697265624998,2.5665841796874997,7.575254052734374,8.002113958653844
0.22382491917433472,-0.32082302246093747,2.5043349365234375,6.986280444335937,7.428508284503932
0.22631186272071624,-0.38307226562499996,2.370259643554687,6.512228515625,6.940748906153749
0.22879880626709773,-0.4836287353515625,2.2840683837890623,6.272808349609375,6.693204742603622
0.2312857498134792,-0.622492431640625,2.2936451904296873,6.373364819335937,6.8020647017931335
0.23377269335986073,-0.679953271484375,2.2601263671875,6.660669018554687,7.066471497274487
0.23625963690624222,-0.7709329345703124,2.24097275390625,7.220912207031249,7.599859839168632
0.2387465804526237,-0.86191259765625,2.231395947265625,7.8338278320312495,8.190902251973187
0.24123352399900522,-0.8714894042968749,2.31758720703125,8.762778076171875,9.10587633653319
0.2437204675453867,-0.8810662109374999,2.403778466796875,9.557653027343749,9.894602567894541
0.2462074110917682,-0.842758984375,2.437297290039062,10.386046801757812,10.701431163824783
0.2486943546381497,-0.814028564453125,2.5665841796874997,11.133037719726563,11.454017885616478
0.2511812981845312,-0.7230489013671875,2.6384102294921874,11.793837377929687,12.106965282427662
0.2536682417309127,-0.6368576416015624,2.748543505859375,12.119448803710936,12.443517121981168
0.2561551852772942,-0.5315127685546874,2.7820623291015623,12.330138549804687,12.651272397807357
0.2586421288236757,-0.49799394531249996,2.825157958984375,12.291831323242187,12.622148499436156
0.26112907237005717,-0.3591302490234375,2.906560815429687,11.980585107421874,12.333348686619289
0.2636160159164387,-0.316034619140625,2.89219560546875,11.496956372070311,11.859370941246263
0.2661029594628202,-0.2920926025390625,2.868253588867187,10.845733520507812,11.222394233690702
0.26858990300920166,-0.22026655273437498,2.825157958984375,10.084377392578125,10.474955954246633
0.2710768465555832,-0.239420166015625,2.748543505859375,9.275137231445312,9.676775500219053
0.2735637901019647,-0.2537853759765625,2.7054478759765623,8.480262280273436,8.904981952194742
0.27605073364834615,-0.26815058593749996,2.6048914062499997,7.79552060546875,8.223594438284367
0.27853767719472766,-0.3112462158203125,2.5713725830078125,7.287949853515625,7.7345358125013
0.2810246207411092,-0.38307226562499996,2.442085693359375,6.9144543945312495,7.343037959077573
0.28351156428749064,-0.49799394531249996,2.3367408203125,6.6893994384765625,7.103268295536442
0.28599850783387215,-0.5793968017578125,2.308010400390625,6.809109521484374,7.212945663026143
0.28848545138025367,-0.6560112548828124,2.31758720703125,7.072471704101562,7.471373182624803
0.2909723949266351,-0.689530078125,2.3223756103515623,7.541735229492187,7.921278335973206
0.29345933847301664,-0.7709329345703124,2.31758720703125,8.145074047851562,8.50339810292245
0.29594628201939815,-0.7805097412109374,2.3367408203125,8.801085302734375,9.139401272700905
0.2984332255657796,-0.8379705810546875,2.4133552734375,9.6151138671875,9.948713135351882
0.30092016911216113,-0.7948749511718749,2.4756045166015626,10.314220751953124,10.636897744673444
0.30340711265854264,-0.7709329345703124,2.6048914062499997,11.027692846679686,11.357367932257484
0.30589405620492416,-0.7326257080078125,2.6575638427734374,11.559205615234374,11.883375802427379
0.3083809997513056,-0.6416460449218749,2.6862942626953124,11.884817041015625,12.201506571369334
0.31086794329768713,-0.584185205078125,2.7724855224609373,12.04762275390625,12.376314570441691
0.31335488684406865,-0.469263525390625,2.844311572265625,11.999738720703125,12.341152537001074
0.3158418303904501,-0.39743747558593745,2.839523168945312,11.702857714843748,12.048972033657279
0.3183287739368316,-0.33518823242187495,2.844311572265625,11.329362255859374,11.68575665482425
0.32081571748321314,-0.3016694091796875,2.85388837890625,10.740388647460938,11.11717732206331
0.3233026610295946,-0.22505495605468748,2.8012159423828122,10.060435375976562,10.445564630181801
0.3257896045759761,-0.2442085693359375,2.77727392578125,9.342174877929686,9.749313808365287
0.3282765481223576,-0.296881005859375,2.6623522460937497,8.532934716796875,8.943558167476628
0.3307634916687391,-0.3447650390625,2.5617957763671875,7.9295958984374995,8.340272875900965
0.3332504352151206,-0.32082302246093747,2.5522189697265625,7.45075556640625,7.88229075786391
0.3357373787615021,-0.39743747558593745,2.47081611328125,7.091625317382812,7.520241914645783
0.3382243223078836,-0.488417138671875,2.3415292236328122,6.890512377929687,7.293865315241099
0.3407112658542651,-0.5458779785156249,2.35589443359375,6.919242797851562,7.329675452930166
0.3431982094006466,-0.6607996582031249,2.3415292236328122,7.196970190429687,7.597091233843475
0.34568515294702806,-0.699106884765625,2.3319524169921872,7.6231380859375,8.002436303321211
0.3481720964934096,-0.7661445312499999,2.2936451904296873,8.12113203125,8.47352176909579
0.3506590400397911,-0.7613561279296874,2.379836450195312,8.82981572265625,9.176542397836007
0.35314598358617255,-0.7852981445312499,2.408566870117187,9.5384994140625,9.869187333093894
0.35563292713255407,-0.7422025146484375,2.5043349365234375,10.237606298828124,10.565563911919117
0.3581198706789356,-0.7565677246093749,2.5474305664062498,10.855310327148437,11.17584714960244
0.36060681422531704,-0.6847416748046875,2.6048914062499997,11.401188305664062,11.715008543777525
0.36309375777169856,-0.6464344482421874,2.7198130859375,11.698069311523437,12.02747215068559
0.36558070131808007,-0.59376201171875,2.7341782958984373,11.880028637695311,12.205054883644854
0.36806764486446153,-0.507570751953125,2.806004345703125,11.880028637695311,12.217461638523927
0.37055458841084304,-0.44053310546874996,2.806004345703125,11.645396875,11.986784313625508
0.37304153195722456,-0.37828386230468747,2.839523168945312,11.291055029296874,11.648773076254324
0.3755284755036061,-0.3064578125,2.882618798828125,10.754753857421875,11.13858779486566
0.37801541904998753,-0.296881005859375,2.729389892578125,10.079588989257813,10.446809164032578
0.38050236259636905,-0.26815058593749996,2.729389892578125,9.433154541015625,9.8237405562815
0.38298930614275056,-0.258573779296875,2.7150246826171873,8.79150849609375,9.204827052337757
0.385476249689132,-0.3447650390625,2.5953145996093747,8.092401611328125,8.50537974708545
0.38796319323551354,-0.3399766357421875,2.5378537597656248,7.6231380859375,8.041673961065442
0.39045013678189505,-0.411802685546875,2.480392919921875,7.230489013671875,7.655187905326156
0.3929370803282765,-0.45489831542968745,2.427720483398437,7.034164477539062,7.455214894284771
0.395424023874658,-0.5027823486328125,2.360682836914062,7.062894897460937,7.4639197395991
0.39791096742103954,-0.603338818359375,2.3223756103515623,7.259219433593749,7.645502795131281
0.400397910967421,-0.6560112548828124,2.384624853515625,7.632714892578124,8.023410938617143
0.4028848545138025,-0.70868369140625,2.3367408203125,8.10197841796875,8.461952760504595
0.40537179806018403,-0.74699091796875,2.370259643554687,8.734047656249999,9.080733157132075
0.4078587416065655,-0.7948749511718749,2.4564509033203126,9.414000927734374,9.761628485852519
0.410345685152947,-0.7517793212890624,2.4947581298828125,10.060435375976562,10.392369808120518
0.4128326286993285,-0.737414111328125,2.528276953125,10.678139404296875,10.998119160151271
0.41531957224571,-0.6943184814453125,2.6767174560546874,11.200075366210937,11.53640250260147
0.4178065157920915,-0.63206923828125,2.6862942626953124,11.587936035156249,11.912008644332152
0.420293459338473,-0.55545478515625,2.7724855224609373,11.832144604492187,12.16531347447414
0.42278040288485447,-0.5458779785156249,2.7533319091796873,11.841721411132811,12.169847383941041
0.425267346431236,-0.44532150878906246,2.8107927490234372,11.597512841796874,11.941573231354246
0.4277542899776175,-0.4165910888671875,2.786850732421875,11.252747802734374,11.600190440336192
0.43024123352399896,-0.37828386230468747,2.81558115234375,10.788272680664061,11.156048733233288
0.43272817707038047,-0.28730419921875,2.7724855224609373,10.20887587890625,10.582550088993584
0.435215120616762,-0.296881005859375,2.7341782958984373,9.576806640625,9.963889537591294
0.43770206416314344,-0.258573779296875,2.6815058593749996,8.916006982421875,9.314102994051439
0.44018900770952496,-0.27293898925781246,2.6144682128906247,8.29351455078125,8.700133523808292
0.4426759512559065,-0.3399766357421875,2.5522189697265625,7.762001782226562,8.177901775490522
0.445162894802288,-0.39264907226562495,2.4947581298828125,7.345410693359375,7.767435205696002
0.44764983834866945,-0.45968671875,2.418143676757812,7.1203557373046875,7.533803590923161
0.45013678189505096,-0.5267243652343749,2.3319524169921872,7.043741284179687,7.4383957887776155
0.4526237254414325,-0.584185205078125,2.3415292236328122,7.230489013671875,7.622598168327406
0.45511066898781394,-0.6416460449218749,2.3032219970703123,7.532158422851562,7.902528185440794
0.45759761253419545,-0.718260498046875,2.327164013671875,8.030152368164062,8.391360887574484
0.46008455608057697,-0.737414111328125,2.3367408203125,8.595183959960938,8.937635287841543
0.4625714996269584,-0.7613561279296874,2.437297290039062,9.222464794921875,9.569427262231592
0.46505844317333994,-0.7613561279296874,2.43250888671875,9.854534033203125,10.178831153382024
0.46754538671972146,-0.737414111328125,2.5761609863281247,10.539275708007812,10.87459044968906
0.4700323302661029,-0.70868369140625,2.6048914062499997,11.061211669921875,11.385872624425243
0.47251927381248443,-0.6607996582031249,2.6479870361328124,11.468225952148437,11.788498548218078
0.47500621735886595,-0.612915625,2.70065947265625,11.698069311523437,12.021399784044432
0.4774931609052474,-0.51714755859375,2.7437551025390623,11.77947216796875,12.105849751918244
0.4799801044516289,-0.488417138671875,2.7916391357421872,11.674127294921874,12.013203089251247
0.48246704799801043,-0.4261678955078125,2.8012159423828122,11.3772462890625,11.724767074573704
0.4849539915443919,-0.3112462158203125,2.825157958984375,10.965443603515624,11.32781290108364
0.4874409350907734,-0.3064578125,2.77727392578125,10.43871923828125,10.806203134557936
0.4899278786371549,-0.26336218261718747,2.7437551025390623,9.696516723632811,10.080673998976101
0.4924148221835364,-0.258573779296875,2.7054478759765623,9.030928662109375,9.43101166943794
0.4949017657299179,-0.3112462158203125,2.6144682128906247,8.422801440429687,8.824732423591232
0.4973887092762994,-0.316034619140625,2.5665841796874997,7.8912886718749995,8.304195875265721
0.49987565282268087,-0.3687070556640625,2.5043349365234375,7.465120776367187,7.882618002474644
0.5023625963690624,-0.45010991210937495,2.4133552734375,7.168239770507812,7.576974595199431
0.5048495399154439,-0.49320554199218747,2.39420166015625,7.091625317382812,7.501106780888513
0.5073364834618254,-0.5602431884765625,2.365471240234375,7.225700610351562,7.6236524008538895
0.5098234270082069,-0.6464344482421874,2.3511060302734372,7.4794859863281244,7.866910936393084
0.5123103705545884,-0.679953271484375,2.288856787109375,7.881711865234375,8.235446786293704
0.5147973141009698,-0.6751648681640625,2.389413256835937,8.418013037109375,8.776564635669798
0.5172842576473514,-0.7517793212890624,2.35589443359375,9.011775048828124,9.344918419164342
0.5197712011937329,-0.7517793212890624,2.47081611328125,9.763554370117188,10.099361284348756
0.5222581447401143,-0.7517793212890624,2.5234885498046875,10.309432348632813,10.640374145675041
0.5247450882864959,-0.6943184814453125,2.5665841796874997,10.869675537109375,11.190142036057123
0.5272320318328774,-0.6560112548828124,2.6288334228515624,11.367669482421874,11.686103944138953
0.5297189753792588,-0.5889736083984375,2.70065947265625,11.645396875,11.968948152402431
0.5322059189256404,-0.55545478515625,2.7629087158203123,11.736376538085937,12.069992909444597
0.5346928624720219,-0.51714755859375,2.767697119140625,11.702857714843748,12.036796402470909
0.5371798060184033,-0.44053310546874996,2.8107927490234372,11.463437548828125,11.811224565253987
0.5396667495647849,-0.3591302490234375,2.786850732421875,11.066000073242186,11.41717430722506
0.5421536931111663,-0.33518823242187495,2.7820623291015623,10.462661254882812,10.831412765128384
0.5446406366575478,-0.277727392578125,2.7724855224609373,9.883264453125,10.268530796917732
0.5471275802039294,-0.2920926025390625,2.6767174560546874,9.179369165039063,9.566135724318146
0.5496145237503108,-0.2920926025390625,2.6192566162109374,8.633491186523438,9.026793083803389
0.5521014672966923,-0.26336218261718747,2.6336218261718747,8.030152368164062,8.45509731572929
0.5545884108430739,-0.354341845703125,2.518700146484375,7.575254052734374,7.9908624399989066
0.5570753543894553,-0.4070142822265625,2.480392919921875,7.292738256835937,7.71375660400647
0.5595622979358368,-0.4644751220703125,2.384624853515625,7.168239770507812,7.568740597914328
0.5620492414822184,-0.5506663818359374,2.35589443359375,7.206546997070312,7.601828179280655
0.5645361850285998,-0.6272808349609375,2.3319524169921872,7.398083129882812,7.7822308702377665
0.5670231285749813,-0.6512228515624999,2.370259643554687,7.7763669921875,8.155618037735978
0.5695100721213628,-0.699106884765625,2.365471240234375,8.269572534179687,8.629602222742466
0.5719970156677443,-0.737414111328125,2.39420166015625,8.834604125976561,9.182930426819256
0.5744839592141258,-0.7900865478515624,2.422932080078125,9.481038574218749,9.817582648676384
0.5769709027605073,-0.8092401611328125,2.4851813232421875,10.117896215820313,10.450015295773161
0.5794578463068888,-0.7517793212890624,2.5905261962890624,10.78348427734375,11.115733501721673
0.5819447898532703,-0.7038952880859375,2.5953145996093747,11.209652172851563,11.52768095862524
0.5844317333996518,-0.63206923828125,2.6767174560546874,11.554417211914062,11.877242313285741
0.5869186769460333,-0.59376201171875,2.7150246826171873,11.712434521484374,12.037650716557602
0.5894056204924147,-0.49799394531249996,2.786850732421875,11.698069311523437,12.035753428496891
0.5918925640387963,-0.469263525390625,2.81558115234375,11.544840405273437,11.892478524888306
0.5943795075851778,-0.3399766357421875,2.786850732421875,11.171344946289063,11.51872688393249
0.5968664511315592,-0.32561142578124996,2.825157958984375,10.692504614257812,11.064230439562285
0.5993533946779408,-0.3064578125,2.7820623291015623,10.09395419921875,10.474812579219455
0.6018403382243223,-0.32082302246093747,2.7437551025390623,9.442731347656249,9.838510800850914
0.6043272817707037,-0.3016694091796875,2.6815058593749996,8.810662109374999,9.214621257104037
0.6068142253170853,-0.32082302246093747,2.6384102294921874,8.25520732421875,8.672518891110292
0.6093011688634667,-0.3591302490234375,2.528276953125,7.742848168945312,8.153088780014997
0.6117881124098483,-0.4165910888671875,2.4947581298828125,7.4028715332031245,7.823034781914824
0.6142750559562298,-0.45010991210937495,2.43250888671875,7.1778165771484375,7.592150501151285
0.6167619995026112,-0.5602431884765625,2.360682836914062,7.1203557373046875,7.522377397638515
0.6192489430489928,-0.603338818359375,2.3223756103515623,7.321468676757812,7.7046317102143735
0.6217358865953743,-0.6847416748046875,2.327164013671875,7.675810522460937,8.05000811704347
0.6242228301417557,-0.7038952880859375,2.384624853515625,8.087613208007811,8.461169639650088
0.6267097736881373,-0.7326257080078125,2.39420166015625,8.695740429687499,9.049024457809285
0.6291967172345188,-0.7326257080078125,2.43250888671875,9.342174877929686,9.681429200372236
0.6316836607809002,-0.7038952880859375,2.5043349365234375,9.955090502929687,10.289362904106468
0.6341706043272818,-0.737414111328125,2.5522189697265625,10.568006127929687,10.896804795947176
0.6366575478736632,-0.7038952880859375,2.6240450195312497,11.104307299804686,11.431829313351908
0.6391444914200447,-0.6703764648437499,2.6384102294921874,11.410765112304686,11.730992012267983
0.6416314349664263,-0.565031591796875,2.7581203125,11.698069311523437,12.032095161490373
0.6441183785128077,-0.5123591552734374,2.7916391357421872,11.750741748046874,12.088659669189617
0.6466053220591892,-0.488417138671875,2.806004345703125,11.602301245117188,11.946782239243381
0.6490922656055708,-0.373495458984375,2.8107927490234372,11.295843432617186,11.646292697251152
0.6515792091519522,-0.3687070556640625,2.7964275390625,10.869675537109375,11.229683795911512
0.6540661526983337,-0.3495534423828125,2.7533319091796873,10.28549033203125,10.653372028681671
0.6565530962447153,-0.3064578125,2.6958710693359373,9.658209497070311,10.032080935809077
0.6590400397910967,-0.3495534423828125,2.6527754394531247,9.064447485351561,9.45111704275974
0.6615269833374782,-0.2920926025390625,2.6384102294921874,8.461108666992187,8.867744160844818
0.6640139268838597,-0.36391865234375,2.528276953125,7.8721350585937495,8.276178557641657
0.6665008704302412,-0.38786066894531246,2.5378537597656248,7.48906279296875,7.916893274605899
0.6689878139766227,-0.44532150878906246,2.422932080078125,7.201758593749999,7.611454391475642
0.6714747575230042,-0.4740519287109375,2.39420166015625,7.134720947265625,7.540634576476996
0.6739617010693857,-0.565031591796875,2.3223756103515623,7.182604980468749,7.569841707772943
0.6764486446157671,-0.6607996582031249,2.288856787109375,7.48906279296875,7.858853803017773
0.6789355881621487,-0.699106884765625,2.288856787109375,7.924807495117187,8.278296301950595
0.6814225317085302,-0.7422025146484375,2.360682836914062,8.461108666992187,8.815557152211163
0.6839094752549116,-0.737414111328125,2.370259643554687,9.0788126953125,9.412053458518884
0.6863964188012932,-0.7805097412109374,2.422932080078125,9.696516723632811,10.025080143943372
0.6888833623476747,-0.737414111328125,2.5426421630859375,10.357316381835936,10.690313904396598
0.6913703058940561,-0.7326257080078125,2.5713725830078125,10.931924780273437,11.254140428759303
0.6938572494404377,-0.6703764648437499,2.6431986328124997,11.358092675781249,11.680846409775018
0.6963441929868192,-0.6177040283203125,2.7341782958984373,11.664550488281249,11.996625663661742
0.6988311365332006,-0.5506663818359374,2.786850732421875,11.774683764648437,12.112512052681728
0.7013180800795822,-0.469263525390625,2.77727392578125,11.693280908203125,12.027729507817929
0.7038050236259636,-0.430956298828125,2.858676782226562,11.482591162109374,11.840931385363787
0.7062919671723451,-0.3591302490234375,2.8012159423828122,11.0707884765625,11.425329001145318
0.7087789107187267,-0.316034619140625,2.806004345703125,10.520122094726561,10.892497746456234
0.7112658542651081,-0.277727392578125,2.7581203125,9.916783276367187,10.2969389001416
0.7137527978114896,-0.24899697265624998,2.7054478759765623,9.227253198242186,9.618921420122359
0.7162397413578712,-0.296881005859375,2.6767174560546874,8.623914379882812,9.034647414411783
0.7187266849042526,-0.32082302246093747,2.5857377929687497,8.049305981445311,8.460513821787607
0.7212136284506341,-0.36391865234375,2.528276953125,7.589619262695312,8.007929925386614
0.7237005719970157,-0.40222587890625,2.480392919921875,7.254431030273437,7.677297979618519
0.7261875155433971,-0.5027823486328125,2.39420166015625,7.168239770507812,7.574209733502339
0.7286744590897786,-0.51714755859375,2.370259643554687,7.211335400390625,7.608477550216632
0.7311614026361601,-0.622492431640625,2.31758720703125,7.369352709960937,7.750230103258443
0.7336483461825416,-0.689530078125,2.29843359375,7.781155395507812,8.142765378086118
0.7361352897289231,-0.7038952880859375,2.370259643554687,8.250418920898436,8.612956038711244
0.7386222332753046,-0.7613561279296874,2.370259643554687,8.892064965820312,9.233992272455565
0.7411091768216861,-0.7517793212890624,2.4564509033203126,9.5001921875,9.841390897011308
0.7435961203680675,-0.7613561279296874,2.480392919921875,10.160991845703125,10.48702853429798
0.7460830639144491,-0.7565677246093749,2.5234885498046875,10.726023437499999,11.044816339111994
0.7485700074608306,-0.6703764648437499,2.6096798095703124,11.195286962890624,11.514959118232428
0.7510569510072121,-0.6703764648437499,2.6575638427734374,11.563994018554688,11.884359799509678
0.7535438945535936,-0.5602431884765625,2.7437551025390623,11.717222924804688,12.047214514671516
0.7560308380999751,-0.5267243652343749,2.81558115234375,11.698069311523437,12.043660631202265
0.7585177816463566,-0.43574470214843747,2.825157958984375,11.5304751953125,11.879530679634614
0.7610047251927381,-0.38786066894531246,2.868253588867187,11.123460913085937,11.493854759544982
0.7634916687391196,-0.32561142578124996,2.834734765625,10.697293017578124,11.07130624163057
0.7659786122855011,-0.3112462158203125,2.7724855224609373,10.089165795898436,10.467799034956913
0.7684655558318826,-0.277727392578125,2.786850732421875,9.481038574218749,9.886038739313763
0.770952499378264,-0.3064578125,2.6719290527343746,8.801085302734375,9.202837810137442
0.7734394429246456,-0.33039982910156246,2.5857377929687497,8.202534887695313,8.606787005899239
0.7759263864710271,-0.3399766357421875,2.50912333984375,7.6997525390625,8.105397782354586
0.7784133300174085,-0.38307226562499996,2.50912333984375,7.37414111328125,7.798743581746009
0.7809002735637901,-0.4836287353515625,2.403778466796875,7.110778930664062,7.5216503954830305
0.7833872171101716,-0.5219359619140624,2.403778466796875,7.153874560546875,7.564951374187096
0.785874160656553,-0.5793968017578125,2.327164013671875,7.287949853515625,7.672392460489426
0.7883611042029346,-0.6512228515624999,2.31758720703125,7.575254052734374,7.948570665727308
0.790848047749316,-0.737414111328125,2.3511060302734372,8.0828248046875,8.450061299212301
0.7933349912956975,-0.74699091796875,2.384624853515625,8.643067993164061,8.997058155752315
0.7958219348420791,-0.7661445312499999,2.379836450195312,9.284714038085937,9.615431022136896
0.7983088783884605,-0.7661445312499999,2.446874096679687,9.926360083007811,10.252160493539748
0.800795821934842,-0.7709329345703124,2.528276953125,10.51533369140625,10.84245196359807
0.8032827654812236,-0.70868369140625,2.6096798095703124,11.042058056640624,11.368364324262583
0.805769709027605,-0.6655880615234374,2.6767174560546874,11.468225952148437,11.795254566846845
0.8082566525739865,-0.5793968017578125,2.710236279296875,11.640608471679688,11.965987085670996
0.8107435961203681,-0.5410895751953124,2.7724855224609373,11.717222924804688,12.052915289265458
0.8132305396667495,-0.43574470214843747,2.786850732421875,11.6070896484375,11.944912747990909
0.815717483213131,-0.39264907226562495,2.7964275390625,11.291055029296874,11.638818838257963
0.8182044267595125,-0.3495534423828125,2.786850732421875,10.888829150390624,11.245235652500956
0.820691370305894,-0.33518823242187495,2.7964275390625,10.309432348632813,10.687223843609617
0.8231783138522755,-0.296881005859375,2.748543505859375,9.706093530273437,10.092119765126537
0.825665257398657,-0.28730419921875,2.6958710693359373,9.016563452148437,9.415342851537067
0.8281522009450385,-0.3112462158203125,2.6144682128906247,8.403647827148436,8.806453034327419
0.83063914449142,0.9720458740234375,2.93050283203125,3.342305517578125,4.550134745541317
0.8331260880378015,0.5746083984375,2.39420166015625,-0.6703764648437499,2.5518191561445445
0.835613031584183,0.12449848632812499,1.944091748046875,-3.6727053466796873,4.157373829889671
0.8380999751305644,-0.316034619140625,1.5370774658203123,-5.501875415039062,5.721286402465726
0.840586918676946,-0.82360537109375,1.254561669921875,-6.124367846679687,6.305563599899348
0.8430738622233275,-1.1875240234375,1.0726023437499999,-5.482721801757812,5.711473316888525
0.8455608057697089,-1.5562310791015623,1.0438719238281249,-3.6583401367187496,4.110349902483438
0.8480477493160905,-1.7669208251953124,1.0965443603515623,-0.9624690673828125,2.291454874614912
0.850534692862472,-1.924938134765625,1.2880804931640624,2.4756045166015626,3.3901557342049635
0.8530216364088534,-1.9488801513671874,1.5753846923828123,6.2392895263671875,6.723741857568772
0.855508579955235,-1.8243816650390623,1.915361328125,10.0748005859375,10.416265373127455
0.8579955235016165,-1.6903063720703124,2.2744915771484373,13.7522943359375,14.041226693855466
0.8604824670479979,-1.3934253662109375,2.6336218261718747,16.907852124023435,17.16837387821959
0.8629694105943795,-1.1013327636718748,3.0262708984374997,19.330784204101562,19.59720560061075
0.8654563541407609,-0.7230489013671875,3.361459130859375,20.829554443359374,21.11143163101637
0.8679432976871424,-0.3687070556640625,3.5577836669921874,21.43289326171875,21.729304707749897
0.870430241233524,-0.0718260498046875,3.754108203125,21.006725366210937,21.33965786964756
0.8729171847799054,0.239420166015625,3.754108203125,19.689914453125,20.046031567071974
0.8754041283262869,0.44532150878906246,3.754108203125,17.750611108398438,18.148714399884046
0.8778910718726685,0.5746083984375,3.6104561035156246,15.112200878906249,15.548124758033778
0.8803780154190499,0.584185205078125,3.385401147460937,12.176909643554687,12.652246510021733
0.8828649589654315,0.5363011718749999,3.1268273681640624,9.193734375,9.72570923353721
0.885351902511813,0.4213794921875,2.7724855224609373,6.268019946289062,6.866754014508546
0.8878388460581944,0.2442085693359375,2.518700146484375,3.7924154296875,4.5591559574738545
0.890325789604576,-0.0430956298828125,2.250549560546875,1.8818425048828125,2.933966900116009
0.8928127331509574,-0.32561142578124996,2.0446482177734375,0.5985504150390625,2.1551964491402695
0.8952996766973389,-0.59376201171875,1.8339584716796873,0.028730419921875,1.9278958580366519
0.8977866202437205,-0.852335791015625,1.6711527587890624,0.27293898925781246,1.8957118809860327
0.9002735637901019,-1.1109095703125,1.6519991455078125,1.1635820068359375,2.3058933923325236
0.9027605073364834,-1.2832920898437499,1.6424223388671875,2.7198130859375,3.4266270514169426
0.905247450882865,-1.3646949462890625,1.7429788085937499,4.783614916992187,5.270990333675823
0.9077343944292464,-1.455674609375,1.89620771484375,7.019799267578125,7.415670841083927
0.9102213379756279,-1.3646949462890625,2.1068974609374997,9.394847314453125,9.724431359684683
0.9127082815220094,-1.2880804931640624,2.370259643554687,11.707646118164062,12.014418827512872
0.9151952250683909,-1.1252747802734375,2.5713725830078125,13.699621899414062,13.98419967243993
0.9176821686147724,-0.9337386474609375,2.7964275390625,15.370774658203125,15.650961262371354
0.9201691121611539,-0.699106884765625,3.0406361083984375,16.443377001953124,16.736751943205228
0.9226560557075354,-0.507570751953125,3.1699229980468746,16.869544897460937,17.172291196262513
0.9251429992539169,-0.32082302246093747,3.289633081054687,16.788142041015625,17.110415728702407
0.9276299428002984,-0.09576806640624999,3.303998291015625,16.03157431640625,16.36877977407094
0.9301168863466799,0.047884033203124995,3.327940307617187,14.882357519531249,15.249985079036874
0.9326038298930613,0.12449848632812499,3.2609026611328122,13.335703247070311,13.729164837396436
0.9350907734394429,0.15322890625,3.1507693847656246,11.468225952148437,11.89415962997041
0.9375777169858244,0.2059013427734375,2.978386865234375,9.552864624023437,10.00851668364873
0.9400646605322058,0.0909796630859375,2.7629087158203123,7.690175732421874,8.171948645615768
0.9425516040785874,0.009576806640625,2.5617957763671875,6.038176586914062,6.559151302553962
0.9450385476249689,-0.143652099609375,2.43250888671875,4.678270043945313,5.274840851984441
0.9475254911713503,-0.3495534423828125,2.2553379638671873,3.816357446289062,4.446720263091466
0.9500124347177319,-0.55545478515625,2.1164742675781247,3.356670727539062,4.00689801676945
0.9524993782641133,-0.699106884765625,2.0159177978515626,3.366247534179687,3.9855109415722616
0.9549863218104948,-0.852335791015625,1.9728221679687499,3.9264907226562498,4.476140413590792
0.9574732653568764,-0.9720458740234375,1.9680337646484374,4.879382983398437,5.350365256567118
0.9599602089032578,-1.0678139404296874,2.01112939453125,6.105214233398437,6.516019405174793
0.9624471524496393,-1.0917559570312498,2.1404162841796874,7.637503295898437,8.006545418228406
0.9649340959960209,-1.0678139404296874,2.250549560546875,9.251195214843749,9.580700018213784
0.9674210395424023,-1.0678139404296874,2.375048046875,10.749965454101561,11.060869635825101
0.9699079830887838,-0.9816226806640624,2.4851813232421875,12.138602416992187,12.429214694999619
0.9723949266351654,-0.8571241943359375,2.729389892578125,13.283030810546874,13.587609745064112
0.9748818701815468,-0.7038952880859375,2.85388837890625,14.049175341796873,14.353378530520228
0.9773688137279283,-0.55545478515625,2.9544448486328125,14.480131640624998,14.788897413661207
0.9798557572743098,-0.373495458984375,3.0550013183593747,14.441824414062499,14.766137759064526
0.9823427008206913,-0.277727392578125,3.0837317382812497,14.058752148437499,14.395660662486712
0.9848296443670728,-0.16280571289062498,3.0789433349609374,13.283030810546874,13.636176343608488
0.9873165879134543,-0.08140285644531249,3.0358477050781247,12.234370483398436,12.605666140213156
0.9898035314598358,-0.0143652099609375,2.9640216552734375,11.03248125,11.423715387901987
0.9922904750062173,-0.023942016601562498,2.916137622070312,9.65342109375,10.084293265483222
0.9947774185525988,-0.11013327636718749,2.7246014892578123,8.360552197265624,8.79399884336087
0.9972643620989803,-0.1292868896484375,2.6048914062499997,7.201758593749999,7.659471338208796
0.9997513056453617,-0.239420166015625,2.4899697265625,6.205770703124999,6.690953689486816
1.0022382491917432,-0.8858546142578124,3.19865341796875,9.519345800781249,10.081372255835841
1.0047251927381249,-0.7517793212890624,3.2609026611328122,9.471461767578125,10.045259893501763
1.0072121362845063,-0.5602431884765625,3.4093431640625,9.514557397460937,10.122464902885696
1.0096990798308878,-0.38307226562499996,3.380612744140625,9.5001921875,10.09103257778772
1.0121860233772693,-0.22505495605468748,3.414131567382812,9.509768994140625,10.106564718763888
1.0146729669236507,-0.08140285644531249,3.447650390625,9.466673364257812,10.075258022828125
1.0171599104700322,0.1197100830078125,3.4715924072265625,9.485826977539062,10.101841307093213
1.0196468540164139,0.239420166015625,3.356670727539062,9.442731347656249,10.024456877707767
1.0221337975627953,0.3495534423828125,3.294421484375,9.447519750976562,10.011544834384226
1.0246207411091768,0.43574470214843747,3.19865341796875,9.404424121093749,9.943060403273407
1.0271076846555582,0.507570751953125,3.1124621582031247,9.3852705078125,9.900926787897172
1.0295946282019397,0.49799394531249996,3.0071172851562498,9.394847314453125,9.876938209695377
1.0320815717483212,0.5458779785156249,2.8730419921875,9.361328491210937,9.807488168570924
1.0345685152947028,0.4836287353515625,2.6862942626953124,9.34696328125,9.7373403042352
1.0370554588410843,0.39743747558593745,2.50912333984375,9.356540087890625,9.695282301091241
1.0395424023874658,0.296881005859375,2.384624853515625,9.332598071289063,9.637009950387766
1.0420293459338472,0.16759411621093748,2.2601263671875,9.337386474609374,9.608488182834112
1.0445162894802287,0.0143652099609375,2.1499930908203124,9.327809667968749,9.572393109963858
1.0470032330266101,-0.1149216796875,2.0254946044921875,9.370905297851563,9.587997782988461
1.0494901765729918,-0.32561142578124996,1.886630908203125,9.375693701171874,9.569170881668933
1.0519771201193733,-0.507570751953125,1.8339584716796873,9.332598071289063,9.52462169875068
1.0544640636657547,-0.6560112548828124,1.7621324218749999,9.313444458007812,9.501353014763339
1.0569510072121362,-0.8954314208984374,1.70467158203125,9.342174877929686,9.538549894084408
1.0594379507585177,-1.0630255371093749,1.7190367919921874,9.390058911132812,9.605119319368926
1.0619248943048991,-1.20667763671875,1.7860744384765623,9.390058911132812,9.634279380072037
1.0644118378512808,-1.3455413330078123,1.7286135986328124,9.423577734375,9.674833526630781
1.0668987813976623,-1.47482822265625,1.8243816650390623,9.380482104492186,9.669381120773565
1.0693857249440437,-1.5514426757812498,1.944091748046875,9.452308154296874,9.77407778487804
1.0718726684904252,-1.5897499023437498,2.068590234375,9.4618849609375,9.814970062296105
1.0743596120368066,-8.978256225585938,4.989516259765625,10.031704956054687,14.357557650382963
1.076846555583188,-8.71489404296875,5.722141967773437,10.031704956054687,14.468150925562618
1.0793334991295698,-8.283937744140625,6.244077929687499,10.041281762695311,14.437433053650695
1.0818204426759512,-7.613561279296874,6.7277066650390625,10.01733974609375,14.267986820609602
1.0843073862223327,-6.785167504882812,6.962338427734375,9.9981861328125,13.945478851512721
1.0867943297687142,-5.7843912109375,7.101202124023437,9.97903251953125,13.545011750207829
1.0892812733150956,-4.797980126953124,7.1203557373046875,9.907206469726562,13.110027427820155
1.0917682168614773,-3.69664736328125,6.957550024414062,9.835380419921874,12.601881291111296
1.0942551604078588,-2.5857377929687497,6.7037646484375,9.749189160156249,12.110870723285563
1.0967421039542402,-1.5562310791015623,6.368576416015625,9.667786303710937,11.68104073926689
1.0992290475006217,-0.5506663818359374,5.961562133789062,9.643844287109374,11.351087576665241
1.1017159910470031,0.37828386230468747,5.473144995117187,9.562441430664062,11.02445921272046
1.1042029345933846,1.1731588134765625,4.936843823242187,9.504980590820312,10.774664011865665
1.1066898781397663,1.9967641845703124,4.434061474609375,9.428366137695312,10.608584090058267
1.1091768216861477,2.528276953125,3.878606689453125,9.313444458007812,10.400770253955713
1.1116637652325292,2.9448680419921875,3.342305517578125,9.270348828125,10.28506788274626
1.1141507087789106,3.385401147460937,2.839523168945312,9.236830004882812,10.239280311394472
1.116637652325292,3.4859576171874997,2.3367408203125,9.169792358398437,10.08451040290428
1.1191245958716736,3.5434184570312497,1.9536685546875,9.208099584960937,10.057918927380667
1.1216115394180552,-3.8690298828125,4.357447021484375,9.686939916992188,11.30458056429144
1.1240984829644367,-3.854664672851562,4.611232397460937,9.701305126953125,11.412152519563088
1.1265854265108182,-3.6391865234374996,4.7931917236328125,9.634267480468749,11.35946633152671
1.1290723700571996,-3.5242648437499997,4.8698061767578125,9.643844287109374,11.363942428668533
1.131559313603581,-3.1651345947265623,4.783614916992187,9.619902270507811,11.200159301140603
1.1340462571499625,-2.849099975585937,4.716577270507813,9.581595043945311,11.0530735727992
1.1365332006963442,-2.528276953125,4.4819455078125,9.557653027343749,10.854895267933118
1.1390201442427257,-2.1452046874999997,4.314351391601562,9.524134204101562,10.673549710345833
1.1415070877891071,-1.7908628417968748,4.036623999023437,9.533711010742186,10.506815343574262
1.1439940313354886,-1.465251416015625,3.77326181640625,9.4618849609375,10.291342646190555
1.14648097488187,-1.1444283935546875,3.447650390625,9.423577734375,10.099496367629385
1.1489679184282515,-0.833182177734375,3.1124621582031247,9.414000927734374,9.950126968784083
1.1514548619746332,-0.63206923828125,2.829946362304687,9.390058911132812,9.827579269079832
1.1539418055210147,-0.430956298828125,2.50912333984375,9.380482104492186,9.719818299677543
1.1564287490673961,-7.474697583007812,5.377376928710937,9.916783276367187,13.532548804319585
1.1589156926137776,-7.029376074218749,5.66946953125,9.911994873046874,13.409051238692417
1.161402636160159,-6.392518432617187,5.913678100585937,9.878476049804688,13.168909205217606
1.1638895797065405,-5.68862314453125,5.942408520507812,9.835380419921874,12.82214335864652
1.1663765232529222,-4.912901806640625,5.961562133789062,9.801861596679688,12.480116906390917
1.1688634667993036,-4.031835595703125,5.837063647460937,9.749189160156249,12.057101624179703
1.171350410345685,-3.1411925781249996,5.659892724609374,9.65342109375,11.622823034022808
1.1738373538920666,-2.2361843505859373,5.425260961914062,9.643844287109374,11.288831187890368
1.176324297438448,-1.388636962890625,5.090072729492187,9.581595043945311,10.938195307836823
1.1788112409848295,-7.939172705078125,7.560888842773437,10.0748005859375,14.88956380087207
1.1812981845312112,-6.943184814453125,7.785943798828124,10.05564697265625,14.48947108230157
1.1837851280775926,-12.976572998046874,11.214440576171874,10.596736547851561,20.16050469791623
1.186272071623974,-11.410765112304686,11.621454858398437,10.453084448242187,19.352796902671848
1.1887590151703555,-9.581595043945311,11.659762084960937,10.376469995117187,18.314697513844372
1.191245958716737,-7.68059892578125,11.425130322265625,10.28549033203125,17.18477564909632
1.1937329022631185,-5.7077767578125,10.979808813476561,10.127473022460936,15.990641854478392
1.1962198458095001,-3.778050219726562,10.275913525390624,9.95987890625,14.800920581884276
1.1987067893558816,-1.85790048828125,9.4618849609375,9.792284790039062,13.742921910845645
1.201193732902263,-0.0909796630859375,8.52335791015625,9.658209497070311,12.881650439792935
1.2036806764486445,1.4939818359375,7.417236743164062,9.567229833984374,12.197510784030277
1.206167619995026,2.868253588867187,6.301538769531249,9.390058911132812,11.666596584629968
1.2086545635414074,4.04141240234375,5.166687182617188,9.3086560546875,11.387657713213411
1.2111415070877891,4.951209033203125,4.04141240234375,9.131485131835937,11.145918796098906
1.2136284506341706,5.616797094726562,2.93050283203125,9.030928662109375,11.031497131032603
1.216115394180552,6.066907006835937,2.001552587890625,8.959102612304687,11.003594549486603
1.2186023377269335,6.248866333007812,1.0821791503906248,8.916006982421875,10.941417763340102
1.221089281273315,6.215347509765625,0.37828386230468747,8.939948999023438,10.894784598732096
1.2235762248196966,5.928043310546875,-0.3112462158203125,8.86812294921875,10.67155922726582
1.226063168366078,5.482721801757812,-0.8092401611328125,8.872911352539061,10.461532577202885
1.2285501119124596,4.855440966796874,-1.235408056640625,8.9255837890625,10.235603842667869
1.231037055458841,4.151545678710937,-1.47482822265625,8.939948999023438,9.9666011214409
1.2335239990052225,3.3327287109375,-1.5514426757812498,8.987833032226561,9.710571437980636
1.236010942551604,2.47081611328125,-1.455674609375,9.02135185546875,9.466187729714575
1.2384978860979856,1.5514426757812498,-1.3263877197265623,9.093177905273437,9.319450797993932
1.240984829644367,0.63206923828125,-1.139639990234375,9.150638745117186,9.242969234664946
1.2434717731907485,-0.19632453613281248,-0.7996633544921875,9.246406811523437,9.282997561574197
1.24595871673713,-1.024718310546875,-0.38307226562499996,9.351751684570312,9.415521841434217
1.2484456602835114,-1.7621324218749999,0.12449848632812499,9.414000927734374,9.57831008125675
1.250932603829893,-2.4133552734375,0.5458779785156249,9.437942944335937,9.756896712776935
1.2534195473762746,-2.89219560546875,1.1156979736328125,9.562441430664062,10.052356117027573
1.255906490922656,-3.347093920898437,1.6232687255859375,9.5384994140625,10.238213229995326
1.2583934344690375,-3.6200329101562496,2.1499930908203124,9.600748657226562,10.483390832189126
1.260880378015419,-3.778050219726562,2.5857377929687497,9.629479077148437,10.662390477468097
1.2633673215618004,-3.873818286132812,3.0597897216796874,9.662997900390625,10.85091284997844
1.2658542651081819,-3.73495458984375,3.4763808105468748,9.715670336914062,10.97403113827026
1.2683412086545636,-3.5865140869140624,3.83072265625,9.730035546875,11.054913437390233
1.270828152200945,-3.361459130859375,4.13718046875,9.739612353515625,11.102959898882753
1.2733150957473265,-3.0166940917968748,4.3430818115234375,9.682151513671874,11.032083248360957
1.275802039293708,-2.6384102294921874,4.553771557617187,9.634267480468749,10.978030507484934
1.2782889828400894,-2.2026655273437497,4.65432802734375,9.65342109375,10.940888612207123
1.2807759263864709,-1.7334020019531249,4.687846850585937,9.662997900390625,10.879067929647155
1.2832628699328525,-1.24498486328125,4.668693237304687,9.619902270507811,10.765184789309252
1.285749813479234,-0.7757213378906249,4.6351744140625,9.586383447265625,10.676391386645903
1.2882367570256155,-0.33039982910156246,4.44363828125,9.605537060546874,10.588740597597067
1.290723700571997,0.062249243164062495,4.261678955078125,9.519345800781249,10.429943765873423
1.2932106441183784,-14.178462231445312,9.80665,10.63025537109375,20.253431924631656
1.2956975876647598,-13.359645263671874,10.702081420898438,10.55364091796875,20.109550092831867
1.2981845312111415,-12.210428466796873,11.271901416015623,10.55364091796875,19.68577307348032
1.300671474757523,-10.812214697265624,11.506533178710937,10.424354028320312,18.920133439283674
1.3031584183039044,-9.212887988281249,11.410765112304686,10.333374365234375,17.940498635904454
1.305645361850286,-7.513004809570312,11.061211669921875,10.189722265624999,16.8114866899396
1.3081323053966674,-5.755660791015624,10.481814868164061,10.026916552734374,15.605612119593335
1.3106192489430488,-4.031835595703125,9.734823950195311,9.897629663085937,14.456333164384171
1.3131061924894305,-2.346317626953125,8.734047656249999,9.715670336914062,13.273396135269557
1.315593136035812,-0.7709329345703124,7.733271362304687,9.591171850585937,12.344569697649208
1.3180800795821934,0.63206923828125,6.6319385986328125,9.457096557617186,11.568007451506592
1.3205670231285749,1.8435352783203125,5.415684155273437,9.323021264648437,10.938326320474182
1.3230539666749563,2.882618798828125,4.299986181640625,9.208099584960937,10.563544398932368
1.3255409102213378,3.6535517333984373,3.1842882080078123,9.117119921875,10.32521221719565
1.3280278537677195,4.199429711914062,2.1691467041015624,9.016563452148437,10.18031550669429
1.330514797314101,4.61602080078125,1.2785036865234374,8.98304462890625,10.18024118155462
1.3330017408604824,4.726154077148437,0.4836287353515625,8.94473740234375,10.12811711580646
1.3354886844068639,4.716577270507813,-0.1484405029296875,8.968679418945312,10.13436462001413
1.3379756279532453,4.529829541015625,-0.6751648681640625,8.968679418945312,10.070373071027412
1.3404625714996268,4.141968872070312,-1.0103531005859374,8.939948999023438,9.904514507546708
1.3429495150460085,3.6822821533203123,-1.2306196533203124,9.04050546875,9.838920963108615
1.34543645859239,3.0933085449218747,-1.3359645263671873,9.006986645507812,9.61660893465853
1.3479234021387714,2.4756045166015626,-1.2401964599609374,9.09796630859375,9.509978755718894
1.3504103456851528,1.8291700683593748,-1.024718310546875,9.165003955078124,9.401766230424448
1.3528972892315343,1.1156979736328125,-0.7709329345703124,9.184157568359375,9.28374223028765
1.3553842327779158,0.5363011718749999,-0.3399766357421875,9.289502441406249,9.311179230833103
1.3578711763242974,-0.1005564697265625,0.1197100830078125,9.380482104492186,9.381784831271487
1.360358119870679,-0.622492431640625,0.603338818359375,9.452308154296874,9.49197787613184
1.3628450634170604,-1.1540052001953125,1.120486376953125,9.476250170898437,9.611791457603937
1.3653320069634418,-1.5322890624999999,1.6472107421875,9.543287817382812,9.804874061692084
1.3678189505098233,-1.867477294921875,2.1021090576171875,9.557653027343749,9.962683640880005
1.370305894056205,-2.0829554443359375,2.6240450195312497,9.648632690429688,10.213737241697768
1.3727928376025864,-2.24097275390625,3.1124621582031247,9.619902270507811,10.356249285533734
1.3752797811489679,-2.3032219970703123,3.4620156005859375,9.619902270507811,10.480119430646308
1.3777667246953493,-2.288856787109375,3.81156904296875,9.648632690429688,10.623701650368519
1.3802536682417308,-2.2026655273437497,4.04141240234375,9.672574707031249,10.71183696171049
1.3827406117881123,-2.0446482177734375,4.242525341796875,9.662997900390625,10.749564457836717
1.385227555334494,-1.867477294921875,4.3430818115234375,9.634267480468749,10.731679316577257
1.3877144988808754,-1.6424223388671875,4.405331054687499,9.595960253906249,10.685829216076426
1.3902014424272569,-1.426944189453125,4.3813890380859375,9.567229833984374,10.619068994933329
1.3926883859736383,-1.1540052001953125,4.357447021484375,9.543287817382812,10.554307884107232
1.3951753295200198,-0.8667010009765624,4.209006518554688,9.504980590820312,10.43127808708983
1.3976622730664012,-0.6560112548828124,3.9647979492187497,9.476250170898437,10.293167192177284
1.400149216612783,-0.430956298828125,3.7205893798828122,9.457096557617186,10.171783716010248
1.4026361601591644,-0.27293898925781246,3.5146880371093747,9.404424121093749,10.043441678003948
1.4051231037055458,-0.105344873046875,3.19865341796875,9.370905297851563,9.902340497673412
1.4076100472519273,-0.062249243164062495,2.906560815429687,9.337386474609374,9.779506987485814
1.4100969907983087,0.0718260498046875,2.6192566162109374,9.318232861328125,9.679624365693673
1.4125839343446902,0.076614453125,2.403778466796875,9.342174877929686,9.64677418320158
1.4150708778910719,0.09576806640624999,2.1691467041015624,9.342174877929686,9.59117304589373
1.4175578214374533,0.009576806640625,1.924938134765625,9.275137231445312,9.47278465922473
1.4200447649838348,-0.0430956298828125,1.7956512451171873,9.294290844726563,9.466259183741691
1.4225317085302163,-0.1292868896484375,1.5945383056640625,9.299079248046874,9.435684520453247
1.4250186520765977,-0.2825157958984375,1.484405029296875,9.299079248046874,9.421048154392908
1.4275055956229792,-0.37828386230468747,1.43652099609375,9.323021264648437,9.440625866635393
1.4299925391693609,-0.5363011718749999,1.4030021728515625,9.356540087890625,9.476332437197685
1.4324794827157423,-0.6703764648437499,1.4891934326171874,9.394847314453125,9.535735826156976
1.4349664262621238,-0.8283937744140625,1.4939818359375,9.428366137695312,9.581873824990536
1.4374533698085052,-0.9576806640625,1.5418658691406248,9.3852705078125,9.559173872126976
1.4399403133548867,-1.0199299072265624,1.7381904052734374,9.423577734375,9.63666852270265
1.4424272569012682,-1.120486376953125,1.905784521484375,9.452308154296874,9.707400981058429
1.4449142004476498,-1.1444283935546875,2.059013427734375,9.481038574218749,9.769306274725372
1.4474011439940313,-1.13006318359375,2.2266075439453124,9.490615380859374,9.813592831428902
1.4498880875404128,-1.1061211669921875,2.4564509033203126,9.485826977539062,9.860961845798776
1.4523750310867942,-1.1061211669921875,2.6479870361328124,9.509768994140625,9.933330040903403
1.4548619746331757,-1.0342951171875,2.7964275390625,9.524134204101562,9.979925135410705
1.4573489181795571,-0.9097966308593749,3.0119056884765625,9.504980590820312,10.012190660273674
1.4598358617259388,-0.7852981445312499,3.1603461914062496,9.519345800781249,10.060935627474803
1.4623228052723203,-0.74699091796875,3.2513258544921873,9.528922607421874,10.09601313895009
1.4648097488187017,-0.5315127685546874,3.327940307617187,9.5384994140625,10.116356240577458
1.4672966923650832,-0.3591302490234375,3.4524387939453125,9.528922607421874,10.141433538703387
1.4697836359114647,-0.26815058593749996,3.4572271972656248,9.481038574218749,10.095267063137836
1.4722705794578461,-0.12449848632812499,3.5386300537109374,9.471461767578125,10.111675951335585
1.4747575230042278,0.009576806640625,3.438073583984375,9.481038574218749,10.085164060635824
1.4772444665506093,0.105344873046875,3.399766357421875,9.481038574218749,10.07271568511485
1.4797314100969907,0.19632453613281248,3.323151904296875,9.414000927734374,9.98525389611618
1.4822183536433722,0.2825157958984375,3.246537451171875,9.447519750976562,9.993770561799282
1.4847052971897536,0.32561142578124996,3.1076737548828124,9.428366137695312,9.932660620086963
1.487192240736135,0.3112462158203125,2.935291235351562,9.404424121093749,9.856774416238007
1.4896791842825168,0.316034619140625,2.7820623291015623,9.370905297851563,9.78026660090633
1.4921661278288982,0.26336218261718747,2.6623522460937497,9.375693701171874,9.749928794596773
1.4946530713752797,0.2059013427734375,2.4564509033203126,9.414000927734374,9.731390438717519
1.4971400149216612,0.0909796630859375,2.3319524169921872,9.342174877929686,9.629252869461444
1.4996269584680426,-0.0718260498046875,2.1787235107421874,9.303867651367186,9.555833212852141
1.5021139020144243,-0.22026655273437498,2.020706201171875,9.34696328125,9.56543221641049
1.5046008455608058,-0.3495534423828125,1.9632453613281249,9.370905297851563,9.580729933525971
1.5070877891071872,-0.507570751953125,1.8052280517578123,9.3086560546875,9.495659741774755
1.5095747326535687,-0.6607996582031249,1.8243816650390623,9.375693701171874,9.574375020136094
1.5120616761999501,-0.8475473876953125,1.7238251953125,9.327809667968749,9.523546769992501
1.5145486197463316,-0.9576806640625,1.7477672119140624,9.370905297851563,9.580485821849722
1.5170355632927133,-1.158793603515625,1.7286135986328124,9.390058911132812,9.617905902194703
1.5195225068390947,-1.2737152832031249,1.7334020019531249,9.380482104492186,9.623953326764344
1.5220094503854762,-1.3646949462890625,1.8339584716796873,9.423577734375,9.696886783297042
1.5244963939318577,-1.4221557861328125,1.915361328125,9.418789331054686,9.716209577818779
1.5269833374782391,-1.5131354492187499,1.9919757812499999,9.452308154296874,9.777713221636036
1.5294702810246206,-1.4939818359375,2.1739351074218747,9.476250170898437,9.83652849733305
1.5319572245710023,-1.4891934326171874,2.269703173828125,9.481038574218749,9.862015109644657
1.5344441681173837,-1.4939818359375,2.384624853515625,9.490615380859374,9.89899983460552
1.5369311116637652,-1.39821376953125,2.5474305664062498,9.485826977539062,9.920953466465585
1.5394180552101466,-1.3024457031249999,2.710236279296875,9.476250170898437,9.941884268118313
1.541904998756528,-1.177947216796875,2.825157958984375,9.528922607421874,10.008468574013106
1.5443919423029095,-1.0726023437499999,3.0023288818359375,9.543287817382812,10.061749195240926
1.5468788858492912,-0.8571241943359375,3.1124621582031247,9.533711010742186,10.065472080687984
1.5493658293956727,-0.7230489013671875,3.19865341796875,9.5384994140625,10.086483751740351
1.5518527729420541,-0.51714755859375,3.2417490478515623,9.5001921875,10.051369562703483
1.5543397164884356,-0.3447650390625,3.337517114257812,9.514557397460937,10.08883967013562
1.556826660034817,-0.1388636962890625,3.356670727539062,9.5384994140625,10.112838007766927
1.5593136035811985,0.009576806640625,3.423708374023437,9.5384994140625,10.134339732693704
1.5618005471275802,0.15322890625,3.404554760742187,9.466673364257812,10.061430156898728
1.5642874906739617,0.28730419921875,3.361459130859375,9.476250170898437,10.05889002289911
1.5667744342203431,0.4070142822265625,3.23696064453125,9.485826977539062,10.031175817818589
1.5692613777667246,0.5123591552734374,3.2561142578125,9.452308154296874,10.010540515262377
1.571748321313106,0.5027823486328125,3.0597897216796874,9.428366137695312,9.925179658698022
1.5742352648594875,-6.665457421875,6.215347509765625,9.9981861328125,13.52858430347915
1.5767222084058692,-6.339845996093749,6.555324145507812,9.97903251953125,13.518395316483604
1.5792091519522506,-5.8083332275390624,6.72291826171875,9.935936889648437,13.32881115144792
1.581696095498632,-5.209782812499999,6.72291826171875,9.888052856445311,13.042739597148604
1.5841830390450136,-4.525041137695312,6.641515405273437,9.821015209960937,12.690077380796517
1.586669982591395,-3.77326181640625,6.373364819335937,9.734823950195311,12.232092265708047
1.5891569261377765,-3.0502129150390624,6.081272216796875,9.662997900390625,11.817749321457546
1.5916438696841582,-2.3032219970703123,5.588066674804687,9.605537060546874,11.348905804146527
1.5941308132305396,-1.5945383056640625,5.0757075195312495,9.5384994140625,10.921919716978639
1.596617756776921,-0.9241618408203125,4.553771557617187,9.490615380859374,10.567056866242188
1.5991047003233025,-0.36391865234375,3.9935283691406247,9.423577734375,10.241314512134803
1.601591643869684,0.181959326171875,3.5003228271484375,9.351751684570312,9.987023012915362
1.6040785874160655,0.55545478515625,2.940079638671875,9.318232861328125,9.786831047791784
1.6065655309624471,0.9050082275390624,2.437297290039062,9.294290844726563,9.65107767445238
1.6090524745088286,1.1348515869140625,2.01112939453125,9.289502441406249,9.572219448736101
1.61153941805521,1.2880804931640624,1.62805712890625,9.241618408203124,9.47191808319155
1.6140263616015915,1.3407529296874998,1.3311761230468748,9.222464794921875,9.414005798947072
1.616513305147973,1.350329736328125,1.0486603271484374,9.236830004882812,9.393727024863479
1.6190002486943544,1.2832920898437499,0.9097966308593749,9.241618408203124,9.374544218265624
1.6214871922407361,1.16837041015625,0.8571241943359375,9.260772021484375,9.373454525080522
1.6239741357871176,1.0199299072265624,0.8571241943359375,9.284714038085937,9.379809895152528
1.626461079333499,0.842758984375,0.9050082275390624,9.356540087890625,9.43790893227745
1.6289480228798805,0.6464344482421874,1.0103531005859374,9.337386474609374,9.414110529410406
1.631434966426262,0.4070142822265625,1.1109095703125,9.380482104492186,9.454799057200871
1.6339219099726436,0.19632453613281248,1.3359645263671873,9.437942944335937,9.53405011313344
1.636408853519025,-0.009576806640625,1.608903515625,9.423577734375,9.55994139906852
1.6388957970654066,-0.19153613281249998,1.8148048583984373,9.442731347656249,9.617451745043972
1.641382740611788,-0.316034619140625,2.1356278808593747,9.490615380859374,9.733065531136825
1.6438696841581695,-0.469263525390625,2.384624853515625,9.519345800781249,9.824692790266678
1.646356627704551,-0.55545478515625,2.5953145996093747,9.495403784179686,9.85935499482154
1.6488435712509326,-0.6368576416015624,2.849099975585937,9.543287817382812,9.97984472283799
1.651330514797314,-0.6943184814453125,3.0310593017578125,9.5001921875,9.996151771751222
1.6538174583436955,-0.679953271484375,3.227383837890625,9.5384994140625,10.09263662085139
1.656304401890077,-0.7230489013671875,3.31357509765625,9.552864624023437,10.137050960042293
1.6587913454364585,-0.6512228515624999,3.380612744140625,9.548076220703125,10.149797694762182
1.66127828898284,-0.6081272216796875,3.4763808105468748,9.5001921875,10.134529779773821
1.6637652325292216,-0.5698199951171875,3.4811692138671875,9.504980590820312,10.138436267703362
1.666252176075603,-0.5315127685546874,3.414131567382812,9.528922607421874,10.13603306233618
1.6687391196219845,-0.5123591552734374,3.404554760742187,9.442731347656249,10.050804959151023
1.671226063168366,-0.4261678955078125,3.289633081054687,9.504980590820312,10.067172438922547
1.6737130067147474,-0.4261678955078125,3.1076737548828124,9.428366137695312,9.936465330709337
1.676199950261129,-0.45489831542968745,2.9735984619140625,9.466673364257812,9.93313268186964
1.6786868938075106,-0.44053310546874996,2.863465185546875,9.414000927734374,9.84971653161839
1.681173837353892,-0.4740519287109375,2.6910826660156246,9.418789331054686,9.807152675941875
1.6836607809002735,-0.5027823486328125,2.5139117431640625,9.366116894531249,9.710648177363785
1.686147724446655,-0.5315127685546874,2.346317626953125,9.351751684570312,9.656240044631828
1.6886346679930364,-0.5793968017578125,2.2361843505859373,9.361328491210937,9.642131103861338
1.6911216115394179,-0.689530078125,2.0781670410156248,9.380482104492186,9.632635905695848
1.6936085550857995,-0.7805097412109374,1.9584569580078124,9.366116894531249,9.600463259370251
1.696095498632181,-0.8571241943359375,1.8818425048828125,9.34696328125,9.572967966035163
1.6985824421785625,-0.9097966308593749,1.7956512451171873,9.366116894531249,9.579991596323959
1.701069385724944,-1.0007762939453124,1.8004396484374998,9.380482104492186,9.603987746289913
1.7035563292713254,-1.0917559570312498,1.8004396484374998,9.418789331054686,9.651274861911691
1.7060432728177068,-1.1061211669921875,1.8626888916015625,9.3852705078125,9.632051518123182
1.7085302163640885,-1.1540052001953125,1.8914193115234375,9.399635717773437,9.65724322158885
1.71101715991047,-1.197100830078125,2.020706201171875,9.442731347656249,9.730440856037212
1.7135041034568514,-1.1731588134765625,2.0973206542968748,9.447519750976562,9.748368323656543
1.715991047003233,-1.1731588134765625,2.1691467041015624,9.490615380859374,9.805777854558858
1.7184779905496144,-1.1444283935546875,2.365471240234375,9.481038574218749,9.838458364102275
1.7209649340959958,-1.0534487304687499,2.427720483398437,9.528922607421874,9.889587808977392
1.7234518776423775,-0.9624690673828125,2.6144682128906247,9.485826977539062,9.886490994771204
1.725938821188759,-0.8667010009765624,2.748543505859375,9.528922607421874,9.955201057082233
1.7284257647351404,-0.7996633544921875,2.91134921875,9.490615380859374,9.959276884464979
1.7309127082815219,-0.6177040283203125,2.987963671875,9.524134204101562,10.000930832116836
1.7333996518279033,-0.507570751953125,3.1220389648437497,9.481038574218749,9.994741007753266
1.7358865953742848,-0.3399766357421875,3.2321722412109373,9.490615380859374,10.03166495737919
1.7383735389206665,-0.239420166015625,3.265691064453125,9.528922607421874,10.07583377207959
1.740860482467048,-0.023942016601562498,3.337517114257812,9.504980590820312,10.073939137199192
1.7433474260134294,-7.134720947265625,6.545747338867187,10.05564697265625,13.959480192984572
1.7458343695598109,-6.6319385986328125,7.048529687499999,10.065223779296874,13.963277196236128
1.7483213131061923,-6.0142345703124995,7.311891870117187,9.988609326171874,13.762525075650744
1.7508082566525738,-5.238513232421875,7.378929516601562,9.950302099609374,13.449874853348025
1.7532952001989555,-4.390965844726562,7.345410693359375,9.911994873046874,13.095162529231207
1.755782143745337,-3.5003228271484375,7.134720947265625,9.811438403320311,12.626196039653271
1.7582690872917184,-2.5953145996093747,6.7803791015625,9.734823950195311,12.143969531135497
1.7607560308380998,-1.6903063720703124,6.344634399414062,9.6151138671875,11.643106800707065
1.7632429743844813,-8.183381274414062,8.949525805664061,10.103531005859374,15.78426685072954
1.765729917930863,-7.038952880859375,8.82981572265625,10.050858569335936,15.117283530311246
1.7682168614772444,-5.88015927734375,8.585607153320312,10.01733974609375,14.44423825983033
1.770703805023626,-4.6639048339843745,8.149862451171874,9.82580361328125,13.591125152843489
1.7731907485700074,-3.418919970703125,7.498639599609374,9.749189160156249,12.76578626217009
1.7756776921163888,-2.250549560546875,6.818686328125,9.605537060546874,11.992739419639536
1.7781646356627703,-1.16837041015625,6.023811376953125,9.543287817382812,11.345736436470125
1.780651579209152,-0.19153613281249998,5.204994409179688,9.428366137695312,10.771385283063836
1.7831385227555334,0.689530078125,4.395754248046875,9.351751684570312,10.356320133509048
1.7856254663019149,1.426944189453125,3.5913024902343746,9.3086560546875,10.078923595337347
1.7881124098482963,2.039859814453125,2.834734765625,9.2320416015625,9.870528931472945
1.7905993533946778,2.480392919921875,2.1021090576171875,9.236830004882812,9.792356206062879
1.7930862969410593,2.7533319091796873,1.4700398193359374,9.141061938476563,9.659237394101316
1.795573240487441,2.916137622070312,0.9911994873046874,9.141061938476563,9.646001680362277
1.7980601840338224,2.916137622070312,0.5458779785156249,9.083601098632812,9.555817616371998
1.8005471275802039,2.839523168945312,0.3064578125,9.117119921875,9.553987852602155
1.8030340711265853,2.6862942626953124,0.0526724365234375,9.121908325195312,9.50937236333853
1.8055210146729668,2.39420166015625,-0.0047884033203125,9.208099584960937,9.514269414141008
1.8080079582193482,2.068590234375,0.0143652099609375,9.208099584960937,9.437604032993047
1.81049490176573,1.714248388671875,0.06703764648437499,9.255983618164063,9.413627054639024
1.8129818453121114,1.3072341064453123,0.2920926025390625,9.289502441406249,9.385575885709123
1.8154687888584928,0.9145850341796874,0.5410895751953124,9.366116894531249,9.426207582859302
1.8179557324048743,0.51714755859375,0.8188169677734375,9.390058911132812,9.439868069979468
1.8204426759512558,0.1149216796875,1.1540052001953125,9.3852705078125,9.456650437620876
1.8229296194976372,-0.201112939453125,1.5275006591796874,9.481038574218749,9.605404578883377
1.825416563044019,-0.5027823486328125,1.8626888916015625,9.481038574218749,9.675354900096247
1.8279035065904004,-0.7230489013671875,2.2361843505859373,9.495403784179686,9.781922775619712
1.8303904501367818,-0.9097966308593749,2.5761609863281247,9.528922607421874,9.912855360350914
1.8328773936831633,-1.139639990234375,2.858676782226562,9.567229833984374,10.050009897948524
1.8353643372295447,-1.216254443359375,3.1076737548828124,9.576806640625,10.14160423550919
1.8378512807759262,-1.2497732666015624,3.342305517578125,9.562441430664062,10.206528572713921
1.8403382243223079,-1.3024457031249999,3.5434184570312497,9.586383447265625,10.302957185644656
1.8428251678686893,-1.22583125,3.6822821533203123,9.562441430664062,10.319987898491858
1.8453121114150708,-1.1875240234375,3.744531396484375,9.567229833984374,10.342321566349554
1.8477990549614522,-1.0917559570312498,3.725377783203125,9.562441430664062,10.320400031596508
1.8502859985078337,-1.0630255371093749,3.7205893798828122,9.524134204101562,10.280172224431881
1.8527729420542152,-0.9576806640625,3.6391865234374996,9.548076220703125,10.26287436944664
1.8552598856005968,-0.8762778076171874,3.5386300537109374,9.495403784179686,10.17115816796507
1.8577468291469783,-0.814028564453125,3.35188232421875,9.457096557617186,10.066500529938422
1.8602337726933598,-0.7278373046875,3.1747114013671873,9.437942944335937,9.984152775504091
1.8627207162397412,-0.689530078125,3.0645781249999997,9.433154541015625,9.94240893383245
1.8652076597861227,-0.6560112548828124,2.8012159423828122,9.356540087890625,9.788871433352103
1.8676946033325041,-0.622492431640625,2.5953145996093747,9.34696328125,9.720538939762095
1.8701815468788858,-0.5985504150390625,2.437297290039062,9.342174877929686,9.673412641317217
1.8726684904252673,-0.6081272216796875,2.212242333984375,9.342174877929686,9.619774753695692
1.8751554339716487,-0.5985504150390625,2.0446482177734375,9.342174877929686,9.582018596496674
1.8776423775180302,-0.6703764648437499,2.0159177978515626,9.390058911132812,9.627384667024364
1.8801293210644117,-0.6703764648437499,1.915361328125,9.34696328125,9.564713074783212
1.8826162646107931,-0.7565677246093749,1.8052280517578123,9.361328491210937,9.563770917432702
1.8851032081571748,-0.8092401611328125,1.8004396484374998,9.390058911132812,9.595293581782723
1.8875901517035563,-0.8571241943359375,1.7525556152343749,9.380482104492186,9.581208565817974
1.8900770952499377,-0.9241618408203125,1.7956512451171873,9.404424121093749,9.618816535911746
1.8925640387963192,-0.948103857421875,1.89620771484375,9.428366137695312,9.66377734888024
1.8950509823427006,-0.9145850341796874,1.9584569580078124,9.481038574218749,9.724305213584081
1.897537925889082,-0.93852705078125,2.0350714111328125,9.457096557617186,9.719003239713066
1.9000248694354638,-0.9576806640625,2.1691467041015624,9.495403784179686,9.786983330058744
1.9025118129818452,-0.8810662109374999,2.327164013671875,9.490615380859374,9.81140919144593
1.9049987565282267,-0.842758984375,2.47081611328125,9.457096557617186,9.810802733287927
1.9074857000746082,-0.7852981445312499,2.6001030029296874,9.504980590820312,9.885438019304914
1.9099726436209896,-0.737414111328125,2.786850732421875,9.5384994140625,9.964601730548836
1.9124595871673713,-0.6607996582031249,2.863465185546875,9.481038574218749,9.92603553806575
1.9149465307137528,-0.51714755859375,3.0310593017578125,9.5001921875,9.985410041033271
1.9174334742601342,-0.37828386230468747,3.0980969482421874,9.519345800781249,10.017946289336917
1.9199204178065157,-0.229843359375,3.208230224609375,9.533711010742186,10.06167057601732
1.9224073613528971,-0.1484405029296875,3.21780703125,9.5384994140625,10.067734985851715
1.9248943048992786,-0.0047884033203125,3.31357509765625,9.481038574218749,10.043400584584779
1.9273812484456603,0.0718260498046875,3.308786694335937,9.5001921875,10.060163019031108
1.9298681919920417,0.19632453613281248,3.337517114257812,9.481038574218749,10.053241082221964
1.9323551355384232,0.229843359375,3.2130186279296873,9.457096557617186,9.990645223075774
1.9348420790848047,0.24899697265624998,3.1316157714843746,9.437942944335937,9.947049002248965
1.9373290226311861,0.296881005859375,3.0837317382812497,9.442731347656249,9.937943201152498
1.9398159661775676,0.33039982910156246,2.9640216552734375,9.375693701171874,9.83860868203397
1.9423029097239493,0.32082302246093747,2.863465185546875,9.437942944335937,9.867984966603895
1.9447898532703307,0.19153613281249998,2.6719290527343746,9.351751684570312,9.727854363778398
1.9472767968167122,0.16280571289062498,2.5570073730468748,9.332598071289063,9.677922254605802
1.9497637403630936,0.05746083984375,2.427720483398437,9.34696328125,9.657269338413611
1.952250683909475,-0.0526724365234375,2.3415292236328122,9.3852705078125,9.673098572614201
1.9547376274558566,-0.15322890625,2.1212626708984375,9.34696328125,9.585872782261067
1.9572245710022382,-0.32561142578124996,2.0781670410156248,9.390058911132812,9.622785844312844
1.9597115145486197,-0.5027823486328125,1.93451494140625,9.342174877929686,9.55360505769635
1.9621984580950012,-0.6464344482421874,1.9488801513671874,9.332598071289063,9.555804419330457
1.9646854016413826,-0.7996633544921875,1.8291700683593748,9.332598071289063,9.543726283780767
1.967172345187764,-0.9624690673828125,1.8291700683593748,9.356540087890625,9.58212149061756
1.9696592887341455,-1.1013327636718748,1.7956512451171873,9.375693701171874,9.609418797649626
1.9721462322805272,-1.216254443359375,1.7764976318359373,9.404424121093749,9.647715364599021
1.9746331758269087,-1.3646949462890625,1.8339584716796873,9.380482104492186,9.655011159235952
1.9771201193732901,-1.43652099609375,1.9009961181640624,9.423577734375,9.720143832747603
1.9796070629196716,-1.484405029296875,2.0063409912109376,9.428366137695312,9.753099532479649
1.982094006466053,-1.5514426757812498,2.068590234375,9.476250170898437,9.82269602682683
1.9845809500124345,-1.5275006591796874,2.1835119140624997,9.452308154296874,9.820749054244
1.9870678935588162,-1.4987702392578124,2.3223756103515623,9.490615380859374,9.8849138090853
1.9895548371051976,-1.4891934326171874,2.422932080078125,9.476250170898437,9.893816970506101
1.992041780651579,-1.3838485595703125,2.6001030029296874,9.548076220703125,9.99206344945954
1.9945287241979606,-1.2210428466796874,2.729389892578125,9.548076220703125,10.00531230574497
1.997015667744342,-1.139639990234375,2.863465185546875,9.504980590820312,9.992140321675393
1.9995026112907235,-0.9720458740234375,2.978386865234375,9.557653027343749,10.058051147777077
2.001989554837105,-0.507570751953125,2.389413256835937,7.000645654296875,7.414577759873269
2.0044764983834864,-0.5315127685546874,2.31758720703125,7.043741284179687,7.4342455947990365
2.006963441929868,-0.603338818359375,2.2840683837890623,7.259219433593749,7.633953949077059
2.0094503854762498,-0.6655880615234374,2.308010400390625,7.56567724609375,7.937845530621928
2.011937329022631,-0.7326257080078125,2.3223756103515623,8.130708837890625,8.487555308222884
2.0144242725690127,-0.7517793212890624,2.370259643554687,8.781931689453124,9.127191634013325
2.016911216115394,-0.6943184814453125,2.418143676757812,9.466673364257812,9.79527445152348
2.0193981596617756,-0.7422025146484375,2.4851813232421875,10.0748005859375,10.403297440165248
2.021885103208157,-0.7326257080078125,2.518700146484375,10.644620581054687,10.963053323346895
2.0243720467545385,-0.699106884765625,2.6288334228515624,11.238382592773437,11.562904431974744
2.02685899030092,-0.6607996582031249,2.6575638427734374,11.6070896484375,11.925763366492019
2.0293459338473014,-0.622492431640625,2.7150246826171873,11.774683764648437,12.099670805941207
2.031832877393683,-0.5458779785156249,2.7437551025390623,11.77947216796875,12.107111108191246
2.0343198209400644,-0.4644751220703125,2.77727392578125,11.635820068359374,11.971687277116848
2.036806764486446,-0.39743747558593745,2.8012159423828122,11.401188305664062,11.746993746660067
2.0392937080328277,-0.3687070556640625,2.77727392578125,10.89840595703125,11.252752896779306
2.041780651579209,-0.32561142578124996,2.7820623291015623,10.319009155273436,10.69241991086313
2.0442675951255906,-0.296881005859375,2.729389892578125,9.672574707031249,10.054671003093455
2.046754538671972,-0.296881005859375,2.6958710693359373,8.968679418945312,9.369795604704288
2.0492414822183536,-0.33039982910156246,2.5809493896484375,8.374917407226562,8.769817864520531
2.0517284257647352,-0.37828386230468747,2.5330653564453125,7.876923461914062,8.282840213680075
2.0542153693111165,-0.3447650390625,2.4899697265625,7.445967163085937,7.858831921164337
2.056702312857498,-0.4213794921875,2.47081611328125,7.196970190429687,7.620949603823659
2.0591892564038794,-0.5267243652343749,2.360682836914062,7.019799267578125,7.424812709457563
2.061676199950261,-0.5506663818359374,2.3367408203125,7.1586629638671875,7.550499755356777
2.0641631434966423,-0.584185205078125,2.3511060302734372,7.445967163085937,7.830159571373646
2.066650087043024,-0.6847416748046875,2.31758720703125,7.781155395507812,8.1477887130466
2.0691370305894057,-0.737414111328125,2.365471240234375,8.389282617187499,8.747530885398811
2.071623974135787,-0.74699091796875,2.398990063476562,9.0021982421875,9.346267808480066
2.0741109176821686,-0.7757213378906249,2.398990063476562,9.706093530273437,10.028217615166415
2.07659786122855,-0.7805097412109374,2.437297290039062,10.271125122070313,10.58516059440672
2.0790848047749315,-0.70868369140625,2.5522189697265625,10.87925234375,11.19706148071391
2.081571748321313,-0.6512228515624999,2.6431986328124997,11.305420239257812,11.62854750177851
2.0840586918676944,-0.5889736083984375,2.6479870361328124,11.602301245117188,11.915205387963951
2.086545635414076,-0.584185205078125,2.70065947265625,11.812990991210937,12.131841991202773
2.0890325789604574,-0.488417138671875,2.7964275390625,11.726799731445311,12.06550414296897
2.091519522506839,-0.45010991210937495,2.7724855224609373,11.5304751953125,11.867650699904823
2.0940064660532203,-0.36391865234375,2.8107927490234372,11.113884106445312,11.469586417782645
2.096493409599602,-0.28730419921875,2.7581203125,10.702081420898438,11.055510757113547
2.0989803531459836,-0.277727392578125,2.7820623291015623,10.070012182617187,10.450940085258017
2.101467296692365,-0.3016694091796875,2.70065947265625,9.394847314453125,9.779965341532138
2.1039542402387466,-0.239420166015625,2.6431986328124997,8.781931689453124,9.17421087759693
2.106441183785128,-0.3016694091796875,2.6096798095703124,8.1594392578125,8.571924063058747
2.1089281273315095,-0.33518823242187495,2.5474305664062498,7.709329345703124,8.126223760292005
2.111415070877891,-0.39743747558593745,2.4660277099609376,7.307103466796875,7.722241273605106
2.1139020144242724,-0.44053310546874996,2.35589443359375,7.096413720703125,7.490220003086393
2.116388957970654,-0.507570751953125,2.346317626953125,7.072471704101562,7.468781057181048
2.1188759015170353,-0.5889736083984375,2.2840683837890623,7.292738256835937,7.664717188255097
2.121362845063417,-0.6512228515624999,2.2744915771484373,7.6279264892578125,7.986405052489975
2.1238497886097982,-0.70868369140625,2.327164013671875,8.111555224609374,8.46848587900353
2.12633673215618,-0.7230489013671875,2.3319524169921872,8.695740429687499,9.031982252495059
2.1288236757025616,-0.737414111328125,2.398990063476562,9.3086560546875,9.6410585746958
2.131310619248943,-0.7326257080078125,2.4851813232421875,10.007762939453125,10.33770698412937
2.1337975627953245,-0.7278373046875,2.480392919921875,10.558429321289061,10.870258778518105
2.1362845063417057,-0.689530078125,2.6384102294921874,11.094730493164063,11.424959736632447
2.1387714498880874,-0.6177040283203125,2.6719290527343746,11.49216796875,11.814850305924855
2.141258393434469,-0.5793968017578125,2.7054478759765623,11.717222924804688,12.039454386851665
2.1437453369808503,-0.5315127685546874,2.7581203125,11.77947216796875,12.10973567165329
2.146232280527232,-0.488417138671875,2.7724855224609373,11.621454858398437,11.957568327189126
2.1487192240736133,-0.36391865234375,2.81558115234375,11.362881079101562,11.712173172761805
2.151206167619995,-0.354341845703125,2.7916391357421872,10.86009873046875,11.218758917248941
2.153693111166376,-0.316034619140625,2.77727392578125,10.304643945312499,10.677022767559565
2.156180054712758,-0.28730419921875,2.710236279296875,9.677363110351562,10.053819232614986
2.1586669982591395,-0.2920926025390625,2.6479870361328124,9.006986645507812,9.3927079090293
2.161153941805521,-0.32082302246093747,2.6192566162109374,8.427589843749999,8.831064670116728
2.1636408853519025,-0.33039982910156246,2.5570073730468748,7.905653881835937,8.31545633457804
2.1661278288982837,-0.39743747558593745,2.480392919921875,7.4794859863281244,7.890058060868594
2.1686147724446654,-0.43574470214843747,2.403778466796875,7.196970190429687,7.600289750056921
2.171101715991047,-0.49320554199218747,2.31758720703125,7.101202124023437,7.486089351262225
2.1735886595374283,-0.5602431884765625,2.327164013671875,7.211335400390625,7.598218411818048
2.17607560308381,-0.6081272216796875,2.3367408203125,7.436390356445312,7.818572626285147
2.178562546630191,-0.6703764648437499,2.3223756103515623,7.9295958984374995,8.289832579291877
2.181049490176573,-0.718260498046875,2.370259643554687,8.465897070312499,8.820739318563058
2.1835364337229546,-0.7230489013671875,2.408566870117187,9.035717065429687,9.37913519297444
2.186023377269336,-0.6943184814453125,2.4516625,9.686939916992188,10.016463054541727
2.1885103208157175,-0.70868369140625,2.528276953125,10.352527978515624,10.680320803801589
2.1909972643620987,-0.7134720947265625,2.5905261962890624,10.8409451171875,11.168973069959696
2.1934842079084804,-0.6703764648437499,2.6336218261718747,11.362881079101562,11.683340059491103
2.1959711514548617,-0.5985504150390625,2.6958710693359373,11.640608471679688,11.96368459182901
2.1984580950012433,-0.5123591552734374,2.7581203125,11.731588134765625,12.06233392532271
2.200945038547625,-0.49320554199218747,2.767697119140625,11.640608471679688,11.975273050786443
2.2034319820940063,-0.4261678955078125,2.7629087158203123,11.444283935546874,11.780785985855683
2.205918925640388,-0.3687070556640625,2.81558115234375,11.056423266601563,11.415250219271506
2.208405869186769,-0.3112462158203125,2.786850732421875,10.496180078124999,10.864308880186117
2.210892812733151,-0.258573779296875,2.73896669921875,9.94072529296875,10.314398592697383
2.2133797562795325,-0.3016694091796875,2.6575638427734374,9.279925634765624,9.657674140166032
2.2158666998259138,-0.296881005859375,2.6575638427734374,8.667010009765624,9.07016242519583
2.2183536433722955,-0.2825157958984375,2.5426421630859375,8.092401611328125,8.487155482460569
2.2208405869186767,-0.33039982910156246,2.4756045166015626,7.6087728759765625,8.008196204382424
2.2233275304650584,-0.38786066894531246,2.4516625,7.307103466796875,7.717178628676147
2.2258144740114396,-0.45489831542968745,2.4133552734375,7.153874560546875,7.56367221534944
2.2283014175578213,-0.5027823486328125,2.370259643554687,7.187393383789062,7.584823301916499
2.230788361104203,-0.5889736083984375,2.3127988037109373,7.340622290039062,7.71885119838794
2.233275304650584,-0.6512228515624999,2.360682836914062,7.728482958984374,8.107179750456362
2.235762248196966,-0.70868369140625,2.3367408203125,8.17859287109375,8.5353366416847
2.238249191743347,-0.70868369140625,2.35589443359375,8.815450512695312,9.152302382378068
2.240736135289729,-0.7613561279296874,2.39420166015625,9.409212524414063,9.738847214769388
2.2432230788361105,-0.737414111328125,2.47081611328125,10.079588989257813,10.404173490941192
2.2457100223824917,-0.7038952880859375,2.5761609863281247,10.625466967773438,10.955940045806802
2.2481969659288734,-0.6943184814453125,2.5953145996093747,11.118672509765624,11.438645654273932
2.2506839094752547,-0.6177040283203125,2.6862942626953124,11.535263598632811,11.860018609696027
2.2531708530216363,-0.5363011718749999,2.748543505859375,11.688492504882811,12.019274827844562
2.2556577965680176,-0.5123591552734374,2.7341782958984373,11.702857714843748,12.02892852882718
2.2581447401143993,-0.4261678955078125,2.7820623291015623,11.602301245117188,11.938797429415386
2.260631683660781,-0.39264907226562495,2.7820623291015623,11.262324609375,11.607497564242296
2.263118627207162,-0.33039982910156246,2.806004345703125,10.802637890625,11.166011366246325
2.265605570753544,-0.3016694091796875,2.7581203125,10.180145458984374,10.55147353011607
2.268092514299925,-0.27293898925781246,2.748543505859375,9.572018237304688,9.962555908538349
2.2705794578463068,-0.26336218261718747,2.6431986328124997,8.90643017578125,9.294103352545719
2.2730664013926885,-0.2920926025390625,2.5617957763671875,8.33182177734375,8.721660955213197
2.2755533449390697,-0.3064578125,2.5330653564453125,7.800309008789062,8.207018771969606
2.2780402884854514,-0.3591302490234375,2.4756045166015626,7.4028715332031245,7.814096185451704
2.2805272320318326,-0.44532150878906246,2.389413256835937,7.182604980468749,7.582705405301459
2.2830141755782143,-0.5027823486328125,2.3319524169921872,7.153874560546875,7.541134755012151
2.2855011191245955,-0.5698199951171875,2.3223756103515623,7.254431030273437,7.638382870436993
2.287988062670977,-0.6416460449218749,2.3415292236328122,7.556100439453124,7.936568692022647
2.290475006217359,-0.679953271484375,2.360682836914062,8.030152368164062,8.397529813214945
2.29296194976374,-0.737414111328125,2.327164013671875,8.566453540039062,8.907502353171903
2.295448893310122,-0.74699091796875,2.360682836914062,9.184157568359375,9.512074911841326
2.297935836856503,-0.7326257080078125,2.442085693359375,9.80665,10.132665354399329
2.3004227804028847,-0.737414111328125,2.499546533203125,10.505756884765624,10.824160021222614
2.3029097239492664,-0.7134720947265625,2.5713725830078125,11.051634863281249,11.36924063171729
2.3053966674956476,-0.6512228515624999,2.6192566162109374,11.405976708984374,11.720959905650048
2.3078836110420293,-0.6272808349609375,2.6671406494140624,11.635820068359374,11.954054925124819
2.3103705545884106,-0.5506663818359374,2.7437551025390623,11.722011328125,12.051430417319109
2.3128574981347922,-0.45968671875,2.7916391357421872,11.707646118164062,12.044647714722277
2.315344441681174,-0.38307226562499996,2.8107927490234372,11.3389390625,11.688406191681661
2.317831385227555,-0.3495534423828125,2.806004345703125,10.9175595703125,11.27780807464414
2.320318328773937,-0.3064578125,2.7916391357421872,10.386046801757812,10.759048918159698
2.322805272320318,-0.316034619140625,2.710236279296875,9.782707983398437,10.1561131373454
2.3252922158666998,-0.2442085693359375,2.6910826660156246,9.107543115234375,9.499942385957924
2.327779159413081,-0.3112462158203125,2.6623522460937497,8.528146313476562,8.93947835352862
2.3302661029594627,-0.3112462158203125,2.5617957763671875,8.0062103515625,8.411841415536895
2.3327530465058444,-0.38307226562499996,2.5139117431640625,7.556100439453124,7.9725247233365755
2.3352399900522256,-0.40222587890625,2.442085693359375,7.273584643554687,7.683137494430711
2.3377269335986073,-0.4740519287109375,2.427720483398437,7.182604980468749,7.596602285369518
2.3402138771449885,-0.5506663818359374,2.379836450195312,7.225700610351562,7.627424486954784
2.34270082069137,-0.59376201171875,2.3319524169921872,7.445967163085937,7.825150630846031
2.345187764237752,-0.6416460449218749,2.3223756103515623,7.867346655273437,8.228018079511116
2.347674707784133,-0.689530078125,2.3415292236328122,8.403647827148436,8.75097181097632
2.350161651330515,-0.7230489013671875,2.384624853515625,8.963891015625,9.303793717929011
2.352648594876896,-0.7278373046875,2.442085693359375,9.639055883789062,9.970202004303315
2.3551355384232777,-0.74699091796875,2.5378537597656248,10.28549033203125,10.620264050756584
2.357622481969659,-0.7038952880859375,2.5426421630859375,10.797849487304687,11.11548700222253
2.3601094255160406,-0.7038952880859375,2.5378537597656248,11.257536206054686,11.561500409253906
2.3625963690624223,-0.6703764648437499,2.7246014892578123,11.587936035156249,11.922798305547024
2.3650833126088036,-0.5793968017578125,2.6862942626953124,11.717222924804688,12.03516475122985
2.3675702561551852,-0.488417138671875,2.7964275390625,11.702857714843748,12.0422355472916
2.3700571997015665,-0.411802685546875,2.7724855224609373,11.429918725585937,11.768572534406166
2.372544143247948,-0.39743747558593745,2.7820623291015623,11.094730493164063,11.445124379662749
2.37503108679433,-0.3016694091796875,2.8012159423828122,10.63025537109375,10.997278956312874
2.377518030340711,-0.33039982910156246,2.7341782958984373,9.988609326171874,10.361332504640519
2.3800049738870928,-0.27293898925781246,2.7198130859375,9.34696328125,9.738459913935555
2.382491917433474,-0.2920926025390625,2.6575638427734374,8.748412866210938,9.147824404991596
2.3849788609798557,-0.3112462158203125,2.5522189697265625,8.149862451171874,8.545814990351465
2.387465804526237,-0.354341845703125,2.4756045166015626,7.6470801025390625,8.045620545419924
2.3899527480726186,-0.3687070556640625,2.4564509033203126,7.364564306640625,7.7721878103893465
2.3924396916190003,-0.469263525390625,2.370259643554687,7.129932543945312,7.528232004616788
2.3949266351653815,-0.5123591552734374,2.370259643554687,7.168239770507812,7.567318157005584
2.397413578711763,-0.584185205078125,2.31758720703125,7.364564306640625,7.742692699744204
2.3999005222581444,-0.63206923828125,2.360682836914062,7.733271362304687,8.110229401288464
2.402387465804526,-0.6847416748046875,2.3511060302734372,8.197746484375,8.555677538856003
2.404874409350908,-0.7326257080078125,2.39420166015625,8.815450512695312,9.164120784849409
2.407361352897289,-0.7661445312499999,2.389413256835937,9.428366137695312,9.75655478030781
2.4098482964436707,-0.7278373046875,2.4851813232421875,10.041281762695311,10.36982221589763
2.412335239990052,-0.7278373046875,2.4947581298828125,10.654197387695312,10.966562234569444
2.4148221835364336,-0.718260498046875,2.5426421630859375,11.104307299804686,11.414314167791796
2.417309127082815,-0.6464344482421874,2.5905261962890624,11.49216796875,11.798246822790984
2.4197960706291965,-0.55545478515625,2.7054478759765623,11.712434521484374,12.033665303972766
2.4222830141755782,-0.55545478515625,2.7246014892578123,11.731588134765625,12.056622390097171
2.4247699577219595,-0.44053310546874996,2.7629087158203123,11.583147631835937,11.916251216296015
2.427256901268341,-0.37828386230468747,2.767697119140625,11.262324609375,11.603585722987235
2.4297438448147224,-0.3447650390625,2.8012159423828122,10.730811840820312,11.095764797935688
2.432230788361104,-0.28730419921875,2.7437551025390623,10.242394702148436,10.607421222907867
2.4347177319074857,-0.2537853759765625,2.7341782958984373,9.586383447265625,9.971904811460547
2.437204675453867,-0.277727392578125,2.6671406494140624,8.911218579101561,9.305943708881435
2.4396916190002487,-0.3064578125,2.6192566162109374,8.394071020507813,8.798570901557602
2.44217856254663,-0.32082302246093747,2.5139117431640625,7.809885815429687,8.210785353071225
2.4446655060930116,-0.37828386230468747,2.4947581298828125,7.455543969726562,7.870962628015879
2.4471524496393933,-0.4213794921875,2.360682836914062,7.201758593749999,7.5905013652319955
2.4496393931857745,-0.4740519287109375,2.384624853515625,7.129932543945312,7.5330670383535985
2.452126336732156,-0.565031591796875,2.365471240234375,7.283161450195312,7.6784865434352065
2.4546132802785374,-0.63206923828125,2.3367408203125,7.560888842773437,7.938948877280419
2.457100223824919,-0.6943184814453125,2.346317626953125,8.0062103515625,8.371779306317983
2.4595871673713003,-0.718260498046875,2.3032219970703123,8.566453540039062,8.899711004549017
2.462074110917682,-0.7517793212890624,2.4133552734375,9.241618408203124,9.581073354618743
2.4645610544640637,-0.7422025146484375,2.403778466796875,9.873687646484374,10.189147325979977
2.467047998010445,-0.74699091796875,2.5234885498046875,10.43871923828125,10.76535411531763
2.4695349415568266,-0.7038952880859375,2.5426421630859375,10.989385620117186,11.30164121062646
2.472021885103208,-0.6607996582031249,2.6048914062499997,11.362881079101562,11.676351392641486
2.4745088286495895,-0.622492431640625,2.710236279296875,11.650185278320311,11.977466115011897
2.4769957721959712,-0.5123591552734374,2.7341782958984373,11.7603185546875,12.084839070731627
2.4794827157423525,-0.45968671875,2.786850732421875,11.654973681640625,11.992341739790902
2.481969659288734,-0.411802685546875,2.849099975585937,11.386823095703125,11.745070980438795
2.4844566028351154,-0.3687070556640625,2.8107927490234372,10.998962426757812,11.358418694346906
2.486943546381497,-0.3064578125,2.767697119140625,10.443507641601562,10.808372476665106
2.4894304899278783,-0.316034619140625,2.7246014892578123,9.816226806640625,10.192234292596067
2.49191743347426,-0.3016694091796875,2.6958710693359373,9.1554271484375,9.548851843298426
2.4944043770206417,-0.277727392578125,2.6384102294921874,8.528146313476562,8.931272058768624
2.496891320567023,-0.3016694091796875,2.5617957763671875,8.001421948242188,8.406934948366104
2.4993782641134046,-0.38786066894531246,2.5378537597656248,7.52737001953125,7.953140072663697
2.501865207659786,-0.45489831542968745,2.43250888671875,7.278373046874999,7.68757088883237
2.5043521512061675,-0.4644751220703125,2.379836450195312,7.144297753906249,7.544557579154018
2.506839094752549,-0.5219359619140624,2.327164013671875,7.216123803710937,7.600036331844221
2.5093260382989304,-0.5985504150390625,2.346317626953125,7.455543969726562,7.838916053283163
2.511812981845312,-0.6751648681640625,2.327164013671875,7.867346655273437,8.232052194925304
2.5142999253916933,-0.689530078125,2.31758720703125,8.365340600585936,8.707788786749795
2.516786868938075,-0.7134720947265625,2.398990063476562,9.026140258789061,9.366717873724255
2.5192738124844563,-0.737414111328125,2.418143676757812,9.667786303710937,9.992861973791614
2.521760756030838,-0.7900865478515624,2.480392919921875,10.20887587890625,10.535546141572748
2.5242476995772196,-0.7134720947265625,2.5713725830078125,10.850521923828124,11.173845596305354
2.526734643123601,-0.6703764648437499,2.5809493896484375,11.295843432617186,11.606325138076386
2.5292215866699825,-0.6177040283203125,2.6096798095703124,11.549628808593749,11.856893041238953
2.5317085302163638,-0.55545478515625,2.6910826660156246,11.688492504882811,12.007135918710357
2.5341954737627455,-0.4740519287109375,2.7964275390625,11.717222924804688,12.055622973613193
2.536682417309127,-0.4070142822265625,2.767697119140625,11.487379565429686,11.823100153914254
2.5391693608555084,-0.3447650390625,2.7916391357421872,11.156979736328124,11.506098766880262
2.54165630440189,-0.36391865234375,2.7964275390625,10.587159741210938,10.956294772990935
2.5441432479482713,1.0678139404296874,3.1842882080078123,6.354211206054687,7.187205162939524
2.546630191494653,0.737414111328125,2.6479870361328124,1.9967641845703124,3.3974522989875853
2.549117135041034,0.373495458984375,2.221819140625,-1.5801730957031248,2.7518950132433395
2.551604078587416,-0.023942016601562498,1.7860744384765623,-4.151545678710937,4.519509557724352
2.5540910221337976,-0.4644751220703125,1.43652099609375,-5.607220288085937,5.806913902441034
2.556577965680179,-0.8810662109374999,1.20667763671875,-5.793968017578124,5.983511843034247
2.5590649092265605,-1.2497732666015624,1.0965443603515623,-4.7117888671875,4.9965285029791255
2.5615518527729417,-1.5753846923828123,1.0390835205078124,-2.77727392578125,3.3577942090618644
2.5640387963193234,-1.7717092285156248,1.0773907470703123,0.08140285644531249,2.075174893187948
2.566525739865705,-1.8770541015625,1.4030021728515625,3.5434184570312497,4.248242172810836
2.5690126834120863,-1.8339584716796873,1.6472107421875,7.273584643554687,7.6799570618577135
2.571499626958468,-1.7621324218749999,2.0159177978515626,10.979808813476561,11.301559043796361
2.5739865705048492,-1.5466542724609373,2.308010400390625,14.413093994140624,14.678430772080695
2.576473514051231,-1.2880804931640624,2.7054478759765623,17.33402001953125,17.591101432372163
2.5789604575976126,-0.9624690673828125,3.0550013183593747,19.546262353515623,19.806962204066235
2.581447401143994,-0.6272808349609375,3.375824340820312,20.834342846679686,21.115385695719063
2.5839343446903755,-0.32561142578124996,3.5194764404296874,21.217415112304685,21.509798726701145
2.5864212882367568,-0.0143652099609375,3.687070556640625,20.685902343749998,21.011931168363965
2.5889082317831384,0.24899697265624998,3.7205893798828122,19.31163059082031,19.668346674349515
2.5913951753295197,0.40222587890625,3.6152445068359373,17.266982373046876,17.645975710427034
2.5938821188759014,0.49320554199218747,3.5194764404296874,14.738705419921875,15.161114852695558
2.596369062422283,0.5219359619140624,3.294421484375,11.884817041015625,12.344006892555841
2.5988560059686643,0.45010991210937495,3.0502129150390624,8.98304462890625,9.497446423379898
2.601342949515046,0.33518823242187495,2.7964275390625,6.244077929687499,6.849880825561258
2.603829893061427,0.16759411621093748,2.50912333984375,3.859453076171875,4.60642657268188
2.606316836607809,-0.086191259765625,2.2074539306640624,2.020706201171875,2.993916388398092
2.6088037801541906,-0.33039982910156246,1.9967641845703124,0.7805097412109374,2.169199555591475
2.611290723700572,-0.5602431884765625,1.8435352783203125,0.296881005859375,1.9495212448921944
2.6137776672469535,-0.82360537109375,1.714248388671875,0.507570751953125,1.9684007248517397
2.6162646107933347,-1.0199299072265624,1.6328455322265625,1.3359645263671873,2.3433400870293952
2.6187515543397164,-1.177947216796875,1.675941162109375,2.825157958984375,3.489678483417174
2.6212384978860976,-1.3024457031249999,1.7764976318359373,4.745307690429687,5.231658792616219
2.6237254414324793,-1.3215993164062498,1.915361328125,6.9144543945312495,7.2955406478515865
2.626212384978861,-1.3072341064453123,2.0781670410156248,9.212887988281249,9.534408442270262
2.6286993285252422,-1.2497732666015624,2.27927998046875,11.386823095703125,11.679759871680396
2.631186272071624,-1.1061211669921875,2.5139117431640625,13.383587280273437,13.662491162931572
2.633673215618005,-0.9528922607421875,2.7150246826171873,14.9781255859375,15.25200343416951
2.636160159164387,-0.7517793212890624,2.940079638671875,16.122553979492185,16.405669363097932
2.6386471027107685,-0.5602431884765625,3.0645781249999997,16.678008764648435,16.966481304859677
2.6411340462571498,-0.373495458984375,3.1747114013671873,16.64448994140625,16.948667698359852
2.6436209898035314,-0.1580173095703125,3.2321722412109373,16.117765576171873,16.439412216846726
2.6461079333499127,-0.023942016601562498,3.2704794677734372,15.140931298828123,15.490139113807844
2.6485948768962944,0.028730419921875,3.1842882080078123,13.63737265625,14.00422971084528
2.6510818204426756,0.13407529296874998,3.0645781249999997,11.990161914062499,12.37633217047151
2.6535687639890573,0.1149216796875,2.978386865234375,10.180145458984374,10.607514170508706
2.656055707535439,0.0909796630859375,2.8107927490234372,8.360552197265624,8.820865389532992
2.65854265108182,-0.0143652099609375,2.6288334228515624,6.698976245117187,7.196336168982315
2.661029594628202,-0.1484405029296875,2.4133552734375,5.291185668945312,5.817470587978151
2.663516538174583,-0.3112462158203125,2.27927998046875,4.261678955078125,4.842922563120731
2.666003481720965,-0.411802685546875,2.1595698974609374,3.6822821533203123,4.288650772737777
2.6684904252673465,-0.584185205078125,2.0350714111328125,3.5673604736328124,4.148354945165613
2.6709773688137277,-0.7278373046875,1.9728221679687499,3.825934252929687,4.365724150271559
2.6734643123601094,-0.8762778076171874,1.9823989746093749,4.544194750976562,5.034627535921364
2.6759512559064906,-0.9576806640625,2.0063409912109376,5.626373901367187,6.049680958969514
2.6784381994528723,-1.005564697265625,2.0925322509765625,7.000645654296875,7.375560396253946
2.6809251429992536,-1.0534487304687499,2.1547814941406247,8.384494213867187,8.720813077780619
2.6834120865456352,-1.0342951171875,2.2744915771484373,9.849745629882811,10.161720685855945
2.685899030092017,-0.9576806640625,2.422932080078125,11.286266625976562,11.58307241070448
2.688385973638398,-0.8858546142578124,2.5761609863281247,12.550405102539061,12.842663744835784
2.69087291718478,-0.7517793212890624,2.6910826660156246,13.4458365234375,13.733084791053079
2.693359860731161,-0.6416460449218749,2.877830395507812,14.168885424804687,14.472419687582143
2.6958468042775428,-0.5027823486328125,2.916137622070312,14.355633154296875,14.657450391582374
2.6983337478239244,-0.3687070556640625,2.9927520751953125,14.221557861328124,14.53771707936243
2.7008206913703057,-0.27293898925781246,3.0262708984374997,13.785813159179687,14.116708387665966
2.7033076349166874,-0.16759411621093748,3.0310593017578125,12.947842578125,13.298948669216967
2.7057945784630686,-0.076614453125,2.9975404785156248,11.937489477539062,12.308321320193228
2.7082815220094503,-0.08140285644531249,2.8730419921875,10.730811840820312,11.109064743577633
2.7107684655558315,-0.105344873046875,2.7964275390625,9.466673364257812,9.871626467257192
2.713255409102213,-0.1388636962890625,2.6910826660156246,8.226476904296874,8.656565791259643
2.715742352648595,-0.1484405029296875,2.5809493896484375,7.187393383789062,7.638190753586313
2.718229296194976,-0.2346317626953125,2.4899697265625,6.287173559570312,6.76635445948727
2.720716239741358,-0.37828386230468747,2.3127988037109373,5.61200869140625,6.08167563582161
2.723203183287739,-0.469263525390625,2.250549560546875,5.305550878906249,5.782218580216649
2.7256901268341207,-0.565031591796875,2.1978771240234374,5.334281298828125,5.7969372540214295
2.7281770703805024,-0.7134720947265625,2.1356278808593747,5.597643481445312,6.0335363942570694
2.7306640139268836,-0.7852981445312499,2.1356278808593747,6.2201359130859375,6.623268860507594
2.7331509574732653,-0.842758984375,2.1547814941406247,7.101202124023437,7.468627557956727
2.7356379010196465,-0.8714894042968749,2.2074539306640624,8.078036401367187,8.41944289959967
2.7381248445660282,-0.9241618408203125,2.250549560546875,9.05965908203125,9.380643427566012
2.74061178811241,-0.8667010009765624,2.384624853515625,10.189722265624999,10.500859306155476
2.743098731658791,-1.0438719238281249,2.2361843505859373,10.907982763671875,11.18366116330984
2.745585675205173,-0.814028564453125,2.5665841796874997,12.004527124023436,12.302791078717958
2.748072618751554,-0.699106884765625,2.6575638427734374,12.62223115234375,12.917899027238928
2.7505595622979357,-0.5793968017578125,2.77727392578125,13.005303417968749,13.311155776495939
2.753046505844317,-0.4740519287109375,2.844311572265625,13.125013500976562,13.438036052640124
2.7555334493906987,-0.39743747558593745,2.901772412109375,12.976572998046874,13.302995393982455
2.7580203929370803,-0.3112462158203125,2.858676782226562,12.454637036132812,12.782288169725904
2.7605073364834616,-0.28730419921875,2.882618798828125,11.808202587890625,12.15835857338123
2.7629942800298433,-0.19632453613281248,2.858676782226562,10.998962426757812,11.366078951597999
2.7654812235762245,-0.201112939453125,2.81558115234375,10.046070166015625,10.435107542347517
2.767968167122606,-0.181959326171875,2.6958710693359373,9.093177905273437,9.486132743948739
2.770455110668988,-0.201112939453125,2.5953145996093747,8.169016064453125,8.573734760689431
2.772942054215369,-0.2825157958984375,2.4947581298828125,7.388506323242187,7.803438920766811
2.775428997761751,-0.33039982910156246,2.437297290039062,6.72291826171875,7.15871581227063
2.777915941308132,-0.39264907226562495,2.408566870117187,6.306327172851562,6.762035941402791
2.7804028848545137,-0.488417138671875,2.3223756103515623,6.153098266601562,6.594891815288509
2.782889828400895,-0.584185205078125,2.2553379638671873,6.268019946289062,6.686994521619582
2.7853767719472766,-0.6560112548828124,2.2026655273437497,6.5505357421875,6.942017336592972
2.7878637154936583,-0.7134720947265625,2.2074539306640624,7.1395093505859375,7.506962704920131
2.7903506590400395,-0.7517793212890624,2.2744915771484373,7.838616235351562,8.196486354991029
2.792837602586421,-0.8044517578125,2.2840683837890623,8.633491186523438,8.966676144494697
2.7953245461328025,-0.8188169677734375,2.3367408203125,9.519345800781249,9.836094924454523
2.797811489679184,-0.842758984375,2.418143676757812,10.419565624999999,10.729632303153272
2.800298433225566,-0.7805097412109374,2.5378537597656248,11.1474029296875,11.459253432876295
2.802785376771947,-0.718260498046875,2.6048914062499997,11.789048974609374,12.094752296229467
2.8052723203183287,-0.6512228515624999,2.6910826660156246,12.210428466796873,12.520406561309837
2.80775926386471,-0.5793968017578125,2.7820623291015623,12.440271826171875,12.76071841887983
2.8102462074110917,-0.5027823486328125,2.8012159423828122,12.421118212890624,12.742989386504233
2.812733150957473,-0.4070142822265625,2.825157958984375,12.215216870117187,12.544269660013878
2.8152200945038546,-0.2825157958984375,2.844311572265625,11.77947216796875,12.121298942399148
2.8177070380502363,-0.296881005859375,2.8107927490234372,11.1474029296875,11.500142881130142
2.8201939815966175,-0.2537853759765625,2.8107927490234372,10.424354028320312,10.799635169892555
2.822680925142999,-0.2442085693359375,2.7198130859375,9.610325463867188,9.99076456379731
2.8251678686893804,-0.2537853759765625,2.6671406494140624,8.8489693359375,9.245664095627669
2.827654812235762,-0.26815058593749996,2.5761609863281247,8.034940771484374,8.442084065293335
2.8301417557821438,-0.277727392578125,2.50912333984375,7.4220251464843745,7.839597547972938
2.832628699328525,-0.3399766357421875,2.4516625,6.9719152343749995,7.398231894315494
2.8351156428749067,-0.4644751220703125,2.3319524169921872,6.698976245117187,7.10844722473075
2.837602586421288,-0.51714755859375,2.3319524169921872,6.64630380859375,7.062492335472157
2.8400895299676696,-0.6272808349609375,2.2553379638671873,6.818686328125,7.209335185613766
2.842576473514051,-0.7038952880859375,2.2649147705078123,7.153874560546875,7.536791673006079
2.8450634170604325,-0.7422025146484375,2.2649147705078123,7.6997525390625,8.060204256296135
2.847550360606814,-0.7517793212890624,2.327164013671875,8.341398583984375,8.692513723391167
2.8500373041531954,-0.7709329345703124,2.29843359375,9.107543115234375,9.424673796494858
2.852524247699577,-0.7900865478515624,2.4660277099609376,9.888052856445311,10.221502761886212
2.8550111912459584,-0.7757213378906249,2.499546533203125,10.596736547851561,10.915140948713379
2.85749813479234,-0.7278373046875,2.5905261962890624,11.228805786132812,11.546716091532014
2.8599850783387217,-0.6368576416015624,2.6431986328124997,11.736376538085937,12.047183111080457
2.862472021885103,-0.612915625,2.6958710693359373,12.038045947265624,12.351434597419441
2.8649589654314846,-0.5315127685546874,2.786850732421875,12.172121240234373,12.498383028012135
2.867445908977866,-0.4213794921875,2.834734765625,12.042834350585936,12.37914137020544
2.8699328525242476,-0.39743747558593745,2.8107927490234372,11.726799731445311,12.065502242608414
2.8724197960706292,-0.3399766357421875,2.7916391357421872,11.271901416015623,11.617426337594441
2.8749067396170105,-0.26336218261718747,2.8012159423828122,10.673351000976561,11.037961405311213
2.877393683163392,-0.258573779296875,2.7437551025390623,9.926360083007811,10.301828816262667
2.8798806267097734,-0.2537853759765625,2.6910826660156246,9.217676391601563,9.60582588810968
2.882367570256155,-0.3016694091796875,2.6001030029296874,8.489839086914062,8.884194267347636
2.8848545138025363,-0.316034619140625,2.5426421630859375,7.896077075195312,8.301381826384247
2.887341457348918,-0.3399766357421875,2.480392919921875,7.417236743164062,7.828367266179593
2.8898284008952997,-0.43574470214843747,2.408566870117187,7.029376074218749,7.443332305229664
2.892315344441681,-0.4644751220703125,2.346317626953125,6.847416748046874,7.2531413654364965
2.8948022879880626,-0.5793968017578125,2.2649147705078123,6.900089184570312,7.285380588999852
2.897289231534444,-0.5889736083984375,2.2840683837890623,7.192181787109375,7.569104118192751
2.8997761750808255,-0.6655880615234374,2.288856787109375,7.589619262695312,7.955136291240704
2.902263118627207,-0.689530078125,2.3032219970703123,8.149862451171874,8.497090164841659
2.9047500621735884,-0.7805097412109374,2.327164013671875,8.815450512695312,9.150795350374448
2.90723700571997,-0.8044517578125,2.379836450195312,9.528922607421874,9.854497968875002
2.9097239492663514,-0.7613561279296874,2.4660277099609376,10.237606298828124,10.557913550964345
2.912210892812733,-0.737414111328125,2.50912333984375,10.836156713867187,11.147276431201632
2.9146978363591143,-0.7134720947265625,2.6192566162109374,11.396399902343749,11.715266893488124
2.917184779905496,-0.6751648681640625,2.6288334228515624,11.707646118164062,12.018135895074014
2.9196717234518776,-0.5746083984375,2.6910826660156246,11.908759057617187,12.222546503051811
2.922158666998259,-0.49799394531249996,2.7629087158203123,11.903970654296874,12.230542910267102
2.9246456105446406,-0.40222587890625,2.7629087158203123,11.755530151367187,12.082546890838902
2.927132554091022,-0.33518823242187495,2.7964275390625,11.362881079101562,11.70672561180903
2.9296194976374035,-0.2920926025390625,2.806004345703125,10.869675537109375,11.22981855412619
2.932106441183785,-0.2825157958984375,2.7724855224609373,10.228029492187499,10.600899888228588
2.9345933847301664,-0.258573779296875,2.73896669921875,9.567229833984374,9.9549327308149
2.937080328276548,-0.296881005859375,2.6288334228515624,8.8872765625,9.272679666369553
2.9395672718229293,-0.201112939453125,2.916137622070312,8.384494213867187,8.879417113056562
2.942054215369311,-0.3399766357421875,2.528276953125,7.71890615234375,8.129531391983415
2.9445411589156922,-0.3687070556640625,2.43250888671875,7.287949853515625,7.692025574854816
2.947028102462074,-0.44532150878906246,2.365471240234375,7.034164477539062,7.434597186911911
2.9495150460084556,-0.49799394531249996,2.29843359375,7.005434057617187,7.389648252120614
2.952001989554837,-0.6177040283203125,2.2744915771484373,7.163451367187499,7.541213807550001
2.9544889331012185,-0.6368576416015624,2.3032219970703123,7.503428002929687,7.874760378487986
2.9569758766475998,-0.7134720947265625,2.2840683837890623,7.967903124999999,8.31946458740964
2.9594628201939814,-0.7709329345703124,2.327164013671875,8.595183959960938,8.937964938491557
2.961949763740363,-0.7757213378906249,2.3511060302734372,9.212887988281249,9.539745711719148
2.9644367072867444,-0.7757213378906249,2.437297290039062,9.907206469726562,10.232052663463104
2.966923650833126,-0.7613561279296874,2.4899697265625,10.510545288085936,10.828258153813996
2.9694105943795073,-0.7038952880859375,2.5474305664062498,11.066000073242186,11.37722412050701
2.971897537925889,-0.6703764648437499,2.6048914062499997,11.540052001953125,11.849373994045163
2.97438448147227,-0.603338818359375,2.6479870361328124,11.765106958007811,12.074501845071312
2.976871425018652,-0.5315127685546874,2.7820623291015623,11.89439384765625,12.226977616291999
2.9793583685650336,-0.488417138671875,2.7533319091796873,11.745953344726562,12.074220798045255
2.981845312111415,-0.4213794921875,2.767697119140625,11.511321582031249,11.846865939339143
2.9843322556577965,-0.3112462158203125,2.81558115234375,10.998962426757812,11.357884745740552
2.9868191992041777,-0.32561142578124996,2.7246014892578123,10.467449658203124,10.821135727033548
2.9893061427505594,-0.2825157958984375,2.7198130859375,9.816226806640625,10.189970908534479
2.991793086296941,-0.22505495605468748,2.6862942626953124,9.126696728515624,9.516481480743412
2.9942800298433223,-0.24899697265624998,2.6384102294921874,8.542511523437499,8.944143959012704
2.996766973389704,-0.316034619140625,2.5713725830078125,7.934384301757812,8.346633398509871
2.9992539169360852,-0.37828386230468747,2.398990063476562,7.465120776367187,7.850240774071103
3.001740860482467,-0.8475473876953125,3.1699229980468746,9.591171850585937,10.136928817714352
3.0042278040288486,-0.689530078125,3.2704794677734372,9.552864624023437,10.120707001128189
3.00671474757523,-0.4836287353515625,3.31357509765625,9.543287817382812,10.113753954238385
3.0092016911216115,-0.277727392578125,3.342305517578125,9.524134204101562,10.097389316806535
3.0116886346679927,-0.06703764648437499,3.361459130859375,9.5384994140625,10.113697276790258
3.0141755782143744,0.086191259765625,3.380612744140625,9.490615380859374,10.075105546172233
3.0166625217607557,0.2346317626953125,3.385401147460937,9.509768994140625,10.097113414992116
3.0191494653071373,0.373495458984375,3.31357509765625,9.481038574218749,10.05034184650022
3.021636408853519,0.45010991210937495,3.19865341796875,9.447519750976562,9.98446854200836
3.0241233523999003,0.55545478515625,3.1842882080078123,9.457096557617186,9.994243178455555
3.026610295946282,0.6081272216796875,3.0597897216796874,9.437942944335937,9.940165938211747
3.029097239492663,0.6177040283203125,2.863465185546875,9.442731347656249,9.886666093251664
3.031584183039045,0.622492431640625,2.8203695556640622,9.452308154296874,9.88372959473061
3.0340711265854265,0.5458779785156249,2.5713725830078125,9.399635717773437,9.760281315357398
3.036558070131808,0.4261678955078125,2.442085693359375,9.375693701171874,9.697888119949933
3.0390450136781895,0.32561142578124996,2.3223756103515623,9.356540087890625,9.645947008586528
3.0415319572245707,0.21068974609375,2.2361843505859373,9.390058911132812,9.654952976242775
3.0440189007709524,-0.0,2.0638018310546875,9.351751684570312,9.57677072753276
3.0465058443173336,-0.143652099609375,1.944091748046875,9.351751684570312,9.55276861545436
3.0489927878637153,-0.32561142578124996,1.8531120849609375,9.366116894531249,9.553229447786297
3.051479731410097,-0.5123591552734374,1.7812860351562498,9.34696328125,9.528967122625145
3.0539666749564782,-0.7134720947265625,1.7429788085937499,9.356540087890625,9.54420557057866
3.05645361850286,-0.8858546142578124,1.714248388671875,9.337386474609374,9.534682591040147
3.058940562049241,-1.0869675537109373,1.7286135986328124,9.366116894531249,9.586122736446802
3.061427505595623,-1.2210428466796874,1.7429788085937499,9.375693701171874,9.614184996078892
3.0639144491420045,-1.3742717529296875,1.7573440185546874,9.418789331054686,9.679383932525868
3.0664013926883857,-1.4987702392578124,1.8531120849609375,9.428366137695312,9.72493828545728
3.0688883362347674,-1.5562310791015623,1.9201497314453124,9.466673364257812,9.784004024338882
3.0713752797811487,-1.6424223388671875,2.0254946044921875,9.452308154296874,9.805422427199355
3.0738622233275303,-1.6232687255859375,2.1787235107421874,9.471461767578125,9.85344739197507
3.0763491668739116,-1.608903515625,2.2553379638671873,9.524134204101562,9.918883616193325
3.0788361104202933,-1.5658078857421873,2.408566870117187,9.495403784179686,9.920465801941582
3.081323053966675,-1.4939818359375,2.5905261962890624,9.514557397460937,9.973445250732052
3.083809997513056,-1.4030021728515625,2.729389892578125,9.548076220703125,10.029144719221591
3.086296941059438,-1.2737152832031249,2.85388837890625,9.524134204101562,10.023779817995738
3.088783884605819,-1.0678139404296874,2.9927520751953125,9.557653027343749,10.072016828126081
3.091270828152201,-0.8954314208984374,3.0550013183593747,9.5384994140625,10.05573475966726
3.0937577716985825,-0.7757213378906249,3.0980969482421874,9.5384994140625,10.058972083013106
3.0962447152449637,-0.565031591796875,3.246537451171875,9.5384994140625,10.091691493186895
3.0987316587913454,-0.3687070556640625,3.308786694335937,9.543287817382812,10.107341720102184
3.1012186023377266,-0.17238251953125,3.385401147460937,9.5384994140625,10.122925848505481
3.1037055458841083,-0.033518823242187495,3.356670727539062,9.504980590820312,10.080328264322546
3.1061924894304895,0.16759411621093748,3.342305517578125,9.514557397460937,10.085925660552945
3.108679432976871,0.3112462158203125,3.342305517578125,9.5384994140625,10.111916309570915
3.111166376523253,0.44053310546874996,3.265691064453125,9.495403784179686,10.050945257540548
3.113653320069634,0.51714755859375,3.19865341796875,9.433154541015625,9.974128026064552
3.116140263616016,0.5793968017578125,3.0645781249999997,9.442731347656249,9.944471581845146
3.118627207162397,0.5889736083984375,2.935291235351562,9.404424121093749,9.86944869773036
3.1211141507087787,0.5889736083984375,2.839523168945312,9.437942944335937,9.873426394059338
3.1236010942551604,0.5698199951171875,2.6910826660156246,9.404424121093749,9.798459766288529
3.1260880378015417,0.507570751953125,2.6001030029296874,9.34696328125,9.715136966359147
3.1285749813479233,0.4213794921875,2.418143676757812,9.361328491210937,9.677781286960231
3.1310619248943046,0.2537853759765625,2.24097275390625,9.342174877929686,9.610546152567515
3.1335488684406863,0.12449848632812499,2.1356278808593747,9.313444458007812,9.555974779738502
3.136035811987068,-0.0718260498046875,2.0446482177734375,9.375693701171874,9.596321049968504
3.138522755533449,-0.2059013427734375,1.9393033447265624,9.361328491210937,9.562309550844983
3.141009699079831,-0.44532150878906246,1.8291700683593748,9.337386474609374,9.52528007784496
3.143496642626212,-0.5985504150390625,1.7573440185546874,9.351751684570312,9.534242506290525
3.1459835861725938,-0.82360537109375,1.66636435546875,9.414000927734374,9.59575476134394
3.148470529718975,-0.9816226806640624,1.7286135986328124,9.375693701171874,9.584118135685012
3.1509574732653567,-1.16837041015625,1.675941162109375,9.370905297851563,9.591023631265001
3.1534444168117384,-1.3120225097656248,1.7334020019531249,9.3852705078125,9.63376292376566
3.1559313603581196,-1.4125789794921875,1.7908628417968748,9.409212524414063,9.681727605186092
3.1584183039045013,-1.5322890624999999,1.867477294921875,9.414000927734374,9.718991443842798
3.1609052474508825,-1.599326708984375,1.9393033447265624,9.447519750976562,9.776214647297321
3.163392190997264,-1.5945383056640625,2.0877438476562498,9.509768994140625,9.865948160393655
3.165879134543646,-1.6424223388671875,2.2170307373046874,9.495403784179686,9.888147928402853
3.168366078090027,-1.599326708984375,2.3223756103515623,9.514557397460937,9.923612087703006
3.170853021636409,-1.5035586425781249,2.5139117431640625,9.562441430664062,10.001036294253216
3.17333996518279,-1.455674609375,2.6527754394531247,9.552864624023437,10.020650109921174
3.1758269087291717,-1.3742717529296875,2.7198130859375,9.509768994140625,9.986075925770628
3.178313852275553,-1.2210428466796874,2.89219560546875,9.514557397460937,10.019108918626397
3.1808007958219346,-1.0390835205078124,3.0071172851562498,9.533711010742186,10.050576827507125
3.1832877393683163,-0.842758984375,3.1316157714843746,9.552864624023437,10.088333983907992
3.1857746829146976,-0.7134720947265625,3.23696064453125,9.5001921875,10.061839207800615
3.1882616264610792,-0.4836287353515625,3.308786694335937,9.567229833984374,10.134784301530692
3.1907485700074605,-0.296881005859375,3.361459130859375,9.495403784179686,10.077213843354315
3.193235513553842,-0.11013327636718749,3.366247534179687,9.562441430664062,10.13824629385254
3.195722457100224,0.047884033203124995,3.375824340820312,9.490615380859374,10.073244917508719
3.198209400646605,0.229843359375,3.327940307617187,9.495403784179686,10.06432847663101
3.2006963441929868,0.36391865234375,3.347093920898437,9.524134204101562,10.101713064553767
3.203183287739368,0.45968671875,3.19865341796875,9.428366137695312,9.966784014621663
3.2056702312857497,0.5315127685546874,3.0933085449218747,9.4618849609375,9.968868069707744
3.208157174832131,0.5793968017578125,3.0550013183593747,9.447519750976562,9.946072750294809
3.2106441183785126,0.6272808349609375,2.91134921875,9.433154541015625,9.89210999302521
3.2131310619248943,0.5985504150390625,2.77727392578125,9.394847314453125,9.815022624530975
