Time (s),Acceleration x (m/s^2),Acceleration y (m/s^2),Acceleration z (m/s^2),Absolute acceleration (m/s^2)
0.0,-0.63206923828125,3.921702319335937,27.64345236816406,27.927400871445617
0.002486943546381497,-0.12449848632812499,4.1754876953124995,25.47909406738281,25.8192647428494
0.004973887092762994,0.36391865234375,4.223371728515625,22.208614599609373,22.609552582409307
0.007460830639144491,0.6751648681640625,4.074931225585937,17.942147241210936,18.41145186338523
0.009947774185525988,0.9002198242187499,3.9264907226562498,13.364433666992186,13.958359945439732
0.012434717731907486,1.0678139404296874,3.6152445068359373,8.590395556640624,9.38110416076564
0.014921661278288981,1.0199299072265624,3.2225954345703123,4.103661645507812,5.316523041554555
0.01740860482467048,0.8858546142578124,2.85388837890625,0.3064578125,3.003886427230611
0.019895548371051976,0.6272808349609375,2.398990063476562,-2.6431986328124997,3.624242484033103
0.022382491917433474,0.28730419921875,2.01112939453125,-4.53940634765625,4.973268053662321
0.02486943546381497,-0.06703764648437499,1.7477672119140624,-5.157110375976562,5.445637860076002
0.027356379010196465,-0.488417138671875,1.3838485595703125,-4.707000463867187,4.930460577270562
0.029843322556577963,-0.82360537109375,1.2880804931640624,-3.1507693847656246,3.50211719965803
0.032330266102959464,-1.1875240234375,1.2018892333984375,-0.689530078125,1.824884315303121
0.03481720964934096,-1.4317325927734375,1.2641384765625,2.4756045166015626,3.1267430383313504
0.03730415319572245,-1.6136919189453125,1.3934253662109375,6.047753393554687,6.412562433982356
0.03979109674210395,-1.714248388671875,1.6041151123046875,9.725247143554688,10.004612178130996
0.04227804028848545,-1.6807295654296874,1.8531120849609375,13.125013500976562,13.361319383666972
0.04476498383486695,-1.5562310791015623,2.1739351074218747,16.160861206054687,16.380515374804492
0.04725192738124844,-1.35990654296875,2.5522189697265625,18.588581689453125,18.8121911722296
0.04973887092762994,-1.139639990234375,2.882618798828125,20.116082348632812,20.35350189779821
0.05222581447401144,-0.842758984375,3.1364041748046874,20.752939990234374,21.005518134331897
0.05471275802039293,-0.5506663818359374,3.31357509765625,20.456058984374998,20.730011156874014
0.05719970156677443,-0.27293898925781246,3.4811692138671875,19.330784204101562,19.643631353010477
0.059686645113155926,0.009576806640625,3.5338416503906247,17.458518505859374,17.812579738619984
0.062173588659537427,0.15322890625,3.4859576171874997,15.006856005859374,15.407177119353683
0.06466053220591893,0.28730419921875,3.337517114257812,12.282254516601562,12.73088135996216
0.06714747575230041,0.3495534423828125,3.208230224609375,9.366116894531249,9.906516767522401
0.06963441929868192,0.3447650390625,3.0310593017578125,6.636727001953124,7.30426784293854
0.07212136284506342,0.2059013427734375,2.729389892578125,4.209006518554688,5.020727081001255
0.0746083063914449,0.105344873046875,2.518700146484375,2.288856787109375,3.4049689223360504
0.0770952499378264,-0.105344873046875,2.27927998046875,1.01514150390625,2.497343998049914
0.0795821934842079,-0.33039982910156246,2.0733786376953125,0.469263525390625,2.151341739144121
0.0820691370305894,-0.603338818359375,1.867477294921875,0.6464344482421874,2.066244582004316
0.0845560805769709,-0.8188169677734375,1.7094599853515624,1.4700398193359374,2.398693756748678
0.0870430241233524,-0.9576806640625,1.6807295654296874,2.91134921875,3.4954196314526946
0.0895299676697339,-1.0582371337890624,1.7190367919921874,4.8314989501953125,5.236252040275686
0.09201691121611538,-1.1252747802734375,1.7717092285156248,7.005434057617187,7.313091224451509
0.09450385476249688,-1.1635820068359375,1.886630908203125,9.284714038085937,9.545638482545302
0.09699079830887838,-1.177947216796875,2.0446482177734375,11.49216796875,11.731925272604112
0.09947774185525989,-1.0773907470703123,2.3223756103515623,13.455413330078125,13.696800618417157
0.10196468540164137,-0.9720458740234375,2.4756045166015626,15.035586425781249,15.26899964211675
0.10445162894802287,-0.737414111328125,2.6958710693359373,16.098611962890622,16.339424944770652
0.10693857249440437,-0.6416460449218749,2.85388837890625,16.543933471679686,16.80053937353154
0.10942551604078586,-0.488417138671875,3.0119056884765625,16.47689582519531,16.757035036424686
0.11191245958716736,-0.354341845703125,3.1268273681640624,15.82567297363281,16.135505340778394
0.11439940313354886,-0.1771709228515625,3.1603461914062496,14.738705419921875,15.074767495410153
0.11688634667993036,-0.08140285644531249,3.1124621582031247,13.187262744140623,13.5498319470864
0.11937329022631185,-0.05746083984375,3.0550013183593747,11.449072338867186,11.849792919030559
0.12186023377269335,-0.0143652099609375,3.0023288818359375,9.600748657226562,10.059252450018395
0.12434717731907485,-0.0909796630859375,2.882618798828125,7.800309008789062,8.31640481644853
0.12683412086545634,-0.143652099609375,2.73896669921875,6.167463476562499,6.749828163730084
0.12932106441183785,-0.2920926025390625,2.5330653564453125,4.836287353515624,5.467304048089572
0.13180800795821934,-0.3591302490234375,2.3511060302734372,3.9695863525390624,4.627557661619803
0.13429495150460083,-0.55545478515625,2.1930887207031247,3.5051112304687497,4.171806909863686
0.13678189505098234,-0.6655880615234374,2.1212626708984375,3.5146880371093747,4.158821321575315
0.13926883859736383,-0.7517793212890624,2.0159177978515626,4.0988732421875,4.629239524061506
0.14175578214374532,-0.8906430175781249,1.9488801513671874,4.951209033203125,5.3949837552698785
0.14424272569012683,-0.9576806640625,1.915361328125,6.2009822998046875,6.560330994247698
0.14672966923650832,-0.9433154541015625,1.9823989746093749,7.68059892578125,7.988200648405824
0.1492166127828898,-0.9624690673828125,2.068590234375,9.203311181640624,9.481895853126193
0.15170355632927132,-0.8858546142578124,2.2026655273437497,10.716446630859375,10.976279069657787
0.1541904998756528,-0.814028564453125,2.27927998046875,12.08592998046875,12.32588590024687
0.15667744342203432,-0.6751648681640625,2.446874096679687,13.239935180664062,13.481057971553676
0.1591643869684158,-0.6416460449218749,2.5570073730468748,13.958195678710936,14.204971768995694
0.1616513305147973,-0.5267243652343749,2.6910826660156246,14.34605634765625,14.605776158848577
0.1641382740611788,-0.4261678955078125,2.8203695556640622,14.350844750976561,14.631570270217404
0.1666252176075603,-0.26815058593749996,2.91134921875,13.953407275390624,14.256417277955176
0.1691121611539418,-0.22026655273437498,2.920926025390625,13.129801904296874,13.452584296191405
0.1715991047003233,-0.2346317626953125,2.978386865234375,12.167332836914062,12.528760064240728
0.1740860482467048,-0.201112939453125,2.920926025390625,10.931924780273437,11.317209667659965
0.17657299179308628,-0.1867477294921875,2.882618798828125,9.6151138671875,10.039660379355924
0.1790599353394678,-0.2825157958984375,2.7820623291015623,8.336610180664062,8.793108397051057
0.18154687888584928,-0.33039982910156246,2.6862942626953124,7.196970190429687,7.689065016944103
0.18403382243223076,-0.44532150878906246,2.5522189697265625,6.133944653320312,6.658634238762415
0.18652076597861228,-0.5123591552734374,2.442085693359375,5.521029028320312,6.058717353471655
0.18900770952499377,-0.622492431640625,2.288856787109375,5.1331683593749995,5.654713045330871
0.19149465307137528,-0.718260498046875,2.250549560546875,5.137956762695312,5.655039448391034
0.19398159661775677,-0.7852981445312499,2.1547814941406247,5.444414575195312,5.907742930247919
0.19646854016413826,-0.82360537109375,2.1260510742187497,6.095637426757812,6.508088399520383
0.19895548371051977,-0.833182177734375,2.1260510742187497,6.986280444335937,7.349993208050715
0.20144242725690126,-0.8044517578125,2.1547814941406247,8.049305981445311,8.371472552727495
0.20392937080328274,-0.833182177734375,2.1739351074218747,9.236830004882812,9.525713355527708
0.20641631434966426,-0.7422025146484375,2.27927998046875,10.32379755859375,10.598432800793821
0.20890325789604575,-0.6751648681640625,2.365471240234375,11.386823095703125,11.649508229981944
0.21139020144242723,-0.6177040283203125,2.4516625,12.20085166015625,12.460055718721602
0.21387714498880875,-0.5410895751953124,2.5953145996093747,12.818555688476561,13.089835970626424
0.21636408853519024,-0.4165910888671875,2.6288334228515624,13.182474340820312,13.448492222060096
0.21885103208157172,-0.38786066894531246,2.6910826660156246,13.187262744140623,13.464629979945373
0.22133797562795324,-0.32561142578124996,2.77727392578125,12.923900561523437,13.222952733167032
0.22382491917433472,-0.27293898925781246,2.8203695556640622,12.320561743164061,12.642200037552469
0.22631186272071624,-0.27293898925781246,2.806004345703125,11.573570825195311,11.91199805766329
0.22879880626709773,-0.28730419921875,2.849099975585937,10.639832177734375,11.018436510872327
0.2312857498134792,-0.277727392578125,2.8107927490234372,9.65342109375,10.058142333244664
0.23377269335986073,-0.354341845703125,2.729389892578125,8.619125976562499,9.047898094539878
0.23625963690624222,-0.43574470214843747,2.6001030029296874,7.704540942382812,8.143117351736215
0.2387465804526237,-0.5410895751953124,2.5139117431640625,6.89530078125,7.359191738547792
0.24123352399900522,-0.6081272216796875,2.499546533203125,6.306327172851562,6.810823298283519
0.2437204675453867,-0.679953271484375,2.3367408203125,5.9950809570312495,6.470215591004349
0.2462074110917682,-0.70868369140625,2.2840683837890623,5.980715747070312,6.441130475587711
0.2486943546381497,-0.7565677246093749,2.1739351074218747,6.143521459960938,6.560582634355163
0.2511812981845312,-0.82360537109375,2.1595698974609374,6.665457421875,7.054813292507636
0.2536682417309127,-0.82360537109375,2.1547814941406247,7.388506323242187,7.740247721060041
0.2561551852772942,-0.8092401611328125,2.1452046874999997,8.2360537109375,8.549231165380288
0.2586421288236757,-0.7900865478515624,2.1691467041015624,9.126696728515624,9.41413975630851
0.26112907237005717,-0.6607996582031249,2.2553379638671873,10.041281762695311,10.312640057588522
0.2636160159164387,-0.584185205078125,2.346317626953125,10.931924780273437,11.196135858497769
0.2661029594628202,-0.55545478515625,2.403778466796875,11.707646118164062,11.96476738444803
0.26858990300920166,-0.43574470214843747,2.50912333984375,12.272677709960936,12.534121092145675
0.2710768465555832,-0.430956298828125,2.5953145996093747,12.512097875976561,12.785694132915209
0.2735637901019647,-0.3447650390625,2.6815058593749996,12.603077539062499,12.88979829406356
0.27605073364834615,-0.26815058593749996,2.7629087158203123,12.411541406249999,12.718173193810212
0.27853767719472766,-0.2825157958984375,2.839523168945312,11.947066284179687,12.283122559043868
0.2810246207411092,-0.258573779296875,2.8012159423828122,11.324573852539062,11.668746466386649
0.28351156428749064,-0.27293898925781246,2.767697119140625,10.51533369140625,10.876896877178702
0.28599850783387215,-0.2825157958984375,2.786850732421875,9.753977563476562,10.148223021225768
0.28848545138025367,-0.411802685546875,2.7246014892578123,8.8489693359375,9.26807925276061
0.2909723949266351,-0.44532150878906246,2.6623522460937497,8.001421948242188,8.444476533349027
0.29345933847301664,-0.5267243652343749,2.6001030029296874,7.326257080078125,7.791791641604028
0.29594628201939815,-0.6512228515624999,2.4660277099609376,6.809109521484374,7.271131710006465
0.2984332255657796,-0.7038952880859375,2.4133552734375,6.497863305664062,6.967207460059853
0.30092016911216113,-0.7422025146484375,2.360682836914062,6.41646044921875,6.877110783289707
0.30340711265854264,-0.7805097412109374,2.2936451904296873,6.60799658203125,7.038154768392286
0.30589405620492416,-0.7900865478515624,2.250549560546875,6.938396411132812,7.336930886657882
0.3083809997513056,-0.7948749511718749,2.24097275390625,7.513004809570312,7.880293544048806
0.31086794329768713,-0.8188169677734375,2.2170307373046874,8.231265307617187,8.563843475989605
0.31335488684406865,-0.7278373046875,2.2026655273437497,9.045293872070312,9.338031045116312
0.3158418303904501,-0.689530078125,2.288856787109375,9.878476049804688,10.163592189137685
0.3183287739368316,-0.6416460449218749,2.3127988037109373,10.639832177734375,10.907189221965595
0.32081571748321314,-0.51714755859375,2.408566870117187,11.314997045898437,11.5800601947432
0.3233026610295946,-0.45010991210937495,2.50912333984375,11.865663427734374,12.136402574395792
0.3257896045759761,-0.39264907226562495,2.5617957763671875,12.133814013671874,12.407514392985558
0.3282765481223576,-0.3447650390625,2.6479870361328124,12.263100903320312,12.550471785582511
0.3307634916687391,-0.28730419921875,2.7150246826171873,12.114660400390624,12.418490220107355
0.3332504352151206,-0.2920926025390625,2.7246014892578123,11.745953344726562,12.06135114073946
0.3357373787615021,-0.258573779296875,2.7820623291015623,11.238382592773437,11.58049975190617
0.3382243223078836,-0.27293898925781246,2.767697119140625,10.577582934570312,10.937088450445552
0.3407112658542651,-0.316034619140625,2.729389892578125,9.7683427734375,10.147411867346847
0.3431982094006466,-0.44053310546874996,2.70065947265625,9.0021982421875,9.408889636716204
0.34568515294702806,-0.45968671875,2.6862942626953124,8.283937744140625,8.720728942811062
0.3481720964934096,-0.5410895751953124,2.6048914062499997,7.618349682617187,8.069540820478792
0.3506590400397911,-0.6368576416015624,2.5474305664062498,7.096413720703125,7.566642441777644
0.35314598358617255,-0.679953271484375,2.47081611328125,6.766013891601562,7.235068258033084
0.35563292713255407,-0.7230489013671875,2.3415292236328122,6.660669018554687,7.097187512925739
0.3581198706789356,-0.7661445312499999,2.3032219970703123,6.7277066650390625,7.152191690759125
0.36060681422531704,-0.7709329345703124,2.3127988037109373,7.086836914062499,7.494440162051521
0.36309375777169856,-0.8188169677734375,2.2840683837890623,7.536946826171874,7.917890948294297
0.36558070131808007,-0.7565677246093749,2.1978771240234374,8.173804467773436,8.49789021178899
0.36806764486446153,-0.7805097412109374,2.2457611572265623,8.882488159179687,9.19517452414037
0.37055458841084304,-0.7278373046875,2.2936451904296873,9.639055883789062,9.93488569297526
0.37304153195722456,-0.63206923828125,2.31758720703125,10.390835205078124,10.664904042853236
0.3755284755036061,-0.5363011718749999,2.422932080078125,11.061211669921875,11.336164360948638
0.37801541904998753,-0.4644751220703125,2.4564509033203126,11.554417211914062,11.821778431624463
0.38050236259636905,-0.3591302490234375,2.5234885498046875,11.884817041015625,12.155074869994605
0.38298930614275056,-0.33518823242187495,2.6001030029296874,12.042834350585936,12.324883203205241
0.385476249689132,-0.2825157958984375,2.7246014892578123,11.975796704101562,12.285071230895158
0.38796319323551354,-0.296881005859375,2.710236279296875,11.7603185546875,12.0722247961585
0.39045013678189505,-0.2442085693359375,2.7533319091796873,11.257536206054686,11.591919420789479
0.3929370803282765,-0.27293898925781246,2.7629087158203123,10.673351000976561,11.028534891537511
0.395424023874658,-0.32561142578124996,2.7341782958984373,9.95987890625,10.33348641947746
0.39791096742103954,-0.36391865234375,2.70065947265625,9.212887988281249,9.607460822578906
0.400397910967421,-0.4836287353515625,2.6192566162109374,8.475473876953124,8.884146521424405
0.4028848545138025,-0.5363011718749999,2.5522189697265625,7.843404638671874,8.265617759267972
0.40537179806018403,-0.5985504150390625,2.4947581298828125,7.240065820312499,7.681187005171604
0.4078587416065655,-0.6943184814453125,2.4851813232421875,6.947973217773437,7.411648682848187
0.410345685152947,-0.7278373046875,2.418143676757812,6.775590698242187,7.230891735715907
0.4128326286993285,-0.7709329345703124,2.327164013671875,6.828263134765624,7.25501256881984
0.41531957224571,-0.8283937744140625,2.2744915771484373,7.038952880859375,7.4435479335439
0.4178065157920915,-0.7996633544921875,2.2744915771484373,7.513004809570312,7.890374812622245
0.420293459338473,-0.8379705810546875,2.212242333984375,8.054094384765625,8.394322319145182
0.42278040288485447,-0.699106884765625,2.269703173828125,8.734047656249999,9.051181767883035
0.425267346431236,-0.7038952880859375,2.2744915771484373,9.437942944335937,9.733629720286737
0.4277542899776175,-0.603338818359375,2.3032219970703123,10.189722265624999,10.464190802355512
0.43024123352399896,-0.5602431884765625,2.2936451904296873,10.8409451171875,11.095078716425906
0.43272817707038047,-0.488417138671875,2.398990063476562,11.367669482421874,11.628310887123432
0.435215120616762,-0.38786066894531246,2.5139117431640625,11.755530151367187,12.027579860081408
0.43770206416314344,-0.316034619140625,2.5953145996093747,11.97100830078125,12.253186340246952
0.44018900770952496,-0.27293898925781246,2.6096798095703124,11.927912670898436,12.21310873958451
0.4426759512559065,-0.24899697265624998,2.6719290527343746,11.750741748046874,12.053262462276747
0.445162894802288,-0.229843359375,2.7581203125,11.382034692382812,11.713700071569178
0.44764983834866945,-0.2537853759765625,2.7341782958984373,10.807426293945312,11.15081167762608
0.45013678189505096,-0.3016694091796875,2.7533319091796873,10.127473022460936,10.499407166845943
0.4526237254414325,-0.37828386230468747,2.70065947265625,9.442731347656249,9.828623279571666
0.45511066898781394,-0.45489831542968745,2.6862942626953124,8.690952026367187,9.10800507618361
0.45759761253419545,-0.4836287353515625,2.6240450195312497,8.087613208007811,8.516395741188106
0.46008455608057697,-0.55545478515625,2.5761609863281247,7.536946826171874,7.98440372891892
0.4625714996269584,-0.6464344482421874,2.5330653564453125,7.144297753906249,7.607580955360744
0.46505844317333994,-0.7326257080078125,2.403778466796875,6.871358764648437,7.316451504519194
0.46754538671972146,-0.814028564453125,2.375048046875,6.847416748046874,7.2931894154850525
0.4700323302661029,-0.8092401611328125,2.3319524169921872,7.015010864257812,7.43661543574502
0.47251927381248443,-0.7805097412109374,2.27927998046875,7.426813549804687,7.807808411395178
0.47500621735886595,-0.7996633544921875,2.24097275390625,7.9295958984374995,8.278883468003682
0.4774931609052474,-0.7613561279296874,2.2649147705078123,8.580818749999999,8.907297709830523
0.4799801044516289,-0.679953271484375,2.2649147705078123,9.279925634765624,9.576491797931377
0.48246704799801043,-0.6368576416015624,2.346317626953125,9.9981861328125,10.289534489401424
0.4849539915443919,-0.5602431884765625,2.3319524169921872,10.658985791015624,10.925468072280614
0.4874409350907734,-0.488417138671875,2.427720483398437,11.171344946289063,11.442522709430772
0.4899278786371549,-0.39743747558593745,2.5378537597656248,11.674127294921874,11.953405638185151
0.4924148221835364,-0.3447650390625,2.5905261962890624,11.846509814453125,12.131343029102501
0.4949017657299179,-0.32082302246093747,2.6431986328124997,11.956643090820311,12.249520007963739
0.4973887092762994,-0.27293898925781246,2.6623522460937497,11.784260571289062,12.08434575747382
0.49987565282268087,-0.22505495605468748,2.7246014892578123,11.444283935546874,11.766296690374883
0.5023625963690624,-0.2825157958984375,2.729389892578125,10.965443603515624,11.303554210181922
0.5048495399154439,-0.277727392578125,2.6958710693359373,10.333374365234375,10.682859125681368
0.5073364834618254,-0.32561142578124996,2.7246014892578123,9.634267480468749,10.01741413544847
0.5098234270082069,-0.39264907226562495,2.70065947265625,8.916006982421875,9.32431849476382
0.5123103705545884,-0.47884033203125,2.6575638427734374,8.279149340820313,8.708400969730432
0.5147973141009698,-0.5746083984375,2.5474305664062498,7.656656909179687,8.089744886404318
0.5172842576473514,-0.6177040283203125,2.4947581298828125,7.225700610351562,7.669167210568203
0.5197712011937329,-0.7230489013671875,2.427720483398437,6.981492041015625,7.426833617231852
0.5222581447401143,-0.7709329345703124,2.389413256835937,6.890512377929687,7.333675349505918
0.5247450882864959,-0.814028564453125,2.308010400390625,7.015010864257812,7.429665667963267
0.5272320318328774,-0.7900865478515624,2.3032219970703123,7.297526660156249,7.693046449656714
0.5297189753792588,-0.814028564453125,2.2457611572265623,7.771578588867187,8.130407089561512
0.5322059189256404,-0.7565677246093749,2.2840683837890623,8.355763793945313,8.695294801440188
0.5346928624720219,-0.737414111328125,2.2936451904296873,9.011775048828124,9.328273010683608
0.5371798060184033,-0.6560112548828124,2.2457611572265623,9.753977563476562,10.030646651669308
0.5396667495647849,-0.5793968017578125,2.398990063476562,10.395623608398436,10.684561019809722
0.5421536931111663,-0.49799394531249996,2.39420166015625,11.018116040039061,11.286234120858422
0.5446406366575478,-0.39264907226562495,2.499546533203125,11.458649145507811,11.734672829075624
0.5471275802039294,-0.37828386230468747,2.5426421630859375,11.731588134765625,12.009924563200057
0.5496145237503108,-0.28730419921875,2.5761609863281247,11.860875024414062,12.140819802432498
0.5521014672966923,-0.2920926025390625,2.6671406494140624,11.77947216796875,12.081180484048954
0.5545884108430739,-0.22505495605468748,2.77727392578125,11.535263598632811,11.86702180338489
0.5570753543894553,-0.2537853759765625,2.70065947265625,11.118672509765624,11.444773784733593
0.5595622979358368,-0.28730419921875,2.7533319091796873,10.486603271484375,10.845839224260269
0.5620492414822184,-0.3591302490234375,2.70065947265625,9.840168823242188,10.210360355683784
0.5645361850285998,-0.4070142822265625,2.6623522460937497,9.141061938476563,9.5295746742067
0.5670231285749813,-0.4644751220703125,2.6623522460937497,8.513781103515624,8.932431096844933
0.5695100721213628,-0.5363011718749999,2.6240450195312497,7.905653881835937,8.347011112420354
0.5719970156677443,-0.622492431640625,2.518700146484375,7.417236743164062,7.857909910370142
0.5744839592141258,-0.7278373046875,2.422932080078125,7.043741284179687,7.484292771212506
0.5769709027605073,-0.718260498046875,2.418143676757812,6.986280444335937,7.427747399542413
0.5794578463068888,-0.8092401611328125,2.3511060302734372,7.000645654296875,7.429105516884526
0.5819447898532703,-0.8044517578125,2.2744915771484373,7.225700610351562,7.617821465196053
0.5844317333996518,-0.7852981445312499,2.2936451904296873,7.64229169921875,8.017613351324275
0.5869186769460333,-0.7948749511718749,2.2361843505859373,8.207323291015625,8.543564960896212
0.5894056204924147,-0.7709329345703124,2.2840683837890623,8.863334545898438,9.185314651330494
0.5918925640387963,-0.6751648681640625,2.27927998046875,9.552864624023437,9.844195617392366
0.5943795075851778,-0.6177040283203125,2.27927998046875,10.165780249023436,10.436463173288342
0.5968664511315592,-0.5410895751953124,2.360682836914062,10.836156713867187,11.103508171401261
0.5993533946779408,-0.45489831542968745,2.4564509033203126,11.372457885742186,11.6436197928644
0.6018403382243223,-0.3495534423828125,2.4947581298828125,11.698069311523437,11.966237142598525
0.6043272817707037,-0.316034619140625,2.6096798095703124,11.85608662109375,12.144014845011204
0.6068142253170853,-0.2825157958984375,2.6767174560546874,11.870451831054687,12.171781224942782
0.6093011688634667,-0.21068974609375,2.6862942626953124,11.664550488281249,11.971729412602054
0.6117881124098483,-0.2537853759765625,2.729389892578125,11.238382592773437,11.567852847625621
0.6142750559562298,-0.27293898925781246,2.7341782958984373,10.70686982421875,11.053835898835535
0.6167619995026112,-0.33039982910156246,2.710236279296875,10.108319409179687,10.47056187674215
0.6192489430489928,-0.411802685546875,2.6575638427734374,9.404424121093749,9.781381297120069
0.6217358865953743,-0.4261678955078125,2.6575638427734374,8.710105639648438,9.116479852849661
0.6242228301417557,-0.488417138671875,2.6096798095703124,8.06367119140625,8.489509590838711
0.6267097736881373,-0.612915625,2.4851813232421875,7.536946826171874,7.95973361572504
0.6291967172345188,-0.7230489013671875,2.47081611328125,7.173028173828125,7.621027828446147
0.6316836607809002,-0.7038952880859375,2.4133552734375,6.976703637695312,7.415803793295045
0.6341706043272818,-0.8188169677734375,2.31758720703125,6.957550024414062,7.378968358187526
0.6366575478736632,-0.7996633544921875,2.27927998046875,7.1203557373046875,7.518912456974819
0.6391444914200447,-0.8092401611328125,2.2744915771484373,7.484274389648437,7.864003097180019
0.6416314349664263,-0.7709329345703124,2.29843359375,8.001421948242188,8.360615274505552
0.6441183785128077,-0.737414111328125,2.2744915771484373,8.580818749999999,8.90772372306509
0.6466053220591892,-0.689530078125,2.2601263671875,9.279925634765624,9.576045254230756
0.6490922656055708,-0.63206923828125,2.3319524169921872,10.022128149414062,10.309246637867137
0.6515792091519522,-0.5506663818359374,2.360682836914062,10.63025537109375,10.903136529240218
0.6540661526983337,-0.4836287353515625,2.418143676757812,11.18571015625,11.45431915456942
0.6565530962447153,-0.39264907226562495,2.4564509033203126,11.640608471679688,11.903448656810141
0.6590400397910967,-0.3112462158203125,2.6144682128906247,11.880028637695311,12.168294813799454
0.6615269833374782,-0.316034619140625,2.6384102294921874,11.875240234375,12.168911908782277
0.6640139268838597,-0.2537853759765625,2.6575638427734374,11.726799731445311,12.026840172584905
0.6665008704302412,-0.2442085693359375,2.6862942626953124,11.396399902343749,11.711265748213021
0.6689878139766227,-0.2825157958984375,2.6910826660156246,10.912771166992187,11.243234215891702
0.6714747575230042,-0.277727392578125,2.7150246826171873,10.304643945312499,10.659933319278988
0.6739617010693857,-0.36391865234375,2.6815058593749996,9.634267480468749,10.007098497796642
0.6764486446157671,-0.4261678955078125,2.6575638427734374,8.935160595703124,9.331739362229534
0.6789355881621487,-0.4836287353515625,2.6336218261718747,8.298302954101562,8.719615392607482
0.6814225317085302,-0.5793968017578125,2.5234885498046875,7.709329345703124,8.132493718128647
0.6839094752549116,-0.63206923828125,2.50912333984375,7.278373046874999,7.724631102260259
0.6863964188012932,-0.6943184814453125,2.442085693359375,6.995857250976562,7.4423033641090175
0.6888833623476747,-0.7565677246093749,2.403778466796875,6.995857250976562,7.435897008122039
0.6913703058940561,-0.8044517578125,2.3032219970703123,7.034164477539062,7.44522962006603
0.6938572494404377,-0.8092401611328125,2.2840683837890623,7.340622290039062,7.730237617643675
0.6963441929868192,-0.8044517578125,2.2601263671875,7.867346655273437,8.224989800634765
0.6988311365332006,-0.7757213378906249,2.24097275390625,8.398859423828124,8.727229921288627
0.7013180800795822,-0.6943184814453125,2.2649147705078123,9.064447485351561,9.368891358428554
0.7038050236259636,-0.63206923828125,2.3319524169921872,9.725247143554688,10.020875490710168
0.7062919671723451,-0.5746083984375,2.3415292236328122,10.376469995117187,10.652889911955754
0.7087789107187267,-0.47884033203125,2.427720483398437,10.998962426757812,11.273876408508398
0.7112658542651081,-0.39264907226562495,2.5043349365234375,11.473014355468749,11.749720216627923
0.7137527978114896,-0.36391865234375,2.528276953125,11.755530151367187,12.029842487619268
0.7162397413578712,-0.32082302246093747,2.5953145996093747,11.860875024414062,12.14573759091871
0.7187266849042526,-0.27293898925781246,2.6815058593749996,11.79862578125,12.102584008867556
0.7212136284506341,-0.229843359375,2.6958710693359373,11.511321582031249,11.82501895800889
0.7237005719970157,-0.26815058593749996,2.710236279296875,11.0707884765625,11.400861498989654
0.7261875155433971,-0.26336218261718747,2.729389892578125,10.467449658203124,10.820648371144735
0.7286744590897786,-0.33039982910156246,2.7198130859375,9.86411083984375,10.237540228503631
0.7311614026361601,-0.38786066894531246,2.6671406494140624,9.184157568359375,9.571458895211551
0.7336483461825416,-0.45968671875,2.6431986328124997,8.499415893554687,8.912793132543076
0.7361352897289231,-0.55545478515625,2.5809493896484375,7.8912886718749995,8.321193824995444
0.7386222332753046,-0.6368576416015624,2.5426421630859375,7.398083129882812,7.84871013745732
0.7411091768216861,-0.6512228515624999,2.4564509033203126,7.101202124023437,7.54223533503532
0.7435961203680675,-0.7661445312499999,2.39420166015625,6.986280444335937,7.424775651773592
0.7460830639144491,-0.814028564453125,2.3415292236328122,7.015010864257812,7.440146439051266
0.7485700074608306,-0.8379705810546875,2.327164013671875,7.206546997070312,7.619199870211154
0.7510569510072121,-0.833182177734375,2.24097275390625,7.6279264892578125,7.993835997227199
0.7535438945535936,-0.7709329345703124,2.308010400390625,8.183381274414062,8.537504241893366
0.7560308380999751,-0.718260498046875,2.27927998046875,8.815450512695312,9.133629241117696
0.7585177816463566,-0.699106884765625,2.3032219970703123,9.481038574218749,9.781803230996784
0.7610047251927381,-0.6272808349609375,2.3127988037109373,10.137049829101562,10.416443672868589
0.7634916687391196,-0.5458779785156249,2.4133552734375,10.826579907226561,11.105723701354126
0.7659786122855011,-0.430956298828125,2.47081611328125,11.310208642578125,11.584967636372525
0.7684655558318826,-0.3495534423828125,2.47081611328125,11.669338891601562,11.933171834922042
0.770952499378264,-0.3016694091796875,2.6384102294921874,11.903970654296874,12.196586830334336
0.7734394429246456,-0.2346317626953125,2.6719290527343746,11.884817041015625,12.183724103299735
0.7759263864710271,-0.258573779296875,2.6671406494140624,11.631031665039062,11.935719384948612
0.7784133300174085,-0.19153613281249998,2.7533319091796873,11.243170996093749,11.576977875926149
0.7809002735637901,-0.24899697265624998,2.748543505859375,10.721235034179687,11.070743947635842
0.7833872171101716,-0.3016694091796875,2.767697119140625,10.108319409179687,10.484716164671932
0.785874160656553,-0.39743747558593745,2.6719290527343746,9.3852705078125,9.766292229636651
0.7883611042029346,-0.40222587890625,2.5953145996093747,8.67658681640625,9.065351747794578
0.790848047749316,-0.5027823486328125,2.5665841796874997,8.087613208007811,8.499978343728959
0.7933349912956975,-0.5889736083984375,2.518700146484375,7.551312036132812,7.982045715625447
0.7958219348420791,-0.6655880615234374,2.4947581298828125,7.192181787109375,7.641616612542579
0.7983088783884605,-0.7134720947265625,2.384624853515625,6.928819604492187,7.3623378918352556
0.800795821934842,-0.7757213378906249,2.3127988037109373,6.924031201171875,7.341184507646378
0.8032827654812236,-0.833182177734375,2.3223756103515623,7.1395093505859375,7.553821204129339
0.805769709027605,-0.7900865478515624,2.308010400390625,7.498639599609374,7.8854768154016615
0.8082566525739865,-0.7565677246093749,2.2744915771484373,7.977479931640625,8.329819488810589
0.8107435961203681,-0.7661445312499999,2.2601263671875,8.590395556640624,8.915718953509662
0.8132305396667495,-0.6847416748046875,2.3127988037109373,9.299079248046874,9.6068092689049
0.815717483213131,-0.6177040283203125,2.3319524169921872,9.911994873046874,10.201333378780754
0.8182044267595125,-0.565031591796875,2.29843359375,10.620678564453124,10.881216423453818
0.820691370305894,-0.4740519287109375,2.403778466796875,11.166556542968749,11.432185319345951
0.8231783138522755,-0.38307226562499996,2.5043349365234375,11.549628808593749,11.824227816279656
0.825665257398657,-0.3064578125,2.6001030029296874,11.832144604492187,12.118337260461924
0.8281522009450385,-0.258573779296875,2.6144682128906247,11.889605444335936,12.17641252822596
0.83063914449142,-0.27293898925781246,2.6479870361328124,11.722011328125,12.020477553411734
0.8331260880378015,-0.2059013427734375,2.6910826660156246,11.362881079101562,11.679014842703555
0.835613031584183,-0.22026655273437498,2.7581203125,10.927136376953124,11.272003123358813
0.8380999751305644,-0.27293898925781246,2.7198130859375,10.275913525390624,10.633262796319853
0.840586918676946,-0.32561142578124996,2.70065947265625,9.667786303710937,10.043190548927567
0.8430738622233275,-0.40222587890625,2.70065947265625,8.973467822265624,9.379684003320495
0.8455608057697089,-0.4740519287109375,2.6096798095703124,8.288726147460936,8.702765944640594
0.8480477493160905,-0.584185205078125,2.5426421630859375,7.742848168945312,8.170556853157212
0.850534692862472,-0.6655880615234374,2.4851813232421875,7.292738256835937,7.7332506075875225
0.8530216364088534,-1.0438719238281249,3.67749375,23.113622827148436,23.427615949351804
0.855508579955235,-0.5123591552734374,3.782838623046875,21.193473095703123,21.53452302258631
0.8579955235016165,-0.1197100830078125,3.768473413085937,18.454506396484373,18.83572479908835
0.8604824670479979,0.3016694091796875,3.6727053466796873,15.193603735351562,15.634108975661302
0.8629694105943795,0.5889736083984375,3.4668040039062498,11.621454858398437,12.141821648281732
0.8654563541407609,0.7805097412109374,3.19865341796875,8.12113203125,8.763182333684668
0.8679432976871424,0.9097966308593749,2.940079638671875,4.99909306640625,5.870496544402957
0.870430241233524,0.8810662109374999,2.6001030029296874,2.327164013671875,3.5989589662052457
0.8729171847799054,0.7422025146484375,2.288856787109375,0.45968671875,2.449702399076724
0.8754041283262869,0.5458779785156249,2.0446482177734375,-0.6368576416015624,2.210012841034799
0.8778910718726685,0.2346317626953125,1.8052280517578123,-0.8954314208984374,2.0287182683780935
0.8803780154190499,-0.06703764648437499,1.6328455322265625,-0.21068974609375,1.6477465664559763
0.8828649589654315,-0.4213794921875,1.5562310791015623,1.1013327636718748,1.9525239318213077
0.885351902511813,-0.7326257080078125,1.5658078857421873,3.0119056884765625,3.4727612413415128
0.8878388460581944,-1.0103531005859374,1.637633935546875,5.310339282226562,5.648217558405207
0.890325789604576,-1.2114660400390624,1.8004396484374998,7.824251025390624,8.119614338265082
0.8928127331509574,-1.39821376953125,2.001552587890625,10.184933862304687,10.473494750412545
0.8952996766973389,-1.5275006591796874,2.2026655273437497,12.449848632812499,12.735137402834967
0.8977866202437205,-1.5370774658203123,2.437297290039062,14.235923071289061,14.524618098512075
0.9002735637901019,-1.43652099609375,2.7054478759765623,15.543157177734374,15.842120307383095
0.9027605073364834,-1.3455413330078123,2.81558115234375,16.294936499023436,16.591049822463674
0.905247450882865,-1.2114660400390624,2.940079638671875,16.405069775390626,16.71041688837642
0.9077343944292464,-0.9193734375,3.0885201416015624,15.998055493164062,16.319374490004694
0.9102213379756279,-0.6512228515624999,3.208230224609375,15.227122558593749,15.575047152125382
0.9127082815220094,-0.49320554199218747,3.1220389648437497,13.737929125976562,14.09684630245395
0.9151952250683909,-0.27293898925781246,3.0166940917968748,12.095506787109374,12.469010520981533
0.9176821686147724,-0.0718260498046875,2.978386865234375,10.443507641601562,10.86014729000585
0.9201691121611539,0.0909796630859375,2.863465185546875,8.815450512695312,9.269297595271945
0.9226560557075354,0.12449848632812499,2.6575638427734374,7.235277416992187,7.708915925884252
0.9251429992539169,0.16280571289062498,2.5043349365234375,6.105214233398437,6.600896909521655
0.9276299428002984,0.201112939453125,2.389413256835937,5.190629199218749,5.717724513313061
0.9301168863466799,0.12449848632812499,2.24097275390625,4.759672900390624,5.262313642834401
0.9326038298930613,-0.028730419921875,2.1164742675781247,4.687846850585937,5.1435587735436386
0.9350907734394429,-0.1388636962890625,2.0877438476562498,5.128379956054687,5.5387939547555884
0.9375777169858244,-0.27293898925781246,2.0302830078125,5.7317187744140625,6.086800875060715
0.9400646605322058,-0.45010991210937495,2.0159177978515626,6.694187841796874,7.005617343384872
0.9425516040785874,-0.59376201171875,2.1116858642578125,7.809885815429687,8.112095103357479
0.9450385476249689,-0.70868369140625,2.2170307373046874,8.94473740234375,9.24260704896114
0.9475254911713503,-0.82360537109375,2.3223756103515623,10.041281762695311,10.33920179320859
0.9500124347177319,-0.9576806640625,2.408566870117187,10.998962426757812,11.300244293260894
0.9524993782641133,-0.9911994873046874,2.499546533203125,11.722011328125,12.02646077913081
0.9549863218104948,-0.9864110839843749,2.6240450195312497,12.172121240234373,12.490762770067278
0.9574732653568764,-1.01514150390625,2.6862942626953124,12.406753002929687,12.73476380677897
0.9599602089032578,-0.9241618408203125,2.7964275390625,12.39238779296875,12.737556959659745
0.9624471524496393,-0.833182177734375,2.7916391357421872,12.090718383789062,12.436756516133793
0.9649340959960209,-0.7422025146484375,2.7964275390625,11.506533178710937,11.864703002888577
0.9674210395424023,-0.6464344482421874,2.7533319091796873,10.850521923828124,11.213052221293541
0.9699079830887838,-0.584185205078125,2.6958710693359373,10.098742602539062,10.468695970781274
0.9723949266351654,-0.4644751220703125,2.6958710693359373,9.3852705078125,9.775825308705134
0.9748818701815468,-0.3687070556640625,2.6001030029296874,8.724470849609375,9.111140001362298
0.9773688137279283,-0.3016694091796875,2.5043349365234375,8.125920434570313,8.5084241088285
0.9798557572743098,-0.22026655273437498,2.437297290039062,7.728482958984374,8.106687626990269
0.9823427008206913,-0.229843359375,2.384624853515625,7.484274389648437,7.858347587209456
0.9848296443670728,-0.201112939453125,2.3319524169921872,7.503428002929687,7.860017829794063
0.9873165879134543,-0.2059013427734375,2.308010400390625,7.637503295898437,7.98127583573746
0.9898035314598358,-0.239420166015625,2.2601263671875,7.972691528320312,8.290313831050161
0.9922904750062173,-0.2920926025390625,2.288856787109375,8.37012900390625,8.68235238989914
0.9947774185525988,-0.36391865234375,2.3511060302734372,8.8872765625,9.200207663388563
0.9972643620989803,-0.39743747558593745,2.3367408203125,9.414000927734374,9.707817863747676
0.9997513056453617,-0.5027823486328125,2.4133552734375,9.835380419921874,10.139614478396497
1.0022382491917432,0.5219359619140624,0.8858546142578124,9.514557397460937,9.569950784383359
1.0047251927381249,0.9002198242187499,0.8858546142578124,9.490615380859374,9.574284016934259
1.0072121362845063,1.16837041015625,0.9864110839843749,9.433154541015625,9.556280701016458
1.0096990798308878,1.5083470458984374,1.158793603515625,9.394847314453125,9.585461360221863
1.0121860233772693,1.637633935546875,1.350329736328125,9.323021264648437,9.561587776345187
1.0146729669236507,1.7429788085937499,1.5897499023437498,9.284714038085937,9.579728318080786
1.0171599104700322,1.7429788085937499,1.7764976318359373,9.251195214843749,9.580111265860824
1.0196468540164139,1.7669208251953124,2.1021090576171875,9.212887988281249,9.61343730292355
1.0221337975627953,1.6328455322265625,2.3127988037109373,9.217676391601563,9.64265424553052
1.0246207411091768,1.47482822265625,2.6001030029296874,9.160215551757812,9.635621561002335
1.0271076846555582,1.2593500732421874,2.85388837890625,9.193734375,9.708521681712819
1.0295946282019397,1.01514150390625,3.0741549316406247,9.227253198242186,9.778708626457487
1.0320815717483212,0.74699091796875,3.2704794677734372,9.145850341796875,9.741694403706237
1.0345685152947028,0.39264907226562495,3.4572271972656248,9.255983618164063,9.888368213572232
1.0370554588410843,0.0526724365234375,3.5625720703124997,9.255983618164063,9.91806064114661
1.0395424023874658,-0.316034619140625,3.6248213134765623,9.265560424804686,9.954386843037401
1.0420293459338472,-0.6560112548828124,3.6631285400390623,9.275137231445312,9.993849715176061
1.0445162894802287,-0.967257470703125,3.6631285400390623,9.299079248046874,10.041263495045618
1.0470032330266101,-1.2401964599609374,3.6822821533203123,9.3852705078125,10.157784779211264
1.0494901765729918,-1.5418658691406248,3.5529952636718747,9.390058911132812,10.157476657942182
1.0519771201193733,-1.7190367919921874,3.4811692138671875,9.4618849609375,10.227457826938947
1.0544640636657547,-1.9680337646484374,3.3327287109375,9.442731347656249,10.205165989023081
1.0569510072121362,-2.0733786376953125,3.1172505615234374,9.476250170898437,10.188987552255725
1.0594379507585177,-2.1547814941406247,2.901772412109375,9.481038574218749,10.146598388868746
1.0619248943048991,-2.231395947265625,2.7054478759765623,9.495403784179686,10.12231540250122
1.0644118378512808,-2.2361843505859373,2.518700146484375,9.562441430664062,10.13827682560436
1.0668987813976623,-2.1356278808593747,2.3319524169921872,9.572018237304688,10.080795685654637
1.0693857249440437,-2.0877438476562498,2.0781670410156248,9.528922607421874,9.973856760653115
1.0718726684904252,-1.8626888916015625,1.9393033447265624,9.576806640625,9.947146967934202
1.0743596120368066,-1.714248388671875,1.7860744384765623,9.552864624023437,9.868431079090634
1.076846555583188,-1.47482822265625,1.6519991455078125,9.572018237304688,9.824853820713846
1.0793334991295698,-1.235408056640625,1.5035586425781249,9.524134204101562,9.720908084938426
1.0818204426759512,-0.9241618408203125,1.4796166259765624,9.567229833984374,9.724979545694445
1.0843073862223327,-0.7134720947265625,1.4700398193359374,9.5384994140625,9.677449590282421
1.0867943297687142,-0.39743747558593745,1.350329736328125,9.495403784179686,9.5991687123639
1.0892812733150956,-0.1771709228515625,1.4413093994140624,9.452308154296874,9.563205098947245
1.0917682168614773,0.13407529296874998,1.5514426757812498,9.428366137695312,9.556099548814858
1.0942551604078588,0.33039982910156246,1.62805712890625,9.409212524414063,9.554737798162922
1.0967421039542402,0.5267243652343749,1.714248388671875,9.356540087890625,9.526853022446604
1.0992290475006217,0.6512228515624999,1.848323681640625,9.351751684570312,9.554875781734392
1.1017159910470031,0.8044517578125,2.059013427734375,9.327809667968749,9.586172965688098
1.1042029345933846,0.8954314208984374,2.231395947265625,9.332598071289063,9.637339470166753
1.1066898781397663,0.967257470703125,2.398990063476562,9.3086560546875,9.661356938016551
1.1091768216861477,0.9576806640625,2.5953145996093747,9.3086560546875,9.711018879074173
1.1116637652325292,0.9050082275390624,2.7437551025390623,9.236830004882812,9.678133109940466
1.1141507087789106,0.7948749511718749,2.959233251953125,9.303867651367186,9.795450010164021
1.116637652325292,0.6464344482421874,3.0933085449218747,9.299079248046874,9.821370073030385
1.1191245958716736,0.5219359619140624,3.2513258544921873,9.270348828125,9.837830266656722
1.1216115394180552,0.3399766357421875,3.3327287109375,9.284714038085937,9.870591651091022
1.1240984829644367,0.11013327636718749,3.414131567382812,9.294290844726563,9.902134416595807
1.1265854265108182,-0.0909796630859375,3.5098996337890624,9.303867651367186,9.944326322709074
1.1290723700571996,-0.3447650390625,3.5386300537109374,9.337386474609374,9.991373867762336
1.131559313603581,-0.5602431884765625,3.5434184570312497,9.342174877929686,10.007293252507626
1.1340462571499625,-0.8092401611328125,3.5146880371093747,9.356540087890625,10.027599117081532
1.1365332006963442,-1.0007762939453124,3.418919970703125,9.3852705078125,10.0386189020906
1.1390201442427257,-1.216254443359375,3.356670727539062,9.414000927734374,10.068263341385776
1.1415070877891071,-1.39821376953125,3.1794998046874996,9.394847314453125,10.01635546569718
1.1439940313354886,-1.5945383056640625,3.0454245117187497,9.4618849609375,10.066997063614483
1.14648097488187,-1.7238251953125,2.85388837890625,9.452308154296874,10.023092418362584
1.1489679184282515,-1.7956512451171873,2.73896669921875,9.514557397460937,10.06246015858442
1.1514548619746332,-1.867477294921875,2.5905261962890624,9.552864624023437,10.072513089871219
1.1539418055210147,-1.9009961181640624,2.370259643554687,9.5001921875,9.974245265611572
1.1564287490673961,-1.8243816650390623,2.221819140625,9.552864624023437,9.976074943498409
1.1589156926137776,-1.7860744384765623,2.04943662109375,9.557653027343749,9.936749154263312
1.161402636160159,-1.637633935546875,1.9297265380859374,9.586383447265625,9.914859404785135
1.1638895797065405,-1.5275006591796874,1.7381904052734374,9.548076220703125,9.824475745053041
1.1663765232529222,-1.350329736328125,1.6328455322265625,9.5384994140625,9.77100537309211
1.1688634667993036,-1.1540052001953125,1.5418658691406248,9.495403784179686,9.688744572188519
1.171350410345685,-0.9816226806640624,1.484405029296875,9.5001921875,9.665438064445501
1.1738373538920666,-0.7852981445312499,1.455674609375,9.514557397460937,9.657250344366243
1.176324297438448,-0.4644751220703125,1.484405029296875,9.476250170898437,9.603047054527888
1.1788112409848295,-0.2920926025390625,1.4891934326171874,9.457096557617186,9.578083862041668
1.1812981845312112,-0.0383072265625,1.5849614990234373,9.447519750976562,9.579624201506329
1.1837851280775926,0.11013327636718749,1.6328455322265625,9.414000927734374,9.555193736291237
1.186272071623974,0.3399766357421875,1.7908628417968748,9.380482104492186,9.555951985212019
1.1887590151703555,0.4740519287109375,1.8818425048828125,9.327809667968749,9.527543736249623
1.191245958716737,0.603338818359375,2.039859814453125,9.299079248046874,9.539283026193113
1.1937329022631185,0.7565677246093749,2.2553379638671873,9.332598071289063,9.63100881597611
1.1962198458095001,0.7613561279296874,2.346317626953125,9.332598071289063,9.653095685857224
1.1987067893558816,0.8092401611328125,2.5665841796874997,9.275137231445312,9.657659895231111
1.201193732902263,0.7900865478515624,2.6958710693359373,9.246406811523437,9.66374650432044
1.2036806764486445,0.737414111328125,2.9496564453125,9.289502441406249,9.774410894056587
1.206167619995026,0.6607996582031249,3.0885201416015624,9.246406811523437,9.770959613955373
1.2086545635414074,0.5315127685546874,3.246537451171875,9.275137231445312,9.841274404625716
1.2111415070877891,0.3591302490234375,3.303998291015625,9.279925634765624,9.857098915481064
1.2136284506341706,0.13407529296874998,3.394977954101562,9.251195214843749,9.855377435500285
1.216115394180552,-0.08140285644531249,3.4811692138671875,9.342174877929686,9.970024923260457
1.2186023377269335,-0.2346317626953125,3.5146880371093747,9.3086560546875,9.952846909640252
1.221089281273315,-0.43574470214843747,3.6008792968749996,9.332598071289063,10.012671567386086
1.2235762248196966,-0.7038952880859375,3.4955344238281247,9.375693701171874,10.030845520839755
1.226063168366078,-0.9193734375,3.385401147460937,9.404424121093749,10.037399140027278
1.2285501119124596,-1.1252747802734375,3.323151904296875,9.423577734375,10.055515860758195
1.231037055458841,-1.2593500732421874,3.2513258544921873,9.437942944335937,10.061403949728136
1.2335239990052225,-1.4317325927734375,3.0980969482421874,9.514557397460937,10.108158357856091
1.236010942551604,-1.5801730957031248,2.916137622070312,9.485826977539062,10.048966070748063
1.2384978860979856,-1.6711527587890624,2.7724855224609373,9.504980590820312,10.041119636142906
1.240984829644367,-1.7908628417968748,2.6575638427734374,9.519345800781249,10.044290904359405
1.2434717731907485,-1.8435352783203125,2.43250888671875,9.476250170898437,9.95565362534424
1.24595871673713,-1.7717092285156248,2.2457611572265623,9.533711010742186,9.953594446332533
1.2484456602835114,-1.7334020019531249,2.0925322509765625,9.557653027343749,9.936403026892844
1.250932603829893,-1.6711527587890624,1.9488801513671874,9.567229833984374,9.905693922380298
1.2534195473762746,-1.5562310791015623,1.7812860351562498,9.528922607421874,9.818105783135563
1.255906490922656,-1.4317325927734375,1.66636435546875,9.5384994140625,9.78823781149892
1.2583934344690375,-1.2210428466796874,1.6041151123046875,9.5384994140625,9.749210326945592
1.260880378015419,-1.0486603271484374,1.4939818359375,9.490615380859374,9.664546058416338
1.2633673215618004,-0.8188169677734375,1.4700398193359374,9.514557397460937,9.66220889686854
1.2658542651081819,-0.612915625,1.446097802734375,9.471461767578125,9.60080478049296
1.2683412086545636,-0.4213794921875,1.426944189453125,9.447519750976562,9.563961514003623
1.270828152200945,-0.229843359375,1.5945383056640625,9.476250170898437,9.612216064962931
1.2733150957473265,0.0143652099609375,1.6328455322265625,9.466673364257812,9.606471541461922
1.275802039293708,0.2154781494140625,1.7094599853515624,9.380482104492186,9.53740681669243
1.2782889828400894,0.3591302490234375,1.848323681640625,9.399635717773437,9.586366704582051
1.2807759263864709,0.55545478515625,2.001552587890625,9.380482104492186,9.607714988130258
1.2832628699328525,3.825934252929687,-3.347093920898437,9.916783276367187,11.143760638738247
1.285749813479234,4.96078583984375,-3.4859576171874997,9.730035546875,11.464505589037534
1.2882367570256155,5.865794067382812,-3.347093920898437,9.591171850585937,11.730351879791618
1.290723700571997,6.459556079101562,-3.0789433349609374,9.409212524414063,11.821126728385446
1.2932106441183784,6.852205151367187,-2.5953145996093747,9.332598071289063,11.865317529151797
1.2956975876647598,6.880935571289062,-2.0063409912109376,9.184157568359375,11.649954023501431
1.2981845312111415,6.72291826171875,-1.3311761230468748,9.093177905273437,11.386638847406841
1.300671474757523,6.325480786132812,-0.6272808349609375,8.94473740234375,10.973309237350959
1.3031584183039044,5.793968017578124,0.1388636962890625,8.916006982421875,10.634120980384832
1.305645361850286,5.104437939453125,0.9193734375,8.896853369140624,10.298278208870544
1.3081323053966674,4.256890551757812,1.68551796875,8.86812294921875,9.980265158555873
1.3106192489430488,3.342305517578125,2.403778466796875,8.853757739257812,9.764127364784684
1.3131061924894305,2.384624853515625,3.0789433349609374,8.877699755859375,9.694322085999122
1.315593136035812,1.3838485595703125,3.6583401367187496,8.920795385742187,9.740589289464538
1.3180800795821934,0.4070142822265625,4.204218115234375,8.935160595703124,9.883228493635421
1.3205670231285749,-0.507570751953125,4.548983154296875,9.054870678710937,10.146011966013743
1.3230539666749563,-1.3838485595703125,4.797980126953124,9.083601098632812,10.36568661756399
1.3255409102213378,-2.1212626708984375,4.970362646484375,9.1554271484375,10.631373684847164
1.3280278537677195,-2.8203695556640622,5.027823486328125,9.275137231445312,10.920698883420071
1.330514797314101,-3.366247534179687,4.970362646484375,9.270348828125,11.04425165839934
1.3330017408604824,-3.787627026367187,4.855440966796874,9.370905297851563,11.213174910533546
1.3354886844068639,-4.036623999023437,4.678270043945313,9.457096557617186,11.296779152203644
1.3379756279532453,-4.1754876953124995,4.367023828124999,9.543287817382812,11.295128904732552
1.3404625714996268,-4.247313745117188,4.074931225585937,9.572018237304688,11.236915576705657
1.3429495150460085,-4.132392065429687,3.7205893798828122,9.600748657226562,11.094765625976992
1.34543645859239,-3.907337109375,3.347093920898437,9.634267480468749,10.92197010098599
1.3479234021387714,-3.6535517333984373,2.9927520751953125,9.686939916992188,10.77691097706672
1.3504103456851528,-3.2513258544921873,2.6288334228515624,9.696516723632811,10.559560670259042
1.3528972892315343,-2.7964275390625,2.3367408203125,9.6917283203125,10.354224378353466
1.3553842327779158,-2.3223756103515623,1.9632453613281249,9.706093530273437,10.171332874444138
1.3578711763242974,-1.7764976318359373,1.7477672119140624,9.696516723632811,10.011646749393995
1.360358119870679,-1.24498486328125,1.4891934326171874,9.65342109375,9.846635120832245
1.3628450634170604,-0.7565677246093749,1.2880804931640624,9.65342109375,9.768320474475017
1.3653320069634418,-0.27293898925781246,1.216254443359375,9.600748657226562,9.68132973005703
1.3678189505098233,0.22026655273437498,1.1348515869140625,9.562441430664062,9.632065800930526
1.370305894056205,0.6368576416015624,1.158793603515625,9.533711010742186,9.62496939774677
1.3727928376025864,0.97683427734375,1.20667763671875,9.447519750976562,9.574231330474687
1.3752797811489679,1.2641384765625,1.3072341064453123,9.414000927734374,9.5880300669305
1.3777667246953493,1.5275006591796874,1.4317325927734375,9.399635717773437,9.629967191421073
1.3802536682417308,1.618480322265625,1.5849614990234373,9.323021264648437,9.594285122302475
1.3827406117881123,1.7238251953125,1.85790048828125,9.318232861328125,9.656750550070413
1.385227555334494,1.7381904052734374,2.0159177978515626,9.270348828125,9.644926015672587
1.3877144988808754,1.6328455322265625,2.2457611572265623,9.241618408203124,9.649722198605444
1.3902014424272569,1.5083470458984374,2.528276953125,9.241618408203124,9.69921677071981
1.3926883859736383,1.2880804931640624,2.7724855224609373,9.227253198242186,9.720495301865842
1.3951753295200198,1.024718310546875,2.9448680419921875,9.208099584960937,9.721697041529053
1.3976622730664012,0.7517793212890624,3.1268273681640624,9.203311181640624,9.74900806463555
1.400149216612783,0.45010991210937495,3.284844677734375,9.275137231445312,9.849922545480343
1.4026361601591644,0.1005564697265625,3.404554760742187,9.303867651367186,9.907727186224545
1.4051231037055458,-0.27293898925781246,3.4524387939453125,9.294290844726563,9.918551891489182
1.4076100472519273,-0.5698199951171875,3.5003228271484375,9.3852705078125,10.032958548001027
1.4100969907983087,-0.9193734375,3.4763808105468748,9.294290844726563,9.965656695064661
1.4125839343446902,-1.22583125,3.438073583984375,9.34696328125,10.034377649032525
1.4150708778910719,-1.465251416015625,3.404554760742187,9.447519750976562,10.14857548014106
1.4175578214374533,-1.7334020019531249,3.2417490478515623,9.375693701171874,10.070613276648825
1.4200447649838348,-1.905784521484375,3.1411925781249996,9.485826977539062,10.172512909945354
1.4225317085302163,-2.0542250244140625,2.9975404785156248,9.476250170898437,10.149108663952775
1.4250186520765977,-2.1452046874999997,2.829946362304687,9.5384994140625,10.178087769166867
1.4275055956229792,-2.1547814941406247,2.6862942626953124,9.514557397460937,10.118599835098694
1.4299925391693609,-2.1116858642578125,2.4756045166015626,9.543287817382812,10.082766350428413
1.4324794827157423,-2.0781670410156248,2.269703173828125,9.595960253906249,10.077340122383365
1.4349664262621238,-1.9632453613281249,2.1021090576171875,9.600748657226562,10.022353496965184
1.4374533698085052,-1.8052280517578123,1.944091748046875,9.591171850585937,9.951327474822106
1.4399403133548867,-1.618480322265625,1.7190367919921874,9.586383447265625,9.872857420412402
1.4424272569012682,-1.39821376953125,1.6424223388671875,9.557653027343749,9.798024508828801
1.4449142004476498,-1.1540052001953125,1.5801730957031248,9.528922607421874,9.727745939974868
1.4474011439940313,-0.86191259765625,1.5083470458984374,9.504980590820312,9.662435519512663
1.4498880875404128,-0.5985504150390625,1.47482822265625,9.509768994140625,9.642047874160614
1.4523750310867942,-0.33518823242187495,1.4700398193359374,9.490615380859374,9.60963831416104
1.4548619746331757,-0.086191259765625,1.5705962890624998,9.433154541015625,9.563399303132782
1.4573489181795571,0.15322890625,1.6232687255859375,9.428366137695312,9.568310638749955
1.4598358617259388,0.36391865234375,1.68551796875,9.409212524414063,9.565912812591032
1.4623228052723203,0.5889736083984375,1.848323681640625,9.414000927734374,9.611795035834206
1.4648097488187017,0.718260498046875,2.001552587890625,9.332598071289063,9.571807439839905
1.4672966923650832,0.8571241943359375,2.1260510742187497,9.332598071289063,9.610002175594502
1.4697836359114647,0.9193734375,2.346317626953125,9.313444458007812,9.648352273654188
1.4722705794578461,0.9241618408203125,2.5426421630859375,9.323021264648437,9.70761710094798
1.4747575230042278,0.9097966308593749,2.7150246826171873,9.323021264648437,9.752836225315718
1.4772444665506093,0.86191259765625,2.868253588867187,9.342174877929686,9.810504748781716
1.4797314100969907,0.7038952880859375,2.9927520751953125,9.265560424804686,9.762307285979183
1.4822183536433722,0.584185205078125,3.1603461914062496,9.260772021484375,9.80259959588659
1.4847052971897536,0.4070142822265625,3.208230224609375,9.246406811523437,9.795633758171062
1.487192240736135,0.2346317626953125,3.385401147460937,9.270348828125,9.871948155678995
1.4896791842825168,0.0143652099609375,3.4668040039062498,9.289502441406249,9.915331157840885
1.4921661278288982,-0.22505495605468748,3.4859576171874997,9.299079248046874,9.93355047822924
1.4946530713752797,-0.4740519287109375,3.5051112304687497,9.351751684570312,9.998289330627333
1.4971400149216612,-0.7517793212890624,3.4428619873046875,9.366116894531249,10.007128284056776
1.4996269584680426,-0.9528922607421875,3.380612744140625,9.375693701171874,10.012001726159577
1.5021139020144243,-1.1827356201171875,3.31357509765625,9.370905297851563,10.009620850771725
1.5046008455608058,-1.3742717529296875,3.1651345947265623,9.442731347656249,10.053450907904475
1.5070877891071872,-1.5658078857421873,3.0310593017578125,9.447519750976562,10.044635596721129
1.5095747326535687,-1.6903063720703124,2.935291235351562,9.471461767578125,10.058909398264175
1.5120616761999501,-1.7956512451171873,2.806004345703125,9.504980590820312,10.071875684998627
1.5145486197463316,-1.8243816650390623,2.5809493896484375,9.524134204101562,10.034879199541699
1.5170355632927133,-1.8291700683593748,2.442085693359375,9.595960253906249,10.069364372553059
1.5195225068390947,-1.867477294921875,2.24097275390625,9.528922607421874,9.96543006543293
1.5220094503854762,-1.8004396484374998,2.0638018310546875,9.543287817382812,9.928504584827346
1.5244963939318577,-1.714248388671875,1.93451494140625,9.562441430664062,9.905618694027583
1.5269833374782391,-1.5945383056640625,1.7860744384765623,9.533711010742186,9.829763982128776
1.5294702810246206,-1.407790576171875,1.637633935546875,9.524134204101562,9.765902495466069
1.5319572245710023,-1.2689268798828124,1.5610194824218748,9.567229833984374,9.776443317856984
1.5344441681173837,-1.0486603271484374,1.5083470458984374,9.576806640625,9.751411422174982
1.5369311116637652,-0.833182177734375,1.4700398193359374,9.557653027343749,9.705871470549182
1.5394180552101466,-0.565031591796875,1.5275006591796874,9.5001921875,9.638784703631414
1.541904998756528,-0.3447650390625,1.5227122558593749,9.457096557617186,9.585102547516064
1.5443919423029095,-0.1388636962890625,1.5658078857421873,9.423577734375,9.553787457181981
1.5468788858492912,0.0526724365234375,1.599326708984375,9.3852705078125,9.520710205255446
1.5493658293956727,0.24899697265624998,1.7429788085937499,9.423577734375,9.58664654273887
1.5518527729420541,0.45489831542968745,1.905784521484375,9.399635717773437,9.60167166417142
1.5543397164884356,0.5793968017578125,2.0159177978515626,9.3086560546875,9.54204919113563
1.556826660034817,0.6943184814453125,2.1547814941406247,9.323021264648437,9.593950538868457
1.5593136035811985,0.7517793212890624,2.35589443359375,9.3086560546875,9.63153613265434
1.5618005471275802,0.7709329345703124,2.50912333984375,9.3086560546875,9.671665578824781
1.5642874906739617,0.7565677246093749,2.6910826660156246,9.294290844726563,9.70557380805578
1.5667744342203431,0.7613561279296874,2.849099975585937,9.265560424804686,9.72356127198912
1.5692613777667246,0.6512228515624999,3.0645781249999997,9.299079248046874,9.812675738455935
1.571748321313106,0.5602431884765625,3.1603461914062496,9.270348828125,9.810251162681256
1.5742352648594875,0.469263525390625,3.347093920898437,9.313444458007812,9.907749171430096
1.5767222084058692,0.201112939453125,3.366247534179687,9.303867651367186,9.896161990890361
1.5792091519522506,-0.0,3.4859576171874997,9.327809667968749,9.95790809912799
1.581696095498632,-0.181959326171875,3.4859576171874997,9.332598071289063,9.964055221918272
1.5841830390450136,-0.44532150878906246,3.5146880371093747,9.318232861328125,9.968992271153853
1.586669982591395,-0.63206923828125,3.4955344238281247,9.3852705078125,10.035017435708019
1.5891569261377765,-0.8954314208984374,3.380612744140625,9.380482104492186,10.0111829704624
1.5916438696841582,-1.0534487304687499,3.414131567382812,9.437942944335937,10.09162105945653
1.5941308132305396,-1.2737152832031249,3.21780703125,9.437942944335937,10.052432528177826
1.596617756776921,-1.4413093994140624,3.0885201416015624,9.437942944335937,10.034495327143182
1.5991047003233025,-1.5466542724609373,2.935291235351562,9.442731347656249,10.008658720271331
1.601591643869684,-1.6711527587890624,2.829946362304687,9.514557397460937,10.066188475600308
1.6040785874160655,-1.7764976318359373,2.6336218261718747,9.495403784179686,10.012721946794562
1.6065655309624471,-1.8052280517578123,2.4564509033203126,9.524134204101562,10.00010658428268
1.6090524745088286,-1.8243816650390623,2.3127988037109373,9.514557397460937,9.96013098486943
1.61153941805521,-1.7764976318359373,2.0973206542968748,9.562441430664062,9.949622298245272
1.6140263616015915,-1.70467158203125,1.9871873779296874,9.629479077148437,9.979062389564838
1.616513305147973,-1.62805712890625,1.8004396484374998,9.562441430664062,9.865720402359312
1.6190002486943544,-1.43652099609375,1.7094599853515624,9.557653027343749,9.815017952343718
1.6214871922407361,-1.2928688964843749,1.5705962890624998,9.557653027343749,9.77174570267804
1.6239741357871176,-1.0630255371093749,1.5849614990234373,9.567229833984374,9.755716936351423
1.626461079333499,-0.852335791015625,1.4700398193359374,9.528922607421874,9.679248908325231
1.6289480228798805,-0.6560112548828124,1.446097802734375,9.485826977539062,9.617820078864751
1.631434966426262,-0.4165910888671875,1.484405029296875,9.466673364257812,9.591397761112493
1.6339219099726436,-0.229843359375,1.4796166259765624,9.414000927734374,9.532340048335389
1.636408853519025,-0.0143652099609375,1.6424223388671875,9.4618849609375,9.603386096189324
1.6388957970654066,0.19632453613281248,1.7094599853515624,9.447519750976562,9.60293841540693
1.641382740611788,0.3591302490234375,1.8100164550781248,9.370905297851563,9.550863845994229
1.6438696841581695,0.5123591552734374,2.0063409912109376,9.361328491210937,9.587616345962298
1.646356627704551,0.6177040283203125,2.068590234375,9.332598071289063,9.579040170318898
1.6488435712509326,0.7326257080078125,2.29843359375,9.303867651367186,9.611529050420087
1.651330514797314,0.7517793212890624,2.461239306640625,9.279925634765624,9.630155287390274
1.6538174583436955,0.7613561279296874,2.6192566162109374,9.294290844726563,9.686279506676899
1.656304401890077,0.7565677246093749,2.8203695556640622,9.251195214843749,9.70110777466085
1.6587913454364585,0.6943184814453125,2.96881005859375,9.289502441406249,9.777053079869036
1.66127828898284,0.5698199951171875,3.1316157714843746,9.313444458007812,9.842355400992256
1.6637652325292216,0.44532150878906246,3.227383837890625,9.275137231445312,9.830691142814466
1.666252176075603,0.277727392578125,3.375824340820312,9.279925634765624,9.878782428591254
1.6687391196219845,0.1388636962890625,3.438073583984375,9.313444458007812,9.928740139989294
1.671226063168366,-0.076614453125,3.4907460205078125,9.366116894531249,9.995765265158164
1.6737130067147474,-0.296881005859375,3.5146880371093747,9.313444458007812,9.958986795966558
1.676199950261129,-0.565031591796875,3.4859576171874997,9.356540087890625,10.000800149231079
1.6786868938075106,-0.7613561279296874,3.4811692138671875,9.404424121093749,10.056907839814517
1.681173837353892,-0.9720458740234375,3.361459130859375,9.442731347656249,10.070226212635635
1.6836607809002735,-1.158793603515625,3.299209887695312,9.433154541015625,10.060417143105894
1.686147724446655,-1.350329736328125,3.1794998046874996,9.409212524414063,10.0232674180833
1.6886346679930364,-1.4891934326171874,3.0310593017578125,9.466673364257812,10.0510159763116
1.6911216115394179,-1.6424223388671875,2.8730419921875,9.476250170898437,10.037491655266038
1.6936085550857995,-1.7429788085937499,2.710236279296875,9.5001921875,10.03179980941904
1.696095498632181,-1.8052280517578123,2.5713725830078125,9.519345800781249,10.024407700924238
1.6985824421785625,-1.838746875,2.360682836914062,9.548076220703125,10.0059768660126
1.701069385724944,-1.8004396484374998,2.2361843505859373,9.586383447265625,10.007040070644244
1.7035563292713254,-1.7477672119140624,1.9967641845703124,9.595960253906249,9.956114233493562
1.7060432728177068,-1.6519991455078125,1.9105729248046874,9.552864624023437,9.881124055626147
1.7085302163640885,-1.5083470458984374,1.7812860351562498,9.581595043945311,9.861797723339826
1.71101715991047,-1.3742717529296875,1.6519991455078125,9.533711010742186,9.77288952480308
1.7135041034568514,-1.1635820068359375,1.5658078857421873,9.557653027343749,9.754712133772983
1.715991047003233,-1.024718310546875,1.4796166259765624,9.533711010742186,9.702111038953486
1.7184779905496144,-0.7852981445312499,1.4604630126953124,9.562441430664062,9.705149741355662
1.7209649340959958,-0.5985504150390625,1.4700398193359374,9.471461767578125,9.60353412471007
1.7234518776423775,-0.3495534423828125,1.5131354492187499,9.490615380859374,9.616836631874778
1.725938821188759,-0.12449848632812499,1.5370774658203123,9.442731347656249,9.567825370116273
1.7284257647351404,0.086191259765625,1.618480322265625,9.433154541015625,9.571379842086758
1.7309127082815219,0.28730419921875,1.7238251953125,9.399635717773437,9.560714859973864
1.7333996518279033,0.469263525390625,1.9009961181640624,9.404424121093749,9.60610157904583
1.7358865953742848,0.5793968017578125,2.0302830078125,9.380482104492186,9.615154406373177
1.7383735389206665,0.6703764648437499,2.1930887207031247,9.34696328125,9.624176085386605
1.740860482467048,0.7661445312499999,2.365471240234375,9.294290844726563,9.621136831867023
1.7433474260134294,0.7422025146484375,2.5474305664062498,9.318232861328125,9.688639260564234
1.7458343695598109,0.7422025146484375,2.729389892578125,9.303867651367186,9.724319360891787
1.7483213131061923,0.7278373046875,2.91134921875,9.323021264648437,9.794101639083491
1.7508082566525738,0.63206923828125,3.0023288818359375,9.289502441406249,9.783064235993768
1.7532952001989555,0.49799394531249996,3.189076611328125,9.279925634765624,9.825234215491667
1.755782143745337,0.411802685546875,3.294421484375,9.3086560546875,9.883009253916818
1.7582690872917184,0.239420166015625,3.380612744140625,9.323021264648437,9.91990877190047
1.7607560308380998,0.0718260498046875,3.4859576171874997,9.318232861328125,9.949197110731772
1.7632429743844813,-0.1867477294921875,3.5003228271484375,9.337386474609374,9.973661353031043
1.765729917930863,-0.36391865234375,3.5146880371093747,9.375693701171874,10.019436169860928
1.7682168614772444,-0.63206923828125,3.4859576171874997,9.361328491210937,10.009289842499648
1.770703805023626,-0.814028564453125,3.4907460205078125,9.399635717773437,10.059875839704928
1.7731907485700074,-1.0726023437499999,3.3327287109375,9.404424121093749,10.034976307791416
1.7756776921163888,-1.24498486328125,3.2417490478515623,9.481038574218749,10.096980570688935
1.7781646356627703,-1.426944189453125,3.1316157714843746,9.476250170898437,10.081790731882723
1.780651579209152,-1.5705962890624998,2.959233251953125,9.452308154296874,10.028457687325062
1.7831385227555334,-1.6615759521484375,2.7964275390625,9.5384994140625,10.077887313224721
1.7856254663019149,-1.7429788085937499,2.6288334228515624,9.581595043945311,10.087403227712556
1.7881124098482963,-1.8243816650390623,2.442085693359375,9.533711010742186,10.009185612715354
1.7905993533946778,-1.8148048583984373,2.3127988037109373,9.576806640625,10.017873048328791
1.7930862969410593,-1.7621324218749999,2.1068974609374997,9.576806640625,9.962898825896358
1.795573240487441,-1.68551796875,1.924938134765625,9.557653027343749,9.894194713909123
1.7980601840338224,-1.5753846923828123,1.8195932617187498,9.495403784179686,9.795685253809468
1.8005471275802039,-1.47482822265625,1.6998831787109374,9.548076220703125,9.80971358521564
1.8030340711265853,-1.3024457031249999,1.5945383056640625,9.552864624023437,9.772212632906493
1.8055210146729668,-1.1252747802734375,1.5227122558593749,9.528922607421874,9.71520776944577
1.8080079582193482,-0.9576806640625,1.484405029296875,9.567229833984374,9.728951497545957
1.81049490176573,-0.6943184814453125,1.5035586425781249,9.514557397460937,9.657617160300285
1.8129818453121114,-0.45489831542968745,1.4987702392578124,9.509768994140625,9.637891420294384
1.8154687888584928,-0.2442085693359375,1.4987702392578124,9.433154541015625,9.554598612715541
1.8179557324048743,-0.0047884033203125,1.5705962890624998,9.433154541015625,9.56301208964555
1.8204426759512558,0.1580173095703125,1.70467158203125,9.442731347656249,9.59666869161996
1.8229296194976372,0.3591302490234375,1.7573440185546874,9.423577734375,9.592760283209511
1.825416563044019,0.4740519287109375,1.944091748046875,9.375693701171874,9.586858209764682
1.8279035065904004,0.6081272216796875,2.1164742675781247,9.356540087890625,9.612186247642756
1.8303904501367818,0.7230489013671875,2.29843359375,9.361328491210937,9.666440286837988
1.8328773936831633,0.7661445312499999,2.437297290039062,9.318232861328125,9.662135332354405
1.8353643372295447,0.7948749511718749,2.6862942626953124,9.318232861328125,9.730234668892912
1.8378512807759262,0.7613561279296874,2.806004345703125,9.323021264648437,9.76586140812616
1.8403382243223079,0.718260498046875,2.9735984619140625,9.318232861328125,9.807530250459978
1.8428251678686893,0.603338818359375,3.1028853515624997,9.318232861328125,9.839785510498476
1.8453121114150708,0.43574470214843747,3.208230224609375,9.255983618164063,9.80590879823329
1.8477990549614522,0.32082302246093747,3.35188232421875,9.332598071289063,9.921463061836162
1.8502859985078337,0.1388636962890625,3.4524387939453125,9.303867651367186,9.924745338105275
1.8527729420542152,-0.033518823242187495,3.5290532470703124,9.337386474609374,9.982090287529317
1.8552598856005968,-0.27293898925781246,3.5338416503906247,9.34696328125,9.996412110498865
1.8577468291469783,-0.507570751953125,3.4763808105468748,9.361328491210937,9.998866072137103
1.8602337726933598,-0.718260498046875,3.447650390625,9.390058911132812,10.028728619001313
1.8627207162397412,-0.9145850341796874,3.4332851806640625,9.418789331054686,10.066653136931981
1.8652076597861227,-1.1252747802734375,3.303998291015625,9.442731347656249,10.067165606175534
1.8676946033325041,-1.3072341064453123,3.2034418212890623,9.437942944335937,10.05214740898571
1.8701815468788858,-1.4939818359375,3.0837317382812497,9.485826977539062,10.085747201253962
1.8726684904252673,-1.6472107421875,2.9544448486328125,9.509768994140625,10.093451040883354
1.8751554339716487,-1.70467158203125,2.7629087158203123,9.533711010742186,10.071306539416202
1.8776423775180302,-1.8004396484374998,2.5713725830078125,9.519345800781249,10.023546496283718
1.8801293210644117,-1.7908628417968748,2.384624853515625,9.533711010742186,9.989257782562225
1.8826162646107931,-1.8004396484374998,2.2361843505859373,9.519345800781249,9.94283902375588
1.8851032081571748,-1.7525556152343749,2.0542250244140625,9.567229833984374,9.940984776756233
1.8875901517035563,-1.6998831787109374,1.867477294921875,9.543287817382812,9.871748408145352
1.8900770952499377,-1.5418658691406248,1.7956512451171873,9.619902270507811,9.906777147318548
1.8925640387963192,-1.3934253662109375,1.6424223388671875,9.509768994140625,9.750635451719464
1.8950509823427006,-1.254561669921875,1.5897499023437498,9.562441430664062,9.774534047744664
1.897537925889082,-1.0342951171875,1.5131354492187499,9.567229833984374,9.74121306477797
1.9000248694354638,-0.7948749511718749,1.5179238525390624,9.543287817382812,9.695888890427463
1.9025118129818452,-0.5889736083984375,1.4508862060546874,9.495403784179686,9.62365074797104
1.9049987565282267,-0.4070142822265625,1.4891934326171874,9.466673364257812,9.591728847879034
1.9074857000746082,-0.181959326171875,1.5370774658203123,9.466673364257812,9.592373059773157
1.9099726436209896,0.0430956298828125,1.6711527587890624,9.437942944335937,9.58485137062979
1.9124595871673713,0.22505495605468748,1.7381904052734374,9.428366137695312,9.589892785879778
1.9149465307137528,0.4261678955078125,1.8722656982421875,9.356540087890625,9.551536019734217
1.9174334742601342,0.5746083984375,2.01112939453125,9.423577734375,9.652908036903222
1.9199204178065157,0.6703764648437499,2.1643583007812497,9.332598071289063,9.603709607178127
1.9224073613528971,0.7326257080078125,2.365471240234375,9.337386474609374,9.660174987681536
1.9248943048992786,0.7757213378906249,2.5330653564453125,9.313444458007812,9.682892716873335
1.9273812484456603,0.74699091796875,2.6958710693359373,9.313444458007812,9.724503274019023
1.9298681919920417,0.7565677246093749,2.882618798828125,9.3086560546875,9.774096551894102
1.9323551355384232,0.63206923828125,3.0454245117187497,9.284714038085937,9.791835208355424
1.9348420790848047,0.5219359619140624,3.1651345947265623,9.327809667968749,9.864001589260075
1.9373290226311861,0.411802685546875,3.265691064453125,9.303867651367186,9.86895500316165
1.9398159661775676,0.229843359375,3.447650390625,9.289502441406249,9.911305504055365
1.9423029097239493,0.0143652099609375,3.4332851806640625,9.313444458007812,9.926122161419388
1.9447898532703307,-0.17238251953125,3.5290532470703124,9.318232861328125,9.965610679312773
1.9472767968167122,-0.3447650390625,3.5003228271484375,9.337386474609374,9.977870965423149
1.9497637403630936,-0.603338818359375,3.5386300537109374,9.380482104492186,10.043872007321864
1.952250683909475,-0.833182177734375,3.4332851806640625,9.3852705078125,10.028207326231183
1.9547376274558566,-1.024718310546875,3.399766357421875,9.433154541015625,10.079328524049176
1.9572245710022382,-1.2593500732421874,3.31357509765625,9.514557397460937,10.153449906527404
1.9597115145486197,-1.3934253662109375,3.1842882080078123,9.457096557617186,10.075614171997284
1.9621984580950012,-1.5227122558593749,2.987963671875,9.509768994140625,10.083763476029546
1.9646854016413826,-1.6615759521484375,2.849099975585937,9.490615380859374,10.047387004741397
1.967172345187764,-1.6998831787109374,2.710236279296875,9.504980590820312,10.028940100666281
1.9696592887341455,-1.8052280517578123,2.50912333984375,9.548076220703125,10.035950765610522
1.9721462322805272,-1.8004396484374998,2.3127988037109373,9.552864624023437,9.992389291807587
1.9746331758269087,-1.7573440185546874,2.212242333984375,9.567229833984374,9.975678465152296
1.9771201193732901,-1.7286135986328124,2.020706201171875,9.576806640625,9.939144025355093
1.9796070629196716,-1.618480322265625,1.8435352783203125,9.634267480468749,9.941690538393873
1.982094006466053,-1.4939818359375,1.70467158203125,9.634267480468749,9.897322709395393
1.9845809500124345,-1.3646949462890625,1.5897499023437498,9.533711010742186,9.761216250282322
1.9870678935588162,-1.1540052001953125,1.5227122558593749,9.548076220703125,9.737357964693434
1.9895548371051976,-0.9145850341796874,1.5179238525390624,9.5001921875,9.664067994705363
1.992041780651579,-0.737414111328125,1.4700398193359374,9.524134204101562,9.665088151680584
1.9945287241979606,-0.49799394531249996,1.5131354492187499,9.476250170898437,9.609208820641948
1.997015667744342,-0.28730419921875,1.4987702392578124,9.457096557617186,9.57943271979445
1.9995026112907235,-0.0526724365234375,1.5801730957031248,9.447519750976562,9.578901337995164
2.001989554837105,-0.27293898925781246,2.729389892578125,11.358092675781249,11.684619553464305
2.0044764983834864,-0.3064578125,2.7437551025390623,10.807426293945312,11.15448661089393
2.006963441929868,-0.36391865234375,2.7054478759765623,10.180145458984374,10.539793478110942
2.0094503854762498,-0.373495458984375,2.7150246826171873,9.490615380859374,9.878392490304636
2.011937329022631,-0.45010991210937495,2.6431986328124997,8.71489404296875,9.118030276636132
2.0144242725690127,-0.5363011718749999,2.6048914062499997,8.054094384765625,8.481834385557335
2.016911216115394,-0.59376201171875,2.5522189697265625,7.536946826171874,7.979470061134054
2.0193981596617756,-0.63206923828125,2.50912333984375,7.129932543945312,7.584929105650268
2.021885103208157,-0.689530078125,2.398990063476562,6.880935571289062,7.319691208618672
2.0243720467545385,-0.7661445312499999,2.346317626953125,6.938396411132812,7.364341695449493
2.02685899030092,-0.7900865478515624,2.27927998046875,7.144297753906249,7.540579843681221
2.0293459338473014,-0.7422025146484375,2.308010400390625,7.48906279296875,7.8717112560161056
2.031832877393683,-0.718260498046875,2.269703173828125,8.058882788085937,8.403156694507592
2.0343198209400644,-0.6847416748046875,2.2840683837890623,8.710105639648438,9.03060240498244
2.036806764486446,-0.622492431640625,2.24097275390625,9.423577734375,9.706352199822973
2.0392937080328277,-0.5985504150390625,2.3319524169921872,10.127473022460936,10.409705783312667
2.041780651579209,-0.51714755859375,2.403778466796875,10.769119067382812,11.046244520300275
2.0442675951255906,-0.45489831542968745,2.39420166015625,11.310208642578125,11.569786238540651
2.046754538671972,-0.38786066894531246,2.50912333984375,11.693280908203125,11.965740855927436
2.0492414822183536,-0.36391865234375,2.6048914062499997,11.903970654296874,12.191079253381956
2.0517284257647352,-0.277727392578125,2.6671406494140624,11.9518546875,12.24898372190366
2.0542153693111165,-0.28730419921875,2.729389892578125,11.750741748046874,12.06698158272764
2.056702312857498,-0.27293898925781246,2.73896669921875,11.3389390625,11.668246369286805
2.0591892564038794,-0.3016694091796875,2.767697119140625,10.874463940429687,11.225200121487353
2.061676199950261,-0.2920926025390625,2.767697119140625,10.218452685546874,10.59066762383361
2.0641631434966423,-0.38307226562499996,2.6958710693359373,9.495403784179686,9.878115114119062
2.066650087043024,-0.4261678955078125,2.6910826660156246,8.801085302734375,9.213177926019792
2.0691370305894057,-0.5219359619140624,2.6096798095703124,8.169016064453125,8.591604583435583
2.071623974135787,-0.5410895751953124,2.5474305664062498,7.64229169921875,8.07383445674939
2.0741109176821686,-0.63206923828125,2.4756045166015626,7.230489013671875,7.668643988439493
2.07659786122855,-0.7326257080078125,2.418143676757812,6.943184814453125,7.388638212629592
2.0790848047749315,-0.718260498046875,2.35589443359375,6.967126831054687,7.389654457773697
2.081571748321313,-0.7900865478515624,2.3032219970703123,7.110778930664062,7.516132337955506
2.0840586918676944,-0.7661445312499999,2.29843359375,7.48906279296875,7.871202954102487
2.086545635414076,-0.7805097412109374,2.288856787109375,7.982268334960937,8.340543664494652
2.0890325789604574,-0.7278373046875,2.2840683837890623,8.652644799804687,8.97858438482964
2.091519522506839,-0.6607996582031249,2.31758720703125,9.313444458007812,9.620193050187334
2.0940064660532203,-0.603338818359375,2.3511060302734372,10.002974536132811,10.293260749920252
2.096493409599602,-0.565031591796875,2.365471240234375,10.678139404296875,10.95159239680249
2.0989803531459836,-0.469263525390625,2.4660277099609376,11.195286962890624,11.473271159700968
2.101467296692365,-0.39264907226562495,2.5139117431640625,11.650185278320311,11.924795284010562
2.1039542402387466,-0.32082302246093747,2.5665841796874997,11.865663427734374,12.144309381081996
2.106441183785128,-0.3064578125,2.5905261962890624,11.89439384765625,12.177082875946317
2.1089281273315095,-0.258573779296875,2.6671406494140624,11.755530151367187,12.05707214802996
2.111415070877891,-0.24899697265624998,2.7246014892578123,11.468225952148437,11.790066126073627
2.1139020144242724,-0.24899697265624998,2.7437551025390623,10.97502041015625,11.315532005100218
2.116388957970654,-0.2537853759765625,2.7724855224609373,10.333374365234375,10.701855388735076
2.1188759015170353,-0.354341845703125,2.710236279296875,9.662997900390625,10.04213459659782
2.121362845063417,-0.4165910888671875,2.6862942626953124,8.968679418945312,9.371602612196407
2.1238497886097982,-0.469263525390625,2.6096798095703124,8.317456567382813,8.729875183245204
2.12633673215618,-0.5889736083984375,2.5665841796874997,7.742848168945312,8.178382604779005
2.1288236757025616,-0.6607996582031249,2.461239306640625,7.264007836914062,7.698062416451499
2.131310619248943,-0.70868369140625,2.43250888671875,7.015010864257812,7.45853266293619
2.1337975627953245,-0.7326257080078125,2.35589443359375,6.938396411132812,7.363988305822644
2.1362845063417057,-0.7948749511718749,2.3367408203125,7.101202124023437,7.5179289339252335
2.1387714498880874,-0.7422025146484375,2.31758720703125,7.3932947265625,7.783500623033459
2.141258393434469,-0.7661445312499999,2.2649147705078123,7.838616235351562,8.19516447946872
2.1437453369808503,-0.7709329345703124,2.2457611572265623,8.418013037109375,8.746469245235827
2.146232280527232,-0.7278373046875,2.308010400390625,9.121908325195312,9.437471623463225
2.1487192240736133,-0.6177040283203125,2.346317626953125,9.849745629882811,10.144173384093435
2.151206167619995,-0.5458779785156249,2.3367408203125,10.481814868164061,10.752989508002331
2.153693111166376,-0.5027823486328125,2.389413256835937,11.085153686523437,11.350890628311252
2.156180054712758,-0.37828386230468747,2.5043349365234375,11.5304751953125,11.805365321941071
2.1586669982591395,-0.32082302246093747,2.5617957763671875,11.8369330078125,12.115226289384559
2.161153941805521,-0.28730419921875,2.5857377929687497,11.918335864257811,12.198988212558024
2.1636408853519025,-0.239420166015625,2.6288334228515624,11.808202587890625,12.099658488472443
2.1661278288982837,-0.229843359375,2.70065947265625,11.511321582031249,11.826111538541953
2.1686147724446654,-0.2442085693359375,2.7150246826171873,11.0707884765625,11.401462816031401
2.171101715991047,-0.2825157958984375,2.7341782958984373,10.534487304687499,10.88719288436263
2.1735886595374283,-0.316034619140625,2.7246014892578123,9.82580361328125,10.20145812139285
2.17607560308381,-0.4070142822265625,2.6575638427734374,9.088389501953124,9.477717549260733
2.178562546630191,-0.4261678955078125,2.6479870361328124,8.480262280273436,8.894284836956674
2.181049490176573,-0.5458779785156249,2.4851813232421875,7.838616235351562,8.241238587854207
2.1835364337229546,-0.622492431640625,2.5330653564453125,7.417236743164062,7.862526173668123
2.186023377269336,-0.6943184814453125,2.461239306640625,7.077260107421875,7.5251171224330085
2.1885103208157175,-0.7422025146484375,2.418143676757812,7.0102224609374995,7.452617148762363
2.1909972643620987,-0.7565677246093749,2.3367408203125,6.9910688476562495,7.409979488224311
2.1934842079084804,-0.7709329345703124,2.327164013671875,7.283161450195312,7.684690666887358
2.1959711514548617,-0.8188169677734375,2.27927998046875,7.704540942382812,8.076232388244678
2.1984580950012433,-0.74699091796875,2.250549560546875,8.226476904296874,8.561418750004897
2.200945038547625,-0.699106884765625,2.29843359375,8.949525805664061,9.266367118102552
2.2034319820940063,-0.6703764648437499,2.2936451904296873,9.677363110351562,9.968027369233639
2.205918925640388,-0.5889736083984375,2.327164013671875,10.309432348632813,10.585224494972033
2.208405869186769,-0.5027823486328125,2.422932080078125,10.955866796875,11.231847898971768
2.210892812733151,-0.43574470214843747,2.422932080078125,11.420341918945311,11.682665913897463
2.2133797562795325,-0.3591302490234375,2.528276953125,11.731588134765625,12.006303304982772
2.2158666998259138,-0.277727392578125,2.5761609863281247,11.937489477539062,12.215457132601431
2.2183536433722955,-0.2059013427734375,2.6623522460937497,11.827356201171874,12.125051321732009
2.2208405869186767,-0.21068974609375,2.73896669921875,11.650185278320311,11.969676092849365
2.2233275304650584,-0.28730419921875,2.7150246826171873,11.152191333007812,11.481518813211249
2.2258144740114396,-0.21068974609375,2.7533319091796873,10.673351000976561,11.024774299787886
2.2283014175578213,-0.3016694091796875,2.6815058593749996,9.964667309570311,10.323568796531386
2.230788361104203,-0.3399766357421875,2.6958710693359373,9.313444458007812,9.701729361702968
2.233275304650584,-0.38786066894531246,2.6767174560546874,8.662221606445312,9.07465345879558
2.235762248196966,-0.5267243652343749,2.5857377929687497,7.967903124999999,8.393506936930667
2.238249191743347,-0.584185205078125,2.5474305664062498,7.474697583007812,7.918445478874996
2.240736135289729,-0.679953271484375,2.4660277099609376,7.1586629638671875,7.601978988917375
2.2432230788361105,-0.70868369140625,2.442085693359375,7.0102224609374995,7.457159919165495
2.2457100223824917,-0.7661445312499999,2.365471240234375,6.976703637695312,7.406539359199493
2.2481969659288734,-0.8188169677734375,2.31758720703125,7.187393383789062,7.59607104641889
2.2506839094752547,-0.7852981445312499,2.3032219970703123,7.613561279296874,7.992986932130031
2.2531708530216363,-0.7852981445312499,2.2649147705078123,8.164227661132813,8.508886260626289
2.2556577965680176,-0.74699091796875,2.3032219970703123,8.748412866210938,9.077309881071672
2.2581447401143993,-0.6751648681640625,2.31758720703125,9.447519750976562,9.751035201787047
2.260631683660781,-0.5985504150390625,2.3415292236328122,10.108319409179687,10.393225821777794
2.263118627207162,-0.5410895751953124,2.4133552734375,10.726023437499999,11.007481109954853
2.265605570753544,-0.44053310546874996,2.437297290039062,11.324573852539062,11.592258642674304
2.268092514299925,-0.3495534423828125,2.5665841796874997,11.702857714843748,11.986092801842545
2.2705794578463068,-0.316034619140625,2.5809493896484375,11.884817041015625,12.165938259371424
2.2730664013926885,-0.239420166015625,2.6815058593749996,11.899182250976562,12.199931718321748
2.2755533449390697,-0.2154781494140625,2.6862942626953124,11.693280908203125,11.999809419187137
2.2780402884854514,-0.22026655273437498,2.7437551025390623,11.348515869140625,11.677564893808093
2.2805272320318326,-0.2346317626953125,2.767697119140625,10.855310327148437,11.205041798496797
2.2830141755782143,-0.24899697265624998,2.7437551025390623,10.256759912109374,10.620325581155928
2.2855011191245955,-0.33039982910156246,2.6910826660156246,9.552864624023437,9.93017182566941
2.287988062670977,-0.4165910888671875,2.6719290527343746,8.901641772460938,9.303331620628766
2.290475006217359,-0.469263525390625,2.6671406494140624,8.231265307617187,8.665308769132302
2.29296194976374,-0.5506663818359374,2.5617957763671875,7.666233715820312,8.101677014635746
2.295448893310122,-0.6655880615234374,2.480392919921875,7.230489013671875,7.673025992505875
2.297935836856503,-0.70868369140625,2.427720483398437,7.029376074218749,7.4704877560154355
2.3004227804028847,-0.7517793212890624,2.360682836914062,6.9527616210937495,7.380981626055755
2.3029097239492664,-0.8044517578125,2.3319524169921872,7.1203557373046875,7.535556418177168
2.3053966674956476,-0.833182177734375,2.2649147705078123,7.493851196289062,7.87285445128269
2.3078836110420293,-0.7805097412109374,2.2649147705078123,7.934384301757812,8.288153510992085
2.3103705545884106,-0.74699091796875,2.269703173828125,8.542511523437499,8.870403094385042
2.3128574981347922,-0.679953271484375,2.327164013671875,9.203311181640624,9.517298225023897
2.315344441681174,-0.622492431640625,2.3223756103515623,9.907206469726562,10.19478618396666
2.317831385227555,-0.5219359619140624,2.35589443359375,10.577582934570312,10.849327927032636
2.320318328773937,-0.4836287353515625,2.4564509033203126,11.133037719726563,11.411072546563506
2.322805272320318,-0.4213794921875,2.4660277099609376,11.568782421875,11.836197872096232
2.3252922158666998,-0.33039982910156246,2.5617957763671875,11.81777939453125,12.096771117314344
2.327779159413081,-0.296881005859375,2.5809493896484375,11.908759057617187,12.18884655641977
2.3302661029594627,-0.2442085693359375,2.6862942626953124,11.793837377929687,12.098364136864879
2.3327530465058444,-0.2346317626953125,2.7150246826171873,11.496956372070311,11.815515939330547
2.3352399900522256,-0.239420166015625,2.6958710693359373,11.042058056640624,11.368908873088902
2.3377269335986073,-0.26336218261718747,2.7054478759765623,10.443507641601562,10.791462352667928
2.3402138771449885,-0.32082302246093747,2.6958710693359373,9.749189160156249,10.120145133086362
2.34270082069137,-0.4070142822265625,2.7054478759765623,9.102754711914063,9.505011950588814
2.345187764237752,-0.4740519287109375,2.6862942626953124,8.437166650390624,8.86716883697204
2.347674707784133,-0.5267243652343749,2.5665841796874997,7.848193041992187,8.273990991820591
2.350161651330515,-0.612915625,2.50912333984375,7.4028715332031245,7.840527561014436
2.352648594876896,-0.6943184814453125,2.4564509033203126,7.048529687499999,7.496532528420626
2.3551355384232777,-0.7278373046875,2.375048046875,6.976703637695312,7.405740612206892
2.357622481969659,-0.7565677246093749,2.35589443359375,7.067683300781249,7.488309591910631
2.3601094255160406,-0.7948749511718749,2.2649147705078123,7.287949853515625,7.67306185124448
2.3625963690624223,-0.8283937744140625,2.2840683837890623,7.742848168945312,8.115103350830015
2.3650833126088036,-0.7996633544921875,2.27927998046875,8.317456567382813,8.661100534007375
2.3675702561551852,-0.7326257080078125,2.2649147705078123,8.992621435546875,9.302355595694863
2.3700571997015665,-0.6464344482421874,2.3127988037109373,9.662997900390625,9.956929457682953
2.372544143247948,-0.6081272216796875,2.35589443359375,10.338162768554687,10.620624592231673
2.37503108679433,-0.45968671875,2.403778466796875,10.941501586914061,11.211865133566064
2.377518030340711,-0.43574470214843747,2.4660277099609376,11.415553515625,11.687002531866069
2.3800049738870928,-0.36391865234375,2.528276953125,11.702857714843748,11.97837634369135
2.382491917433474,-0.296881005859375,2.5713725830078125,11.903970654296874,12.182143187085165
2.3849788609798557,-0.3016694091796875,2.6001030029296874,11.827356201171874,12.113541792872866
2.387465804526237,-0.22026655273437498,2.6958710693359373,11.631031665039062,11.941404262894599
2.3899527480726186,-0.2059013427734375,2.7198130859375,11.200075366210937,11.527422382917953
2.3924396916190003,-0.229843359375,2.7054478759765623,10.658985791015624,10.999375176461063
2.3949266351653815,-0.32561142578124996,2.73896669921875,10.060435375976562,10.43169791233571
2.397413578711763,-0.33518823242187495,2.7054478759765623,9.327809667968749,9.71801587581701
2.3999005222581444,-0.44053310546874996,2.6479870361328124,8.652644799804687,9.059479388581249
2.402387465804526,-0.507570751953125,2.5713725830078125,8.054094384765625,8.469830068401354
2.404874409350908,-0.612915625,2.499546533203125,7.503428002929687,7.932517269452761
2.407361352897289,-0.6751648681640625,2.499546533203125,7.187393383789062,7.6395159613803765
2.4098482964436707,-0.7038952880859375,2.427720483398437,7.034164477539062,7.474541137700315
2.412335239990052,-0.7805097412109374,2.35589443359375,7.019799267578125,7.4456037898516705
2.4148221835364336,-0.7900865478515624,2.3319524169921872,7.225700610351562,7.633674615717298
2.417309127082815,-0.8188169677734375,2.27927998046875,7.589619262695312,7.966674275301774
2.4197960706291965,-0.7661445312499999,2.27927998046875,8.12113203125,8.469644628974976
2.4222830141755782,-0.7278373046875,2.308010400390625,8.743624462890624,9.072355146182574
2.4247699577219595,-0.689530078125,2.3319524169921872,9.428366137695312,9.736916443628054
2.427256901268341,-0.63206923828125,2.29843359375,10.17056865234375,10.44618472069575
2.4297438448147224,-0.507570751953125,2.446874096679687,10.740388647460938,11.027273879420429
2.432230788361104,-0.44532150878906246,2.4756045166015626,11.286266625976562,11.56316320569076
2.4347177319074857,-0.4261678955078125,2.5139117431640625,11.669338891601562,11.944657445679407
2.437204675453867,-0.32561142578124996,2.5761609863281247,11.851298217773437,12.13243164722877
2.4396916190002487,-0.316034619140625,2.6384102294921874,11.899182250976562,12.192277254948724
2.44217856254663,-0.22026655273437498,2.7198130859375,11.712434521484374,12.026097579711768
2.4446655060930116,-0.22026655273437498,2.7533319091796873,11.358092675781249,11.689124141183385
2.4471524496393933,-0.258573779296875,2.7581203125,10.855310327148437,11.203207146003349
2.4496393931857745,-0.2825157958984375,2.73896669921875,10.232817895507813,10.596806869854065
2.452126336732156,-0.33518823242187495,2.6815058593749996,9.5001921875,9.877068209972663
2.4546132802785374,-0.4213794921875,2.6527754394531247,8.86812294921875,9.265979864594039
2.457100223824919,-0.488417138671875,2.6623522460937497,8.25520732421875,8.687641725431806
2.4595871673713003,-0.5698199951171875,2.5617957763671875,7.675810522460937,8.112062598585526
2.462074110917682,-0.6512228515624999,2.461239306640625,7.283161450195312,7.715324415509765
2.4645610544640637,-0.7134720947265625,2.4660277099609376,7.034164477539062,7.4879773633018605
2.467047998010445,-0.7422025146484375,2.3511060302734372,6.976703637695312,7.399524159469283
2.4695349415568266,-0.8283937744140625,2.327164013671875,7.1586629638671875,7.572871583637287
2.472021885103208,-0.7996633544921875,2.2840683837890623,7.484274389648437,7.865798942376418
2.4745088286495895,-0.7852981445312499,2.24097275390625,7.905653881835937,8.254575419665265
2.4769957721959712,-0.7565677246093749,2.3032219970703123,8.552088330078124,8.889063004342336
2.4794827157423525,-0.6703764648437499,2.3367408203125,9.203311181640624,9.518965225907829
2.481969659288734,-0.63206923828125,2.3223756103515623,9.888052856445311,10.176764185604062
2.4844566028351154,-0.5267243652343749,2.384624853515625,10.572794531249999,10.851168529193796
2.486943546381497,-0.47884033203125,2.408566870117187,11.123460913085937,11.391306558791074
2.4894304899278783,-0.38307226562499996,2.518700146484375,11.6070896484375,11.883397026753606
2.49191743347426,-0.32082302246093747,2.5713725830078125,11.832144604492187,12.11257736049594
2.4944043770206417,-0.2537853759765625,2.6671406494140624,11.947066284179687,12.243791857892697
2.496891320567023,-0.22026655273437498,2.6767174560546874,11.812990991210937,12.11445788519784
2.4993782641134046,-0.22026655273437498,2.6958710693359373,11.482591162109374,11.796869837922612
2.501865207659786,-0.21068974609375,2.767697119140625,11.099518896484375,11.441322355646749
2.5043521512061675,-0.27293898925781246,2.7246014892578123,10.448296044921875,10.801149902184168
2.506839094752549,-0.3112462158203125,2.7533319091796873,9.787496386718749,10.172157899334934
2.5093260382989304,-0.411802685546875,2.6623522460937497,9.05965908203125,9.451725959671881
2.511812981845312,-0.49799394531249996,2.6001030029296874,8.437166650390624,8.842754926032704
2.5142999253916933,-0.5219359619140624,2.5857377929687497,7.8529814453124995,8.284188231972307
2.516786868938075,-0.603338818359375,2.5426421630859375,7.3932947265625,7.841546646743772
2.5192738124844563,-0.6751648681640625,2.4947581298828125,7.110778930664062,7.565899994488119
2.521760756030838,-0.7326257080078125,2.365471240234375,6.943184814453125,7.3715676747936305
2.5242476995772196,-0.814028564453125,2.308010400390625,7.024587670898437,7.438708655283874
2.526734643123601,-0.7613561279296874,2.3223756103515623,7.311891870117187,7.709530099129109
2.5292215866699825,-0.8092401611328125,2.2744915771484373,7.762001782226562,8.128767018447371
2.5317085302163638,-0.7757213378906249,2.2840683837890623,8.2743609375,8.618802753277828
2.5341954737627455,-0.6751648681640625,2.2553379638671873,8.963891015625,9.267887519303748
2.536682417309127,-0.6512228515624999,2.3319524169921872,9.672574707031249,9.970997680303288
2.5391693608555084,-0.5985504150390625,2.288856787109375,10.28549033203125,10.554072169620046
2.54165630440189,-0.49799394531249996,2.418143676757812,10.941501586914061,11.21658922255133
2.5441432479482713,-0.43574470214843747,2.4947581298828125,11.415553515625,11.693098547440927
2.546630191494653,-0.3399766357421875,2.5857377929687497,11.77947216796875,12.064724970043365
2.549117135041034,-0.296881005859375,2.5905261962890624,11.93270107421875,12.214267036214709
2.551604078587416,-0.36391865234375,3.9791631591796874,27.41360900878906,27.703287442461722
2.5540910221337976,0.181959326171875,4.161122485351562,25.009830541992187,25.354283134682483
2.556577965680179,0.612915625,4.165910888671875,21.4137396484375,21.823810960205556
2.5590649092265605,1.0103531005859374,4.060566015625,17.10417666015625,17.60857373488682
2.5615518527729417,1.16837041015625,3.7924154296875,12.363657373046875,12.984896143010035
2.5640387963193234,1.2018892333984375,3.5242648437499997,7.6470801025390625,8.50545792493856
2.566525739865705,1.1540052001953125,3.1555577880859373,3.294421484375,4.705580290754714
2.5690126834120863,0.9145850341796874,2.73896669921875,-0.3495534423828125,2.9087096749686774
2.571499626958468,0.584185205078125,2.3415292236328122,-3.1555577880859373,3.972603228729049
2.5739865705048492,0.22505495605468748,1.9584569580078124,-4.84586416015625,5.231501012931263
2.576473514051231,-0.17238251953125,1.6615759521484375,-5.305550878906249,5.562321503334808
2.5789604575976126,-0.6272808349609375,1.407790576171875,-4.687846850585937,4.934699955095155
2.581447401143994,-1.0486603271484374,1.254561669921875,-2.935291235351562,3.3599922770303996
2.5839343446903755,-1.3934253662109375,1.197100830078125,-0.316034619140625,1.8640178456949335
2.5864212882367568,-1.6472107421875,1.2737152832031249,2.916137622070312,3.583226546382046
2.5889082317831384,-1.7764976318359373,1.4173673828125,6.5026517089843745,6.888349104258353
2.5913951753295197,-1.8291700683593748,1.66636435546875,10.175357055664062,10.47189211720647
2.5938821188759014,-1.7621324218749999,1.9201497314453124,13.623007446289062,13.870054705913736
2.596369062422283,-1.608903515625,2.2361843505859373,16.582240698242188,16.80951508958053
2.5988560059686643,-1.407790576171875,2.5378537597656248,18.899827905273437,19.121351177708842
2.601342949515046,-1.0869675537109373,2.85388837890625,20.389021337890625,20.616458678905932
2.603829893061427,-0.7661445312499999,3.1076737548828124,20.93489931640625,21.178163824978277
2.606316836607809,-0.45010991210937495,3.299209887695312,20.594922680664062,20.862363841103353
2.6088037801541906,-0.1197100830078125,3.4524387939453125,19.36909143066406,19.67473931159791
2.611290723700572,0.1149216796875,3.5003228271484375,17.52555615234375,17.872061586053032
2.6137776672469535,0.38307226562499996,3.4811692138671875,15.059528442382812,15.461393221931994
2.6162646107933347,0.43574470214843747,3.356670727539062,12.243947290039062,12.703202630038732
2.6187515543397164,0.5363011718749999,3.2417490478515623,9.409212524414063,9.966435479437544
2.6212384978860976,0.43574470214843747,2.9496564453125,6.6702458251953125,7.306334646001338
2.6237254414324793,0.3447650390625,2.834734765625,4.261678955078125,5.129960198652477
2.626212384978861,0.13407529296874998,2.5330653564453125,2.3032219970703123,3.426255660629637
2.6286993285252422,-0.086191259765625,2.31758720703125,0.9864110839843749,2.5202472541522836
2.631186272071624,-0.37828386230468747,2.0446482177734375,0.32082302246093747,2.103951621750181
2.633673215618005,-0.6272808349609375,1.886630908203125,0.5410895751953124,2.0604939597294827
2.636160159164387,-0.82360537109375,1.7908628417968748,1.3024457031249999,2.3626003333217462
2.6386471027107685,-1.0486603271484374,1.6903063720703124,2.7437551025390623,3.3889550271294113
2.6411340462571498,-1.2114660400390624,1.7621324218749999,4.5968671875,5.069906170522797
2.6436209898035314,-1.2928688964843749,1.7238251953125,6.742071875,7.07803761329063
2.6461079333499127,-1.3072341064453123,1.89620771484375,9.05965908203125,9.347827950359278
2.6485948768962944,-1.2689268798828124,2.0446482177734375,11.3006318359375,11.554005437610689
2.6510818204426756,-1.1731588134765625,2.2266075439453124,13.306972827148437,13.542880364931928
2.6535687639890573,-0.9911994873046874,2.4133552734375,14.935029956054686,15.161196518999168
2.656055707535439,-0.8188169677734375,2.6479870361328124,16.074669946289063,16.31187636209795
2.65854265108182,-0.6368576416015624,2.7916391357421872,16.64927834472656,16.89370610967453
2.661029594628202,-0.411802685546875,2.9927520751953125,16.72589279785156,16.99651835878843
2.663516538174583,-0.21068974609375,3.0406361083984375,16.175226416015622,16.459884802822135
2.666003481720965,-0.06703764648437499,3.1651345947265623,15.112200878906249,15.440245673343279
2.6684904252673465,0.05746083984375,3.1699229980468746,13.723563916015625,14.08502467582603
2.6709773688137277,0.0909796630859375,3.0789433349609374,11.947066284179687,12.337769740012927
2.6734643123601094,0.1149216796875,3.0358477050781247,10.103531005859374,10.550398905598406
2.6759512559064906,0.076614453125,2.887407202148437,8.250418920898436,8.741418791921895
2.6784381994528723,-0.0143652099609375,2.7246014892578123,6.60799658203125,7.147676438022344
2.6809251429992536,-0.13407529296874998,2.6048914062499997,5.195417602539062,5.813415475201518
2.6834120865456352,-0.27293898925781246,2.461239306640625,4.11802685546875,4.805240867924494
2.685899030092017,-0.43574470214843747,2.3032219970703123,3.5386300537109374,4.244597468578765
2.688385973638398,-0.6847416748046875,2.1068974609374997,3.404554760742187,4.061881484116874
2.69087291718478,-0.7517793212890624,2.0973206542968748,3.768473413085937,4.3778211407038645
2.693359860731161,-0.9193734375,1.9680337646484374,4.582501977539062,5.0712650089032305
2.6958468042775428,-1.0103531005859374,1.9967641845703124,5.683834741210937,6.10850701579713
2.6983337478239244,-1.0103531005859374,2.039859814453125,7.091625317382812,7.448019273110753
2.7008206913703057,-1.0630255371093749,2.0254946044921875,8.585607153320312,8.885116874668478
2.7033076349166874,-1.0342951171875,2.1739351074218747,10.137049829101562,10.418998967194845
2.7057945784630686,-0.93852705078125,2.221819140625,11.597512841796874,11.845658168052088
2.7082815220094503,-0.7900865478515624,2.418143676757812,12.8329208984375,13.082641720237305
2.7107684655558315,-0.6847416748046875,2.4851813232421875,13.7522943359375,13.991804632457699
2.713255409102213,-0.5267243652343749,2.5905261962890624,14.322114331054687,14.564038706430077
2.715742352648595,-0.40222587890625,2.829946362304687,14.528015673828124,14.806539821652427
2.718229296194976,-0.277727392578125,2.896984008789062,14.326902734374999,14.61950036123019
2.720716239741358,-0.15322890625,2.887407202148437,13.795389965820311,14.09515461986086
2.723203183287739,-0.1005564697265625,2.96881005859375,12.899958544921875,13.237555485372448
2.7256901268341207,-0.09576806640624999,2.9544448486328125,11.702857714843748,12.070409876223508
2.7281770703805024,-0.0909796630859375,2.901772412109375,10.409988818359375,10.807239593399487
2.7306640139268836,-0.0718260498046875,2.887407202148437,9.117119921875,9.5636894032742
2.7331509574732653,-0.201112939453125,2.7150246826171873,7.800309008789062,8.261756839451996
2.7356379010196465,-0.32561142578124996,2.6479870361328124,6.6510922119140625,7.166232326370017
2.7381248445660282,-0.36391865234375,2.5474305664062498,5.884947680664062,6.422962593720898
2.74061178811241,-0.5363011718749999,2.384624853515625,5.3007624755859375,5.837134353562446
2.743098731658791,-0.6703764648437499,2.2649147705078123,5.027823486328125,5.5550204798860605
2.745585675205173,-0.74699091796875,2.1883003173828124,5.161898779296875,5.656134078882155
2.748072618751554,-0.8379705810546875,2.1547814941406247,5.5832782714843745,6.043035184328615
2.7505595622979357,-0.9097966308593749,2.1452046874999997,6.315903979492187,6.7320335812412795
2.753046505844317,-0.9193734375,2.1212626708984375,7.268796240234375,7.627607856895445
2.7555334493906987,-0.93852705078125,2.1164742675781247,8.336610180664062,8.652130700279567
2.7580203929370803,-0.842758984375,2.2026655273437497,9.504980590820312,9.793193256694373
2.7605073364834616,-0.82360537109375,2.2649147705078123,10.654197387695312,10.923373412134758
2.7629942800298433,-0.7230489013671875,2.3223756103515623,11.635820068359374,11.887326732809141
2.7654812235762245,-0.622492431640625,2.480392919921875,12.46900224609375,12.728545198793906
2.767968167122606,-0.4740519287109375,2.5809493896484375,13.019668627929686,13.281483206484797
2.770455110668988,-0.411802685546875,2.6479870361328124,13.287819213867186,13.555351572562365
2.772942054215369,-0.32561142578124996,2.6910826660156246,13.263877197265625,13.538034828588382
2.775428997761751,-0.2059013427734375,2.825157958984375,12.933477368164061,13.240043417186389
2.777915941308132,-0.19153613281249998,2.858676782226562,12.358868969726561,12.686621348739154
2.7804028848545137,-0.1484405029296875,2.868253588867187,11.554417211914062,11.906026639476979
2.782889828400895,-0.17238251953125,2.825157958984375,10.582371337890624,10.95435148054241
2.7853767719472766,-0.19632453613281248,2.825157958984375,9.562441430664062,9.97298084484178
2.7878637154936583,-0.316034619140625,2.7341782958984373,8.542511523437499,8.974971418468133
2.7903506590400395,-0.36391865234375,2.6623522460937497,7.651868505859374,8.109972126879764
2.792837602586421,-0.4165910888671875,2.5905261962890624,6.861781958007812,7.346320558498993
2.7953245461328025,-0.5746083984375,2.499546533203125,6.296750366210937,6.799042054405918
2.797811489679184,-0.7038952880859375,2.3367408203125,5.947196923828125,6.42845062893813
2.800298433225566,-0.7565677246093749,2.29843359375,5.980715747070312,6.451678274220899
2.802785376771947,-0.7661445312499999,2.231395947265625,6.2392895263671875,6.670445195792634
2.8052723203183287,-0.8379705810546875,2.1978771240234374,6.718129858398437,7.118014283585224
2.80775926386471,-0.8858546142578124,2.1452046874999997,7.398083129882812,7.753597587283628
2.8102462074110917,-0.833182177734375,2.1930887207031247,8.231265307617187,8.559062988584191
2.812733150957473,-0.7900865478515624,2.2026655273437497,9.126696728515624,9.42191940916193
2.8152200945038546,-0.737414111328125,2.2936451904296873,10.103531005859374,10.386815037225261
2.8177070380502363,-0.6416460449218749,2.31758720703125,10.951078393554686,11.212004195991861
2.8201939815966175,-0.5602431884765625,2.446874096679687,11.712434521484374,11.978405056404435
2.822680925142999,-0.47884033203125,2.5139117431640625,12.215216870117187,12.480407184863541
2.8251678686893804,-0.3399766357421875,2.6192566162109374,12.550405102539061,12.825317055428059
2.827654812235762,-0.3112462158203125,2.6623522460937497,12.650961572265624,12.931814350356426
2.8301417557821438,-0.22026655273437498,2.7437551025390623,12.521674682617187,12.820649214226979
2.832628699328525,-0.239420166015625,2.786850732421875,12.109871997070313,12.428711067770584
2.8351156428749067,-0.1580173095703125,2.8012159423828122,11.511321582031249,11.848303878231764
2.837602586421288,-0.2154781494140625,2.825157958984375,10.735600244140624,11.103200481306274
2.8400895299676696,-0.26815058593749996,2.7533319091796873,9.849745629882811,10.230846998770005
2.842576473514051,-0.296881005859375,2.729389892578125,9.011775048828124,9.420711069130018
2.8450634170604325,-0.411802685546875,2.6575638427734374,8.188169677734374,8.618488829348738
2.847550360606814,-0.5123591552734374,2.5953145996093747,7.45075556640625,7.906448525429846
2.8500373041531954,-0.5698199951171875,2.5234885498046875,6.87614716796875,7.346706007687756
2.852524247699577,-0.6368576416015624,2.4660277099609376,6.555324145507812,7.032720311134177
2.8550111912459584,-0.7230489013671875,2.370259643554687,6.430825659179687,6.891766765525089
2.85749813479234,-0.7613561279296874,2.29843359375,6.488286499023437,6.925339113128283
2.8599850783387217,-0.8092401611328125,2.269703173828125,6.861781958007812,7.272583706972183
2.862472021885103,-0.842758984375,2.221819140625,7.4028715332031245,7.774910284787959
2.8649589654314846,-0.7996633544921875,2.221819140625,8.111555224609374,8.448270233370435
2.867445908977866,-0.7757213378906249,2.2266075439453124,8.86812294921875,9.176226315390943
2.8699328525242476,-0.74699091796875,2.29843359375,9.730035546875,10.025686218900798
2.8724197960706292,-0.6655880615234374,2.3032219970703123,10.51533369140625,10.785178796712389
2.8749067396170105,-0.603338818359375,2.39420166015625,11.233594189453123,11.501732814343637
2.877393683163392,-0.4740519287109375,2.5139117431640625,11.81777939453125,12.091500622393408
2.8798806267097734,-0.4165910888671875,2.5522189697265625,12.152967626953124,12.425055007786739
2.882367570256155,-0.32082302246093747,2.6479870361328124,12.330138549804687,12.61535094290476
2.8848545138025363,-0.26336218261718747,2.6671406494140624,12.27746611328125,12.566589555076554
2.887341457348918,-0.22026655273437498,2.710236279296875,11.994950317382811,12.299297994615483
2.8898284008952997,-0.229843359375,2.77727392578125,11.463437548828125,11.797308119420961
2.892315344441681,-0.229843359375,2.7724855224609373,10.87925234375,11.229320349027992
2.8948022879880626,-0.27293898925781246,2.806004345703125,10.13226142578125,10.517170611924891
2.897289231534444,-0.3064578125,2.710236279296875,9.351751684570312,9.741383713329586
2.8997761750808255,-0.430956298828125,2.6815058593749996,8.52335791015625,8.945603784540493
2.902263118627207,-0.51714755859375,2.6192566162109374,7.843404638671874,8.28534508302845
2.9047500621735884,-0.603338818359375,2.6001030029296874,7.331045483398437,7.801844732833376
2.90723700571997,-0.6943184814453125,2.427720483398437,6.852205151367187,7.302644749377576
2.9097239492663514,-0.7038952880859375,2.403778466796875,6.7085530517578125,7.160887063924062
2.912210892812733,-0.7757213378906249,2.3367408203125,6.732495068359374,7.168583618878756
2.9146978363591143,-0.8283937744140625,2.31758720703125,6.938396411132812,7.361982848778145
2.917184779905496,-0.814028564453125,2.2601263671875,7.3837179199218745,7.764670245437162
2.9196717234518776,-0.7948749511718749,2.269703173828125,8.034940771484374,8.387112249549773
2.922158666998259,-0.7613561279296874,2.27927998046875,8.710105639648438,9.035525476514204
2.9246456105446406,-0.7134720947265625,2.2553379638671873,9.414000927734374,9.706647476270978
2.927132554091022,-0.679953271484375,2.31758720703125,10.189722265624999,10.472057427467206
2.9296194976374035,-0.5698199951171875,2.389413256835937,10.87925234375,11.15312163018805
2.932106441183785,-0.49799394531249996,2.4564509033203126,11.463437548828125,11.7342468631725
2.9345933847301664,-0.4165910888671875,2.5378537597656248,11.841721411132811,12.117780977561912
2.937080328276548,-0.32561142578124996,2.6479870361328124,12.090718383789062,12.381572161087682
2.9395672718229293,-0.277727392578125,2.70065947265625,12.081141577148436,12.382434166953637
2.942054215369311,-0.2154781494140625,2.6862942626953124,11.927912670898436,12.228561173876678
2.9445411589156922,-0.2442085693359375,2.73896669921875,11.468225952148437,11.793293979813159
2.947028102462074,-0.24899697265624998,2.729389892578125,10.97502041015625,11.312057358475771
2.9495150460084556,-0.3016694091796875,2.6767174560546874,10.304643945312499,10.650892338750225
2.952001989554837,-0.2920926025390625,2.767697119140625,9.619902270507811,10.014388904265637
2.9544889331012185,-0.38786066894531246,2.729389892578125,8.858546142578124,9.277599088363761
2.9569758766475998,-0.45968671875,2.6384102294921874,8.183381274414062,8.610473244887
2.9594628201939814,-0.565031591796875,2.5617957763671875,7.580042456054687,8.021165871314023
2.961949763740363,-0.622492431640625,2.4851813232421875,7.201758593749999,7.6438831675722
2.9644367072867444,-0.718260498046875,2.418143676757812,6.818686328125,7.270337009097799
2.966923650833126,-0.7613561279296874,2.39420166015625,6.809109521484374,7.257812150958455
2.9694105943795073,-0.7948749511718749,2.31758720703125,7.005434057617187,7.421532387978793
2.971897537925889,-0.852335791015625,2.269703173828125,7.321468676757812,7.7124530716677615
2.97438448147227,-0.7996633544921875,2.269703173828125,7.824251025390624,8.185958592988936
2.976871425018652,-0.7661445312499999,2.2170307373046874,8.48505068359375,8.803311185915945
2.9793583685650336,-0.7422025146484375,2.269703173828125,9.203311181640624,9.508067825596706
2.981845312111415,-0.6751648681640625,2.384624853515625,9.916783276367187,10.221784278766762
2.9843322556577965,-0.584185205078125,2.418143676757812,10.635043774414061,10.922126499861612
2.9868191992041777,-0.5027823486328125,2.4660277099609376,11.195286962890624,11.474690973523456
2.9893061427505594,-0.430956298828125,2.528276953125,11.702857714843748,11.980600418054202
2.991793086296941,-0.36391865234375,2.5713725830078125,11.927912670898436,12.207354112613734
2.9942800298433223,-0.2825157958984375,2.6623522460937497,12.081141577148436,12.374244076480679
2.996766973389704,-0.26336218261718747,2.7246014892578123,11.942277880859374,12.251971837143678
2.9992539169360852,-0.24899697265624998,2.7246014892578123,11.635820068359374,11.953148599046722
3.001740860482467,-2.375048046875,3.8690298828125,9.437942944335937,10.473061275462937
3.0042278040288486,-2.1978771240234374,3.754108203125,9.4618849609375,10.413993435137703
3.00671474757523,-2.0159177978515626,3.7014357666015623,9.509768994140625,10.401935282623633
3.0092016911216115,-1.7764976318359373,3.6200329101562496,9.509768994140625,10.329389547715365
3.0116886346679927,-1.5322890624999999,3.5003228271484375,9.495403784179686,10.235373109463449
3.0141755782143744,-1.2785036865234374,3.375824340820312,9.490615380859374,10.15394218832929
3.0166625217607557,-0.97683427734375,3.299209887695312,9.528922607421874,10.13110838687929
3.0191494653071373,-0.6607996582031249,3.1842882080078123,9.519345800781249,10.059537367831116
3.021636408853519,-0.411802685546875,3.0933085449218747,9.466673364257812,9.96775018705117
3.0241233523999003,-0.19632453613281248,2.987963671875,9.524134204101562,9.983766952692244
3.026610295946282,-0.023942016601562498,2.89219560546875,9.471461767578125,9.903229607312245
3.029097239492663,0.11013327636718749,2.834734765625,9.471461767578125,9.887185572482219
3.031584183039045,0.2154781494140625,2.7724855224609373,9.481038574218749,9.88044529618753
3.0340711265854265,0.229843359375,2.6815058593749996,9.428366137695312,9.804967601687975
3.036558070131808,0.26336218261718747,2.6815058593749996,9.4618849609375,9.83804352130598
3.0390450136781895,0.239420166015625,2.6240450195312497,9.428366137695312,9.78963851768089
3.0415319572245707,0.1197100830078125,2.528276953125,9.399635717773437,9.734457688157
3.0440189007709524,0.01915361328125,2.5043349365234375,9.471461767578125,9.79697138660146
3.0465058443173336,-0.105344873046875,2.5234885498046875,9.457096557617186,9.788552870744862
3.0489927878637153,-0.3016694091796875,2.408566870117187,9.3852705078125,9.694096208779651
3.051479731410097,-0.469263525390625,2.408566870117187,9.447519750976562,9.760995444583529
3.0539666749564782,-0.63206923828125,2.31758720703125,9.471461767578125,9.771351492954825
3.05645361850286,-0.7805097412109374,2.2936451904296873,9.471461767578125,9.776430418634428
3.058940562049241,-0.928950244140625,2.212242333984375,9.4618849609375,9.761364234284919
3.061427505595623,-1.1013327636718748,2.1499930908203124,9.509768994140625,9.811784265302139
3.0639144491420045,-1.20667763671875,2.1116858642578125,9.548076220703125,9.852971512423036
3.0664013926883857,-1.254561669921875,2.0781670410156248,9.509768994140625,9.8147037426465
3.0688883362347674,-1.3407529296874998,1.93451494140625,9.504980590820312,9.792069368058035
3.0713752797811487,-1.3455413330078123,1.9823989746093749,9.533711010742186,9.830159348134268
3.0738622233275303,-1.3646949462890625,1.915361328125,9.495403784179686,9.782315387387465
3.0763491668739116,-1.2401964599609374,1.8626888916015625,9.514557397460937,9.774175138382478
3.0788361104202933,-1.1540052001953125,1.8148048583984373,9.466673364257812,9.707891082088462
3.081323053966675,-1.0199299072265624,1.848323681640625,9.504980590820312,9.736591471333261
3.083809997513056,-0.93852705078125,1.848323681640625,9.5001921875,9.723722798218681
3.086296941059438,-0.737414111328125,1.848323681640625,9.471461767578125,9.678257488742153
3.088783884605819,-0.584185205078125,1.9536685546875,9.476250170898437,9.693163079039762
3.091270828152201,-0.47884033203125,1.9632453613281249,9.404424121093749,9.619085895331537
3.0937577716985825,-0.22505495605468748,2.0733786376953125,9.423577734375,9.651599143370197
3.0962447152449637,-0.0430956298828125,2.212242333984375,9.447519750976562,9.703169730695217
3.0987316587913454,0.0909796630859375,2.2170307373046874,9.399635717773437,9.657983962302442
3.1012186023377266,0.2537853759765625,2.39420166015625,9.409212524414063,9.712357537495464
3.1037055458841083,0.3495534423828125,2.499546533203125,9.351751684570312,9.686339868629073
3.1061924894304895,0.4836287353515625,2.6719290527343746,9.390058911132812,9.774779177610535
3.108679432976871,0.5123591552734374,2.786850732421875,9.375693701171874,9.794523024986303
3.111166376523253,0.51714755859375,2.906560815429687,9.332598071289063,9.788407640233373
3.113653320069634,0.488417138671875,3.0358477050781247,9.351751684570312,9.844296935771503
3.116140263616016,0.4261678955078125,3.1220389648437497,9.327809667968749,9.845647747863797
3.118627207162397,0.37828386230468747,3.2034418212890623,9.370905297851563,9.910550150428906
3.1211141507087787,0.2442085693359375,3.303998291015625,9.34696328125,9.916741658095518
3.1236010942551604,0.1149216796875,3.361459130859375,9.327809667968749,9.915676864579206
3.1260880378015417,-0.086191259765625,3.399766357421875,9.390058911132812,9.986943805432286
3.1285749813479233,-0.24899697265624998,3.404554760742187,9.394847314453125,9.995806554409272
3.1310619248943046,-0.47884033203125,3.399766357421875,9.442731347656249,10.047530773908951
3.1335488684406863,-0.7038952880859375,3.318363500976562,9.375693701171874,9.97048831699817
3.136035811987068,-0.852335791015625,3.2417490478515623,9.418789331054686,9.997449957498278
3.138522755533449,-1.0295067138671874,3.1747114013671873,9.447519750976562,10.01969590361707
3.141009699079831,-1.2401964599609374,3.1220389648437497,9.457096557617186,10.036029586315353
3.143496642626212,-1.3455413330078123,3.0119056884765625,9.514557397460937,10.07019661301052
3.1459835861725938,-1.4987702392578124,2.7964275390625,9.471461767578125,9.988739020817704
3.148470529718975,-1.656787548828125,2.6527754394531247,9.548076220703125,10.04728431121933
3.1509574732653567,-1.714248388671875,2.4851813232421875,9.552864624023437,10.01858254806409
3.1534444168117384,-1.7094599853515624,2.308010400390625,9.552864624023437,9.975288866732026
3.1559313603581196,-1.7334020019531249,2.1835119140624997,9.605537060546874,10.001937262389095
3.1584183039045013,-1.6998831787109374,2.020706201171875,9.591171850585937,9.948036682692265
3.1609052474508825,-1.6136919189453125,1.9393033447265624,9.581595043945311,9.908171509329781
3.163392190997264,-1.5083470458984374,1.7381904052734374,9.567229833984374,9.84013736652776
3.165879134543646,-1.369483349609375,1.6807295654296874,9.581595043945311,9.82381291063323
3.168366078090027,-1.1827356201171875,1.6711527587890624,9.595960253906249,9.811934991878552
3.170853021636409,-0.9959878906249999,1.5466542724609373,9.576806640625,9.751889906511066
3.17333996518279,-0.852335791015625,1.5897499023437498,9.524134204101562,9.693446930291902
3.1758269087291717,-0.565031591796875,1.5610194824218748,9.533711010742186,9.6771735625944
3.178313852275553,-0.4070142822265625,1.5801730957031248,9.490615380859374,9.62986957054585
3.1808007958219346,-0.143652099609375,1.6232687255859375,9.442731347656249,9.58231770425076
3.1832877393683163,0.028730419921875,1.7286135986328124,9.4618849609375,9.618534057974864
3.1857746829146976,0.2154781494140625,1.8770541015625,9.447519750976562,9.634593524283199
3.1882616264610792,0.3495534423828125,1.9488801513671874,9.394847314453125,9.601222709392891
3.1907485700074605,0.49320554199218747,2.0925322509765625,9.342174877929686,9.586353549595872
3.193235513553842,0.5985504150390625,2.288856787109375,9.380482104492186,9.674222061950937
3.195722457100224,0.6943184814453125,2.43250888671875,9.332598071289063,9.669362150518024
3.198209400646605,0.6943184814453125,2.5761609863281247,9.327809667968749,9.701892433077521
3.2006963441929868,0.7134720947265625,2.7820623291015623,9.3086560546875,9.74166262900896
3.203183287739368,0.6847416748046875,2.906560815429687,9.318232861328125,9.785010505509995
3.2056702312857497,0.603338818359375,3.1124621582031247,9.327809667968749,9.85187655311601
3.208157174832131,0.488417138671875,3.227383837890625,9.313444458007812,9.868880656428187
3.2106441183785126,0.354341845703125,3.35188232421875,9.332598071289063,9.922603489974529
3.2131310619248943,0.17238251953125,3.4524387939453125,9.370905297851563,9.988138738537875
