Time (s),Acceleration x (m/s^2),Acceleration y (m/s^2),Acceleration z (m/s^2),Absolute acceleration (m/s^2)
0.0,1.3407529296874998,0.7326257080078125,17.48724892578125,17.55386663498208
0.002486943546381497,0.7852981445312499,0.7948749511718749,14.475343237304687,14.518404912440872
0.004973887092762994,0.17238251953125,0.9864110839843749,11.195286962890624,11.239980993805814
0.007460830639144491,-0.44532150878906246,1.2641384765625,7.963114721679687,8.075119404983909
0.009947774185525988,-1.0486603271484374,1.6041151123046875,5.032611889648437,5.385170025829282
0.012434717731907486,-1.5897499023437498,2.0063409912109376,2.6431986328124997,3.6795662702983236
0.014921661278288981,-2.039859814453125,2.418143676757812,0.9720458740234375,3.3095800466630982
0.01740860482467048,-2.375048046875,2.806004345703125,0.09576806640624999,3.677456340408784
0.019895548371051976,-2.5809493896484375,3.1459809814453124,0.0383072265625,4.069393509007106
0.022382491917433474,-2.6671406494140624,3.414131567382812,0.7805097412109374,4.4021732200450545
0.02486943546381497,-2.6192566162109374,3.5960908935546874,2.1978771240234374,4.962160697576939
0.027356379010196465,-2.442085693359375,3.7014357666015623,4.146757275390625,6.071244120358933
0.029843322556577963,-2.1547814941406247,3.7205893798828122,6.440402465820312,7.743684687726639
0.032330266102959464,-1.7860744384765623,3.6439749267578123,8.853757739257812,9.739488758250435
0.03481720964934096,-1.35990654296875,3.5003228271484375,11.195286962890624,11.808304530343653
0.03730415319572245,-0.8906430175781249,3.308786694335937,13.263877197265625,13.699334023138434
0.03979109674210395,-0.43574470214843747,3.0693665283203124,14.896722729492186,15.215887499912473
0.04227804028848545,-0.0143652099609375,2.7964275390625,16.007632299804687,16.250061697920863
0.04476498383486695,0.354341845703125,2.5474305664062498,16.49126103515625,16.69061566162075
0.04725192738124844,0.6607996582031249,2.308010400390625,16.347608935546873,16.52295028456373
0.04973887092762994,0.8858546142578124,2.0973206542968748,15.634136840820311,15.799041967221841
0.05222581447401144,1.0007762939453124,1.924938134765625,14.446612817382812,14.608612593554776
0.05471275802039293,1.0342951171875,1.8148048583984373,12.919112158203124,13.086891992361526
0.05719970156677443,0.967257470703125,1.7621324218749999,11.176133349609374,11.355468036814022
0.059686645113155926,0.7996633544921875,1.7573440185546874,9.390058911132812,9.586497057560303
0.062173588659537427,0.5602431884765625,1.8100164550781248,7.723694555664062,7.952703288007333
0.06466053220591893,0.26815058593749996,1.9105729248046874,6.277596752929687,6.567375018234356
0.06714747575230041,-0.0526724365234375,2.0446482177734375,5.176263989257812,5.565704771769754
0.06963441929868192,-0.38307226562499996,2.1930887207031247,4.510675927734375,5.030166977607076
0.07212136284506342,-0.718260498046875,2.3511060302734372,4.309562988281249,4.961444432683518
0.0746083063914449,-1.01514150390625,2.5139117431640625,4.53940634765625,5.287388250782524
0.0770952499378264,-1.2737152832031249,2.6671406494140624,5.1714755859374995,5.956521602610846
0.0795821934842079,-1.4796166259765624,2.7820623291015623,6.124367846679687,6.887453642988551
0.0820691370305894,-1.62805712890625,2.877830395507812,7.292738256835937,8.00727850664691
0.0845560805769709,-1.6903063720703124,2.9544448486328125,8.590395556640624,9.2401718498427
0.0870430241233524,-1.6711527587890624,2.978386865234375,9.90241806640625,10.474799445531062
0.0895299676697339,-1.599326708984375,2.9831752685546875,11.104307299804686,11.608739001867635
0.09201691121611538,-1.4604630126953124,2.9544448486328125,12.095506787109374,12.536466049572063
0.09450385476249688,-1.2641384765625,2.887407202148437,12.804190478515624,13.186449872845026
0.09699079830887838,-1.0390835205078124,2.8107927490234372,13.196839550781249,13.532805495152063
0.09947774185525989,-0.7948749511718749,2.7198130859375,13.273454003906249,13.572538104726476
0.10196468540164137,-0.5410895751953124,2.6240450195312497,13.034033837890624,13.306555838389945
0.10445162894802287,-0.3064578125,2.5330653564453125,12.492944262695312,12.750842828679108
0.10693857249440437,-0.09576806640624999,2.437297290039062,11.741164941406248,11.991853225581195
0.10942551604078586,0.086191259765625,2.370259643554687,10.836156713867187,11.092693633135863
0.11191245958716736,0.22026655273437498,2.327164013671875,9.854534033203125,10.127983546212025
0.11439940313354886,0.3064578125,2.29843359375,8.90643017578125,9.20332612981783
0.11688634667993036,0.33518823242187495,2.288856787109375,8.054094384765625,8.379716755461603
0.11937329022631185,0.3064578125,2.3032219970703123,7.369352709960937,7.726972713970165
0.12186023377269335,0.229843359375,2.327164013671875,6.900089184570312,7.285585156416907
0.12434717731907485,0.1149216796875,2.375048046875,6.6702458251953125,7.081400962095173
0.12683412086545634,-0.0383072265625,2.43250888671875,6.6893994384765625,7.118049717096892
0.12932106441183785,-0.2154781494140625,2.4899697265625,6.928819604492187,7.365793995467691
0.13180800795821934,-0.39264907226562495,2.5474305664062498,7.378929516601562,7.816148450201396
0.13429495150460083,-0.5746083984375,2.6048914062499997,7.987056738281249,8.420730929701644
0.13678189505098234,-0.7613561279296874,2.6479870361328124,8.671798413085938,9.09898819728124
0.13926883859736383,-0.9145850341796874,2.6815058593749996,9.3852705078125,9.80358311860633
0.14175578214374532,-1.0295067138671874,2.7054478759765623,10.060435375976562,10.468605076022515
0.14424272569012683,-1.120486376953125,2.7054478759765623,10.654197387695312,11.049292280799584
0.14672966923650832,-1.1635820068359375,2.6958710693359373,11.109095703125,11.490589682444726
0.1492166127828898,-1.158793603515625,2.6910826660156246,11.386823095703125,11.757740801009206
0.15170355632927132,-1.13006318359375,2.6575638427734374,11.506533178710937,11.863388814757206
0.1541904998756528,-1.0678139404296874,2.6240450195312497,11.473014355468749,11.8176096261763
0.15667744342203432,-0.9720458740234375,2.5857377929687497,11.262324609375,11.596157498159751
0.1591643869684158,-0.852335791015625,2.5426421630859375,10.912771166992187,11.237440990425025
0.1616513305147973,-0.70868369140625,2.499546533203125,10.457872851562499,10.77576308321415
0.1641382740611788,-0.5698199951171875,2.461239306640625,9.935936889648437,10.252084452757147
0.1666252176075603,-0.430956298828125,2.442085693359375,9.414000927734374,9.735138382816848
0.1691121611539418,-0.3016694091796875,2.4133552734375,8.916006982421875,9.241778433767985
0.1715991047003233,-0.201112939453125,2.39420166015625,8.48505068359375,8.818658237343433
0.1740860482467048,-0.1197100830078125,2.398990063476562,8.169016064453125,8.514828670614943
0.17657299179308628,-0.06703764648437499,2.408566870117187,7.991845141601562,8.347171807337666
0.1790599353394678,-0.0383072265625,2.422932080078125,7.943961108398437,8.305334755446378
0.18154687888584928,-0.0430956298828125,2.442085693359375,8.030152368164062,8.393389471659017
0.18403382243223076,-0.076614453125,2.461239306640625,8.226476904296874,8.587111910060933
0.18652076597861228,-0.1292868896484375,2.480392919921875,8.52335791015625,8.877876671910725
0.18900770952499377,-0.2059013427734375,2.50912333984375,8.877699755859375,9.2277650735533
0.19149465307137528,-0.3064578125,2.5330653564453125,9.251195214843749,9.59661134953446
0.19398159661775677,-0.411802685546875,2.5570073730468748,9.629479077148437,9.971696718958073
0.19646854016413826,-0.5027823486328125,2.5761609863281247,9.97903251953125,10.318453641095552
0.19895548371051977,-0.5985504150390625,2.5857377929687497,10.275913525390624,10.613138146403085
0.20144242725690126,-0.689530078125,2.5953145996093747,10.491391674804687,10.829607974148729
0.20392937080328274,-0.7661445312499999,2.5953145996093747,10.587159741210938,10.92751512008231
0.20641631434966426,-0.8188169677734375,2.5953145996093747,10.587159741210938,10.931334341404845
0.20890325789604575,-0.86191259765625,2.5953145996093747,10.496180078124999,10.846582292564428
0.21139020144242723,-0.8810662109374999,2.5905261962890624,10.333374365234375,10.689514928835573
0.21387714498880875,-0.86191259765625,2.5761609863281247,10.098742602539062,10.457729242326705
0.21636408853519024,-0.82360537109375,2.5570073730468748,9.830592016601562,10.191032916735228
0.21885103208157172,-0.7900865478515624,2.5426421630859375,9.562441430664062,9.926205319127693
0.22133797562795324,-0.7326257080078125,2.528276953125,9.279925634765624,9.646032581663672
0.22382491917433472,-0.6607996582031249,2.5234885498046875,9.030928662109375,9.400123570963595
0.22631186272071624,-0.5889736083984375,2.50912333984375,8.834604125976561,9.202870199489972
0.22879880626709773,-0.5123591552734374,2.4947581298828125,8.690952026367187,9.05643291562549
0.2312857498134792,-0.44532150878906246,2.4899697265625,8.633491186523438,8.99641209333842
0.23377269335986073,-0.37828386230468747,2.4851813232421875,8.652644799804687,9.01040991972391
0.23625963690624222,-0.33039982910156246,2.480392919921875,8.734047656249999,9.08543348145343
0.2387465804526237,-0.3064578125,2.480392919921875,8.877699755859375,9.222787994051822
0.24123352399900522,-0.296881005859375,2.4899697265625,9.069235888671875,9.409523217209879
0.2437204675453867,-0.28730419921875,2.5043349365234375,9.270348828125,9.606956051335883
0.2462074110917682,-0.3016694091796875,2.518700146484375,9.481038574218749,9.814527360304169
0.2486943546381497,-0.3447650390625,2.5330653564453125,9.6917283203125,10.023217091679225
0.2511812981845312,-0.38307226562499996,2.5426421630859375,9.873687646484374,10.203013342661643
0.2536682417309127,-0.4261678955078125,2.5426421630859375,10.007762939453125,10.334503727656948
0.2561551852772942,-0.47884033203125,2.5378537597656248,10.098742602539062,10.423751336341143
0.2586421288236757,-0.5363011718749999,2.5474305664062498,10.13226142578125,10.461345183005388
0.26112907237005717,-0.584185205078125,2.5617957763671875,10.09395419921875,10.430339463774455
0.2636160159164387,-0.63206923828125,2.5665841796874997,10.022128149414062,10.364840496441868
0.2661029594628202,-0.679953271484375,2.5617957763671875,9.916783276367187,10.264878206859105
0.26858990300920166,-0.699106884765625,2.5617957763671875,9.7683427734375,10.122848836938546
0.2710768465555832,-0.718260498046875,2.5522189697265625,9.610325463867188,9.96935681646217
0.2735637901019647,-0.737414111328125,2.5378537597656248,9.447519750976562,9.810204417984094
0.27605073364834615,-0.7230489013671875,2.5330653564453125,9.279925634765624,9.646566207753507
0.27853767719472766,-0.6943184814453125,2.5378537597656248,9.150638745117186,9.521395344342807
0.2810246207411092,-0.6751648681640625,2.518700146484375,9.05965908203125,9.427466293216577
0.28351156428749064,-0.6464344482421874,2.5139117431640625,9.026140258789061,9.391956011376173
0.28599850783387215,-0.5985504150390625,2.5139117431640625,9.02135185546875,9.384178395146325
0.28848545138025367,-0.5458779785156249,2.5043349365234375,9.035717065429687,9.392223332535137
0.2909723949266351,-0.5027823486328125,2.4899697265625,9.093177905273437,9.441325317255384
0.29345933847301664,-0.469263525390625,2.4947581298828125,9.179369165039063,9.523909105558934
0.29594628201939815,-0.4261678955078125,2.4947581298828125,9.279925634765624,9.618859443227045
0.2984332255657796,-0.40222587890625,2.4947581298828125,9.394847314453125,9.728759419687867
0.30092016911216113,-0.37828386230468747,2.5043349365234375,9.504980590820312,9.83663805304652
0.30340711265854264,-0.36391865234375,2.5139117431640625,9.6151138671875,9.944978819330045
0.30589405620492416,-0.3687070556640625,2.518700146484375,9.706093530273437,10.034343373595142
0.3083809997513056,-0.3687070556640625,2.5330653564453125,9.758765966796874,10.088898759906
0.31086794329768713,-0.37828386230468747,2.5330653564453125,9.797073193359374,10.126310381207185
0.31335488684406865,-0.40222587890625,2.528276953125,9.811438403320311,10.139935579258555
0.3158418303904501,-0.430956298828125,2.5234885498046875,9.773131176757811,10.102861514967456
0.3183287739368316,-0.4644751220703125,2.5426421630859375,9.706093530273437,10.044352538961405
0.32081571748321314,-0.49799394531249996,2.5426421630859375,9.648632690429688,9.990452438898785
0.3233026610295946,-0.5315127685546874,2.5234885498046875,9.572018237304688,9.913326052310879
0.3257896045759761,-0.5602431884765625,2.528276953125,9.485826977539062,9.832953281173733
0.3282765481223576,-0.5889736083984375,2.528276953125,9.409212524414063,9.760755841259598
0.3307634916687391,-0.612915625,2.518700146484375,9.356540087890625,9.708983386924393
0.3332504352151206,-0.622492431640625,2.5139117431640625,9.299079248046874,9.65298523469937
0.3357373787615021,-0.6464344482421874,2.518700146484375,9.270348828125,9.628140802818224
0.3382243223078836,-0.6512228515624999,2.518700146484375,9.255983618164063,9.614633345584172
0.3407112658542651,-0.6368576416015624,2.518700146484375,9.241618408203124,9.599841086518337
0.3431982094006466,-0.6368576416015624,2.5234885498046875,9.265560424804686,9.624146305120702
0.34568515294702806,-0.6177040283203125,2.518700146484375,9.299079248046874,9.653925810568444
0.3481720964934096,-0.5985504150390625,2.5234885498046875,9.34696328125,9.700102042833084
0.3506590400397911,-0.5746083984375,2.5330653564453125,9.409212524414063,9.761141082945619
0.35314598358617255,-0.5458779785156249,2.5234885498046875,9.476250170898437,9.821674731423167
0.35563292713255407,-0.51714755859375,2.5330653564453125,9.543287817382812,9.887274855226291
0.3581198706789356,-0.49799394531249996,2.5330653564453125,9.6151138671875,9.955643261415743
0.36060681422531704,-0.488417138671875,2.5234885498046875,9.65342109375,9.989748974603978
0.36309375777169856,-0.47884033203125,2.5378537597656248,9.648632690429688,9.988298281707687
0.36558070131808007,-0.469263525390625,2.5426421630859375,9.648632690429688,9.989061528521725
0.36806764486446153,-0.469263525390625,2.5617957763671875,9.634267480468749,9.980085958612403
0.37055458841084304,-0.45489831542968745,2.5617957763671875,9.595960253906249,9.942443526203306
0.37304153195722456,-0.45968671875,2.5617957763671875,9.552864624023437,9.901077315329193
0.3755284755036061,-0.469263525390625,2.5665841796874997,9.514557397460937,9.865818013589285
0.37801541904998753,-0.469263525390625,2.5665841796874997,9.476250170898437,9.828879890869398
0.38050236259636905,-0.4836287353515625,2.5761609863281247,9.437942944335937,9.795165603586156
0.38298930614275056,-0.5027823486328125,2.5713725830078125,9.409212524414063,9.767191376252
0.385476249689132,-0.51714755859375,2.5665841796874997,9.375693701171874,9.734394091415016
0.38796319323551354,-0.5315127685546874,2.5665841796874997,9.351751684570312,9.712112012555378
0.39045013678189505,-0.5363011718749999,2.5570073730468748,9.332598071289063,9.691403015714439
0.3929370803282765,-0.5458779785156249,2.5426421630859375,9.332598071289063,9.688157652369153
0.395424023874658,-0.565031591796875,2.5522189697265625,9.356540087890625,9.71483014702084
0.39791096742103954,-0.5698199951171875,2.5522189697265625,9.380482104492186,9.738170311150121
0.400397910967421,-0.5698199951171875,2.5426421630859375,9.414000927734374,9.767964857825879
0.4028848545138025,-0.5602431884765625,2.5474305664062498,9.452308154296874,9.805580266597303
0.40537179806018403,-0.55545478515625,2.5474305664062498,9.490615380859374,9.842241249655403
0.4078587416065655,-0.55545478515625,2.5426421630859375,9.519345800781249,9.868713374230042
0.410345685152947,-0.5458779785156249,2.5474305664062498,9.533711010742186,9.88327025303042
0.4128326286993285,-0.5363011718749999,2.5474305664062498,9.552864624023437,9.901224366841396
0.41531957224571,-0.5315127685546874,2.5378537597656248,9.562441430664062,9.907749171430096
0.4178065157920915,-0.51714755859375,2.5330653564453125,9.562441430664062,9.905763363429568
0.420293459338473,-0.507570751953125,2.5330653564453125,9.562441430664062,9.905268006628708
0.42278040288485447,-0.49320554199218747,2.5330653564453125,9.557653027343749,9.899919353094162
0.425267346431236,-0.49320554199218747,2.5234885498046875,9.543287817382812,9.883602001955277
0.4277542899776175,-0.488417138671875,2.5139117431640625,9.519345800781249,9.857801379040774
0.43024123352399896,-0.47884033203125,2.5139117431640625,9.5001921875,9.838835902454822
0.43272817707038047,-0.488417138671875,2.50912333984375,9.481038574218749,9.819589791927203
0.435215120616762,-0.49320554199218747,2.50912333984375,9.442731347656249,9.782848610972698
0.43770206416314344,-0.49320554199218747,2.5043349365234375,9.409212524414063,9.749267947417083
0.44018900770952496,-0.507570751953125,2.5043349365234375,9.394847314453125,9.736142850452493
0.4426759512559065,-0.5267243652343749,2.50912333984375,9.409212524414063,9.75225198716023
0.445162894802288,-0.5363011718749999,2.5139117431640625,9.404424121093749,9.749387890979751
0.44764983834866945,-0.5410895751953124,2.50912333984375,9.390058911132812,9.734561326401844
0.45013678189505096,-0.5458779785156249,2.499546533203125,9.409212524414063,9.750845910415492
0.4526237254414325,-0.55545478515625,2.5043349365234375,9.428366137695312,9.771095717425167
0.45511066898781394,-0.55545478515625,2.50912333984375,9.437942944335937,9.781564137367916
0.45759761253419545,-0.565031591796875,2.5139117431640625,9.447519750976562,9.792580987525145
0.46008455608057697,-0.5746083984375,2.5139117431640625,9.471461767578125,9.816237317764237
0.4625714996269584,-0.584185205078125,2.518700146484375,9.504980590820312,9.850369475994462
0.46505844317333994,-0.5746083984375,2.518700146484375,9.524134204101562,9.868290509363444
0.46754538671972146,-0.5602431884765625,2.518700146484375,9.524134204101562,9.867464476544727
0.4700323302661029,-0.565031591796875,2.5234885498046875,9.514557397460937,9.859718942764166
0.47251927381248443,-0.5602431884765625,2.5234885498046875,9.519345800781249,9.864066674859885
0.47500621735886595,-0.5410895751953124,2.528276953125,9.509768994140625,9.854981917893431
0.4774931609052474,-0.5363011718749999,2.5378537597656248,9.490615380859374,9.838704231773386
0.4799801044516289,-0.5315127685546874,2.5330653564453125,9.485826977539062,9.832590674434076
0.48246704799801043,-0.51714755859375,2.5330653564453125,9.490615380859374,9.836444581493225
0.4849539915443919,-0.5123591552734374,2.5330653564453125,9.481038574218749,9.82695397617389
0.4874409350907734,-0.507570751953125,2.528276953125,9.466673364257812,9.81161133583519
0.4899278786371549,-0.5027823486328125,2.5234885498046875,9.466673364257812,9.810131963263307
0.4924148221835364,-0.49799394531249996,2.5234885498046875,9.452308154296874,9.796025820420772
0.4949017657299179,-0.49320554199218747,2.518700146484375,9.437942944335937,9.780688582870468
0.4973887092762994,-0.488417138671875,2.518700146484375,9.447519750976562,9.789690044855409
0.49987565282268087,-0.49320554199218747,2.5234885498046875,9.447519750976562,9.791163138909464
0.5023625963690624,-0.507570751953125,2.528276953125,9.452308154296874,9.797751878044702
0.5048495399154439,-0.5123591552734374,2.5234885498046875,9.457096557617186,9.801386721535005
0.5073364834618254,-0.507570751953125,2.5234885498046875,9.457096557617186,9.801137578328776
0.5098234270082069,-0.5219359619140624,2.5330653564453125,9.457096557617186,9.80436191439593
0.5123103705545884,-0.5267243652343749,2.5330653564453125,9.457096557617186,9.804617991388028
0.5147973141009698,-0.5219359619140624,2.5234885498046875,9.457096557617186,9.801892006619404
0.5172842576473514,-0.5267243652343749,2.5139117431640625,9.457096557617186,9.799687041403137
0.5197712011937329,-0.5267243652343749,2.518700146484375,9.466673364257812,9.810157673064193
0.5222581447401143,-0.5363011718749999,2.528276953125,9.4618849609375,9.808520291699088
0.5247450882864959,-0.5458779785156249,2.5234885498046875,9.481038574218749,9.826294809044127
0.5272320318328774,-0.5458779785156249,2.518700146484375,9.471461767578125,9.815825039701087
0.5297189753792588,-0.5506663818359374,2.5234885498046875,9.476250170898437,9.821942029279764
0.5322059189256404,-0.5506663818359374,2.528276953125,9.485826977539062,9.832412281001808
0.5346928624720219,-0.5506663818359374,2.528276953125,9.481038574218749,9.827792746166923
0.5371798060184033,-0.5506663818359374,2.5426421630859375,9.466673364257812,9.817645706539574
0.5396667495647849,-0.5410895751953124,2.5426421630859375,9.457096557617186,9.807878588052679
0.5421536931111663,-0.5410895751953124,2.5330653564453125,9.481038574218749,9.828493804964845
0.5446406366575478,-0.5458779785156249,2.5330653564453125,9.481038574218749,9.828758584545437
0.5471275802039294,-0.5506663818359374,2.5522189697265625,9.466673364257812,9.820130331063062
0.5496145237503108,-0.5458779785156249,2.5426421630859375,9.476250170898437,9.826613314788737
0.5521014672966923,-0.5363011718749999,2.5330653564453125,9.481038574218749,9.828231351204641
0.5545884108430739,-0.5363011718749999,2.5378537597656248,9.481038574218749,9.829466572440994
0.5570753543894553,-0.5267243652343749,2.5330653564453125,9.471461767578125,9.818474762999044
0.5595622979358368,-0.51714755859375,2.528276953125,9.457096557617186,9.802872091849272
0.5620492414822184,-0.5219359619140624,2.5522189697265625,9.457096557617186,9.809327913667996
0.5645361850285998,-0.5267243652343749,2.5665841796874997,9.471461767578125,9.827175633062017
0.5670231285749813,-0.5219359619140624,2.5522189697265625,9.481038574218749,9.832412281001806
0.5695100721213628,-0.51714755859375,2.5522189697265625,9.481038574218749,9.832159259929401
0.5719970156677443,-0.5315127685546874,2.5665841796874997,9.485826977539062,9.841279064347615
0.5744839592141258,-0.5363011718749999,2.5761609863281247,9.471461767578125,9.830199000484566
0.5769709027605073,-0.5315127685546874,2.5713725830078125,9.4618849609375,9.819456695652574
0.5794578463068888,-0.5363011718749999,2.5665841796874997,9.457096557617186,9.81384983574089
0.5819447898532703,-0.5363011718749999,2.5761609863281247,9.471461767578125,9.830199000484566
0.5844317333996518,-0.5363011718749999,2.5665841796874997,9.476250170898437,9.832308508169856
0.5869186769460333,-0.5363011718749999,2.5713725830078125,9.476250170898437,9.833559539101364
0.5894056204924147,-0.5363011718749999,2.5713725830078125,9.490615380859374,9.847403526564923
0.5918925640387963,-0.5315127685546874,2.5570073730468748,9.495403784179686,9.848019372115727
0.5943795075851778,-0.5315127685546874,2.5474305664062498,9.485826977539062,9.836301223610702
0.5968664511315592,-0.5267243652343749,2.5474305664062498,9.471461767578125,9.822190644774034
0.5993533946779408,-0.5219359619140624,2.5426421630859375,9.485826977539062,9.834549291434222
0.6018403382243223,-0.5267243652343749,2.5426421630859375,9.481038574218749,9.8301861718005
0.6043272817707037,-0.5267243652343749,2.5378537597656248,9.466673364257812,9.815092707072939
0.6068142253170853,-0.5219359619140624,2.528276953125,9.466673364257812,9.812364958846084
0.6093011688634667,-0.5123591552734374,2.518700146484375,9.457096557617186,9.800154979998416
0.6117881124098483,-0.5027823486328125,2.5139117431640625,9.452308154296874,9.793807828740672
0.6142750559562298,-0.5123591552734374,2.50912333984375,9.457096557617186,9.797698053044705
0.6167619995026112,-0.5219359619140624,2.5043349365234375,9.466673364257812,9.806223289736948
0.6192489430489928,-0.51714755859375,2.5043349365234375,9.466673364257812,9.80596959291633
0.6217358865953743,-0.5219359619140624,2.5139117431640625,9.4618849609375,9.804052040598956
0.6242228301417557,-0.5267243652343749,2.518700146484375,9.4618849609375,9.805537007163208
0.6267097736881373,-0.5315127685546874,2.50912333984375,9.4618849609375,9.803339878413915
0.6291967172345188,-0.5267243652343749,2.5043349365234375,9.457096557617186,9.79723467777098
0.6316836607809002,-0.5219359619140624,2.50912333984375,9.471461767578125,9.812069358579869
0.6341706043272818,-0.5267243652343749,2.50912333984375,9.476250170898437,9.816947376498097
0.6366575478736632,-0.5267243652343749,2.4947581298828125,9.466673364257812,9.804038008346165
0.6391444914200447,-0.5363011718749999,2.4947581298828125,9.471461767578125,9.809180653258712
0.6416314349664263,-0.5363011718749999,2.4947581298828125,9.466673364257812,9.804557188324173
0.6441183785128077,-0.5267243652343749,2.4899697265625,9.4618849609375,9.79819650803884
0.6466053220591892,-0.5363011718749999,2.480392919921875,9.476250170898437,9.810162347566207
0.6490922656055708,-0.55545478515625,2.4899697265625,9.490615380859374,9.827525607443372
0.6515792091519522,-0.5458779785156249,2.4947581298828125,9.5001921875,9.837451524326852
0.6540661526983337,-0.5506663818359374,2.4899697265625,9.509768994140625,9.845754873304555
0.6565530962447153,-0.5506663818359374,2.4947581298828125,9.514557397460937,9.851591448100114
0.6590400397910967,-0.5363011718749999,2.50912333984375,9.490615380859374,9.831332523565036
0.6615269833374782,-0.5363011718749999,2.5139117431640625,9.452308154296874,9.795585773355254
0.6640139268838597,-0.5315127685546874,2.518700146484375,9.452308154296874,9.796554787006718
0.6665008704302412,-0.5267243652343749,2.5330653564453125,9.457096557617186,9.804617991388028
0.6689878139766227,-0.5267243652343749,2.5570073730468748,9.452308154296874,9.806215106070987
0.6714747575230042,-0.5219359619140624,2.5570073730468748,9.452308154296874,9.80595907078662
0.6739617010693857,-0.5219359619140624,2.5522189697265625,9.447519750976562,9.800095319070296
0.6764486446157671,-0.5219359619140624,2.5522189697265625,9.452308154296874,9.80471153382691
0.6789355881621487,-0.5123591552734374,2.5522189697265625,9.466673364257812,9.81805674046412
0.6814225317085302,-0.51714755859375,2.5426421630859375,9.4618849609375,9.811204705889947
0.6839094752549116,-0.5219359619140624,2.5378537597656248,9.4618849609375,9.810218441416628
0.6863964188012932,-0.51714755859375,2.5426421630859375,9.4618849609375,9.811204705889947
0.6888833623476747,-0.5123591552734374,2.5378537597656248,9.466673364257812,9.81433228475057
0.6913703058940561,-0.5123591552734374,2.5378537597656248,9.4618849609375,9.80971358521564
0.6938572494404377,-0.5219359619140624,2.5378537597656248,9.4618849609375,9.810218441416628
0.6963441929868192,-0.5219359619140624,2.5330653564453125,9.481038574218749,9.8274579467015
0.6988311365332006,-0.5219359619140624,2.5378537597656248,9.485826977539062,9.833312376920787
0.7013180800795822,-0.5219359619140624,2.5378537597656248,9.476250170898437,9.824074315463434
0.7038050236259636,-0.51714755859375,2.5426421630859375,9.481038574218749,9.829677675930462
0.7062919671723451,-0.51714755859375,2.5426421630859375,9.471461767578125,9.820440864928415
0.7087789107187267,-0.5267243652343749,2.5474305664062498,9.452308154296874,9.803722277348518
0.7112658542651081,-0.5219359619140624,2.5474305664062498,9.457096557617186,9.80808314295382
0.7137527978114896,-0.5267243652343749,2.5474305664062498,9.4618849609375,9.812956132665
0.7162397413578712,-0.5315127685546874,2.5570073730468748,9.4618849609375,9.815704740005579
0.7187266849042526,-0.5315127685546874,2.5570073730468748,9.4618849609375,9.815704740005579
0.7212136284506341,-0.5363011718749999,2.5570073730468748,9.471461767578125,9.825196876778842
0.7237005719970157,-0.5410895751953124,2.5522189697265625,9.476250170898437,9.828830901957252
0.7261875155433971,-0.5458779785156249,2.5522189697265625,9.457096557617186,9.810630955089243
0.7286744590897786,-0.5458779785156249,2.5474305664062498,9.457096557617186,9.809386349725655
0.7311614026361601,-0.55545478515625,2.5378537597656248,9.476250170898437,9.825912121821677
0.7336483461825416,-0.565031591796875,2.528276953125,9.490615380859374,9.83784658138335
0.7361352897289231,-0.5602431884765625,2.5330653564453125,9.495403784179686,9.843423467212599
0.7386222332753046,-0.55545478515625,2.528276953125,9.481038574218749,9.828062210623205
0.7411091768216861,-0.55545478515625,2.518700146484375,9.476250170898437,9.82098252455965
0.7435961203680675,-0.5458779785156249,2.518700146484375,9.471461767578125,9.815825039701087
0.7460830639144491,-0.5363011718749999,2.518700146484375,9.457096557617186,9.801435847616906
0.7485700074608306,-0.5315127685546874,2.5139117431640625,9.4618849609375,9.804566542666233
0.7510569510072121,-0.5410895751953124,2.5234885498046875,9.476250170898437,9.821409760865956
0.7535438945535936,-0.5458779785156249,2.5330653564453125,9.485826977539062,9.83337766564773
0.7560308380999751,-0.5363011718749999,2.518700146484375,9.471461767578125,9.815297111628821
0.7585177816463566,-0.5315127685546874,2.5234885498046875,9.4618849609375,9.80702642487249
0.7610047251927381,-0.5363011718749999,2.5330653564453125,9.452308154296874,9.80051878681762
0.7634916687391196,-0.5315127685546874,2.5234885498046875,9.437942944335937,9.783929032074616
0.7659786122855011,-0.51714755859375,2.518700146484375,9.437942944335937,9.781925119617323
0.7684655558318826,-0.5123591552734374,2.50912333984375,9.447519750976562,9.7884544890209
0.770952499378264,-0.51714755859375,2.5043349365234375,9.447519750976562,9.787479988063504
0.7734394429246456,-0.51714755859375,2.499546533203125,9.4618849609375,9.80012456466868
0.7759263864710271,-0.5219359619140624,2.499546533203125,9.481038574218749,9.818871751164224
0.7784133300174085,-0.5267243652343749,2.4947581298828125,9.495403784179686,9.831782631250645
0.7809002735637901,-0.5219359619140624,2.4947581298828125,9.490615380859374,9.826902644392081
0.7833872171101716,-0.5219359619140624,2.499546533203125,9.476250170898437,9.814248179124043
0.785874160656553,-0.5315127685546874,2.5043349365234375,9.471461767578125,9.811360115301174
0.7883611042029346,-0.5315127685546874,2.518700146484375,9.471461767578125,9.815036641079402
0.790848047749316,-0.5219359619140624,2.528276953125,9.471461767578125,9.816984746587739
0.7933349912956975,-0.5219359619140624,2.5330653564453125,9.481038574218749,9.8274579467015
0.7958219348420791,-0.5219359619140624,2.5378537597656248,9.476250170898437,9.824074315463434
0.7983088783884605,-0.5267243652343749,2.5378537597656248,9.476250170898437,9.824329878640107
0.800795821934842,-0.5219359619140624,2.5474305664062498,9.476250170898437,9.826552647823787
0.8032827654812236,-0.5123591552734374,2.5522189697265625,9.476250170898437,9.827291125985699
0.805769709027605,-0.5123591552734374,2.5570073730468748,9.485826977539062,9.837769668863794
0.8082566525739865,-0.51714755859375,2.5474305664062498,9.481038574218749,9.830917380074162
0.8107435961203681,-0.51714755859375,2.5426421630859375,9.481038574218749,9.829677675930462
0.8132305396667495,-0.5219359619140624,2.5474305664062498,9.485826977539062,9.83578838155884
0.815717483213131,-0.5267243652343749,2.5522189697265625,9.509768994140625,9.860373550139066
0.8182044267595125,-0.5315127685546874,2.5474305664062498,9.519345800781249,9.868629732067626
0.820691370305894,-0.5315127685546874,2.5426421630859375,9.509768994140625,9.858156080857992
0.8231783138522755,-0.5363011718749999,2.5426421630859375,9.509768994140625,9.858415412142827
0.825665257398657,-0.5363011718749999,2.5474305664062498,9.509768994140625,9.859651502945415
0.8281522009450385,-0.5315127685546874,2.5522189697265625,9.490615380859374,9.842159712175642
0.83063914449142,-0.5363011718749999,2.5426421630859375,9.471461767578125,9.82146812503869
0.8331260880378015,-0.5315127685546874,2.5330653564453125,9.466673364257812,9.81411384225333
0.835613031584183,-0.5363011718749999,2.5330653564453125,9.471461767578125,9.818993179632628
0.8380999751305644,-0.5410895751953124,2.528276953125,9.471461767578125,9.818021709834534
0.840586918676946,-0.5410895751953124,2.5426421630859375,9.4618849609375,9.81249581461835
0.8430738622233275,-0.5458779785156249,2.5474305664062498,9.457096557617186,9.809386349725655
0.8455608057697089,-0.5410895751953124,2.5378537597656248,9.4618849609375,9.811256119802234
0.8480477493160905,-0.5363011718749999,2.5378537597656248,9.442731347656249,9.792522451182894
0.850534692862472,-0.5315127685546874,2.5330653564453125,9.433154541015625,9.781785650781957
0.8530216364088534,-0.5363011718749999,2.5330653564453125,9.442731347656249,9.791282569254546
0.855508579955235,-0.5363011718749999,2.528276953125,9.452308154296874,9.799282256494335
0.8579955235016165,-0.5315127685546874,2.528276953125,9.457096557617186,9.8036404195041
0.8604824670479979,-0.5315127685546874,2.528276953125,9.466673364257812,9.812879025056205
0.8629694105943795,-0.5219359619140624,2.5234885498046875,9.485826977539062,9.82961469525344
0.8654563541407609,-0.5219359619140624,2.5234885498046875,9.485826977539062,9.82961469525344
0.8679432976871424,-0.5267243652343749,2.5139117431640625,9.490615380859374,9.832037994065841
0.870430241233524,-0.51714755859375,2.50912333984375,9.490615380859374,9.830306294277541
0.8729171847799054,-0.507570751953125,2.5234885498046875,9.476250170898437,9.819620146965272
0.8754041283262869,-0.49799394531249996,2.528276953125,9.457096557617186,9.801880310499907
0.8778910718726685,-0.5123591552734374,2.5330653564453125,9.466673364257812,9.813095158489205
0.8803780154190499,-0.51714755859375,2.5330653564453125,9.481038574218749,9.827204798069834
0.8828649589654315,-0.5123591552734374,2.518700146484375,9.471461767578125,9.814018053100732
0.885351902511813,-0.5027823486328125,2.5234885498046875,9.471461767578125,9.814752802072308
0.8878388460581944,-0.507570751953125,2.518700146484375,9.481038574218749,9.823012315067235
0.890325789604576,-0.507570751953125,2.518700146484375,9.471461767578125,9.81376923056747
0.8928127331509574,-0.507570751953125,2.5234885498046875,9.466673364257812,9.8103785408506
0.8952996766973389,-0.5123591552734374,2.528276953125,9.471461767578125,9.816480238374123
0.8977866202437205,-0.5123591552734374,2.5234885498046875,9.4618849609375,9.80600700484163
0.9002735637901019,-0.5027823486328125,2.518700146484375,9.457096557617186,9.79965896437687
0.9027605073364834,-0.507570751953125,2.5234885498046875,9.457096557617186,9.801137578328776
0.905247450882865,-0.507570751953125,2.5234885498046875,9.452308154296874,9.796517338984339
0.9077343944292464,-0.5027823486328125,2.5234885498046875,9.447519750976562,9.791650218231059
0.9102213379756279,-0.5027823486328125,2.5330653564453125,9.442731347656249,9.789503843103088
0.9127082815220094,-0.5123591552734374,2.5378537597656248,9.452308154296874,9.800476674822312
0.9151952250683909,-0.5027823486328125,2.5426421630859375,9.457096557617186,9.805839819194167
0.9176821686147724,-0.5027823486328125,2.5474305664062498,9.4618849609375,9.811700137834055
0.9201691121611539,-0.5123591552734374,2.5474305664062498,9.471461767578125,9.821430772008094
0.9226560557075354,-0.5123591552734374,2.5522189697265625,9.471461767578125,9.822673851254493
0.9251429992539169,-0.5123591552734374,2.5474305664062498,9.476250170898437,9.82604863086409
0.9276299428002984,-0.5267243652343749,2.5570073730468748,9.485826977539062,9.838528279705024
0.9301168863466799,-0.51714755859375,2.5570073730468748,9.476250170898437,9.828786578445388
0.9326038298930613,-0.51714755859375,2.5522189697265625,9.471461767578125,9.822924782440602
0.9350907734394429,-0.5315127685546874,2.5570073730468748,9.466673364257812,9.820320621777125
0.9375777169858244,-0.5363011718749999,2.5617957763671875,9.452308154296874,9.807983788248961
0.9400646605322058,-0.5315127685546874,2.5570073730468748,9.457096557617186,9.8110890236022
0.9425516040785874,-0.5363011718749999,2.5570073730468748,9.476250170898437,9.829812966390726
0.9450385476249689,-0.5458779785156249,2.5570073730468748,9.471461767578125,9.825724272944898
0.9475254911713503,-0.5458779785156249,2.5474305664062498,9.471461767578125,9.823236395037194
0.9500124347177319,-0.5410895751953124,2.5378537597656248,9.471461767578125,9.820492230485991
0.9524993782641133,-0.5506663818359374,2.5330653564453125,9.466673364257812,9.81516979729113
0.9549863218104948,-0.55545478515625,2.5234885498046875,9.457096557617186,9.803733971270496
0.9574732653568764,-0.5506663818359374,2.5234885498046875,9.447519750976562,9.794225715704734
0.9599602089032578,-0.5602431884765625,2.528276953125,9.452308154296874,9.800621726488815
0.9624471524496393,-0.55545478515625,2.518700146484375,9.447519750976562,9.793263495451638
0.9649340959960209,-0.5410895751953124,2.50912333984375,9.466673364257812,9.808485227010438
0.9674210395424023,-0.5506663818359374,2.5043349365234375,9.5001921875,9.840151347302141
0.9699079830887838,-0.55545478515625,2.5043349365234375,9.481038574218749,9.821930357036171
0.9723949266351654,-0.5363011718749999,2.5043349365234375,9.481038574218749,9.820865790095608
0.9748818701815468,-0.5363011718749999,2.50912333984375,9.490615380859374,9.831332523565036
0.9773688137279283,0.44053310546874996,0.7900865478515624,17.247828759765625,17.2715344742819
0.9798557572743098,0.086191259765625,0.8571241943359375,13.680468286132811,13.707563727579808
0.9823427008206913,-0.2920926025390625,1.0295067138671874,10.002974536132811,10.060054757946254
0.9848296443670728,-0.6703764648437499,1.2880804931640624,6.512228515625,6.672156787816483
0.9873165879134543,-1.0103531005859374,1.6136919189453125,3.5051112304687497,3.9888118199648344
0.9898035314598358,-1.2976572998046874,1.9728221679687499,1.216254443359375,2.6561657789296085
0.9922904750062173,-1.5466542724609373,2.3367408203125,-0.2346317626953125,2.8120364798312836
0.9947774185525988,-1.695094775390625,2.7054478759765623,-0.7613561279296874,3.28214223651547
0.9972643620989803,-1.7669208251953124,3.0454245117187497,-0.39264907226562495,3.542709831899492
0.9997513056453617,-1.7621324218749999,3.327940307617187,0.7852981445312499,3.8466856563918053
1.0022382491917432,-0.5267243652343749,2.4947581298828125,9.466673364257812,9.804038008346165
1.0047251927381249,-10.893617553710937,8.202534887695313,10.041281762695311,16.934574734200304
1.0072121362845063,-9.739612353515625,6.469132885742187,9.835380419921874,15.278888607969096
1.0096990798308878,-8.432378247070313,4.774038110351563,9.624690673828125,13.65763937683331
1.0121860233772693,-7.000645654296875,3.1507693847656246,9.418789331054686,12.151130801525909
1.0146729669236507,-5.511452221679687,1.62805712890625,9.251195214843749,10.890880979516226
1.0171599104700322,-4.027047192382812,0.2537853759765625,9.102754711914063,9.956990481667216
1.0196468540164139,-2.5665841796874997,-0.9576806640625,8.973467822265624,9.38230416065147
1.0221337975627953,-1.1731588134765625,-1.9823989746093749,8.8872765625,9.180952673580878
1.0246207411091768,0.09576806640624999,-2.7916391357421872,8.820238916015624,9.251974660706063
1.0271076846555582,1.235408056640625,-3.3710359375,8.772354882812499,9.478624718192686
1.0295946282019397,2.2074539306640624,-3.754108203125,8.762778076171875,9.785318639115085
1.0320815717483212,3.0119056884765625,-3.9408559326171875,8.762778076171875,10.06917081840208
1.0345685152947028,3.6679169433593746,-3.9264907226562498,8.777143286132812,10.291218993092834
1.0370554588410843,4.113238452148437,-3.7301661865234372,8.839392529296875,10.43876097198823
1.0395424023874658,4.3622354248046875,-3.366247534179687,8.90643017578125,10.473071127365582
1.0420293459338472,4.46279189453125,-2.868253588867187,8.968679418945312,10.42020156540921
1.0445162894802287,4.414907861328125,-2.2601263671875,9.064447485351561,10.332656523584305
1.0470032330266101,4.218583325195312,-1.5658078857421873,9.179369165039063,10.222965219286344
1.0494901765729918,3.897760302734375,-0.814028564453125,9.279925634765624,10.098128424024807
1.0519771201193733,3.4811692138671875,-0.01915361328125,9.370905297851563,9.996638037749536
1.0544640636657547,2.9831752685546875,0.7805097412109374,9.471461767578125,9.960778993318527
1.0569510072121362,2.43250888671875,1.5562310791015623,9.562441430664062,9.988955939957282
1.0594379507585177,1.838746875,2.31758720703125,9.629479077148437,10.073681940073186
1.0619248943048991,1.2210428466796874,3.0166940917968748,9.701305126953125,10.232629673898924
1.0644118378512808,0.622492431640625,3.6391865234374996,9.763554370117188,10.438302990335805
1.0668987813976623,0.0383072265625,4.1946413085937495,9.80665,10.666155229222383
1.0693857249440437,-0.5123591552734374,4.659116430664063,9.849745629882811,10.90813305712173
1.0718726684904252,-1.0007762939453124,5.032611889648437,9.86411083984375,11.118876664622046
1.0743596120368066,-1.43652099609375,5.305550878906249,9.8449572265625,11.27544435903642
1.076846555583188,-1.7956512451171873,5.4779333984375,9.82580361328125,11.392038200365148
1.0793334991295698,-2.0877438476562498,5.5545478515625,9.797073193359374,11.454008877452686
1.0818204426759512,-2.3127988037109373,5.549759448242187,9.744400756835937,11.4499875261777
1.0843073862223327,-2.4660277099609376,5.453991381835937,9.696516723632811,11.395163501728558
1.0867943297687142,-2.5474305664062498,5.2816088623046875,9.658209497070311,11.298929389740225
1.0892812733150956,-2.5474305664062498,5.046977099609375,9.610325463867188,11.149876046669595
1.0917682168614773,-2.4851813232421875,4.76924970703125,9.562441430664062,10.970968739919462
1.0942551604078588,-2.379836450195312,4.438849877929687,9.519345800781249,10.769631109900015
1.0967421039542402,-2.2361843505859373,4.07971962890625,9.471461767578125,10.552403551560305
1.0992290475006217,-2.0542250244140625,3.7158009765625,9.423577734375,10.335900283195462
1.1017159910470031,-1.848323681640625,3.342305517578125,9.394847314453125,10.141521713571088
1.1042029345933846,-1.618480322265625,2.96881005859375,9.356540087890625,9.94877651441989
1.1066898781397663,-1.3742717529296875,2.6144682128906247,9.3086560546875,9.766019886913307
1.1091768216861477,-1.13006318359375,2.288856787109375,9.289502441406249,9.633834324904251
1.1116637652325292,-0.8762778076171874,1.9967641845703124,9.289502441406249,9.542001132561126
1.1141507087789106,-0.6416460449218749,1.7573440185546874,9.284714038085937,9.471318937484044
1.116637652325292,-0.4261678955078125,1.5514426757812498,9.265560424804686,9.404212005112583
1.1191245958716736,-0.239420166015625,1.3742717529296875,9.270348828125,9.37471664968675
1.1216115394180552,-0.086191259765625,1.24498486328125,9.294290844726563,9.377700067150123
1.1240984829644367,0.047884033203124995,1.1635820068359375,9.318232861328125,9.390723061894834
1.1265854265108182,0.1580173095703125,1.139639990234375,9.342174877929686,9.412756250285343
1.1290723700571996,0.239420166015625,1.1444283935546875,9.366116894531249,9.438812639622252
1.131559313603581,0.28730419921875,1.1923124267578125,9.3852705078125,9.46506498290978
1.1340462571499625,0.296881005859375,1.2832920898437499,9.399635717773437,9.491476626233547
1.1365332006963442,0.28730419921875,1.388636962890625,9.423577734375,9.529673322491337
1.1390201442427257,0.24899697265624998,1.5179238525390624,9.447519750976562,9.571923618562323
1.1415070877891071,0.201112939453125,1.6615759521484375,9.4618849609375,9.608774535453971
1.1439940313354886,0.13407529296874998,1.8243816650390623,9.485826977539062,9.6606034020512
1.14648097488187,-6.2009822998046875,5.9376201171875,9.90241806640625,13.105929867827372
1.1489679184282515,-5.68862314453125,5.142745166015625,9.797073193359374,12.441499277784592
1.1514548619746332,-5.090072729492187,4.3622354248046875,9.696516723632811,11.788145522711865
1.1539418055210147,-4.4196962646484375,3.6008792968749996,9.600748657226562,11.165770083682002
1.1564287490673961,-3.7205893798828122,2.868253588867187,9.514557397460937,10.611148215594998
1.1589156926137776,-3.0262708984374997,2.1883003173828124,9.428366137695312,10.141058221715673
1.161402636160159,-2.3367408203125,1.5849614990234373,9.351751684570312,9.768711285761547
1.1638895797065405,-1.6711527587890624,1.0630255371093749,9.275137231445312,9.484247228847314
1.1663765232529222,-1.0582371337890624,0.6177040283203125,9.208099584960937,9.289269188934673
1.1688634667993036,-0.5027823486328125,0.26336218261718747,9.150638745117186,9.168224428588637
1.171350410345685,-0.009576806640625,0.0,9.09796630859375,9.0979713490169
1.1738373538920666,0.411802685546875,-0.1867477294921875,9.0788126953125,9.090065793098614
1.176324297438448,0.7422025146484375,-0.277727392578125,9.0788126953125,9.113332926756605
1.1788112409848295,1.024718310546875,-0.2825157958984375,9.083601098632812,9.145582086996178
1.1812981845312112,1.2210428466796874,-0.22505495605468748,9.117119921875,9.20127551139093
1.1837851280775926,1.3311761230468748,-0.1005564697265625,9.165003955078124,9.261719007331827
1.186272071623974,1.388636962890625,0.0909796630859375,9.208099584960937,9.312662770677306
1.1887590151703555,1.3838485595703125,0.33518823242187495,9.260772021484375,9.369593716959487
1.191245958716737,1.3263877197265623,0.612915625,9.303867651367186,9.417904396444431
1.1937329022631185,1.2210428466796874,0.9145850341796874,9.356540087890625,9.480097775575809
1.1962198458095001,1.0678139404296874,1.2210428466796874,9.409212524414063,9.54800778039032
1.1987067893558816,0.8954314208984374,1.5466542724609373,9.466673364257812,9.633890255426527
1.201193732902263,0.718260498046875,1.8818425048828125,9.528922607421874,9.739486404039685
1.2036806764486445,0.5219359619140624,2.1883003173828124,9.576806640625,9.837494643419937
1.206167619995026,0.3064578125,2.4851813232421875,9.6151138671875,9.935816890382766
1.2086545635414074,0.105344873046875,2.7581203125,9.634267480468749,10.021847887775987
1.2111415070877891,-0.0909796630859375,2.9927520751953125,9.648632690429688,10.10252221366078
1.2136284506341706,-0.2920926025390625,3.19865341796875,9.672574707031249,10.191928337652392
1.216115394180552,-0.4740519287109375,3.3710359375,9.6917283203125,10.272205525483727
1.2186023377269335,-0.6272808349609375,3.5051112304687497,9.6917283203125,10.32515781083344
1.221089281273315,-0.7565677246093749,3.6056677001953124,9.686939916992188,10.363881475661952
1.2235762248196966,-0.86191259765625,3.6583401367187496,9.677363110351562,10.38160405002614
1.226063168366078,-0.948103857421875,3.67749375,9.643844287109374,10.364680112755984
1.2285501119124596,-1.01514150390625,3.67749375,9.605537060546874,10.335415558930448
1.231037055458841,-1.0726023437499999,3.6439749267578123,9.557653027343749,10.28483157109297
1.2335239990052225,-1.1061211669921875,3.5913024902343746,9.524134204101562,10.238656647733094
1.236010942551604,-1.1156979736328125,3.5146880371093747,9.490615380859374,10.18182666685957
1.2384978860979856,-1.1013327636718748,3.404554760742187,9.457096557617186,10.11140950982227
1.240984829644367,-1.0726023437499999,3.2704794677734372,9.433154541015625,10.041459870538214
1.2434717731907485,-1.0342951171875,3.1364041748046874,9.418789331054686,9.981001452758123
1.24595871673713,-0.9816226806640624,2.9975404785156248,9.409212524414063,9.923815412285954
1.2484456602835114,-0.928950244140625,2.863465185546875,9.390058911132812,9.860810705995357
1.250932603829893,-0.8667010009765624,2.7341782958984373,9.375693701171874,9.804617991388028
1.2534195473762746,-0.814028564453125,2.6144682128906247,9.366116894531249,9.758187957914359
1.255906490922656,-0.7517793212890624,2.5043349365234375,9.351751684570312,9.710413234876945
1.2583934344690375,-0.689530078125,2.398990063476562,9.361328491210937,9.688399051115514
1.260880378015419,-0.6368576416015624,2.3032219970703123,9.375693701171874,9.675435473488974
1.2633673215618004,-0.584185205078125,2.221819140625,9.390058911132812,9.667003620668842
1.2658542651081819,-0.5315127685546874,2.1595698974609374,9.394847314453125,9.654501749289977
1.2683412086545636,-0.4836287353515625,2.1212626708984375,9.404424121093749,9.652815398732892
1.270828152200945,-0.44053310546874996,2.0925322509765625,9.418789331054686,9.658486066728084
1.2733150957473265,-0.4070142822265625,2.068590234375,9.442731347656249,9.67522100459199
1.275802039293708,-0.38786066894531246,2.068590234375,9.437942944335937,9.669760518069038
1.2782889828400894,-0.3591302490234375,2.0829554443359375,9.442731347656249,9.676407040986977
1.2807759263864709,-0.3399766357421875,2.1068974609374997,9.442731347656249,9.680897495984835
1.2832628699328525,-0.3399766357421875,2.1404162841796874,9.442731347656249,9.688247585938447
1.285749813479234,-0.3399766357421875,2.1691467041015624,9.452308154296874,9.703963673703258
1.2882367570256155,-0.3399766357421875,2.2170307373046874,9.4618849609375,9.724097717373041
1.290723700571997,-0.3495534423828125,2.2649147705078123,9.466673364257812,9.740119666220455
1.2932106441183784,-0.373495458984375,2.31758720703125,9.481038574218749,9.767333400980062
1.2956975876647598,-0.38786066894531246,2.375048046875,9.495403784179686,9.795610350973202
1.2981845312111415,-0.38786066894531246,2.422932080078125,9.509768994140625,9.821239335496555
1.300671474757523,-0.40222587890625,2.4756045166015626,9.514557397460937,9.839573458735831
1.3031584183039044,-0.4165910888671875,2.528276953125,9.519345800781249,9.858178176614489
1.305645361850286,-0.43574470214843747,2.5761609863281247,9.533711010742186,9.885247822350046
1.3081323053966674,-0.45968671875,2.6048914062499997,9.548076220703125,9.907700572489397
1.3106192489430488,-0.49799394531249996,2.6479870361328124,9.5384994140625,9.91175082339977
1.3131061924894305,-0.5219359619140624,2.6862942626953124,9.519345800781249,9.90487448123299
1.315593136035812,-0.5410895751953124,2.7150246826171873,9.504980590820312,9.899939039583852
1.3180800795821934,-0.5602431884765625,2.7341782958984373,9.490615380859374,9.892491278308057
1.3205670231285749,-0.5793968017578125,2.7437551025390623,9.4618849609375,9.868695948838
1.3230539666749563,-0.5746083984375,2.7533319091796873,9.442731347656249,9.85272483720478
1.3255409102213378,-0.584185205078125,2.7724855224609373,9.433154541015625,9.849484906368017
1.3280278537677195,-0.5889736083984375,2.767697119140625,9.423577734375,9.83925071184272
1.330514797314101,-0.584185205078125,2.7629087158203123,9.423577734375,9.837619338112056
1.3330017408604824,-0.5889736083984375,2.7437551025390623,9.433154541015625,9.841721727867677
1.3354886844068639,-0.5889736083984375,2.729389892578125,9.442731347656249,9.84690989098141
1.3379756279532453,-0.584185205078125,2.7198130859375,9.457096557617186,9.857754859822995
1.3404625714996268,-0.5793968017578125,2.6862942626953124,9.4618849609375,9.852874937483586
1.3429495150460085,-0.5698199951171875,2.6527754394531247,9.4618849609375,9.843230129028596
1.34543645859239,-0.5602431884765625,2.6192566162109374,9.452308154296874,9.82448508042973
1.3479234021387714,-0.55545478515625,2.5953145996093747,9.457096557617186,9.822467265885562
1.3504103456851528,-0.5458779785156249,2.5713725830078125,9.471461767578125,9.829472404089994
1.3528972892315343,-0.5363011718749999,2.5426421630859375,9.476250170898437,9.826085966340285
1.3553842327779158,-0.5363011718749999,2.518700146484375,9.485826977539062,9.829159822826302
1.3578711763242974,-0.5458779785156249,2.4899697265625,9.495403784179686,9.831613551764528
1.360358119870679,-0.5363011718749999,2.47081611328125,9.490615380859374,9.821625706572679
1.3628450634170604,-0.5267243652343749,2.4564509033203126,9.466673364257812,9.794360325355763
1.3653320069634418,-0.51714755859375,2.446874096679687,9.4618849609375,9.78682284791018
1.3678189505098233,-0.5123591552734374,2.442085693359375,9.457096557617186,9.780744845756784
1.370305894056205,-0.51714755859375,2.403778466796875,9.452308154296874,9.76686858509845
1.3727928376025864,-0.51714755859375,2.403778466796875,9.471461767578125,9.785406508137001
1.3752797811489679,-0.51714755859375,2.398990063476562,9.485826977539062,9.798138005245008
1.3777667246953493,-0.51714755859375,2.39420166015625,9.485826977539062,9.796966705805541
1.3802536682417308,-0.507570751953125,2.39420166015625,9.495403784179686,9.805739272606992
1.3827406117881123,-0.5027823486328125,2.403778466796875,9.485826977539062,9.798563897599532
1.385227555334494,-0.507570751953125,2.418143676757812,9.471461767578125,9.788443948063255
1.3877144988808754,-0.5219359619140624,2.422932080078125,9.471461767578125,9.790383293196697
1.3902014424272569,-0.5315127685546874,2.43250888671875,9.471461767578125,9.793272860581212
1.3926883859736383,-0.5410895751953124,2.4564509033203126,9.457096557617186,9.78588801636842
1.3951753295200198,-0.5315127685546874,2.4660277099609376,9.447519750976562,9.778518698377793
1.3976622730664012,-0.5315127685546874,2.480392919921875,9.4618849609375,9.796025820420773
1.400149216612783,-0.5363011718749999,2.499546533203125,9.457096557617186,9.796531382009507
1.4026361601591644,-0.5363011718749999,2.50912333984375,9.452308154296874,9.79435798433416
1.4051231037055458,-0.5410895751953124,2.5234885498046875,9.452308154296874,9.798311172501494
1.4076100472519273,-0.5410895751953124,2.5378537597656248,9.437942944335937,9.788168707929081
1.4100969907983087,-0.5410895751953124,2.5426421630859375,9.433154541015625,9.784794923378369
1.4125839343446902,-0.55545478515625,2.5426421630859375,9.433154541015625,9.785599817207887
1.4150708778910719,-0.5602431884765625,2.5570073730468748,9.428366137695312,9.7850011324726
1.4175578214374533,-0.5506663818359374,2.5617957763671875,9.437942944335937,9.79493737011307
1.4200447649838348,-0.55545478515625,2.5617957763671875,9.457096557617186,9.813664092389782
1.4225317085302163,-0.5602431884765625,2.5665841796874997,9.471461767578125,9.829029188905213
1.4250186520765977,-0.5602431884765625,2.5713725830078125,9.471461767578125,9.830280637172715
1.4275055956229792,-0.565031591796875,2.5809493896484375,9.4618849609375,9.8238397516282
1.4299925391693609,-0.5746083984375,2.5809493896484375,9.457096557617186,9.819783595557306
1.4324794827157423,-0.5602431884765625,2.5809493896484375,9.452308154296874,9.814341629775694
1.4349664262621238,-0.5458779785156249,2.5761609863281247,9.442731347656249,9.803048683900197
1.4374533698085052,-0.55545478515625,2.5761609863281247,9.457096557617186,9.81742383448565
1.4399403133548867,-0.5506663818359374,2.5713725830078125,9.471461767578125,9.829739489906265
1.4424272569012682,-0.5363011718749999,2.5665841796874997,9.471461767578125,9.827693590719585
1.4449142004476498,-0.5363011718749999,2.5617957763671875,9.476250170898437,9.831059650323557
1.4474011439940313,-0.5363011718749999,2.5665841796874997,9.490615380859374,9.84615425462049
1.4498880875404128,-0.5267243652343749,2.5713725830078125,9.485826977539062,9.842271534832987
1.4523750310867942,-0.51714755859375,2.5617957763671875,9.485826977539062,9.839265859045588
1.4548619746331757,-0.51714755859375,2.5570073730468748,9.490615380859374,9.84263727923467
1.4573489181795571,-0.51714755859375,2.5617957763671875,9.5001921875,9.853115791292025
1.4598358617259388,-0.51714755859375,2.5665841796874997,9.5001921875,9.854361853931367
1.4623228052723203,-0.5027823486328125,2.5665841796874997,9.481038574218749,9.835153119669402
1.4648097488187017,-0.488417138671875,2.5617957763671875,9.476250170898437,9.828563791450602
1.4672966923650832,-0.488417138671875,2.5665841796874997,9.476250170898437,9.829812966390726
1.4697836359114647,-0.488417138671875,2.5713725830078125,9.457096557617186,9.812603301982993
1.4722705794578461,-0.47884033203125,2.5617957763671875,9.437942944335937,9.791161968016516
1.4747575230042278,-0.47884033203125,2.5522189697265625,9.433154541015625,9.784043863745483
1.4772444665506093,-0.49799394531249996,2.5522189697265625,9.442731347656249,9.794232738862704
1.4797314100969907,-0.5027823486328125,2.5570073730468748,9.442731347656249,9.795726216055796
1.4822183536433722,-0.49799394531249996,2.5570073730468748,9.442731347656249,9.795481610385167
1.4847052971897536,-0.49320554199218747,2.5474305664062498,9.447519750976562,9.797361055019097
1.487192240736135,-0.4836287353515625,2.5474305664062498,9.452308154296874,9.801501348676426
1.4896791842825168,-0.488417138671875,2.5522189697265625,9.452308154296874,9.802984362660572
1.4921661278288982,-0.49799394531249996,2.5617957763671875,9.4618849609375,9.815195493895978
1.4946530713752797,-0.49799394531249996,2.5570073730468748,9.466673364257812,9.818563502923038
1.4971400149216612,-0.5027823486328125,2.5474305664062498,9.476250170898437,9.825553922411206
1.4996269584680426,-0.507570751953125,2.5426421630859375,9.481038574218749,9.829178484673298
1.5021139020144243,-0.49799394531249996,2.5426421630859375,9.481038574218749,9.82868859944673
1.5046008455608058,-0.507570751953125,2.5378537597656248,9.476250170898437,9.823321590767932
1.5070877891071872,-0.5219359619140624,2.5426421630859375,9.476250170898437,9.825312392962076
1.5095747326535687,-0.5315127685546874,2.5378537597656248,9.495403784179686,9.843063575620503
1.5120616761999501,-0.5267243652343749,2.518700146484375,9.490615380859374,9.833263410091101
1.5145486197463316,-0.5315127685546874,2.5234885498046875,9.476250170898437,9.820886802401537
1.5170355632927133,-0.5363011718749999,2.528276953125,9.481038574218749,9.826998307951488
1.5195225068390947,-0.5458779785156249,2.518700146484375,9.490615380859374,9.8343079829103
1.5220094503854762,-0.5602431884765625,2.5139117431640625,9.490615380859374,9.833890633419568
1.5244963939318577,-0.5698199951171875,2.5139117431640625,9.471461767578125,9.815958185217971
1.5269833374782391,-0.5698199951171875,2.5139117431640625,9.471461767578125,9.815958185217971
1.5294702810246206,-0.55545478515625,2.5043349365234375,9.476250170898437,9.81730822548103
1.5319572245710023,-0.55545478515625,2.499546533203125,9.481038574218749,9.82071053110846
1.5344441681173837,-0.5698199951171875,2.4947581298828125,9.5001921875,9.838809102370456
1.5369311116637652,-0.5698199951171875,2.499546533203125,9.5001921875,9.840024354538922
1.5394180552101466,-0.5698199951171875,2.499546533203125,9.5001921875,9.840024354538922
1.541904998756528,-0.565031591796875,2.4947581298828125,9.485826977539062,9.824662450901444
1.5443919423029095,-0.55545478515625,2.4851813232421875,9.466673364257812,9.80319135859813
1.5468788858492912,-0.5506663818359374,2.4899697265625,9.457096557617186,9.79488938188568
1.5493658293956727,-0.5506663818359374,2.4947581298828125,9.447519750976562,9.786862675842189
1.5518527729420541,-0.5506663818359374,2.4947581298828125,9.447519750976562,9.786862675842189
1.5543397164884356,-0.5458779785156249,2.4899697265625,9.447519750976562,9.785374875380008
1.556826660034817,-0.5506663818359374,2.4851813232421875,9.452308154296874,9.789049449117275
1.5593136035811985,-0.5506663818359374,2.4851813232421875,9.457096557617186,9.793673211495824
1.5618005471275802,-0.5458779785156249,2.4851813232421875,9.457096557617186,9.793405142079793
1.5642874906739617,-0.5458779785156249,2.4899697265625,9.452308154296874,9.789998031175145
1.5667744342203431,-0.5363011718749999,2.4947581298828125,9.452308154296874,9.790687744860321
1.5692613777667246,-0.51714755859375,2.4947581298828125,9.447519750976562,9.785033938064196
1.571748321313106,-0.5267243652343749,2.4947581298828125,9.442731347656249,9.780921837309505
1.5742352648594875,-0.5363011718749999,2.4947581298828125,9.442731347656249,9.781442244249101
1.5767222084058692,-0.5315127685546874,2.499546533203125,9.457096557617186,9.796270412502876
1.5792091519522506,-0.5267243652343749,2.499546533203125,9.471461767578125,9.809880704844145
1.581696095498632,-0.5267243652343749,2.5043349365234375,9.481038574218749,9.820347472317223
1.5841830390450136,-0.5219359619140624,2.5139117431640625,9.481038574218749,9.822538462463825
1.586669982591395,-0.5219359619140624,2.5139117431640625,9.476250170898437,9.817916617195829
1.5891569261377765,-0.5267243652343749,2.50912333984375,9.490615380859374,9.830814757632488
1.5916438696841582,-0.5267243652343749,2.5139117431640625,9.490615380859374,9.832037994065841
1.5941308132305396,-0.5219359619140624,2.5139117431640625,9.476250170898437,9.817916617195829
1.596617756776921,-0.5315127685546874,2.5139117431640625,9.466673364257812,9.809187665709285
1.5991047003233025,-0.5219359619140624,2.5234885498046875,9.4618849609375,9.80651205186379
1.601591643869684,-0.51714755859375,2.518700146484375,9.457096557617186,9.800406487761348
1.6040785874160655,-0.5363011718749999,2.5139117431640625,9.452308154296874,9.795585773355254
1.6065655309624471,-0.5363011718749999,2.5234885498046875,9.447519750976562,9.793428554548305
1.6090524745088286,-0.5363011718749999,2.5234885498046875,9.452308154296874,9.79804791025932
1.61153941805521,-0.5458779785156249,2.518700146484375,9.447519750976562,9.792724985437964
1.6140263616015915,-0.5410895751953124,2.5139117431640625,9.442731347656249,9.786608477139218
1.616513305147973,-0.5410895751953124,2.518700146484375,9.447519750976562,9.792459231540242
1.6190002486943544,-0.5458779785156249,2.5330653564453125,9.457096557617186,9.805665615731884
1.6214871922407361,-0.5410895751953124,2.5378537597656248,9.471461767578125,9.820492230485991
1.6239741357871176,-0.5410895751953124,2.5330653564453125,9.481038574218749,9.828493804964845
1.626461079333499,-0.5410895751953124,2.5330653564453125,9.481038574218749,9.828493804964845
1.6289480228798805,-0.5363011718749999,2.5378537597656248,9.4618849609375,9.810993204916935
1.631434966426262,-0.5363011718749999,2.5426421630859375,9.466673364257812,9.816850447165077
1.6339219099726436,-0.5410895751953124,2.5378537597656248,9.471461767578125,9.820492230485991
1.636408853519025,-0.5410895751953124,2.5330653564453125,9.471461767578125,9.819255880315097
1.6388957970654066,-0.5410895751953124,2.5330653564453125,9.476250170898437,9.823874761511423
1.641382740611788,-0.5315127685546874,2.5474305664062498,9.471461767578125,9.8224485912878
1.6438696841581695,-0.5267243652343749,2.5522189697265625,9.4618849609375,9.81420028532019
1.646356627704551,-0.5410895751953124,2.5378537597656248,9.471461767578125,9.820492230485991
1.6488435712509326,-0.5363011718749999,2.5474305664062498,9.452308154296874,9.804241474045941
1.651330514797314,-0.5267243652343749,2.5474305664062498,9.423577734375,9.776024670764732
1.6538174583436955,-0.5315127685546874,2.5426421630859375,9.423577734375,9.775037202407328
1.656304401890077,-0.5315127685546874,2.5426421630859375,9.433154541015625,9.784270007891376
1.6587913454364585,-0.5219359619140624,2.5378537597656248,9.423577734375,9.773276634276957
1.66127828898284,-0.51714755859375,2.5378537597656248,9.418789331054686,9.76840497553749
1.6637652325292216,-0.5123591552734374,2.5378537597656248,9.423577734375,9.772769869681639
1.666252176075603,-0.507570751953125,2.5426421630859375,9.442731347656249,9.79223327651821
1.6687391196219845,-0.5123591552734374,2.5474305664062498,9.452308154296874,9.802960973014253
1.671226063168366,-0.5123591552734374,2.5522189697265625,9.4618849609375,9.813439793845982
1.6737130067147474,-0.507570751953125,2.5570073730468748,9.466673364257812,9.819053893303705
1.676199950261129,-0.51714755859375,2.5522189697265625,9.476250170898437,9.827541939276793
1.6786868938075106,-0.5123591552734374,2.5474305664062498,9.471461767578125,9.821430772008094
1.681173837353892,-0.5027823486328125,2.5570073730468748,9.471461767578125,9.82342429148853
1.6836607809002735,-0.5027823486328125,2.5665841796874997,9.481038574218749,9.835153119669402
1.686147724446655,-0.507570751953125,2.5713725830078125,9.471461767578125,9.827419449864582
1.6886346679930364,-0.49799394531249996,2.5761609863281247,9.471461767578125,9.828183525542304
1.6911216115394179,-0.49320554199218747,2.5761609863281247,9.471461767578125,9.82794206071775
1.6936085550857995,-0.49320554199218747,2.5665841796874997,9.471461767578125,9.825436075450703
1.696095498632181,-0.49320554199218747,2.5665841796874997,9.476250170898437,9.830052052737393
1.6985824421785625,-0.507570751953125,2.5713725830078125,9.476250170898437,9.832034495989891
1.701069385724944,-0.5123591552734374,2.5713725830078125,9.495403784179686,9.850744230221933
1.7035563292713254,-0.5027823486328125,2.5665841796874997,9.504980590820312,9.858235160179014
1.7060432728177068,-0.5027823486328125,2.5570073730468748,9.5001921875,9.851128280321438
1.7085302163640885,-0.5123591552734374,2.5522189697265625,9.490615380859374,9.84114393151676
1.71101715991047,-0.51714755859375,2.5474305664062498,9.481038574218749,9.830917380074162
1.7135041034568514,-0.5315127685546874,2.5378537597656248,9.476250170898437,9.82458776898786
1.715991047003233,-0.5363011718749999,2.5426421630859375,9.471461767578125,9.82146812503869
1.7184779905496144,-0.5410895751953124,2.5522189697265625,9.471461767578125,9.824214350904162
1.7209649340959958,-0.5363011718749999,2.5474305664062498,9.4618849609375,9.813474840831386
1.7234518776423775,-0.5363011718749999,2.5426421630859375,9.457096557617186,9.80761558262515
1.725938821188759,-0.5410895751953124,2.528276953125,9.4618849609375,9.80878327286842
1.7284257647351404,-0.5506663818359374,2.5330653564453125,9.476250170898437,9.824406896376003
1.7309127082815219,-0.55545478515625,2.5330653564453125,9.495403784179686,9.843152093866593
1.7333996518279033,-0.5506663818359374,2.528276953125,9.504980590820312,9.850892033093153
1.7358865953742848,-0.5602431884765625,2.5378537597656248,9.481038574218749,9.830801929751956
1.7383735389206665,-0.5602431884765625,2.5426421630859375,9.466673364257812,9.818187520376917
1.740860482467048,-0.55545478515625,2.5522189697265625,9.466673364257812,9.820400005770304
1.7433474260134294,-0.55545478515625,2.5570073730468748,9.437942944335937,9.793956490852384
1.7458343695598109,-0.5506663818359374,2.5570073730468748,9.428366137695312,9.784457480940882
1.7483213131061923,-0.5458779785156249,2.5570073730468748,9.428366137695312,9.784189159030195
1.7508082566525738,-0.5410895751953124,2.5522189697265625,9.428366137695312,9.782672826189005
1.7532952001989555,-0.5410895751953124,2.5426421630859375,9.428366137695312,9.78017868570544
1.755782143745337,-0.5410895751953124,2.5330653564453125,9.433154541015625,9.782310699578714
1.7582690872917184,-0.5363011718749999,2.528276953125,9.442731347656249,9.790044872352095
1.7607560308380998,-0.5363011718749999,2.528276953125,9.433154541015625,9.780808141117033
1.7632429743844813,-0.5363011718749999,2.5234885498046875,9.437942944335937,9.78419033075759
1.765729917930863,-0.5267243652343749,2.50912333984375,9.442731347656249,9.784595740013494
1.7682168614772444,-0.5219359619140624,2.50912333984375,9.447519750976562,9.78896044163935
1.770703805023626,-0.51714755859375,2.50912333984375,9.457096557617186,9.797949623875546
1.7731907485700074,-0.51714755859375,2.5043349365234375,9.442731347656249,9.78285798607244
1.7756776921163888,-0.5123591552734374,2.50912333984375,9.442731347656249,9.783832947395982
1.7781646356627703,-0.5027823486328125,2.50912333984375,9.4618849609375,9.801824168932058
1.780651579209152,-0.507570751953125,2.5043349365234375,9.457096557617186,9.796223601093686
1.7831385227555334,-0.507570751953125,2.5043349365234375,9.4618849609375,9.80084631838217
1.7856254663019149,-0.49320554199218747,2.50912333984375,9.481038574218749,9.819829127180592
1.7881124098482963,-0.49799394531249996,2.50912333984375,9.481038574218749,9.82007079149333
1.7905993533946778,-0.5027823486328125,2.5043349365234375,9.485826977539062,9.823716049041545
1.7930862969410593,-0.5027823486328125,2.5043349365234375,9.481038574218749,9.819092422938713
1.795573240487441,-0.5027823486328125,2.499546533203125,9.485826977539062,9.82249644487349
1.7980601840338224,-0.5027823486328125,2.5043349365234375,9.476250170898437,9.814468954856459
1.8005471275802039,-0.5027823486328125,2.5139117431640625,9.457096557617186,9.798429345696674
1.8030340711265853,-0.507570751953125,2.5043349365234375,9.457096557617186,9.796223601093686
1.8055210146729668,-0.5027823486328125,2.499546533203125,9.457096557617186,9.7947536090419
1.8080079582193482,-0.5123591552734374,2.5139117431640625,9.4618849609375,9.803546866844975
1.81049490176573,-0.5219359619140624,2.50912333984375,9.476250170898437,9.816691621128804
1.8129818453121114,-0.51714755859375,2.50912333984375,9.471461767578125,9.811815812916704
1.8154687888584928,-0.5123591552734374,2.5139117431640625,9.471461767578125,9.81279023372582
1.8179557324048743,-0.5123591552734374,2.5139117431640625,9.471461767578125,9.81279023372582
1.8204426759512558,-0.5123591552734374,2.5234885498046875,9.4618849609375,9.80600700484163
1.8229296194976372,-0.507570751953125,2.5234885498046875,9.452308154296874,9.796517338984339
1.825416563044019,-0.51714755859375,2.5330653564453125,9.447519750976562,9.794870654708777
1.8279035065904004,-0.5267243652343749,2.5426421630859375,9.442731347656249,9.793244765165623
1.8303904501367818,-0.5315127685546874,2.5426421630859375,9.447519750976562,9.798120454338743
1.8328773936831633,-0.5410895751953124,2.5474305664062498,9.4618849609375,9.813737689232434
1.8353643372295447,-0.5363011718749999,2.5522189697265625,9.466673364257812,9.819335272916133
1.8378512807759262,-0.5267243652343749,2.5570073730468748,9.471461767578125,9.824678787494367
1.8403382243223079,-0.5410895751953124,2.5570073730468748,9.476250170898437,9.830075377923293
1.8428251678686893,-12.62223115234375,7.56567724609375,9.830592016601562,17.697478092997546
1.8453121114150708,-11.056423266601563,5.899312890625,9.710881933593749,15.853946384416094
1.8477990549614522,-9.289502441406249,4.328716601562499,9.610325463867188,14.049590689660304
1.8502859985078337,-7.407659936523437,2.91134921875,9.504980590820312,12.397339877593156
1.8527729420542152,-5.473144995117187,1.656787548828125,9.414000927734374,11.014702655401637
1.8552598856005968,-3.5625720703124997,0.5698199951171875,9.34696328125,10.019098620337152
1.8577468291469783,-1.7429788085937499,-0.33518823242187495,9.265560424804686,9.43403075382245
1.8602337726933598,-0.06703764648437499,-1.0295067138671874,9.17458076171875,9.232405443504069
1.8627207162397412,1.4030021728515625,-1.5227122558593749,9.09796630859375,9.330597979951634
1.8652076597861227,2.6479870361328124,-1.838746875,9.045293872070312,9.602612490669529
1.8676946033325041,3.6583401367187496,-1.9823989746093749,9.006986645507812,9.921651409055638
1.8701815468788858,4.410119458007812,-1.9584569580078124,8.992621435546875,10.205486150758594
1.8726684904252673,4.917690209960937,-1.7956512451171873,8.997409838867187,10.409679351631373
1.8751554339716487,5.1714755859374995,-1.5322890624999999,9.016563452148437,10.506687679455581
1.8776423775180302,5.190629199218749,-1.177947216796875,9.05965908203125,10.507502739089487
1.8801293210644117,5.013458276367187,-0.74699091796875,9.107543115234375,10.423056217648234
1.8826162646107931,4.6639048339843745,-0.26815058593749996,9.13627353515625,10.261355034613992
1.8851032081571748,4.161122485351562,0.2442085693359375,9.169792358398437,10.072719099606513
1.8875901517035563,3.5338416503906247,0.7661445312499999,9.222464794921875,9.906001773994046
1.8900770952499377,2.844311572265625,1.2689268798828124,9.260772021484375,9.770475023279117
1.8925640387963192,2.1068974609374997,1.7525556152343749,9.294290844726563,9.68990765702968
1.8950509823427006,1.350329736328125,2.2026655273437497,9.34696328125,9.697466081569775
1.897537925889082,0.6081272216796875,2.6096798095703124,9.409212524414063,9.78332907326628
1.9000248694354638,-0.105344873046875,2.9831752685546875,9.476250170898437,9.93527802966008
1.9025118129818452,-0.7565677246093749,3.2704794677734372,9.514557397460937,10.089362375325155
1.9049987565282267,-1.3311761230468748,3.4859576171874997,9.552864624023437,10.255786313311921
1.9074857000746082,-1.8195932617187498,3.6679169433593746,9.576806640625,10.415361720717824
1.9099726436209896,-2.212242333984375,3.797203833007812,9.586383447265625,10.545687302954239
1.9124595871673713,-2.4947581298828125,3.8690298828125,9.610325463867188,10.656057708278732
1.9149465307137528,-2.6862942626953124,3.878606689453125,9.643844287109374,10.736083985852215
1.9174334742601342,-2.7820623291015623,3.84987626953125,9.672574707031249,10.77590458183472
1.9199204178065157,-2.786850732421875,3.787627026367187,9.6917283203125,10.772290997295553
1.9224073613528971,-2.7198130859375,3.6918589599609373,9.710881933593749,10.73910767852144
1.9248943048992786,-2.5857377929687497,3.5625720703124997,9.710881933593749,10.662044251378582
1.9273812484456603,-2.375048046875,3.418919970703125,9.6917283203125,10.54796022109416
1.9298681919920417,-2.1212626708984375,3.2800562744140622,9.643844287109374,10.404915046086746
1.9323551355384232,-1.848323681640625,3.1364041748046874,9.600748657226562,10.26779948962208
1.9348420790848047,-1.5610194824218748,2.9831752685546875,9.581595043945311,10.155938169050378
1.9373290226311861,-1.2689268798828124,2.839523168945312,9.567229833984374,10.060067293499932
1.9398159661775676,-0.9864110839843749,2.710236279296875,9.562441430664062,9.987926392955885
1.9423029097239493,-0.70868369140625,2.5809493896484375,9.543287817382812,9.911502141037907
1.9447898532703307,-0.45010991210937495,2.461239306640625,9.514557397460937,9.83804352130598
1.9472767968167122,-0.22505495605468748,2.360682836914062,9.485826977539062,9.777749569177626
1.9497637403630936,-0.033518823242187495,2.27927998046875,9.457096557617186,9.727945108858911
1.952250683909475,0.1197100830078125,2.221819140625,9.423577734375,9.68269735731886
1.9547376274558566,0.22505495605468748,2.1691467041015624,9.404424121093749,9.653964999240953
1.9572245710022382,0.3016694091796875,2.1404162841796874,9.399635717773437,9.644974750037377
1.9597115145486197,0.3495534423828125,2.1404162841796874,9.390058911132812,9.63725976785974
1.9621984580950012,0.3447650390625,2.1499930908203124,9.380482104492186,9.629889809101297
1.9646854016413826,0.32082302246093747,2.1643583007812497,9.366116894531249,9.61829090576519
1.967172345187764,0.27293898925781246,2.1883003173828124,9.342174877929686,9.598926263949283
1.9696592887341455,0.19632453613281248,2.2170307373046874,9.323021264648437,9.585014038316713
1.9721462322805272,0.09576806640624999,2.250549560546875,9.337386474609374,9.605255385633377
1.9746331758269087,-0.0047884033203125,2.29843359375,9.351751684570312,9.630061239864913
1.9771201193732901,-0.11013327636718749,2.3415292236328122,9.370905297851563,9.659645673884334
1.9796070629196716,-0.22505495605468748,2.379836450195312,9.404424121093749,9.703476918730365
1.982094006466053,-0.3447650390625,2.418143676757812,9.423577734375,9.734993533095532
1.9845809500124345,-0.44532150878906246,2.4516625,9.418789331054686,9.74282057326758
1.9870678935588162,-0.5315127685546874,2.4947581298828125,9.428366137695312,9.767313447217338
1.9895548371051976,-0.612915625,2.5330653564453125,9.437942944335937,9.791161968016516
1.992041780651579,-0.689530078125,2.5617957763671875,9.433154541015625,9.799114956113922
1.9945287241979606,-0.7517793212890624,2.5857377929687497,9.447519750976562,9.823789570577995
1.997015667744342,-0.7757213378906249,2.6192566162109374,9.471461767578125,9.85752691248255
1.9995026112907235,-0.7852981445312499,2.6479870361328124,9.485826977539062,9.879749084219677
2.001989554837105,-0.967257470703125,2.1787235107421874,7.187393383789062,7.572387127202792
2.0044764983834864,-1.005564697265625,2.2170307373046874,6.545747338867187,6.983780772248477
2.006963441929868,-1.005564697265625,2.2601263671875,6.114791040039062,6.596211110886693
2.0094503854762498,-0.9624690673828125,2.3223756103515623,5.947196923828125,6.456696247463965
2.011937329022631,-0.8762778076171874,2.398990063476562,6.0525417968749995,6.569343827483877
2.0144242725690127,-0.7805097412109374,2.47081611328125,6.382941625976562,6.888836732163112
2.016911216115394,-0.6703764648437499,2.5426421630859375,6.938396411132812,7.419958121993643
2.0193981596617756,-0.5506663818359374,2.6001030029296874,7.666233715820312,8.113871361779676
2.021885103208157,-0.44053310546874996,2.6527754394531247,8.475473876953124,8.89184707403892
2.0243720467545385,-0.33039982910156246,2.6958710693359373,9.313444458007812,9.701398483824342
2.02685899030092,-0.2537853759765625,2.729389892578125,10.146626635742187,10.510376220094123
2.0293459338473014,-0.21068974609375,2.7437551025390623,10.888829150390624,11.231170130410044
2.031832877393683,-0.1867477294921875,2.73896669921875,11.49216796875,11.815529523295316
2.0343198209400644,-0.201112939453125,2.7341782958984373,11.918335864257811,12.22959145439583
2.036806764486446,-0.239420166015625,2.710236279296875,12.143390820312499,12.444462355616727
2.0392937080328277,-0.2920926025390625,2.6671406494140624,12.16254443359375,12.454976693328543
2.041780651579209,-0.3687070556640625,2.6192566162109374,11.990161914062499,12.27845400854261
2.0442675951255906,-0.4644751220703125,2.5665841796874997,11.650185278320311,11.938589050203365
2.046754538671972,-0.5506663818359374,2.5234885498046875,11.161768139648437,11.456714010934835
2.0492414822183536,-0.622492431640625,2.4756045166015626,10.558429321289061,10.862621427755112
2.0517284257647352,-0.7038952880859375,2.427720483398437,9.90241806640625,10.21994025833766
2.0542153693111165,-0.7661445312499999,2.389413256835937,9.246406811523437,9.580830448290724
2.056702312857498,-0.8044517578125,2.35589443359375,8.633491186523438,8.98524074695072
2.0591892564038794,-0.82360537109375,2.3415292236328122,8.12113203125,8.491988599934393
2.061676199950261,-0.833182177734375,2.3415292236328122,7.723694555664062,8.113717349995337
2.0641631434966423,-0.8188169677734375,2.346317626953125,7.474697583007812,7.876977313074315
2.066650087043024,-0.7661445312499999,2.35589443359375,7.378929516601562,7.7836891533498465
2.0691370305894057,-0.718260498046875,2.360682836914062,7.436390356445312,7.8350892230393905
2.071623974135787,-0.6512228515624999,2.384624853515625,7.6231380859375,8.013910479389725
2.0741109176821686,-0.5746083984375,2.422932080078125,7.939172705078125,8.32053110788513
2.07659786122855,-0.507570751953125,2.461239306640625,8.360552197265624,8.73007216671169
2.0790848047749315,-0.44532150878906246,2.499546533203125,8.8489693359375,9.20599274528283
2.081571748321313,-0.39264907226562495,2.5378537597656248,9.356540087890625,9.7025624149609
2.0840586918676944,-0.3495534423828125,2.5761609863281247,9.8449572265625,10.182434671010954
2.086545635414076,-0.32561142578124996,2.6096798095703124,10.28549033203125,10.616391236168086
2.0890325789604574,-0.3112462158203125,2.6288334228515624,10.649408984374999,10.973493112425546
2.091519522506839,-0.32082302246093747,2.6527754394531247,10.9175595703125,11.239806578194695
2.0940064660532203,-0.354341845703125,2.6575638427734374,11.056423266601563,11.376849263846356
2.096493409599602,-0.38307226562499996,2.6527754394531247,11.080365283203124,11.399932311293338
2.0989803531459836,-0.4165910888671875,2.6575638427734374,10.979808813476561,11.30452985728455
2.101467296692365,-0.469263525390625,2.6527754394531247,10.759542260742187,11.091671445238758
2.1039542402387466,-0.507570751953125,2.6479870361328124,10.462661254882812,10.804477958059412
2.106441183785128,-0.5410895751953124,2.6144682128906247,10.13226142578125,10.478117367398365
2.1089281273315095,-0.5746083984375,2.6001030029296874,9.763554370117188,10.120163258348816
2.111415070877891,-0.6081272216796875,2.5953145996093747,9.380482104492186,9.75186756992688
2.1139020144242724,-0.63206923828125,2.5617957763671875,9.026140258789061,9.403909670617155
2.116388957970654,-0.6368576416015624,2.528276953125,8.705317236328124,9.087371467728214
2.1188759015170353,-0.63206923828125,2.518700146484375,8.456320263671875,8.84605642937402
2.121362845063417,-0.6272808349609375,2.518700146484375,8.312668164062499,8.70848917319347
2.1238497886097982,-0.6081272216796875,2.50912333984375,8.245630517578125,8.640366964701915
2.12633673215618,-0.5793968017578125,2.499546533203125,8.283937744140625,8.672200301788042
2.1288236757025616,-0.55545478515625,2.5139117431640625,8.40843623046875,8.793752447768284
2.131310619248943,-0.5410895751953124,2.518700146484375,8.595183959960938,8.972949106166558
2.1337975627953245,-0.507570751953125,2.5139117431640625,8.82981572265625,9.194728164373537
2.1362845063417057,-0.4740519287109375,2.528276953125,9.09796630859375,9.454623236021865
2.1387714498880874,-0.4644751220703125,2.5474305664062498,9.3852705078125,9.735935606529976
2.141258393434469,-0.45489831542968745,2.5713725830078125,9.662997900390625,10.009616269417059
2.1437453369808503,-0.44053310546874996,2.5857377929687497,9.911994873046874,10.253182516385259
2.146232280527232,-0.43574470214843747,2.5953145996093747,10.127473022460936,10.463806245199214
2.1487192240736133,-0.44053310546874996,2.6001030029296874,10.28549033203125,10.618188000462519
2.151206167619995,-0.45968671875,2.6096798095703124,10.371681591796875,10.704836272895173
2.153693111166376,-0.47884033203125,2.6001030029296874,10.395623608398436,10.726547156327365
2.156180054712758,-0.5027823486328125,2.5857377929687497,10.342951171874999,10.673118989680292
2.1586669982591395,-0.51714755859375,2.5809493896484375,10.218452685546874,10.55203850618667
2.161153941805521,-0.5410895751953124,2.5761609863281247,10.046070166015625,10.385225521690579
2.1636408853519025,-0.5698199951171875,2.5522189697265625,9.8449572265625,10.186348673058108
2.1661278288982837,-0.5793968017578125,2.528276953125,9.629479077148437,9.972700351601352
2.1686147724446654,-0.5889736083984375,2.5234885498046875,9.404424121093749,9.754900174875967
2.171101715991047,-0.584185205078125,2.5139117431640625,9.188945971679686,9.5445142713864
2.1735886595374283,-0.5698199951171875,2.499546533203125,9.006986645507812,9.364733639075869
2.17607560308381,-0.55545478515625,2.4851813232421875,8.863334545898438,9.221895439672986
2.178562546630191,-0.5458779785156249,2.4756045166015626,8.762778076171875,9.1221094107824
2.181049490176573,-0.5267243652343749,2.47081611328125,8.719682446289061,9.078283581531446
2.1835364337229546,-0.507570751953125,2.4564509033203126,8.734047656249999,9.087098963382513
2.186023377269336,-0.49799394531249996,2.461239306640625,8.796296899414061,9.14770659984032
2.1885103208157175,-0.4836287353515625,2.4756045166015626,8.896853369140624,9.24751395501865
2.1909972643620987,-0.469263525390625,2.4756045166015626,9.04050546875,9.38507139607253
2.1934842079084804,-0.45968671875,2.4899697265625,9.212887988281249,9.554505021360855
2.1959711514548617,-0.45968671875,2.5043349365234375,9.394847314453125,9.73376399013116
2.1984580950012433,-0.4644751220703125,2.5043349365234375,9.562441430664062,9.895843406612427
2.200945038547625,-0.45968671875,2.499546533203125,9.720458740234374,10.04720671986208
2.2034319820940063,-0.4644751220703125,2.50912333984375,9.86411083984375,10.18882327525087
2.205918925640388,-0.4740519287109375,2.528276953125,9.969455712890625,10.295967987231949
2.208405869186769,-0.488417138671875,2.5426421630859375,10.026916552734374,10.355802046502692
2.210892812733151,-0.507570751953125,2.5378537597656248,10.05564697265625,10.383369675249243
2.2133797562795325,-0.5267243652343749,2.5474305664062498,10.031704956054687,10.363490983878194
2.2158666998259138,-0.5363011718749999,2.5474305664062498,9.955090502929687,10.289841998744986
2.2183536433722955,-0.5458779785156249,2.5378537597656248,9.86411083984375,10.199968977114969
2.2208405869186767,-0.5602431884765625,2.5474305664062498,9.749189160156249,10.092074325994798
2.2233275304650584,-0.5698199951171875,2.5665841796874997,9.605537060546874,9.958834841476035
2.2258144740114396,-0.5793968017578125,2.5617957763671875,9.4618849609375,9.819662176863071
2.2283014175578213,-0.59376201171875,2.5665841796874997,9.323021264648437,9.688066534612021
2.230788361104203,-0.5889736083984375,2.5665841796874997,9.203311181640624,9.572626649406283
2.233275304650584,-0.584185205078125,2.5522189697265625,9.126696728515624,9.49482423205201
2.235762248196966,-0.5889736083984375,2.5426421630859375,9.069235888671875,9.437317345796217
2.238249191743347,-0.5793968017578125,2.5378537597656248,9.030928662109375,9.398620902023463
2.240736135289729,-0.5746083984375,2.5378537597656248,9.050082275390624,9.416733282240235
2.2432230788361105,-0.5698199951171875,2.528276953125,9.088389501953124,9.450698541258744
2.2457100223824917,-0.5506663818359374,2.518700146484375,9.13627353515625,9.493080532744951
2.2481969659288734,-0.5506663818359374,2.5139117431640625,9.217676391601563,9.570190373069455
2.2506839094752547,-0.55545478515625,2.499546533203125,9.327809667968749,9.672863903304544
2.2531708530216363,-0.5506663818359374,2.4851813232421875,9.437942944335937,9.775179113142457
2.2556577965680176,-0.5363011718749999,2.4851813232421875,9.528922607421874,9.86225690268622
2.2581447401143993,-0.5410895751953124,2.4947581298828125,9.619902270507811,9.952844605896486
2.260631683660781,-0.5410895751953124,2.499546533203125,9.696516723632811,10.028107865979683
2.263118627207162,-0.5315127685546874,2.5043349365234375,9.744400756835937,10.075095305120112
2.265605570753544,-0.5267243652343749,2.50912333984375,9.777919580078125,10.108454372749346
2.268092514299925,-0.5363011718749999,2.5043349365234375,9.777919580078125,10.1077704631497
2.2705794578463068,-0.5410895751953124,2.50912333984375,9.758765966796874,10.090688334184474
2.2730664013926885,-0.5219359619140624,2.50912333984375,9.734823950195311,10.066524446112673
2.2755533449390697,-0.5267243652343749,2.50912333984375,9.677363110351562,10.011218470349824
2.2780402884854514,-0.5410895751953124,2.50912333984375,9.605537060546874,9.942576129176643
2.2805272320318326,-0.5410895751953124,2.50912333984375,9.533711010742186,9.87320229202666
2.2830141755782143,-0.5363011718749999,2.5043349365234375,9.452308154296874,9.79313238269725
2.2855011191245955,-0.5315127685546874,2.5043349365234375,9.370905297851563,9.714322693771862
2.287988062670977,-0.5219359619140624,2.5043349365234375,9.299079248046874,9.644531377111436
2.290475006217359,-0.51714755859375,2.50912333984375,9.241618408203124,9.590133071795561
2.29296194976374,-0.507570751953125,2.5043349365234375,9.203311181640624,9.551453200882127
2.295448893310122,-0.5027823486328125,2.5043349365234375,9.184157568359375,9.532745344592048
2.297935836856503,-0.507570751953125,2.5043349365234375,9.203311181640624,9.551453200882127
2.3004227804028847,-0.5027823486328125,2.499546533203125,9.227253198242186,9.573020659447838
2.3029097239492664,-0.488417138671875,2.4947581298828125,9.275137231445312,9.617200220963886
2.3053966674956476,-0.4836287353515625,2.4899697265625,9.332598071289063,9.671154675274499
2.3078836110420293,-0.49799394531249996,2.499546533203125,9.390058911132812,9.729796359418854
2.3103705545884106,-0.507570751953125,2.5139117431640625,9.452308154296874,9.794054817308488
2.3128574981347922,-0.507570751953125,2.518700146484375,9.509768994140625,9.850745394032732
2.315344441681174,-0.507570751953125,2.528276953125,9.557653027343749,9.899421387689001
2.317831385227555,-0.5123591552734374,2.5474305664062498,9.605537060546874,9.950791758256871
2.320318328773937,-0.5219359619140624,2.5570073730468748,9.634267480468749,9.981473525455693
2.322805272320318,-0.5363011718749999,2.5713725830078125,9.65342109375,10.00440476594466
2.3252922158666998,-0.5363011718749999,2.5761609863281247,9.658209497070311,10.01025649340379
2.327779159413081,-0.5267243652343749,2.5809493896484375,9.643844287109374,9.997123133325422
2.3302661029594627,-0.5267243652343749,2.5809493896484375,9.629479077148437,9.983266279434687
2.3327530465058444,-0.5315127685546874,2.5809493896484375,9.595960253906249,9.951193836400323
2.3352399900522256,-0.5363011718749999,2.5809493896484375,9.552864624023437,9.909901171242808
2.3377269335986073,-0.5363011718749999,2.5857377929687497,9.509768994140625,9.869618290636158
2.3402138771449885,-0.5363011718749999,2.5953145996093747,9.457096557617186,9.82140275714192
2.34270082069137,-0.5410895751953124,2.5857377929687497,9.404424121093749,9.768419058976834
2.345187764237752,-0.5410895751953124,2.5809493896484375,9.375693701171874,9.73949228956549
2.347674707784133,-0.5410895751953124,2.5809493896484375,9.351751684570312,9.716446739944358
2.350161651330515,-0.5410895751953124,2.5761609863281247,9.337386474609374,9.701348851169215
2.352648594876896,-0.5410895751953124,2.5809493896484375,9.323021264648437,9.6887978192033
2.3551355384232777,-0.5410895751953124,2.5713725830078125,9.332598071289063,9.695469129921339
2.357622481969659,-0.5410895751953124,2.5665841796874997,9.356540087890625,9.717251396156811
2.3601094255160406,-0.5410895751953124,2.5713725830078125,9.3852705078125,9.746180656741615
2.3625963690624223,-0.5410895751953124,2.5761609863281247,9.409212524414063,9.770499664062969
2.3650833126088036,-0.5315127685546874,2.5713725830078125,9.418789331054686,9.777937167243943
2.3675702561551852,-0.5219359619140624,2.5522189697265625,9.433154541015625,9.786247667643353
2.3700571997015665,-0.5267243652343749,2.5426421630859375,9.471461767578125,9.820949839049582
2.372544143247948,-0.5315127685546874,2.5426421630859375,9.504980590820312,9.853536980420271
2.37503108679433,-0.5363011718749999,2.5378537597656248,9.528922607421874,9.875661330318426
2.377518030340711,-0.5410895751953124,2.5330653564453125,9.567229833984374,9.911664074447295
2.3800049738870928,-0.5458779785156249,2.518700146484375,9.586383447265625,9.926760840945906
2.382491917433474,-0.5363011718749999,2.4947581298828125,9.572018237304688,9.906309616040902
2.3849788609798557,-0.5219359619140624,2.4851813232421875,9.548076220703125,9.879995084719802
2.387465804526237,-0.5267243652343749,2.4851813232421875,9.533711010742186,9.866367639748184
2.3899527480726186,-0.5363011718749999,2.4756045166015626,9.524134204101562,9.855220393644673
2.3924396916190003,-0.5363011718749999,2.4851813232421875,9.514557397460937,9.848377918516578
2.3949266351653815,-0.5315127685546874,2.4851813232421875,9.495403784179686,9.829614695253438
2.397413578711763,-0.5267243652343749,2.47081611328125,9.457096557617186,9.788720351643347
2.3999005222581444,-0.5219359619140624,2.461239306640625,9.423577734375,9.753662562786364
2.402387465804526,-0.5267243652343749,2.4564509033203126,9.404424121093749,9.73420683192856
2.404874409350908,-0.5267243652343749,2.4660277099609376,9.3852705078125,9.718129126948346
2.407361352897289,-0.5267243652343749,2.47081611328125,9.361328491210937,9.696228232820197
2.4098482964436707,-0.5267243652343749,2.4756045166015626,9.34696328125,9.683582955734174
2.412335239990052,-0.5219359619140624,2.4851813232421875,9.342174877929686,9.681155654546181
2.4148221835364336,-0.5219359619140624,2.4947581298828125,9.351751684570312,9.692857929672714
2.417309127082815,-0.5219359619140624,2.499546533203125,9.3852705078125,9.72643061584269
2.4197960706291965,-0.5267243652343749,2.499546533203125,9.409212524414063,9.749792395644626
2.4222830141755782,-0.5315127685546874,2.4947581298828125,9.423577734375,9.762691292136678
2.4247699577219595,-0.5267243652343749,2.499546533203125,9.457096557617186,9.79601177667086
2.427256901268341,-0.5219359619140624,2.50912333984375,9.466673364257812,9.807447255450121
2.4297438448147224,-0.5123591552734374,2.518700146484375,9.471461767578125,9.814018053100732
2.432230788361104,-0.507570751953125,2.50912333984375,9.509768994140625,9.848301088243867
2.4347177319074857,-0.5219359619140624,2.50912333984375,9.533711010742186,9.872171124896216
2.437204675453867,-0.5315127685546874,2.5043349365234375,9.562441430664062,9.899216403953854
2.4396916190002487,-0.5267243652343749,2.5043349365234375,9.591171850585937,9.926716954698339
2.44217856254663,-0.5219359619140624,2.518700146484375,9.610325463867188,9.948599052011978
2.4446655060930116,-0.51714755859375,2.5378537597656248,9.591171850585937,9.934722984099157
2.4471524496393933,-0.507570751953125,2.5522189697265625,9.557653027343749,9.905563140415769
2.4496393931857745,-0.5027823486328125,2.5617957763671875,9.524134204101562,9.875460496991863
2.452126336732156,-0.5027823486328125,2.5761609863281247,9.481038574218749,9.837656629675571
2.4546132802785374,-0.507570751953125,2.5905261962890624,9.457096557617186,9.818611375443728
2.457100223824919,-0.507570751953125,2.6001030029296874,9.437942944335937,9.802700174677522
2.4595871673713003,-0.507570751953125,2.6001030029296874,9.414000927734374,9.779651177903325
2.462074110917682,-0.507570751953125,2.5953145996093747,9.414000927734374,9.778379180956703
2.4645610544640637,-0.51714755859375,2.5857377929687497,9.423577734375,9.785565841950818
2.467047998010445,-0.507570751953125,2.5761609863281247,9.414000927734374,9.773312998318483
2.4695349415568266,-0.5027823486328125,2.5665841796874997,9.399635717773437,9.756705185069448
2.472021885103208,-0.507570751953125,2.5761609863281247,9.399635717773437,9.759476682822678
2.4745088286495895,-0.51714755859375,2.5809493896484375,9.409212524414063,9.77046680967069
2.4769957721959712,-0.5123591552734374,2.5809493896484375,9.404424121093749,9.765603140888384
2.4794827157423525,-0.51714755859375,2.5809493896484375,9.414000927734374,9.77507825117885
2.481969659288734,-0.5315127685546874,2.5665841796874997,9.447519750976562,9.804360745079256
2.4844566028351154,-0.5315127685546874,2.5474305664062498,9.481038574218749,9.83168351604248
2.486943546381497,-0.5315127685546874,2.5378537597656248,9.504980590820312,9.85230244973042
2.4894304899278783,-0.5363011718749999,2.528276953125,9.528922607421874,9.8732046143536
2.49191743347426,-0.5410895751953124,2.528276953125,9.533711010742186,9.878087260013189
2.4944043770206417,-0.5458779785156249,2.518700146484375,9.5384994140625,9.880526517721583
2.496891320567023,-0.5410895751953124,2.4851813232421875,9.528922607421874,9.862518450984643
2.4993782641134046,-0.5410895751953124,2.4756045166015626,9.524134204101562,9.855482128680483
2.501865207659786,-0.5410895751953124,2.4899697265625,9.514557397460937,9.84984921900642
2.5043521512061675,-0.5363011718749999,2.4899697265625,9.495403784179686,9.831086471533354
2.506839094752549,-0.5410895751953124,2.499546533203125,9.481038574218749,9.819908515147006
2.5093260382989304,-0.5458779785156249,2.5043349365234375,9.452308154296874,9.793661505561
2.511812981845312,-0.5506663818359374,2.499546533203125,9.428366137695312,9.769598474971817
2.5142999253916933,-0.5458779785156249,2.4899697265625,9.414000927734374,9.753017249754544
2.516786868938075,-0.5363011718749999,2.4899697265625,9.409212524414063,9.747863792428713
2.5192738124844563,-0.5315127685546874,2.4899697265625,9.409212524414063,9.747601519959915
2.521760756030838,-0.5267243652343749,2.4947581298828125,9.409212524414063,9.748565895204196
2.5242476995772196,-0.5219359619140624,2.4851813232421875,9.404424121093749,9.74123895647473
2.526734643123601,-0.5363011718749999,2.480392919921875,9.442731347656249,9.777788261573425
2.5292215866699825,-0.5363011718749999,2.4851813232421875,9.457096557617186,9.792876005364365
2.5317085302163638,-0.5315127685546874,2.480392919921875,9.4618849609375,9.796025820420773
2.5341954737627455,-0.5315127685546874,2.4851813232421875,9.4618849609375,9.79723935843887
2.536682417309127,-0.5315127685546874,2.4899697265625,9.457096557617186,9.793831240246547
2.5391693608555084,-0.5315127685546874,2.499546533203125,9.442731347656249,9.782403283385653
2.54165630440189,-0.5315127685546874,2.50912333984375,9.437942944335937,9.780233779323776
2.5441432479482713,-0.5267243652343749,2.5043349365234375,9.447519750976562,9.787990676145725
2.546630191494653,-0.5267243652343749,2.50912333984375,9.447519750976562,9.789216921519946
2.549117135041034,-0.51714755859375,2.518700146484375,9.457096557617186,9.800406487761348
2.551604078587416,-0.51714755859375,2.528276953125,9.485826977539062,9.830592016601562
2.5540910221337976,-0.5315127685546874,2.5330653564453125,9.5001921875,9.846449995942503
2.556577965680179,-0.5219359619140624,2.528276953125,9.5001921875,9.844706856960151
2.5590649092265605,-0.51714755859375,2.5378537597656248,9.5001921875,9.84691804082638
2.5615518527729417,-0.5219359619140624,2.5474305664062498,9.490615380859374,9.84040649294553
2.5640387963193234,-0.51714755859375,2.5522189697265625,9.471461767578125,9.822924782440602
2.566525739865705,-0.5219359619140624,2.5617957763671875,9.476250170898437,9.830286468338782
2.5690126834120863,-0.5315127685546874,2.5570073730468748,9.490615380859374,9.843402503014762
2.571499626958468,-0.5219359619140624,2.5617957763671875,9.481038574218749,9.834902500481425
2.5739865705048492,-0.51714755859375,2.5665841796874997,9.471461767578125,9.826666981407062
2.576473514051231,-0.5267243652343749,2.5617957763671875,9.4618849609375,9.816695124672027
2.5789604575976126,-0.5219359619140624,2.5570073730468748,9.4618849609375,9.81519082179101
2.581447401143994,-0.51714755859375,2.5617957763671875,9.466673364257812,9.820801585548939
2.5839343446903755,-0.5219359619140624,2.5617957763671875,9.457096557617186,9.811823991911329
2.5864212882367568,-0.5219359619140624,2.5522189697265625,9.442731347656249,9.79547926963154
2.5889082317831384,-0.5123591552734374,2.5426421630859375,9.442731347656249,9.792482646270294
2.5913951753295197,-0.5123591552734374,2.5330653564453125,9.447519750976562,9.794619004795857
2.5938821188759014,-0.5219359619140624,2.5330653564453125,9.452308154296874,9.79974319521434
2.596369062422283,-0.51714755859375,2.5234885498046875,9.447519750976562,9.792398352980086
2.5988560059686643,-0.51714755859375,2.518700146484375,9.437942944335937,9.781925119617323
2.601342949515046,-0.5267243652343749,2.5234885498046875,9.442731347656249,9.788289346046986
2.603829893061427,-0.5219359619140624,2.5234885498046875,9.4618849609375,9.80651205186379
2.606316836607809,-0.5219359619140624,2.5234885498046875,9.452308154296874,9.797272123051481
2.6088037801541906,-0.5267243652343749,2.518700146484375,9.452308154296874,9.796296158682583
2.611290723700572,-0.5267243652343749,2.5139117431640625,9.457096557617186,9.799687041403137
2.6137776672469535,-0.5267243652343749,2.50912333984375,9.4618849609375,9.803081429096437
2.6162646107933347,-0.5315127685546874,2.499546533203125,9.485826977539062,9.824008964907977
2.6187515543397164,-0.5315127685546874,2.499546533203125,9.509768994140625,9.84712877018996
2.6212384978860976,-0.5219359619140624,2.499546533203125,9.509768994140625,9.846616492070021
2.6237254414324793,-0.5315127685546874,2.4899697265625,9.495403784179686,9.830826419327538
2.626212384978861,-0.5410895751953124,2.4851813232421875,9.485826977539062,9.820886802401537
2.6286993285252422,-0.5315127685546874,2.4899697265625,9.476250170898437,9.812327571162056
2.631186272071624,-0.5267243652343749,2.4947581298828125,9.4618849609375,9.799414456872572
2.633673215618005,-0.5315127685546874,2.4899697265625,9.4618849609375,9.798455086203623
2.636160159164387,-0.5363011718749999,2.4947581298828125,9.471461767578125,9.809180653258712
2.6386471027107685,-0.5410895751953124,2.4947581298828125,9.471461767578125,9.809443616724426
2.6411340462571498,-0.5410895751953124,2.4947581298828125,9.476250170898437,9.814067115954225
2.6436209898035314,-0.5315127685546874,2.50912333984375,9.476250170898437,9.817205460778439
2.6461079333499127,-0.5219359619140624,2.5139117431640625,9.466673364257812,9.808673406037416
2.6485948768962944,-0.5267243652343749,2.528276953125,9.466673364257812,9.812620826985158
2.6510818204426756,-0.5315127685546874,2.5330653564453125,9.457096557617186,9.804876400202856
2.6535687639890573,-0.51714755859375,2.5330653564453125,9.437942944335937,9.785633792346992
2.656055707535439,-0.51714755859375,2.528276953125,9.428366137695312,9.775158002585028
2.65854265108182,-0.5219359619140624,2.5378537597656248,9.428366137695312,9.777893785511033
2.661029594628202,-0.5219359619140624,2.5378537597656248,9.433154541015625,9.782511101398219
2.663516538174583,-0.5267243652343749,2.5330653564453125,9.452308154296874,9.79999939289499
2.666003481720965,-0.5267243652343749,2.5378537597656248,9.466673364257812,9.815092707072939
2.6684904252673465,-0.5219359619140624,2.5330653564453125,9.4618849609375,9.808980796309973
2.6709773688137277,-0.51714755859375,2.5378537597656248,9.466673364257812,9.814583429206984
2.6734643123601094,-0.5219359619140624,2.5522189697265625,9.476250170898437,9.827795079224227
2.6759512559064906,-0.5219359619140624,2.5474305664062498,9.457096557617186,9.80808314295382
2.6784381994528723,-0.5123591552734374,2.5474305664062498,9.452308154296874,9.802960973014253
2.6809251429992536,-0.51714755859375,2.5522189697265625,9.457096557617186,9.809074297143765
2.6834120865456352,-0.51714755859375,2.5570073730468748,9.457096557617186,9.810321279309377
2.685899030092017,-0.5123591552734374,2.5617957763671875,9.4618849609375,9.815934826485988
2.688385973638398,-0.5123591552734374,2.5570073730468748,9.452308154296874,9.805453995282205
2.69087291718478,-0.5267243652343749,2.5570073730468748,9.433154541015625,9.787754076264449
2.693359860731161,-0.5363011718749999,2.5713725830078125,9.433154541015625,9.792036586036762
2.6958468042775428,-0.5363011718749999,2.5713725830078125,9.452308154296874,9.810489557172259
2.6983337478239244,-0.5410895751953124,2.5713725830078125,9.466673364257812,9.8245936035328
2.7008206913703057,-0.5363011718749999,2.5665841796874997,9.471461767578125,9.827693590719585
2.7033076349166874,-0.5410895751953124,2.5617957763671875,9.481038574218749,9.83593757473184
2.7057945784630686,-0.5410895751953124,2.5522189697265625,9.490615380859374,9.842681540374132
2.7082815220094503,-0.5410895751953124,2.5570073730468748,9.5001921875,9.853157678309891
2.7107684655558315,-0.5458779785156249,2.5570073730468748,9.5001921875,9.85342179512683
2.713255409102213,-0.55545478515625,2.5474305664062498,9.495403784179686,9.846858663230002
2.715742352648595,-0.5506663818359374,2.5378537597656248,9.490615380859374,9.839497724855946
2.718229296194976,-0.5458779785156249,2.5330653564453125,9.485826977539062,9.83337766564773
2.720716239741358,-0.5458779785156249,2.5330653564453125,9.485826977539062,9.83337766564773
2.723203183287739,-0.5506663818359374,2.528276953125,9.476250170898437,9.82317337306229
2.7256901268341207,-0.55545478515625,2.5426421630859375,9.471461767578125,9.82253262669814
2.7281770703805024,-0.55545478515625,2.5378537597656248,9.476250170898437,9.825912121821677
2.7306640139268836,-0.5506663818359374,2.528276953125,9.476250170898437,9.82317337306229
2.7331509574732653,-0.5458779785156249,2.5378537597656248,9.4618849609375,9.811521364569312
2.7356379010196465,-0.5458779785156249,2.5378537597656248,9.452308154296874,9.802286157686481
2.7381248445660282,-0.5410895751953124,2.5330653564453125,9.452308154296874,9.80078198268871
2.74061178811241,-0.5315127685546874,2.5378537597656248,9.471461767578125,9.819969223158866
2.743098731658791,-0.5315127685546874,2.528276953125,9.495403784179686,9.84059872159482
2.745585675205173,-0.5363011718749999,2.5234885498046875,9.5001921875,9.844250352738186
2.748072618751554,-0.5267243652343749,2.518700146484375,9.490615380859374,9.833263410091101
2.7505595622979357,-0.5315127685546874,2.518700146484375,9.476250170898437,9.81965750688331
2.753046505844317,-0.5267243652343749,2.5139117431640625,9.466673364257812,9.80892937047148
2.7555334493906987,-0.51714755859375,2.50912333984375,9.466673364257812,9.80719359029159
2.7580203929370803,-0.507570751953125,2.5043349365234375,9.476250170898437,9.81471542348441
2.7605073364834616,-0.5027823486328125,2.50912333984375,9.481038574218749,9.820314784693474
2.7629942800298433,-0.5027823486328125,2.50912333984375,9.466673364257812,9.806446584272699
2.7654812235762245,-0.507570751953125,2.50912333984375,9.447519750976562,9.788205016645247
2.767968167122606,-0.507570751953125,2.5043349365234375,9.428366137695312,9.768490649479567
2.770455110668988,-0.507570751953125,2.50912333984375,9.423577734375,9.76509832610994
2.772942054215369,-0.49799394531249996,2.5043349365234375,9.423577734375,9.763375889499903
2.775428997761751,-0.488417138671875,2.499546533203125,9.437942944335937,9.775533294584836
2.777915941308132,-0.49320554199218747,2.4947581298828125,9.442731347656249,9.77917405189611
2.7804028848545137,-0.488417138671875,2.4947581298828125,9.433154541015625,9.769686485381634
2.782889828400895,-0.488417138671875,2.499546533203125,9.433154541015625,9.77091033464538
2.7853767719472766,-0.49799394531249996,2.4899697265625,9.433154541015625,9.768948346851332
2.7878637154936583,-0.49799394531249996,2.4947581298828125,9.437942944335937,9.774793251865985
2.7903506590400395,-0.507570751953125,2.50912333984375,9.442731347656249,9.783583357175269
2.792837602586421,-0.5123591552734374,2.5043349365234375,9.442731347656249,9.78260602714299
2.7953245461328025,-0.5123591552734374,2.50912333984375,9.437942944335937,9.779211566332005
2.797811489679184,-0.5123591552734374,2.50912333984375,9.442731347656249,9.783832947395982
2.800298433225566,-0.5123591552734374,2.499546533203125,9.457096557617186,9.795249873062714
2.802785376771947,-0.51714755859375,2.499546533203125,9.476250170898437,9.813994689750952
2.8052723203183287,-0.51714755859375,2.50912333984375,9.485826977539062,9.825683435757332
2.80775926386471,-0.5219359619140624,2.5043349365234375,9.495403784179686,9.833961747294165
2.8102462074110917,-0.5267243652343749,2.50912333984375,9.5001921875,9.840060471913587
2.812733150957473,-0.5267243652343749,2.5139117431640625,9.495403784179686,9.836660197138235
2.8152200945038546,-0.5363011718749999,2.50912333984375,9.5001921875,9.840577751379193
2.8177070380502363,-0.5363011718749999,2.50912333984375,9.490615380859374,9.831332523565036
2.8201939815966175,-0.5315127685546874,2.5234885498046875,9.495403784179686,9.839369558500481
2.822680925142999,-0.5410895751953124,2.528276953125,9.495403784179686,9.841120632565275
2.8251678686893804,-0.5410895751953124,2.518700146484375,9.485826977539062,9.82942225179554
2.827654812235762,-0.5315127685546874,2.528276953125,9.4618849609375,9.80825964118278
2.8301417557821438,-0.5363011718749999,2.5378537597656248,9.442731347656249,9.792522451182894
2.832628699328525,-0.5458779785156249,2.5378537597656248,9.433154541015625,9.78381771437247
2.8351156428749067,-0.5506663818359374,2.528276953125,9.433154541015625,9.78160633078591
2.837602586421288,-0.5458779785156249,2.5378537597656248,9.447519750976562,9.797668800203295
2.8400895299676696,-0.5458779785156249,2.5713725830078125,9.4618849609375,9.820244739419065
2.842576473514051,-0.5410895751953124,2.5809493896484375,9.476250170898437,9.836330361560877
2.8450634170604325,-0.5410895751953124,2.5809493896484375,9.471461767578125,9.831717331931682
2.847550360606814,-0.5506663818359374,2.5761609863281247,9.447519750976562,9.80792885050945
2.8500373041531954,-0.5363011718749999,2.5761609863281247,9.437942944335937,9.797907500837823
2.852524247699577,-0.5315127685546874,2.5761609863281247,9.447519750976562,9.806872115802674
2.8550111912459584,-0.5410895751953124,2.5809493896484375,9.452308154296874,9.813266893552772
2.85749813479234,-0.5458779785156249,2.5761609863281247,9.442731347656249,9.803048683900197
2.8599850783387217,-0.5363011718749999,2.5713725830078125,9.442731347656249,9.801262735566716
2.862472021885103,-0.5363011718749999,2.5665841796874997,9.452308154296874,9.809235583987359
2.8649589654314846,-0.5363011718749999,2.5570073730468748,9.457096557617186,9.811349598952502
2.867445908977866,0.1149216796875,1.0103531005859374,23.99947744140625,24.02101034180064
2.8699328525242476,-0.22026655273437498,1.149216796875,16.539145068359375,16.580486609044662
2.8724197960706292,-0.5793968017578125,1.37906015625,8.939948999023438,9.06422614863418
2.8749067396170105,-0.9241618408203125,1.695094775390625,1.7094599853515624,2.5786963464322716
2.877393683163392,-1.2114660400390624,2.059013427734375,-4.639962817382812,5.2188543961729215
2.8798806267097734,-1.4413093994140624,2.422932080078125,-9.720458740234374,10.121032100043447
2.882367570256155,-1.5753846923828123,2.77727392578125,-13.263877197265625,13.642782915958222
2.8848545138025363,-1.608903515625,3.0933085449218747,-15.093047265625,15.49055208955018
2.887341457348918,-1.5753846923828123,3.347093920898437,-15.160084912109374,15.604904651636794
2.8898284008952997,-1.4604630126953124,3.5242648437499997,-13.546392993164062,14.073313683194433
2.892315344441681,-1.2593500732421874,3.6104561035156246,-10.433930834960936,11.112527550073247
2.8948022879880626,-1.005564697265625,3.5960908935546874,-6.100425830078125,7.152497842249114
2.897289231534444,-0.7230489013671875,3.5098996337890624,-0.9145850341796874,3.6984673768719865
2.8997761750808255,-0.45010991210937495,3.361459130859375,4.721365673828124,5.813200516705016
2.902263118627207,-0.181959326171875,3.1459809814453124,10.453084448242187,10.917750684737182
2.9047500621735884,0.0430956298828125,2.901772412109375,15.835249780273436,16.09898369365731
2.90723700571997,0.21068974609375,2.6336218261718747,20.532673437499998,20.701957216249287
2.9097239492663514,0.316034619140625,2.370259643554687,24.262839624023435,24.38038956373423
2.912210892812733,0.3399766357421875,2.1452046874999997,26.810270190429687,26.898105415585782
2.9146978363591143,0.296881005859375,1.9584569580078124,28.04567824707031,28.115543038081302
2.917184779905496,0.19153613281249998,1.8243816650390623,27.959486987304686,28.019599696340478
2.9196717234518776,0.023942016601562498,1.7573440185546874,26.618734057617186,26.67669083769308
2.922158666998259,-0.181959326171875,1.7477672119140624,24.1718599609375,24.235647575309315
2.9246456105446406,-0.39264907226562495,1.8004396484374998,20.839131249999998,20.92044807063996
2.927132554091022,-0.622492431640625,1.8914193115234375,16.888698510742188,17.005678499436566
2.9296194976374035,-0.8283937744140625,2.0254946044921875,12.607865942382812,12.796372464859383
2.932106441183785,-0.9911994873046874,2.1739351074218747,8.288726147460936,8.626207244352354
2.9345933847301664,-1.120486376953125,2.346317626953125,4.256890551757812,4.988167328501863
2.937080328276548,-1.197100830078125,2.5330653564453125,0.7805097412109374,2.908378578095073
2.9395672718229293,-1.2018892333984375,2.7054478759765623,-1.9393033447265624,3.5390512007956043
2.942054215369311,-1.1731588134765625,2.825157958984375,-3.749319799804687,4.838927366272194
2.9445411589156922,-1.0917559570312498,2.916137622070312,-4.568136767578125,5.528441301837819
2.947028102462074,-0.9528922607421875,2.96881005859375,-4.4005426513671875,5.393200575826152
2.9495150460084556,-0.7900865478515624,2.987963671875,-3.31357509765625,4.531218774827404
2.952001989554837,-0.612915625,2.9640216552734375,-1.3934253662109375,3.3320750573027484
2.9544889331012185,-0.430956298828125,2.91134921875,1.1827356201171875,3.1718356124033065
2.9569758766475998,-0.277727392578125,2.839523168945312,4.189852905273438,5.0690128920129744
2.9594628201939814,-0.1388636962890625,2.7341782958984373,7.426813549804687,7.915337869192423
2.961949763740363,-0.0383072265625,2.6192566162109374,10.663774194335938,10.980803829089961
2.9644367072867444,0.0143652099609375,2.5139117431640625,13.6756798828125,13.904825740326194
2.966923650833126,0.028730419921875,2.403778466796875,16.270994482421873,16.44762103775097
2.9694105943795073,0.0,2.3127988037109373,18.258181860351563,18.40408224150603
2.971897537925889,-0.076614453125,2.2457611572265623,19.546262353515623,19.67500152330864
2.97438448147227,-0.19153613281249998,2.212242333984375,20.087351928710937,20.209710778294983
2.976871425018652,-0.32082302246093747,2.2074539306640624,19.86708537597656,19.991919907904965
2.9793583685650336,-0.4644751220703125,2.212242333984375,18.952500341796874,19.086828507876984
2.981845312111415,-0.612915625,2.250549560546875,17.44894169921875,17.60415306995999
2.9843322556577965,-0.737414111328125,2.308010400390625,15.480907934570311,15.66937146341675
2.9868191992041777,-0.8379705810546875,2.379836450195312,13.192051147460937,13.431158911338096
2.9893061427505594,-0.9145850341796874,2.4660277099609376,10.74517705078125,11.062395233568392
2.991793086296941,-0.9624690673828125,2.5426421630859375,8.317456567382813,8.75051196362079
2.9942800298433223,-0.9720458740234375,2.6288334228515624,6.081272216796875,6.696081699105307
2.996766973389704,-0.9433154541015625,2.7054478759765623,4.1754876953124995,5.063989509199147
2.9992539169360852,-0.8762778076171874,2.7533319091796873,2.7341782958984373,3.9779932569062417
3.001740860482467,-0.7517793212890624,2.47081611328125,9.437942944335937,9.784930834405964
3.0042278040288486,-0.7613561279296874,2.43250888671875,9.437942944335937,9.776069233492686
3.00671474757523,-0.7565677246093749,2.408566870117187,9.433154541015625,9.765141764686799
3.0092016911216115,-0.7326257080078125,2.379836450195312,9.442731347656249,9.765528007318506
3.0116886346679927,-0.7230489013671875,2.370259643554687,9.4618849609375,9.7810120900471
3.0141755782143744,-0.70868369140625,2.370259643554687,9.476250170898437,9.793859333979729
3.0166625217607557,-0.679953271484375,2.375048046875,9.4618849609375,9.779082609855706
3.0191494653071373,-0.6512228515624999,2.389413256835937,9.442731347656249,9.76209824875526
3.021636408853519,-0.6081272216796875,2.403778466796875,9.437942944335937,9.75821380457124
3.0241233523999003,-0.5698199951171875,2.422932080078125,9.428366137695312,9.751378503470505
3.026610295946282,-0.5506663818359374,2.437297290039062,9.428366137695312,9.753857676353272
3.029097239492663,-0.5267243652343749,2.4564509033203126,9.428366137695312,9.757339679635754
3.031584183039045,-0.5123591552734374,2.4756045166015626,9.447519750976562,9.779916107600455
3.0340711265854265,-0.5027823486328125,2.4947581298828125,9.4618849609375,9.798156726177039
3.036558070131808,-0.47884033203125,2.5139117431640625,9.471461767578125,9.811097203202714
3.0390450136781895,-0.45489831542968745,2.5139117431640625,9.471461767578125,9.809957836020146
3.0415319572245707,-0.43574470214843747,2.5234885498046875,9.452308154296874,9.7930586310015
3.0440189007709524,-0.43574470214843747,2.5378537597656248,9.437942944335937,9.782910720841086
3.0465058443173336,-0.44053310546874996,2.5426421630859375,9.442731347656249,9.788987378198334
3.0489927878637153,-0.43574470214843747,2.5426421630859375,9.447519750976562,9.793392265198255
3.051479731410097,-0.43574470214843747,2.5378537597656248,9.447519750976562,9.792150151856292
3.0539666749564782,-0.44053310546874996,2.5474305664062498,9.447519750976562,9.794850757044085
3.05645361850286,-0.44053310546874996,2.5570073730468748,9.457096557617186,9.806581026174456
3.058940562049241,-0.44532150878906246,2.5570073730468748,9.476250170898437,9.82526922040607
3.061427505595623,-0.44532150878906246,2.5522189697265625,9.481038574218749,9.828643108865341
3.0639144491420045,-0.45010991210937495,2.5522189697265625,9.485826977539062,9.833480261342832
3.0664013926883857,-0.4644751220703125,2.5522189697265625,9.481038574218749,9.829529554067083
3.0688883362347674,-0.47884033203125,2.5522189697265625,9.481038574218749,9.830218826599731
3.0713752797811487,-0.4836287353515625,2.5570073730468748,9.476250170898437,9.827079971228814
3.0738622233275303,-0.49320554199218747,2.5617957763671875,9.466673364257812,9.81956994435158
3.0763491668739116,-0.507570751953125,2.5617957763671875,9.466673364257812,9.820301943097235
3.0788361104202933,-0.51714755859375,2.5617957763671875,9.476250170898437,9.830033392548822
3.081323053966675,-0.5267243652343749,2.5570073730468748,9.476250170898437,9.829295120414296
3.083809997513056,-0.5219359619140624,2.5474305664062498,9.471461767578125,9.821935025935275
3.086296941059438,-0.5363011718749999,2.5522189697265625,9.476250170898437,9.8285684571986
3.088783884605819,-0.5410895751953124,2.5522189697265625,9.471461767578125,9.824214350904162
3.091270828152201,-0.5410895751953124,2.5474305664062498,9.457096557617186,9.80912104722644
3.0937577716985825,-0.5506663818359374,2.5426421630859375,9.466673364257812,9.817645706539574
3.0962447152449637,-0.5602431884765625,2.5378537597656248,9.4618849609375,9.812331076263485
3.0987316587913454,-0.55545478515625,2.5330653564453125,9.452308154296874,9.801585563681193
3.1012186023377266,-0.55545478515625,2.5234885498046875,9.442731347656249,9.789877414112924
3.1037055458841083,-0.5746083984375,2.5761609863281247,9.437942944335937,9.800078941497079
3.1061924894304895,-0.5746083984375,2.5761609863281247,9.442731347656249,9.804690486855971
3.108679432976871,-0.5698199951171875,2.5617957763671875,9.447519750976562,9.80525990842366
3.111166376523253,-0.565031591796875,2.5617957763671875,9.447519750976562,9.804982801853022
3.113653320069634,-0.565031591796875,2.5665841796874997,9.452308154296874,9.810848306590916
3.116140263616016,-0.565031591796875,2.5617957763671875,9.447519750976562,9.804982801853022
3.118627207162397,-0.565031591796875,2.5665841796874997,9.437942944335937,9.79700883288829
3.1211141507087787,-0.5698199951171875,2.5713725830078125,9.4618849609375,9.821604695847562
3.1236010942551604,-0.55545478515625,2.5665841796874997,9.481038574218749,9.837986420787487
3.1260880378015417,-0.5506663818359374,2.5665841796874997,9.490615380859374,9.846947147360494
3.1285749813479233,-0.5458779785156249,2.5617957763671875,9.485826977539062,9.840817741176235
3.1310619248943046,-0.5363011718749999,2.5665841796874997,9.471461767578125,9.827693590719585
3.1335488684406863,-0.5267243652343749,2.5522189697265625,9.457096557617186,9.809583861023794
3.136035811987068,-0.5315127685546874,2.5522189697265625,9.447519750976562,9.80061002885336
3.138522755533449,-0.5315127685546874,2.5474305664062498,9.447519750976562,9.79936415074416
3.141009699079831,-0.5363011718749999,2.5426421630859375,9.466673364257812,9.816850447165077
3.143496642626212,-0.55545478515625,2.5330653564453125,9.481038574218749,9.829295120414296
3.1459835861725938,-0.5506663818359374,2.518700146484375,9.481038574218749,9.825333395758568
3.148470529718975,-0.5506663818359374,2.50912333984375,9.485826977539062,9.827504609331953
3.1509574732653567,-0.5458779785156249,2.499546533203125,9.490615380859374,9.829419919124454
3.1534444168117384,-13.656526269531248,5.61200869140625,9.840168823242188,17.7432881330582
3.1559313603581196,-12.478579052734375,4.745307690429687,9.739612353515625,16.525523563534875
3.1584183039045013,-10.955866796875,3.897760302734375,9.658209497070311,15.11636739887395
3.1609052474508825,-9.179369165039063,3.1124621582031247,9.586383447265625,13.632570797627451
3.163392190997264,-7.244854223632812,2.422932080078125,9.519345800781249,12.205591221289263
3.165879134543646,-5.224148022460938,1.8148048583984373,9.457096557617186,10.95545136152518
3.168366078090027,-3.2034418212890623,1.3024457031249999,9.394847314453125,10.011071889356288
3.170853021636409,-1.2401964599609374,0.9002198242187499,9.327809667968749,9.45285756758597
3.17333996518279,0.5889736083984375,0.5985504150390625,9.265560424804686,9.303534946268547
3.1758269087291717,2.221819140625,0.4070142822265625,9.222464794921875,9.495051227516226
3.178313852275553,3.6343981201171873,0.3064578125,9.193734375,9.890779435636519
3.1808007958219346,4.7884033203125,0.2920926025390625,9.165003955078124,10.34463251851101
3.1832877393683163,5.664681127929687,0.3399766357421875,9.1554271484375,10.77153854675922
3.1857746829146976,6.2392895263671875,0.45010991210937495,9.160215551757812,11.092379441827623
3.1882616264610792,6.536170532226562,0.6177040283203125,9.17458076171875,11.281667236993378
3.1907485700074605,6.555324145507812,0.8188169677734375,9.203311181640624,11.328886643686692
3.193235513553842,6.311115576171875,1.0534487304687499,9.222464794921875,11.224695583270794
3.195722457100224,5.856217260742187,1.3072341064453123,9.236830004882812,11.014679757177328
3.198209400646605,5.204994409179688,1.5705962890624998,9.279925634765624,10.755266583845742
3.2006963441929868,4.4005426513671875,1.8195932617187498,9.313444458007812,10.460207595310452
3.203183287739368,3.4859576171874997,2.059013427734375,9.34696328125,10.186125828078788
3.2056702312857497,2.50912333984375,2.2936451904296873,9.399635717773437,9.995481970419037
3.208157174832131,1.4987702392578124,2.50912333984375,9.442731347656249,9.88469460674651
3.2106441183785126,0.49320554199218747,2.7054478759765623,9.442731347656249,9.835033056390197
3.2131310619248943,-0.4644751220703125,2.863465185546875,9.447519750976562,9.882853811169802
3.2156180054712755,-1.3407529296874998,2.9927520751953125,9.4618849609375,10.014062632921101
3.218104949017657,-2.1212626708984375,3.0933085449218747,9.466673364257812,10.182642960380285
3.2205918925640384,-2.7820623291015623,3.1603461914062496,9.481038574218749,10.373897594364708
3.22307883611042,-3.308786694335937,3.19865341796875,9.490615380859374,10.547570022725719
