Time (s),Acceleration x (m/s^2),Acceleration y (m/s^2),Acceleration z (m/s^2),Absolute acceleration (m/s^2)
0.0,1.1827356201171875,0.9624690673828125,-7.785943798828124,7.9338597852037225
0.002486943546381497,1.2210428466796874,1.3168109130859373,-7.273584643554687,7.491993738732329
0.004973887092762994,1.1252747802734375,1.7286135986328124,-5.482721801757812,5.857865367176694
0.007460830639144491,0.93852705078125,2.1787235107421874,-2.5234885498046875,3.4634756563752944
0.009947774185525988,0.59376201171875,2.6144682128906247,1.158793603515625,2.9207533237718866
0.012434717731907486,0.239420166015625,3.0693665283203124,5.406107348632812,6.221280379954735
0.014921661278288981,-0.2059013427734375,3.4620156005859375,9.639055883789062,10.243990712240267
0.01740860482467048,-0.6368576416015624,3.754108203125,13.747505932617187,14.265091497210296
0.019895548371051976,-1.0534487304687499,3.859453076171875,17.300501196289062,17.75704012265834
0.022382491917433474,-1.4173673828125,3.912125512695312,20.02031428222656,20.448145155100672
0.02486943546381497,-1.66636435546875,3.816357446289062,21.806388720703122,22.200449170263
0.027356379010196465,-1.7956512451171873,3.67749375,22.500707202148437,22.86985238850908
0.029843322556577963,-1.8770541015625,3.423708374023437,22.146365356445312,22.48792141643402
0.032330266102959464,-1.8148048583984373,3.0693665283203124,20.76730520019531,21.071200555196157
0.03481720964934096,-1.6711527587890624,2.710236279296875,18.54548605957031,18.816832502271524
0.03730415319572245,-1.4221557861328125,2.327164013671875,15.739481713867187,15.974025918587962
0.03979109674210395,-1.149216796875,2.0254946044921875,12.531251489257812,12.74580682130687
0.04227804028848545,-0.7757213378906249,1.7717092285156248,9.275137231445312,9.474643415274754
0.04476498383486695,-0.469263525390625,1.5610194824218748,6.177040283203125,6.3884909596145505
0.04725192738124844,-0.16280571289062498,1.465251416015625,3.4907460205078125,3.789297453615478
0.04973887092762994,0.12449848632812499,1.426944189453125,1.426944189453125,2.0218405754970066
0.05222581447401144,0.3495534423828125,1.4987702392578124,0.11013327636718749,1.5429287662526634
0.05471275802039293,0.469263525390625,1.637633935546875,-0.45010991210937495,1.762002297415044
0.05719970156677443,0.507570751953125,1.8626888916015625,-0.076614453125,1.932125189929928
0.059686645113155926,0.488417138671875,2.1260510742187497,1.024718310546875,2.4101228366008987
0.062173588659537427,0.40222587890625,2.384624853515625,2.6623522460937497,3.596712503376765
0.06466053220591893,0.21068974609375,2.5953145996093747,4.879382983398437,5.530680458924819
0.06714747575230041,-0.0047884033203125,2.887407202148437,7.321468676757812,7.8702634558552615
0.06963441929868192,-0.258573779296875,3.0837317382812497,9.821015209960937,10.297019063171003
0.07212136284506342,-0.55545478515625,3.2130186279296873,12.186486450195313,12.615168279597784
0.0746083063914449,-0.8188169677734375,3.294421484375,14.264653491210936,14.663015152680625
0.0770952499378264,-0.9911994873046874,3.318363500976562,15.830461376953124,16.204861003891736
0.0795821934842079,-1.20667763671875,3.2225954345703123,16.778565234374998,17.127797394237472
0.0820691370305894,-1.3455413330078123,3.0980969482421874,17.12811867675781,17.457982002071137
0.0845560805769709,-1.350329736328125,2.96881005859375,16.807295654296873,17.120818052060653
0.0870430241233524,-1.3646949462890625,2.7629087158203123,15.940594653320312,16.235720334184343
0.0895299676697339,-1.2593500732421874,2.5426421630859375,14.595053320312498,14.868307677716464
0.09201691121611538,-1.158793603515625,2.375048046875,12.856862915039061,13.125645883407802
0.09450385476249688,-0.9337386474609375,2.1835119140624997,10.922347973632812,11.17753449548405
0.09699079830887838,-0.74699091796875,2.001552587890625,8.987833032226561,9.238254749074759
0.09947774185525989,-0.5506663818359374,1.9297265380859374,7.163451367187499,7.439228015455493
0.10196468540164137,-0.3591302490234375,1.8626888916015625,5.5641246582031245,5.878611031075582
0.10445162894802287,-0.143652099609375,1.9009961181640624,4.453215087890625,4.844124976300026
0.10693857249440437,-0.028730419921875,1.924938134765625,3.6822821533203123,4.155167158655007
0.10942551604078586,0.09576806640624999,2.039859814453125,3.447650390625,4.007055377848008
0.11191245958716736,0.1388636962890625,2.1595698974609374,3.778050219726562,4.3539279657502865
0.11439940313354886,0.143652099609375,2.3367408203125,4.544194750976562,5.111819590110732
0.11688634667993036,0.1149216796875,2.499546533203125,5.66946953125,6.197081944744805
0.11937329022631185,-0.0,2.6527754394531247,7.091625317382812,7.571549852857775
0.12186023377269335,-0.16759411621093748,2.7820623291015623,8.619125976562499,9.058547962595826
0.12434717731907485,-0.316034619140625,2.896984008789062,10.13226142578125,10.543012654267736
0.12683412086545634,-0.488417138671875,2.987963671875,11.631031665039062,12.018626202646228
0.12932106441183785,-0.6847416748046875,3.0454245117187497,12.8329208984375,13.20709432098316
0.13180800795821934,-0.842758984375,2.978386865234375,13.742717529296874,14.086991024160872
0.13429495150460083,-0.9864110839843749,2.96881005859375,14.283807104492187,14.622379607606831
0.13678189505098234,-1.0534487304687499,2.85388837890625,14.379575170898436,14.697843896384978
0.13926883859736383,-1.0630255371093749,2.73896669921875,14.106636181640624,14.409342324795684
0.14175578214374532,-1.1252747802734375,2.6288334228515624,13.393164086914062,13.695030221040971
0.14424272569012683,-1.0342951171875,2.518700146484375,12.445060229492187,12.739432520054669
0.14672966923650832,-0.9624690673828125,2.39420166015625,11.214440576171874,11.50748563899403
0.1492166127828898,-0.842758984375,2.2026655273437497,9.916783276367187,10.193359048004206
0.15170355632927132,-0.7038952880859375,2.1547814941406247,8.614337573242187,8.907601455490282
0.1541904998756528,-0.5410895751953124,2.0973206542968748,7.4699091796875,7.777600851683307
0.15667744342203432,-0.39743747558593745,2.0542250244140625,6.469132885742187,6.799079150246754
0.1591643869684158,-0.3064578125,2.1164742675781247,5.8226984375,6.202999017429197
0.1616513305147973,-0.16759411621093748,2.1452046874999997,5.453991381835937,5.863106082291295
0.1641382740611788,-0.1197100830078125,2.27927998046875,5.434837768554687,5.894650906020463
0.1666252176075603,-0.06703764648437499,2.3319524169921872,5.7508723876953125,6.2060478036120745
0.1691121611539418,-0.062249243164062495,2.375048046875,6.354211206054687,6.783857917467775
0.1715991047003233,-0.1149216796875,2.5426421630859375,7.235277416992187,7.669907135213677
0.1740860482467048,-0.1580173095703125,2.6719290527343746,8.269572534179687,8.691950542371309
0.17657299179308628,-0.27293898925781246,2.73896669921875,9.404424121093749,9.798960522458302
0.1790599353394678,-0.38307226562499996,2.844311572265625,10.496180078124999,10.881481926339045
0.18154687888584928,-0.49320554199218747,2.858676782226562,11.444283935546874,11.8062237590734
0.18403382243223076,-0.6177040283203125,2.858676782226562,12.267889306640624,12.611688992828507
0.18652076597861228,-0.7038952880859375,2.882618798828125,12.828132495117186,13.166850155911563
0.18900770952499377,-0.842758984375,2.7437551025390623,13.038822241210937,13.351004464322186
0.19149465307137528,-0.9145850341796874,2.7150246826171873,12.981361401367186,13.293741709724612
0.19398159661775677,-0.9576806640625,2.6048914062499997,12.646173168945312,12.947135100539679
0.19646854016413826,-0.9576806640625,2.5474305664062498,12.038045947265624,12.34184366184641
0.19895548371051977,-0.8954314208984374,2.461239306640625,11.257536206054686,11.558184017600565
0.20144242725690126,-0.8188169677734375,2.3511060302734372,10.314220751953124,10.610434039770583
0.20392937080328274,-0.842758984375,2.2457611572265623,9.332598071289063,9.635926143411472
0.20641631434966426,-0.689530078125,2.1547814941406247,8.384494213867187,8.684369766338966
0.20890325789604575,-0.565031591796875,2.1595698974609374,7.541735229492187,7.865161989019141
0.21139020144242723,-0.49320554199218747,2.1739351074218747,6.87614716796875,7.228460792831197
0.21387714498880875,-0.39264907226562495,2.24097275390625,6.459556079101562,6.848503261060708
0.21636408853519024,-0.2537853759765625,2.2457611572265623,6.306327172851562,6.699075503635791
0.21885103208157172,-0.2154781494140625,2.3415292236328122,6.392518432617187,6.811276080834771
0.22133797562795324,-0.17238251953125,2.437297290039062,6.732495068359374,7.162166128941369
0.22382491917433472,-0.201112939453125,2.4756045166015626,7.307103466796875,7.71769558945599
0.22631186272071624,-0.181959326171875,2.6336218261718747,8.12113203125,8.53942964071164
0.22879880626709773,-0.2442085693359375,2.6719290527343746,8.911218579101561,9.30637734312917
0.2312857498134792,-0.32561142578124996,2.6958710693359373,9.758765966796874,10.129524017336388
0.23377269335986073,-0.37828386230468747,2.7581203125,10.644620581054687,11.002648483584226
0.23625963690624222,-0.488417138671875,2.8203695556640622,11.372457885742186,11.727140917326983
0.2387465804526237,-0.6081272216796875,2.8203695556640622,11.985373510742187,12.327752485358596
0.24123352399900522,-0.689530078125,2.7150246826171873,12.31577333984375,12.630323975031903
0.2437204675453867,-0.7757213378906249,2.710236279296875,12.46900224609375,12.783706086138196
0.2462074110917682,-0.8379705810546875,2.6431986328124997,12.306196533203124,12.614720243470943
0.2486943546381497,-0.8667010009765624,2.5953145996093747,11.966219897460936,12.275066074381408
0.2511812981845312,-0.8762778076171874,2.4851813232421875,11.429918725585937,11.729749830197328
0.2536682417309127,-0.8188169677734375,2.408566870117187,10.726023437499999,11.023576297025349
0.2561551852772942,-0.7709329345703124,2.308010400390625,9.90241806640625,10.197015894849109
0.2586421288236757,-0.7326257080078125,2.231395947265625,9.0788126953125,9.377670726682338
0.26112907237005717,-0.6177040283203125,2.221819140625,8.2743609375,8.58970823045094
0.2636160159164387,-0.584185205078125,2.2457611572265623,7.637503295898437,7.982241046473055
0.2661029594628202,-0.45489831542968745,2.2361843505859373,7.077260107421875,7.43606505857038
0.26858990300920166,-0.44532150878906246,2.2457611572265623,6.7803791015625,7.156486231552692
0.2710768465555832,-0.33039982910156246,2.3367408203125,6.746860278320312,7.147702100924571
0.2735637901019647,-0.24899697265624998,2.384624853515625,6.871358764648437,7.277637422742856
0.27605073364834615,-0.22505495605468748,2.446874096679687,7.196970190429687,7.604881491527684
0.27853767719472766,-0.2059013427734375,2.5330653564453125,7.766790185546874,8.172015984399845
0.2810246207411092,-0.258573779296875,2.6431986328124997,8.413224633789062,8.822454768965201
0.28351156428749064,-0.2825157958984375,2.6910826660156246,9.160215551757812,9.551507213258418
0.28599850783387215,-0.27293898925781246,2.7724855224609373,9.926360083007811,10.309888271055287
0.28848545138025367,-0.39743747558593745,2.7629087158203123,10.726023437499999,11.083284707195574
0.2909723949266351,-0.4836287353515625,2.786850732421875,11.372457885742186,11.718926235856156
0.29345933847301664,-0.5602431884765625,2.786850732421875,11.841721411132811,12.178126925513464
0.29594628201939815,-0.6512228515624999,2.7533319091796873,12.143390820312499,12.468635387216764
0.2984332255657796,-0.7326257080078125,2.6623522460937497,12.205640063476562,12.51409242691848
0.30092016911216113,-0.7757213378906249,2.5857377929687497,12.08592998046875,12.38375900204938
0.30340711265854264,-0.8188169677734375,2.528276953125,11.702857714843748,12.000813483772447
0.30589405620492416,-0.8379705810546875,2.43250888671875,11.166556542968749,11.459113369104829
0.3083809997513056,-0.7948749511718749,2.4133552734375,10.520122094726561,10.822618849048647
0.31086794329768713,-0.7852981445312499,2.2936451904296873,9.7683427734375,10.064691846984392
0.31335488684406865,-0.7326257080078125,2.2840683837890623,9.011775048828124,9.32554547147457
0.3158418303904501,-0.6512228515624999,2.231395947265625,8.279149340820313,8.59927513709592
0.3183287739368316,-0.5698199951171875,2.2457611572265623,7.690175732421874,8.031621305668816
0.32081571748321314,-0.49799394531249996,2.2457611572265623,7.192181787109375,7.5510873391653535
0.3233026610295946,-0.43574470214843747,2.29843359375,6.904877587890625,7.290404991088165
0.3257896045759761,-0.354341845703125,2.327164013671875,6.890512377929687,7.281511609586839
0.3282765481223576,-0.3064578125,2.375048046875,7.038952880859375,7.435161550011239
0.3307634916687391,-0.26815058593749996,2.50912333984375,7.321468676757812,7.744127339864257
0.3332504352151206,-0.24899697265624998,2.5761609863281247,7.900865478515625,8.313981009689101
0.3357373787615021,-0.21068974609375,2.6671406494140624,8.542511523437499,8.951677638349604
0.3382243223078836,-0.2920926025390625,2.6862942626953124,9.255983618164063,9.642340363934956
0.3407112658542651,-0.49320554199218747,2.5426421630859375,9.95987890625,10.291135442861387
0.3431982094006466,-0.3591302490234375,2.7820623291015623,10.663774194335938,11.026555464266922
0.34568515294702806,-0.45968671875,2.7820623291015623,11.228805786132812,11.577446266992167
0.3481720964934096,-0.5458779785156249,2.7533319091796873,11.722011328125,12.053396573009044
0.3506590400397911,-0.612915625,2.767697119140625,12.038045947265624,12.367310262751024
0.35314598358617255,-0.6703764648437499,2.7198130859375,12.114660400390624,12.43429871138079
0.35563292713255407,-0.718260498046875,2.6192566162109374,11.961431494140625,12.265897714950933
0.3581198706789356,-0.8044517578125,2.5234885498046875,11.602301245117188,11.90077859949049
0.36060681422531704,-0.7805097412109374,2.4899697265625,11.118672509765624,11.420771562146783
0.36309375777169856,-0.7709329345703124,2.422932080078125,10.500968481445312,10.804410048798813
0.36558070131808007,-0.7709329345703124,2.346317626953125,9.787496386718749,10.09428697413486
0.36806764486446153,-0.6943184814453125,2.2553379638671873,9.04050546875,9.343413006789103
0.37055458841084304,-0.6464344482421874,2.269703173828125,8.360552197265624,8.687247149492334
0.37304153195722456,-0.612915625,2.24097275390625,7.79552060546875,8.134357132398796
0.3755284755036061,-0.51714755859375,2.2361843505859373,7.316680273437499,7.668231365241556
0.37801541904998753,-0.45489831542968745,2.3223756103515623,7.019799267578125,7.407964815658005
0.38050236259636905,-0.38307226562499996,2.360682836914062,6.938396411132812,7.338999426026165
0.38298930614275056,-0.3447650390625,2.408566870117187,7.019799267578125,7.4295113605859875
0.385476249689132,-0.27293898925781246,2.4516625,7.407659936523437,7.80759696967881
0.38796319323551354,-0.2920926025390625,2.5474305664062498,7.843404638671874,8.251891716755521
0.39045013678189505,-0.32561142578124996,2.5378537597656248,8.432378247070313,8.812021754865361
0.3929370803282765,-0.27293898925781246,2.6575638427734374,9.145850341796875,9.528049104870304
0.395424023874658,-0.373495458984375,2.70065947265625,9.859322436523437,10.229335235119843
0.39791096742103954,-0.354341845703125,2.7629087158203123,10.596736547851561,10.956735288403438
0.400397910967421,-0.43574470214843747,2.7724855224609373,11.1474029296875,11.495266047139204
0.4028848545138025,-0.5027823486328125,2.7724855224609373,11.664550488281249,12.000050173062382
0.40537179806018403,-0.55545478515625,2.7198130859375,11.937489477539062,12.256001316381525
0.4078587416065655,-0.6464344482421874,2.70065947265625,12.08592998046875,12.40085249391813
0.410345685152947,-0.70868369140625,2.6096798095703124,11.956643090820311,12.258628605362233
0.4128326286993285,-0.718260498046875,2.528276953125,11.664550488281249,11.95699881192684
0.41531957224571,-0.7900865478515624,2.422932080078125,11.166556542968749,11.453681576029862
0.4178065157920915,-0.7517793212890624,2.39420166015625,10.577582934570312,10.871183674058951
0.420293459338473,-0.7757213378906249,2.3367408203125,9.90241806640625,10.203920071093387
0.42278040288485447,-0.7230489013671875,2.27927998046875,9.165003955078124,9.471811571169033
0.425267346431236,-0.6560112548828124,2.288856787109375,8.528146313476562,8.854292501521138
0.4277542899776175,-0.59376201171875,2.2361843505859373,7.848193041992187,8.18212733955787
0.43024123352399896,-0.5363011718749999,2.288856787109375,7.3932947265625,7.758046871002264
0.43272817707038047,-0.45489831542968745,2.2840683837890623,7.101202124023437,7.473350819106548
0.435215120616762,-0.44532150878906246,2.31758720703125,7.0102224609374995,7.39680611211472
0.43770206416314344,-0.3495534423828125,2.418143676757812,7.034164477539062,7.4464136567610755
0.44018900770952496,-0.277727392578125,2.4756045166015626,7.345410693359375,7.7563398894919855
0.4426759512559065,-0.296881005859375,2.5139117431640625,7.766790185546874,8.168899581361341
0.445162894802288,-0.3016694091796875,2.6288334228515624,8.322244970703125,8.7327848335986
0.44764983834866945,-0.3016694091796875,2.6575638427734374,9.02135185546875,9.409486665648716
0.45013678189505096,-0.33518823242187495,2.7246014892578123,9.782707983398437,10.160569861718756
0.4526237254414325,-0.39264907226562495,2.7581203125,10.405200415039062,10.771703515661077
0.45511066898781394,-0.44532150878906246,2.7533319091796873,11.037269653320312,11.384220186222802
0.45759761253419545,-0.49320554199218747,2.7581203125,11.568782421875,11.903243511310727
0.46008455608057697,-0.6081272216796875,2.6910826660156246,11.846509814453125,12.163533179837666
0.4625714996269584,-0.6272808349609375,2.6767174560546874,11.975796704101562,12.287310701834922
0.46505844317333994,-0.699106884765625,2.6431986328124997,12.00931552734375,12.316611095757155
0.46754538671972146,-0.6943184814453125,2.5713725830078125,11.717222924804688,12.016128668747239
0.4700323302661029,-0.7661445312499999,2.442085693359375,11.267113012695312,11.554159234549386
0.47251927381248443,-0.7948749511718749,2.389413256835937,10.678139404296875,10.971042932991441
0.47500621735886595,-0.7326257080078125,2.39420166015625,10.0748005859375,10.381259502773998
0.4774931609052474,-0.7230489013671875,2.308010400390625,9.370905297851563,9.677994514535646
0.4799801044516289,-0.7326257080078125,2.1978771240234374,8.667010009765624,8.971313548735045
0.48246704799801043,-0.6464344482421874,2.221819140625,8.034940771484374,8.361496934806812
0.4849539915443919,-0.55545478515625,2.2840683837890623,7.498639599609374,7.858440955113654
0.4874409350907734,-0.507570751953125,2.3032219970703123,7.163451367187499,7.541716987933667
0.4899278786371549,-0.411802685546875,2.2840683837890623,6.995857250976562,7.370791579585584
0.4924148221835364,-0.39743747558593745,2.360682836914062,7.038952880859375,7.434893251584668
0.4949017657299179,-0.33039982910156246,2.4516625,7.240065820312499,7.651036932562402
0.4973887092762994,-0.3064578125,2.5043349365234375,7.6087728759765625,8.016173310459973
0.49987565282268087,-0.3016694091796875,2.5330653564453125,8.183381274414062,8.571764906650728
0.5023625963690624,-0.3112462158203125,2.6431986328124997,8.86812294921875,9.258886426661933
0.5048495399154439,-0.3591302490234375,2.7198130859375,9.5001921875,9.888377488629594
0.5073364834618254,-0.37828386230468747,2.7150246826171873,10.24718310546875,10.607507685818799
0.5098234270082069,-0.40222587890625,2.767697119140625,10.864887133789061,11.219077744223734
0.5123103705545884,-0.488417138671875,2.7341782958984373,11.434707128906249,11.76719207708321
0.5147973141009698,-0.5219359619140624,2.6958710693359373,11.79862578125,12.113946850502474
0.5172842576473514,-0.622492431640625,2.73896669921875,12.023680737304687,12.347401908074058
0.5197712011937329,-0.699106884765625,2.6288334228515624,12.014103930664062,12.31820639777666
0.5222581447401143,-0.7230489013671875,2.5617957763671875,11.745953344726562,12.043795800746299
0.5247450882864959,-0.7278373046875,2.4756045166015626,11.415553515625,11.70355616608948
0.5272320318328774,-0.7661445312499999,2.442085693359375,10.86009873046875,11.157620911825413
0.5297189753792588,-0.737414111328125,2.35589443359375,10.24718310546875,10.540340589887409
0.5322059189256404,-0.7230489013671875,2.3223756103515623,9.567229833984374,9.871581174543659
0.5346928624720219,-0.679953271484375,2.2457611572265623,8.86812294921875,9.173297349872081
0.5371798060184033,-0.6655880615234374,2.2649147705078123,8.188169677734374,8.521676422903866
0.5396667495647849,-0.5793968017578125,2.1883003173828124,7.694964135742187,8.021024372441676
0.5421536931111663,-0.5219359619140624,2.2361843505859373,7.254431030273437,7.609185710122913
0.5446406366575478,-0.47884033203125,2.288856787109375,7.058106494140625,7.435389750248907
0.5471275802039294,-0.411802685546875,2.3415292236328122,7.048529687499999,7.4386901610780205
0.5496145237503108,-0.3112462158203125,2.427720483398437,7.182604980468749,7.588182605725121
0.5521014672966923,-0.3016694091796875,2.518700146484375,7.589619262695312,8.002323126006033
0.5545884108430739,-0.26336218261718747,2.6096798095703124,8.068459594726562,8.484092678621973
0.5570753543894553,-0.3112462158203125,2.6048914062499997,8.690952026367187,9.078269690300761
0.5595622979358368,-0.33518823242187495,2.6958710693359373,9.366116894531249,9.752139132296067
0.5620492414822184,-0.3591302490234375,2.6910826660156246,10.046070166015625,10.406460792776889
0.5645361850285998,-0.37828386230468747,2.7246014892578123,10.716446630859375,11.0638501593163
0.5670231285749813,-0.4740519287109375,2.73896669921875,11.233594189453123,11.572393971165118
0.5695100721213628,-0.51714755859375,2.7724855224609373,11.688492504882811,12.0239334082619
0.5719970156677443,-0.584185205078125,2.748543505859375,11.961431494140625,12.287050384305141
0.5744839592141258,-0.6464344482421874,2.6336218261718747,12.00931552734375,12.311681479573078
0.5769709027605073,-0.70868369140625,2.5905261962890624,11.870451831054687,12.170484181885069
0.5794578463068888,-0.7230489013671875,2.5713725830078125,11.568782421875,11.873141260807795
0.5819447898532703,-0.7517793212890624,2.442085693359375,11.046846459960937,11.338508340676029
0.5844317333996518,-0.7278373046875,2.389413256835937,10.395623608398436,10.691493490692917
0.5869186769460333,-0.7565677246093749,2.31758720703125,9.773131176757811,10.072621217053237
0.5894056204924147,-0.6943184814453125,2.2361843505859373,9.054870678710937,9.352715199965251
0.5918925640387963,-0.6703764648437499,2.2361843505859373,8.365340600585936,8.684978319963346
0.5943795075851778,-0.5746083984375,2.2266075439453124,7.829039428710937,8.15976803240261
0.5968664511315592,-0.5315127685546874,2.2649147705078123,7.369352709960937,7.7278524898324585
0.5993533946779408,-0.43574470214843747,2.2936451904296873,7.115567333984375,7.488790302144745
0.6018403382243223,-0.4165910888671875,2.3367408203125,6.976703637695312,7.369416492835053
0.6043272817707037,-0.3447650390625,2.398990063476562,7.110778930664062,7.512469185134472
0.6068142253170853,-0.3447650390625,2.442085693359375,7.4220251464843745,7.821067877273327
0.6093011688634667,-0.27293898925781246,2.50912333984375,7.8338278320312495,8.230373875366364
0.6117881124098483,-0.27293898925781246,2.6192566162109374,8.456320263671875,8.856881692515117
0.6142750559562298,-0.32561142578124996,2.6623522460937497,9.169792358398437,9.554016651598536
0.6167619995026112,-0.3447650390625,2.73896669921875,9.821015209960937,10.201624442502924
0.6192489430489928,-0.411802685546875,2.70065947265625,10.496180078124999,10.845871992214349
0.6217358865953743,-0.4070142822265625,2.729389892578125,11.0707884765625,11.409539311665176
0.6242228301417557,-0.5410895751953124,2.7437551025390623,11.516109985351562,11.850812596012483
0.6267097736881373,-0.5746083984375,2.7150246826171873,11.846509814453125,12.167223537960897
0.6291967172345188,-0.59376201171875,2.6862942626953124,11.994950317382811,12.306403345772152
0.6316836607809002,-0.689530078125,2.6096798095703124,11.9518546875,12.252865416229533
0.6341706043272818,-0.7422025146484375,2.5474305664062498,11.626243261718749,11.925175027817073
0.6366575478736632,-0.7422025146484375,2.4756045166015626,11.2240173828125,11.517727575570005
0.6391444914200447,-0.7661445312499999,2.35589443359375,10.658985791015624,10.943088874631115
0.6416314349664263,-0.718260498046875,2.3223756103515623,9.969455712890625,10.261548315429687
0.6441183785128077,-0.6751648681640625,2.288856787109375,9.313444458007812,9.614310202167188
0.6466053220591892,-0.6943184814453125,2.2649147705078123,8.652644799804687,8.97107457905284
0.6490922656055708,-0.612915625,2.24097275390625,8.049305981445311,8.377884651273886
0.6515792091519522,-0.5506663818359374,2.2170307373046874,7.517793212890624,7.857205199434618
0.6540661526983337,-0.5027823486328125,2.2601263671875,7.173028173828125,7.537459417355754
0.6565530962447153,-0.4165910888671875,2.31758720703125,7.000645654296875,7.386054303519855
0.6590400397910967,-0.3687070556640625,2.398990063476562,7.005434057617187,7.41398708881925
0.6615269833374782,-0.32082302246093747,2.4756045166015626,7.283161450195312,7.6990899360879075
0.6640139268838597,-0.3016694091796875,2.4899697265625,7.723694555664062,8.12073957597627
0.6665008704302412,-0.26815058593749996,2.5570073730468748,8.264784130859374,8.655451933449786
0.6689878139766227,-0.24899697265624998,2.6958710693359373,8.963891015625,9.363816660682602
0.6714747575230042,-0.32561142578124996,2.729389892578125,9.562441430664062,9.949667235701277
0.6739617010693857,-0.36391865234375,2.70065947265625,10.280701928710936,10.635733661566201
0.6764486446157671,-0.4070142822265625,2.767697119140625,10.89840595703125,11.251713663859826
0.6789355881621487,-0.5027823486328125,2.767697119140625,11.449072338867186,11.78957992695286
0.6814225317085302,-0.5410895751953124,2.7629087158203123,11.827356201171874,12.157828638771797
0.6839094752549116,-0.6655880615234374,2.6575638427734374,11.93270107421875,12.243161682046045
0.6863964188012932,-0.689530078125,2.6479870361328124,11.942277880859374,12.251746326782545
0.6888833623476747,-0.70868369140625,2.5857377929687497,11.755530151367187,12.0573944800755
0.6913703058940561,-0.7278373046875,2.461239306640625,11.415553515625,11.700525976841634
0.6938572494404377,-0.7661445312499999,2.4133552734375,10.836156713867187,11.128052545080912
0.6963441929868192,-0.7709329345703124,2.3511060302734372,10.199299072265624,10.495129285564412
0.6988311365332006,-0.7948749511718749,2.288856787109375,9.524134204101562,9.827503442768894
0.7013180800795822,-0.689530078125,2.2601263671875,8.858546142578124,9.168285700417554
0.7038050236259636,-0.6272808349609375,2.27927998046875,8.207323291015625,8.541004278099997
0.7062919671723451,-0.5889736083984375,2.2457611572265623,7.6470801025390625,7.9917562013206025
0.7087789107187267,-0.4740519287109375,2.269703173828125,7.220912207031249,7.584052401589333
0.7112658542651081,-0.4213794921875,2.308010400390625,7.053318090820312,7.433287884579783
0.7137527978114896,-0.3687070556640625,2.365471240234375,7.038952880859375,7.434934884733753
0.7162397413578712,-0.3399766357421875,2.39420166015625,7.163451367187499,7.560609842625525
0.7187266849042526,-0.316034619140625,2.4851813232421875,7.5465236328125,7.951479298249145
0.7212136284506341,-0.2920926025390625,2.5761609863281247,8.073247998046874,8.47934294352487
0.7237005719970157,-0.24899697265624998,2.6527754394531247,8.681375219726561,9.081051300936478
0.7261875155433971,-0.26815058593749996,2.6767174560546874,9.323021264648437,9.703372948484121
0.7286744590897786,-0.3447650390625,2.748543505859375,10.070012182617187,10.444065285788867
0.7311614026361601,-0.4165910888671875,2.767697119140625,10.702081420898438,11.062017999359899
0.7336483461825416,-0.4261678955078125,2.7629087158203123,11.214440576171874,11.55763648345143
0.7361352897289231,-0.507570751953125,2.7581203125,11.6837041015625,12.015564791524854
0.7386222332753046,-0.59376201171875,2.7341782958984373,11.942277880859374,12.26565470180803
0.7411091768216861,-0.6272808349609375,2.6767174560546874,11.985373510742187,12.296644899217739
0.7435961203680675,-0.6703764648437499,2.6288334228515624,11.870451831054687,12.176526452281351
0.7460830639144491,-0.7134720947265625,2.5665841796874997,11.568782421875,11.87152574465724
0.7485700074608306,-0.7757213378906249,2.461239306640625,11.046846459960937,11.344261070187125
0.7510569510072121,-0.7422025146484375,2.427720483398437,10.500968481445312,10.8034730696462
0.7535438945535936,-0.6943184814453125,2.308010400390625,9.80665,10.098483766610105
0.7560308380999751,-0.6847416748046875,2.2936451904296873,9.093177905273437,9.4029550587966
0.7585177816463566,-0.6464344482421874,2.2553379638671873,8.384494213867187,8.706559024638098
0.7610047251927381,-0.6177040283203125,2.1835119140624997,7.829039428710937,8.151266215856682
0.7634916687391196,-0.49799394531249996,2.250549560546875,7.45075556640625,7.799149300044163
0.7659786122855011,-0.5027823486328125,2.2840683837890623,7.067683300781249,7.444589022374818
0.7684655558318826,-0.40222587890625,2.370259643554687,7.005434057617187,7.406485183347679
0.770952499378264,-0.354341845703125,2.398990063476562,7.105990527343749,7.508382838066708
0.7734394429246456,-0.3399766357421875,2.422932080078125,7.37414111328125,7.769436346100476
0.7759263864710271,-0.26815058593749996,2.5761609863281247,7.862558251953125,8.278184126339177
0.7784133300174085,-0.258573779296875,2.6575638427734374,8.432378247070313,8.845027353231938
0.7809002735637901,-0.277727392578125,2.6862942626953124,9.09796630859375,9.4903266710206
0.7833872171101716,-0.3399766357421875,2.6862942626953124,9.821015209960937,10.187448195349235
0.785874160656553,-0.3399766357421875,2.7916391357421872,10.55364091796875,10.92191236929148
0.7883611042029346,-0.45489831542968745,2.73896669921875,11.080365283203124,11.42293157932862
0.790848047749316,-0.488417138671875,2.8107927490234372,11.578359228515625,11.924659726963453
0.7933349912956975,-0.5267243652343749,2.767697119140625,11.89439384765625,12.2235097620689
0.7958219348420791,-0.6512228515624999,2.6575638427734374,11.999738720703125,12.307740090932851
0.7983088783884605,-0.7038952880859375,2.5570073730468748,11.923124267578125,12.214526089149592
0.800795821934842,-0.718260498046875,2.499546533203125,11.650185278320311,11.936936291774938
0.8032827654812236,0.7709329345703124,1.0678139404296874,-4.99909306640625,5.169670752337349
0.805769709027605,0.7230489013671875,1.3407529296874998,-4.726154077148437,4.96557655194044
0.8082566525739865,0.622492431640625,1.695094775390625,-3.356670727539062,3.8115720507585933
0.8107435961203681,0.3399766357421875,2.1116858642578125,-1.1061211669921875,2.4079670550539096
0.8132305396667495,0.076614453125,2.528276953125,1.8004396484374998,3.1047764901513317
0.815717483213131,-0.2346317626953125,2.887407202148437,5.1140147460937495,5.877526625915743
0.8182044267595125,-0.5458779785156249,3.189076611328125,8.52335791015625,9.11678794669326
0.820691370305894,-0.7996633544921875,3.4811692138671875,11.827356201171874,12.354932427394864
0.8231783138522755,-1.0726023437499999,3.6679169433593746,14.777012646484375,15.263164588169778
0.825665257398657,-1.2737152832031249,3.7014357666015623,17.171214306640625,17.6117454592531
0.8281522009450385,-1.350329736328125,3.6918589599609373,18.818425048828125,19.224628326587165
0.83063914449142,-1.388636962890625,3.6104561035156246,19.670760839843748,20.047507024776163
0.8331260880378015,-1.388636962890625,3.414131567382812,19.737798486328124,20.07897646945687
0.835613031584183,-1.3168109130859373,3.1651345947265623,19.000384375,19.307166399585963
0.8380999751305644,-1.1444283935546875,2.882618798828125,17.67878505859375,17.94877847195427
0.840586918676946,-0.9337386474609375,2.6240450195312497,15.753846923828124,15.998161551431396
0.8430738622233275,-0.7661445312499999,2.3367408203125,13.508085766601562,13.73010255540514
0.8455608057697089,-0.5746083984375,2.059013427734375,11.137826123046874,11.341114665427325
0.8480477493160905,-0.3399766357421875,1.8722656982421875,8.796296899414061,8.999766780328606
0.850534692862472,-0.16759411621093748,1.7764976318359373,6.622361791992187,6.858549943519052
0.8530216364088534,-0.11013327636718749,1.6519991455078125,4.76924970703125,5.048462467260658
0.855508579955235,0.033518823242187495,1.7764976318359373,3.4763808105468748,3.9041376624510544
0.8579955235016165,0.0718260498046875,1.66636435546875,2.5474305664062498,3.0448861452061213
0.8604824670479979,0.0526724365234375,1.7860744384765623,2.2936451904296873,2.907515183955179
0.8629694105943795,0.047884033203124995,1.9967641845703124,2.6240450195312497,3.2977222978815695
0.8654563541407609,-0.1388636962890625,2.0638018310546875,3.294421484375,3.8899581026951076
0.8679432976871424,-0.21068974609375,2.327164013671875,4.453215087890625,5.029036402200241
0.870430241233524,-0.32561142578124996,2.5474305664062498,5.913678100585937,6.447248557998199
0.8729171847799054,-0.5315127685546874,2.6719290527343746,7.4794859863281244,7.960177215719602
0.8754041283262869,-0.6368576416015624,2.849099975585937,9.198522778320312,9.650688039193254
0.8778910718726685,-0.7134720947265625,3.0166940917968748,10.726023437499999,11.164992810353036
0.8803780154190499,-0.82360537109375,3.0693665283203124,12.076353173828124,12.48749945631615
0.8828649589654315,-0.8810662109374999,3.0645781249999997,13.196839550781249,13.57661559010008
0.885351902511813,-0.9193734375,3.0885201416015624,13.953407275390624,14.32067661724065
0.8878388460581944,-0.8858546142578124,3.0645781249999997,14.403517187499999,14.752548418915229
0.890325789604576,-0.833182177734375,2.9448680419921875,14.432247607421875,14.753176313186783
0.8928127331509574,-0.8044517578125,2.844311572265625,14.121001391601562,14.427055529538416
0.8952996766973389,-0.689530078125,2.7341782958984373,13.5224509765625,13.813321942818
0.8977866202437205,-0.63206923828125,2.5474305664062498,12.636596362304687,12.906296201329582
0.9002735637901019,-0.5458779785156249,2.427720483398437,11.635820068359374,11.898912478717348
0.9027605073364834,-0.47884033203125,2.31758720703125,10.520122094726561,10.783017546759751
0.905247450882865,-0.4261678955078125,2.1978771240234374,9.457096557617186,9.718485387526286
0.9077343944292464,-0.3495534423828125,2.1643583007812497,8.441955053710936,8.721997454260004
0.9102213379756279,-0.32082302246093747,2.0829554443359375,7.556100439453124,7.844506654081784
0.9127082815220094,-0.28730419921875,2.0638018310546875,6.809109521484374,7.1208001078756995
0.9151952250683909,-0.3064578125,2.059013427734375,6.382941625976562,6.713821302883854
0.9176821686147724,-0.3591302490234375,2.1068974609374997,6.095637426757812,6.459472663086292
0.9201691121611539,-0.3591302490234375,2.2361843505859373,6.124367846679687,6.529730201701527
0.9226560557075354,-0.411802685546875,2.2744915771484373,6.368576416015625,6.7750763060627754
0.9251429992539169,-0.45010991210937495,2.3511060302734372,6.804321118164062,7.21311890777219
0.9276299428002984,-0.5027823486328125,2.4756045166015626,7.359775903320312,7.781240849620907
0.9301168863466799,-0.5889736083984375,2.5234885498046875,8.015787158203125,8.42423457282615
0.9326038298930613,-0.59376201171875,2.6479870361328124,8.79150849609375,9.200815741388169
0.9350907734394429,-0.6368576416015624,2.6767174560546874,9.495403784179686,9.886005109235382
0.9375777169858244,-0.6464344482421874,2.7581203125,10.228029492187499,10.613090617117926
0.9400646605322058,-0.6512228515624999,2.77727392578125,10.855310327148437,11.223863147772121
0.9425516040785874,-0.612915625,2.858676782226562,11.329362255859374,11.700519118103323
0.9450385476249689,-0.6177040283203125,2.858676782226562,11.678915698242188,12.039545801170913
0.9475254911713503,-0.5793968017578125,2.806004345703125,11.865663427734374,12.206692001613913
0.9500124347177319,-0.5506663818359374,2.7246014892578123,11.870451831054687,12.191567307476907
0.9524993782641133,-0.5219359619140624,2.6575638427734374,11.803414184570311,12.110146536655593
0.9549863218104948,-0.49799394531249996,2.6048914062499997,11.583147631835937,11.882877019847907
0.9574732653568764,-0.51714755859375,2.5522189697265625,11.233594189453123,11.531474393160076
0.9599602089032578,-0.4644751220703125,2.461239306640625,10.74517705078125,11.033234608047229
0.9624471524496393,-0.4740519287109375,2.39420166015625,10.237606298828124,10.524519445106023
0.9649340959960209,-0.5267243652343749,2.35589443359375,9.734823950195311,10.02967967985348
0.9674210395424023,-0.5602431884765625,2.2840683837890623,9.160215551757812,9.457292940727005
0.9699079830887838,-0.5027823486328125,2.2649147705078123,8.681375219726561,8.986039434224823
0.9723949266351654,-0.5458779785156249,2.2170307373046874,8.264784130859374,8.574372559393893
0.9748818701815468,-0.5315127685546874,2.231395947265625,7.9295958984374995,8.254703193278782
0.9773688137279283,-0.5698199951171875,2.2601263671875,7.651868505859374,7.998997290501735
0.9798557572743098,-0.5793968017578125,2.2553379638671873,7.532158422851562,7.883886128812459
0.9823427008206913,-0.5698199951171875,2.35589443359375,7.536946826171874,7.917101797350824
0.9848296443670728,-0.5506663818359374,2.389413256835937,7.68059892578125,8.06251381609605
0.9873165879134543,-0.5410895751953124,2.4851813232421875,7.934384301757812,8.332068073759217
0.9898035314598358,-0.5458779785156249,2.5522189697265625,8.207323291015625,8.612314441548682
0.9922904750062173,-0.5458779785156249,2.5474305664062498,8.585607153320312,8.972181197971544
0.9947774185525988,-0.5027823486328125,2.6575638427734374,9.09796630859375,9.491492328439213
0.9972643620989803,-0.4740519287109375,2.7198130859375,9.595960253906249,9.985217155780836
0.9997513056453617,-0.469263525390625,2.7341782958984373,10.041281762695311,10.417450678926278
1.0022382491917432,0.0047884033203125,3.42849677734375,9.595960253906249,10.190047412824502
1.0047251927381249,0.2346317626953125,3.2609026611328122,9.543287817382812,10.087758948094258
1.0072121362845063,0.430956298828125,3.1076737548828124,9.552864624023437,10.054878518570252
1.0096990798308878,0.6751648681640625,2.935291235351562,9.557653027343749,10.02100362372092
1.0121860233772693,0.8188169677734375,2.6958710693359373,9.5001921875,9.909179262110067
1.0146729669236507,0.9050082275390624,2.5617957763671875,9.481038574218749,9.862653290953203
1.0171599104700322,1.024718310546875,2.3415292236328122,9.457096557617186,9.796401483258602
1.0196468540164139,4.04141240234375,9.241618408203124,10.371681591796875,14.467629524226657
1.0221337975627953,5.305550878906249,8.619125976562499,10.165780249023436,14.345078975033646
1.0246207411091768,6.406883642578125,7.584830859375,9.988609326171874,14.08368323435848
1.0271076846555582,7.187393383789062,6.4643444824218745,9.816226806640625,13.776962000389016
1.0295946282019397,7.632714892578124,5.358223315429687,9.797073193359374,13.525957891603797
1.0320815717483212,7.790732202148437,4.276044165039062,9.624690673828125,13.100180629053606
1.0345685152947028,7.64229169921875,3.1938650146484373,9.528922607421874,12.62559947907341
1.0370554588410843,7.259219433593749,2.1547814941406247,9.356540087890625,12.036784973108906
1.0395424023874658,6.6319385986328125,1.2593500732421874,9.284714038085937,11.479306902075619
1.0420293459338472,5.846640454101562,0.47884033203125,9.227253198242186,10.934106925011635
1.0445162894802287,4.88417138671875,-0.143652099609375,9.141061938476563,10.365074983984885
1.0470032330266101,3.8690298828125,-0.5602431884765625,9.09796630859375,9.902335866685066
1.0494901765729918,2.8012159423828122,-0.967257470703125,9.09796630859375,9.568458011759136
1.0519771201193733,1.6472107421875,-1.1013327636718748,9.030928662109375,9.245750893552326
1.0544640636657547,0.5602431884765625,-1.1827356201171875,9.112331518554686,9.205830852311676
1.0569510072121362,-0.5363011718749999,-1.0869675537109373,9.054870678710937,9.135633553178122
1.0594379507585177,-1.5131354492187499,-0.93852705078125,9.126696728515624,9.298763632173278
1.0619248943048991,-2.39420166015625,-0.603338818359375,9.145850341796875,9.473267535216149
1.0644118378512808,-3.0789433349609374,-0.201112939453125,9.188945971679686,9.693145338060509
1.0668987813976623,-3.687070556640625,0.2825157958984375,9.279925634765624,9.989560763685184
1.0693857249440437,-4.170699291992188,0.7517793212890624,9.366116894531249,10.28027482191822
1.0718726684904252,-4.410119458007812,1.2737152832031249,9.327809667968749,10.396130888865127
1.0743596120368066,-1.886630908203125,9.188945971679686,10.261548315429687,13.903074411227667
1.076846555583188,-0.4261678955078125,8.992621435546875,10.256759912109374,13.647343450388892
1.0793334991295698,0.9193734375,8.657433203124999,10.184933862304687,13.398853494373032
1.0818204426759512,2.0973206542968748,8.183381274414062,10.117896215820313,13.180982772292891
1.0843073862223327,3.0789433349609374,7.532158422851562,10.0748005859375,12.95047911906122
1.0867943297687142,3.9647979492187497,6.866570361328125,9.9981861328125,12.760608811947932
1.0892812733150956,4.486733911132812,6.009446166992187,9.821015209960937,12.357045123231131
1.0917682168614773,4.946420629882812,5.209782812499999,9.734823950195311,12.098583030357188
1.0942551604078588,5.200206005859375,4.376600634765625,9.629479077148437,11.786587416077916
1.0967421039542402,5.238513232421875,3.5482068603515624,9.519345800781249,11.43021160280756
1.0992290475006217,5.204994409179688,2.7533319091796873,9.423577734375,11.112003452011123
1.1017159910470031,4.965574243164062,2.020706201171875,9.375693701171874,10.800176549206165
1.1042029345933846,4.668693237304687,1.3407529296874998,9.303867651367186,10.495535633624273
1.1066898781397663,4.199429711914062,0.7422025146484375,9.217676391601563,10.156359216685175
1.1091768216861477,3.6296097167968746,0.258573779296875,9.169792358398437,9.865395024617541
1.1116637652325292,3.0166940917968748,-0.1388636962890625,9.165003955078124,9.649716258327334
1.1141507087789106,2.308010400390625,-0.49320554199218747,9.117119921875,9.41764510824299
1.116637652325292,1.6041151123046875,-0.6607996582031249,9.088389501953124,9.252495080842648
1.1191245958716736,0.9624690673828125,-0.7565677246093749,9.064447485351561,9.146745303236862
1.1216115394180552,0.26336218261718747,-0.7613561279296874,9.13627353515625,9.17172376938847
1.1240984829644367,-0.373495458984375,-0.679953271484375,9.121908325195312,9.154837344407152
1.1265854265108182,-1.005564697265625,-0.5410895751953124,9.169792358398437,9.240618495799636
1.1290723700571996,-1.5466542724609373,-0.2825157958984375,9.208099584960937,9.341362458443179
1.131559313603581,-2.1116858642578125,-0.009576806640625,9.184157568359375,9.423802796376018
1.1340462571499625,-2.5043349365234375,0.3399766357421875,9.241618408203124,9.580959680010206
1.1365332006963442,-2.868253588867187,0.7038952880859375,9.241618408203124,9.702054320064278
1.1390201442427257,-3.1699229980468746,1.120486376953125,9.375693701171874,9.960297882728106
1.1415070877891071,-3.35188232421875,1.5322890624999999,9.380482104492186,10.078515237829697
1.1439940313354886,-3.4668040039062498,1.9728221679687499,9.466673364257812,10.272714436480635
1.14648097488187,-3.5290532470703124,2.39420166015625,9.557653027343749,10.465904155936341
1.1489679184282515,-3.5146880371093747,2.7533319091796873,9.557653027343749,10.549056829470583
1.1514548619746332,-3.361459130859375,3.1316157714843746,9.591171850585937,10.63470743820062
1.1539418055210147,-3.2130186279296873,3.4859576171874997,9.605537060546874,10.71175669224195
1.1564287490673961,-2.9544448486328125,3.758896606445312,9.667786303710937,10.785366942101684
1.1589156926137776,-2.70065947265625,4.0222587890625,9.662997900390625,10.809516907632462
1.161402636160159,-2.403778466796875,4.204218115234375,9.682151513671874,10.825786752545968
1.1638895797065405,-2.0302830078125,4.3622354248046875,9.734823950195311,10.859002916222527
1.1663765232529222,-1.7190367919921874,4.390965844726562,9.701305126953125,10.786611595307631
1.1688634667993036,-1.254561669921875,4.496310717773437,9.710881933593749,10.774598042739177
1.171350410345685,-0.9145850341796874,4.410119458007812,9.715670336914062,10.708868731767907
1.1738373538920666,-0.5458779785156249,4.328716601562499,9.715670336914062,10.650353058920764
1.176324297438448,-0.17238251953125,4.247313745117188,9.643844287109374,10.53912341784237
1.1788112409848295,0.17238251953125,4.089296435546875,9.686939916992188,10.516124097129747
1.1812981845312112,0.49799394531249996,3.88818349609375,9.6151138671875,10.383466836651673
1.1837851280775926,0.7996633544921875,3.67749375,9.605537060546874,10.31648021290916
1.186272071623974,1.0390835205078124,3.394977954101562,9.586383447265625,10.222735322282139
1.1887590151703555,1.197100830078125,3.1076737548828124,9.543287817382812,10.107671785805492
1.191245958716737,1.3646949462890625,2.8730419921875,9.5001921875,10.018503590094463
1.1937329022631185,1.4939818359375,2.6527754394531247,9.466673364257812,9.944199507442779
1.1962198458095001,1.5275006591796874,2.2936451904296873,9.390058911132812,9.78607545842154
1.1987067893558816,1.4891934326171874,2.0446482177734375,9.428366137695312,9.76178116127553
1.201193732902263,1.4317325927734375,1.8291700683593748,9.356540087890625,9.64056864362761
1.2036806764486445,1.2928688964843749,1.6472107421875,9.361328491210937,9.592668259302636
1.206167619995026,1.139639990234375,1.3934253662109375,9.351751684570312,9.523427593487817
1.2086545635414074,0.9959878906249999,1.2928688964843749,9.34696328125,9.488373118865221
1.2111415070877891,0.7278373046875,1.13006318359375,9.318232861328125,9.41468287298856
1.2136284506341706,0.603338818359375,0.93852705078125,9.519345800781249,9.58450808490655
1.216115394180552,0.1580173095703125,0.9959878906249999,9.279925634765624,9.334558432790255
1.2186023377269335,-0.086191259765625,1.0390835205078124,9.3086560546875,9.366867194549155
1.221089281273315,-0.3495534423828125,1.0965443603515623,9.370905297851563,9.441316817298473
1.2235762248196966,-0.70868369140625,1.2018892333984375,9.370905297851563,9.474209012108966
1.226063168366078,-0.97683427734375,1.2880804931640624,9.399635717773437,9.537636404744397
1.2285501119124596,-1.254561669921875,1.4413093994140624,9.394847314453125,9.587202607140604
1.231037055458841,-1.5610194824218748,1.62805712890625,9.380482104492186,9.647838947255561
1.2335239990052225,-1.7477672119140624,1.8339584716796873,9.418789331054686,9.75354737342661
1.236010942551604,-1.9201497314453124,2.0254946044921875,9.428366137695312,9.832786553690468
1.2384978860979856,-2.0829554443359375,2.269703173828125,9.437942944335937,9.92799188662615
1.240984829644367,-2.231395947265625,2.461239306640625,9.528922607421874,10.091441564824224
1.2434717731907485,-2.2553379638671873,2.7246014892578123,9.5001921875,10.137240956293903
1.24595871673713,-2.29843359375,2.935291235351562,9.576806640625,10.276865137439984
1.2484456602835114,-2.231395947265625,3.1076737548828124,9.557653027343749,10.294925712765199
1.250932603829893,-2.1787235107421874,3.3327287109375,9.552864624023437,10.349451160418427
1.2534195473762746,-2.020706201171875,3.4763808105468748,9.600748657226562,10.408787243028394
1.255906490922656,-1.886630908203125,3.6056677001953124,9.643844287109374,10.467279894128714
1.2583934344690375,-1.66636435546875,3.69664736328125,9.65342109375,10.47045895397563
1.260880378015419,-1.446097802734375,3.778050219726562,9.605537060546874,10.422629444597396
1.2633673215618004,-1.20667763671875,3.81156904296875,9.619902270507811,10.417612451151953
1.2658542651081819,-0.9193734375,3.749319799804687,9.624690673828125,10.370020108257366
1.2683412086545636,-0.5985504150390625,3.7924154296875,9.619902270507811,10.357760234954108
1.270828152200945,-0.32561142578124996,3.7158009765625,9.605537060546874,10.304345778338458
1.2733150957473265,-0.076614453125,3.5434184570312497,9.595960253906249,10.229571708072916
1.275802039293708,0.21068974609375,3.4093431640625,9.581595043945311,10.172264967331813
1.2782889828400894,0.4261678955078125,3.2609026611328122,9.514557397460937,10.066871793666753
1.2807759263864709,0.6560112548828124,3.0454245117187497,9.548076220703125,10.04344167800395
1.2832628699328525,0.814028564453125,2.85388837890625,9.504980590820312,9.957508594767699
1.285749813479234,0.967257470703125,2.6623522460937497,9.442731347656249,9.858442158927618
1.2882367570256155,1.0678139404296874,2.398990063476562,9.418789331054686,9.777984066198146
1.290723700571997,1.1252747802734375,2.221819140625,9.437942944335937,9.761018934788906
1.2932106441183784,1.0917559570312498,1.9967641845703124,9.361328491210937,9.633974745599742
1.2956975876647598,1.0726023437499999,1.8195932617187498,9.3852705078125,9.620015484952473
1.2981845312111415,0.9624690673828125,1.637633935546875,9.356540087890625,9.547409807315688
1.300671474757523,0.852335791015625,1.4987702392578124,9.370905297851563,9.528203116644482
1.3031584183039044,0.6703764648437499,1.388636962890625,9.323021264648437,9.44967950358156
1.305645361850286,0.469263525390625,1.3072341064453123,9.366116894531249,9.468538163166457
1.3081323053966674,0.2346317626953125,1.3120225097656248,9.332598071289063,9.427292394448447
1.3106192489430488,-0.023942016601562498,1.2976572998046874,9.356540087890625,9.446127783605283
1.3131061924894305,-0.3112462158203125,1.3072341064453123,9.418789331054686,9.514164581228659
1.315593136035812,-0.5889736083984375,1.3311761230468748,9.337386474609374,9.450169625894452
1.3180800795821934,-0.8571241943359375,1.4939818359375,9.409212524414063,9.565559259145159
1.3205670231285749,-1.1252747802734375,1.5945383056640625,9.418789331054686,9.618855867624747
1.3230539666749563,-1.35990654296875,1.7621324218749999,9.409212524414063,9.668905667521155
1.3255409102213378,-1.5849614990234373,1.905784521484375,9.452308154296874,9.771911125235597
1.3280278537677195,-1.8100164550781248,2.1212626708984375,9.423577734375,9.827498776515265
1.330514797314101,-1.944091748046875,2.360682836914062,9.476250170898437,9.957491324765352
1.3330017408604824,-2.020706201171875,2.5474305664062498,9.5001921875,10.041230384845841
1.3354886844068639,-2.1260510742187497,2.7341782958984373,9.495403784179686,10.107349659953528
1.3379756279532453,-2.1499930908203124,2.940079638671875,9.557653027343749,10.22816063441522
1.3404625714996268,-2.0877438476562498,3.1651345947265623,9.562441430664062,10.286740858553888
1.3429495150460085,-2.0542250244140625,3.2609026611328122,9.567229833984374,10.314320787749075
1.34543645859239,-1.9105729248046874,3.4620156005859375,9.586383447265625,10.36988854895295
1.3479234021387714,-1.7525556152343749,3.5290532470703124,9.610325463867188,10.386723425922206
1.3504103456851528,-1.5753846923828123,3.6439749267578123,9.634267480468749,10.420148755226643
1.3528972892315343,-1.3407529296874998,3.6822821533203123,9.6151138671875,10.383026290735677
1.3553842327779158,-1.158793603515625,3.7397429931640622,9.6151138671875,10.381661473456443
1.3578711763242974,-0.86191259765625,3.6918589599609373,9.619902270507811,10.339982379112826
1.360358119870679,-0.59376201171875,3.6439749267578123,9.648632690429688,10.33088666999248
1.3628450634170604,-0.32082302246093747,3.5434184570312497,9.586383447265625,10.225335660572668
1.3653320069634418,-0.0383072265625,3.447650390625,9.600748657226562,10.201085012821983
1.3678189505098233,0.1867477294921875,3.308786694335937,9.548076220703125,10.106864183288579
1.370305894056205,0.44053310546874996,3.1028853515624997,9.562441430664062,10.06291473862497
1.3727928376025864,0.6416460449218749,2.9975404785156248,9.495403784179686,9.97795828774191
1.3752797811489679,0.7709329345703124,2.729389892578125,9.447519750976562,9.864052727981795
1.3777667246953493,0.9145850341796874,2.5474305664062498,9.437942944335937,9.818382519333152
1.3802536682417308,1.005564697265625,2.365471240234375,9.437942944335937,9.781686028967775
1.3827406117881123,1.024718310546875,2.1835119140624997,9.433154541015625,9.736640924338673
1.385227555334494,1.0630255371093749,1.9919757812499999,9.375693701171874,9.643734918786766
1.3877144988808754,1.0199299072265624,1.8004396484374998,9.351751684570312,9.577948606731225
1.3902014424272569,0.9193734375,1.6472107421875,9.342174877929686,9.53072831406808
1.3926883859736383,0.8283937744140625,1.5227122558593749,9.351751684570312,9.511054012542246
1.3951753295200198,0.6177040283203125,1.4125789794921875,9.318232861328125,9.444914043962585
1.3976622730664012,0.36391865234375,1.35990654296875,9.313444458007812,9.419237244253344
1.400149216612783,0.143652099609375,1.3311761230468748,9.332598071289063,9.428152128414169
1.4026361601591644,-0.105344873046875,1.3168109130859373,9.342174877929686,9.435111020699228
1.4051231037055458,-0.37828386230468747,1.3742717529296875,9.375693701171874,9.483425220329126
1.4076100472519273,-0.603338818359375,1.426944189453125,9.337386474609374,9.465039546973452
1.4100969907983087,-0.8810662109374999,1.5610194824218748,9.380482104492186,9.550209631482158
1.4125839343446902,-1.139639990234375,1.6472107421875,9.437942944335937,9.648152649966718
1.4150708778910719,-1.4173673828125,1.7764976318359373,9.433154541015625,9.703055123437316
1.4175578214374533,-1.5849614990234373,2.0302830078125,9.418789331054686,9.764616966783098
1.4200447649838348,-1.7908628417968748,2.1835119140624997,9.437942944335937,9.851379650461256
1.4225317085302163,-1.9584569580078124,2.365471240234375,9.485826977539062,9.970552707475802
1.4250186520765977,-2.0446482177734375,2.5617957763671875,9.514557397460937,10.063308919229078
1.4275055956229792,-2.1068974609374997,2.7437551025390623,9.519345800781249,10.128432921655039
1.4299925391693609,-2.1260510742187497,3.0119056884765625,9.562441430664062,10.248509899558313
1.4324794827157423,-2.1356278808593747,3.1699229980468746,9.528922607421874,10.266921852107675
1.4349664262621238,-2.0063409912109376,3.318363500976562,9.576806640625,10.332093976031471
1.4374533698085052,-1.9009961181640624,3.438073583984375,9.552864624023437,10.32915092033631
1.4399403133548867,-1.68551796875,3.5242648437499997,9.643844287109374,10.405053875203311
1.4424272569012682,-1.5035586425781249,3.6056677001953124,9.572018237304688,10.338523167802869
1.4449142004476498,-1.2641384765625,3.687070556640625,9.595960253906249,10.357363977968546
1.4474011439940313,-1.0342951171875,3.6679169433593746,9.624690673828125,10.351717329008496
1.4498880875404128,-0.7805097412109374,3.6583401367187496,9.586383447265625,10.290354493896743
1.4523750310867942,-0.5027823486328125,3.5529952636718747,9.562441430664062,10.213562138091296
1.4548619746331757,-0.277727392578125,3.5146880371093747,9.567229833984374,10.196178264382624
1.4573489181795571,0.023942016601562498,3.380612744140625,9.552864624023437,10.133426778287955
1.4598358617259388,0.2825157958984375,3.208230224609375,9.519345800781249,10.049403008332428
1.4623228052723203,0.507570751953125,3.0837317382812497,9.504980590820312,10.0055827183524
1.4648097488187017,0.70868369140625,2.896984008789062,9.509768994140625,9.966466537522871
1.4672966923650832,0.842758984375,2.6719290527343746,9.485826977539062,9.890923163001453
1.4697836359114647,1.01514150390625,2.5043349365234375,9.457096557617186,9.835592562084896
1.4722705794578461,1.0630255371093749,2.269703173828125,9.428366137695312,9.755801546580974
1.4747575230042278,1.0486603271484374,2.068590234375,9.399635717773437,9.681523933055624
1.4772444665506093,1.0678139404296874,1.89620771484375,9.390058911132812,9.638933377908245
1.4797314100969907,0.9528922607421875,1.70467158203125,9.375693701171874,9.57692754704562
1.4822183536433722,0.9002198242187499,1.599326708984375,9.327809667968749,9.506643721936701
1.4847052971897536,0.6847416748046875,1.465251416015625,9.351751684570312,9.490579141612686
1.487192240736135,0.5410895751953124,1.37906015625,9.366116894531249,9.482548735702075
1.4896791842825168,0.258573779296875,1.3551181396484375,9.337386474609374,9.438749480093334
1.4921661278288982,0.0430956298828125,1.3215993164062498,9.327809667968749,9.421067624653361
1.4946530713752797,-0.2537853759765625,1.3311761230468748,9.366116894531249,9.463645310854236
1.4971400149216612,-0.4644751220703125,1.407790576171875,9.337386474609374,9.45433221447177
1.4996269584680426,-0.7230489013671875,1.4987702392578124,9.356540087890625,9.503365422846663
1.5021139020144243,-1.024718310546875,1.5801730957031248,9.332598071289063,9.520734288308985
1.5046008455608058,-1.3072341064453123,1.7286135986328124,9.447519750976562,9.69291470237536
1.5070877891071872,-1.5035586425781249,1.867477294921875,9.452308154296874,9.751630093605236
1.5095747326535687,-1.7094599853515624,2.0829554443359375,9.423577734375,9.801263905252993
1.5120616761999501,-1.905784521484375,2.2744915771484373,9.490615380859374,9.943696841932237
1.5145486197463316,-1.9871873779296874,2.4947581298828125,9.490615380859374,10.012218141302354
1.5170355632927133,-2.1021090576171875,2.6719290527343746,9.490615380859374,10.081163011298187
1.5195225068390947,-2.1260510742187497,2.896984008789062,9.528922607421874,10.183956774044258
1.5220094503854762,-2.0925322509765625,3.0741549316406247,9.572018237304688,10.269014212688623
1.5244963939318577,-2.0542250244140625,3.1842882080078123,9.567229833984374,10.290355607988834
1.5269833374782391,-1.9776105712890624,3.356670727539062,9.572018237304688,10.334491524989772
1.5294702810246206,-1.8148048583984373,3.4907460205078125,9.595960253906249,10.371175326273594
1.5319572245710023,-1.6232687255859375,3.5913024902343746,9.605537060546874,10.38261995612709
1.5344441681173837,-1.43652099609375,3.6200329101562496,9.624690673828125,10.382817604567009
1.5369311116637652,-1.16837041015625,3.7205893798828122,9.6151138671875,10.375851262812455
1.5394180552101466,-0.9145850341796874,3.67749375,9.557653027343749,10.281495876433917
1.541904998756528,-0.6607996582031249,3.6439749267578123,9.624690673828125,10.312607818684615
1.5443919423029095,-0.36391865234375,3.5673604736328124,9.610325463867188,10.257526653916893
1.5468788858492912,-0.11013327636718749,3.42849677734375,9.557653027343749,10.154577828837247
1.5493658293956727,0.15322890625,3.356670727539062,9.528922607421874,10.104013238761313
1.5518527729420541,0.40222587890625,3.1699229980468746,9.567229833984374,10.08672812003422
1.5543397164884356,0.5746083984375,2.9735984619140625,9.528922607421874,9.998641341826813
1.556826660034817,0.7517793212890624,2.7820623291015623,9.471461767578125,9.900183380403517
1.5593136035811985,0.9193734375,2.5761609863281247,9.514557397460937,9.899932091415492
1.5618005471275802,0.9816226806640624,2.418143676757812,9.423577734375,9.778283041743379
1.5642874906739617,1.0726023437499999,2.1978771240234374,9.471461767578125,9.78211263760634
1.5667744342203431,1.0582371337890624,2.0638018310546875,9.394847314453125,9.67689515759481
1.5692613777667246,1.0103531005859374,1.7908628417968748,9.366116894531249,9.589168305333684
1.571748321313106,0.9097966308593749,1.6807295654296874,9.351751684570312,9.545042763209402
1.5742352648594875,0.833182177734375,1.5514426757812498,9.337386474609374,9.501997321287117
1.5767222084058692,0.622492431640625,1.4173673828125,9.366116894531249,9.4931855984877
1.5792091519522506,0.43574470214843747,1.3551181396484375,9.289502441406249,9.397929252061186
1.581696095498632,0.1771709228515625,1.3407529296874998,9.342174877929686,9.43955716144514
1.5841830390450136,-0.0909796630859375,1.3551181396484375,9.34696328125,9.445122818287501
1.586669982591395,-0.3447650390625,1.3072341064453123,9.34696328125,9.444228212101264
1.5891569261377765,-0.5458779785156249,1.4700398193359374,9.370905297851563,9.501203394263488
1.5916438696841582,-0.8475473876953125,1.5179238525390624,9.394847314453125,9.554349033732402
1.5941308132305396,-1.1109095703125,1.6328455322265625,9.394847314453125,9.600180241402308
1.596617756776921,-1.3934253662109375,1.8291700683593748,9.380482104492186,9.658205936035952
1.5991047003233025,-1.62805712890625,1.9488801513671874,9.418789331054686,9.75511641766335
1.601591643869684,-1.7621324218749999,2.212242333984375,9.437942944335937,9.852608478826111
1.6040785874160655,-1.9584569580078124,2.365471240234375,9.485826977539062,9.970552707475802
1.6065655309624471,-2.0638018310546875,2.528276953125,9.466673364257812,10.013459289132603
1.6090524745088286,-2.1068974609374997,2.8203695556640622,9.514557397460937,10.14496445587663
1.61153941805521,-2.1356278808593747,2.978386865234375,9.576806640625,10.254117231455064
1.6140263616015915,-2.059013427734375,3.1651345947265623,9.543287817382812,10.263135761731524
1.616513305147973,-2.0350714111328125,3.2561142578125,9.572018237304688,10.313453778615266
1.6190002486943544,-1.9105729248046874,3.4428619873046875,9.610325463867188,10.385660454977257
1.6214871922407361,-1.7669208251953124,3.5338416503906247,9.562441430664062,10.34651304195887
1.6239741357871176,-1.5705962890624998,3.6200329101562496,9.600748657226562,10.380066750896589
1.626461079333499,-1.3407529296874998,3.6727053466796873,9.600748657226562,10.36632807513021
1.6289480228798805,-1.0821791503906248,3.6487633300781246,9.6151138671875,10.340938073088163
1.631434966426262,-0.7948749511718749,3.6727053466796873,9.591171850585937,10.301027532193189
1.6339219099726436,-0.5315127685546874,3.6008792968749996,9.572018237304688,10.240721198679964
1.636408853519025,-0.2920926025390625,3.5051112304687497,9.557653027343749,10.184294487960829
1.6388957970654066,0.0047884033203125,3.39018955078125,9.605537060546874,10.18625300788137
1.641382740611788,0.2442085693359375,3.299209887695312,9.509768994140625,10.0687700356261
1.6438696841581695,0.4644751220703125,3.1028853515624997,9.519345800781249,10.023052385317307
1.646356627704551,0.6847416748046875,2.925714428710937,9.481038574218749,9.945791498186837
1.6488435712509326,0.82360537109375,2.7581203125,9.476250170898437,9.90378062999036
1.651330514797314,0.9576806640625,2.528276953125,9.466673364257812,9.845163340014757
1.6538174583436955,1.01514150390625,2.31758720703125,9.409212524414063,9.743459501878089
1.656304401890077,1.0438719238281249,2.0877438476562498,9.399635717773437,9.685117169844943
1.6587913454364585,1.0390835205078124,1.924938134765625,9.3852705078125,9.636824367502033
1.66127828898284,0.9624690673828125,1.7190367919921874,9.380482104492186,9.58513842939108
1.6637652325292216,0.8714894042968749,1.5849614990234373,9.361328491210937,9.534467360872656
1.666252176075603,0.7230489013671875,1.4508862060546874,9.332598071289063,9.472341698699239
1.6687391196219845,0.5123591552734374,1.3646949462890625,9.318232861328125,9.431562323303321
1.671226063168366,0.3112462158203125,1.3455413330078123,9.356540087890625,9.457917217971366
1.6737130067147474,0.0718260498046875,1.3407529296874998,9.366116894531249,9.4618667863123
1.676199950261129,-0.22026655273437498,1.3551181396484375,9.366116894531249,9.466203473868571
1.6786868938075106,-0.45489831542968745,1.37906015625,9.3852705078125,9.496949083613755
1.681173837353892,-0.7278373046875,1.4939818359375,9.366116894531249,9.512406349091151
1.6836607809002735,-1.01514150390625,1.608903515625,9.380482104492186,9.571443324193154
1.686147724446655,-1.254561669921875,1.7286135986328124,9.3852705078125,9.625244540365223
1.6886346679930364,-1.5035586425781249,1.8722656982421875,9.394847314453125,9.696866684572537
1.6911216115394179,-1.695094775390625,2.0542250244140625,9.447519750976562,9.815743282786984
1.6936085550857995,-1.8818425048828125,2.221819140625,9.423577734375,9.863144976255773
1.696095498632181,-2.01112939453125,2.47081611328125,9.485826977539062,10.006522230775573
1.6985824421785625,-2.0925322509765625,2.6240450195312497,9.519345800781249,10.093673660306013
1.701069385724944,-2.1212626708984375,2.834734765625,9.5384994140625,10.174401583506564
1.7035563292713254,-2.1212626708984375,3.0645781249999997,9.572018237304688,10.27204592758761
1.7060432728177068,-2.0542250244140625,3.294421484375,9.619902270507811,10.373792607420002
1.7085302163640885,-1.9632453613281249,3.414131567382812,9.6151138671875,10.390430279211616
1.71101715991047,-1.8339584716796873,3.447650390625,9.624690673828125,10.386739982241613
1.7135041034568514,-1.6424223388671875,3.5482068603515624,9.624690673828125,10.38855108424317
1.715991047003233,-1.4125789794921875,3.6822821533203123,9.634267480468749,10.410268541934071
1.7184779905496144,-1.235408056640625,3.6727053466796873,9.605537060546874,10.357670580370936
1.7209649340959958,-0.9193734375,3.7158009765625,9.610325463867188,10.344601487561397
1.7234518776423775,-0.699106884765625,3.6008792968749996,9.600748657226562,10.277619224617505
1.725938821188759,-0.4213794921875,3.5913024902343746,9.552864624023437,10.214315286778564
1.7284257647351404,-0.1292868896484375,3.4811692138671875,9.576806640625,10.190705551007287
1.7309127082815219,0.11013327636718749,3.35188232421875,9.552864624023437,10.12444897161776
1.7333996518279033,0.354341845703125,3.2321722412109373,9.528922607421874,10.068409089757255
1.7358865953742848,0.59376201171875,2.987963671875,9.504980590820312,9.98123921479071
1.7383735389206665,0.7326257080078125,2.7916391357421872,9.481038574218749,9.910604519304824
1.740860482467048,0.9145850341796874,2.6479870361328124,9.504980590820312,9.909235952390262
1.7433474260134294,0.9816226806640624,2.389413256835937,9.4618849609375,9.808167301445906
1.7458343695598109,1.0869675537109373,2.24097275390625,9.423577734375,9.74716751997106
1.7483213131061923,1.0486603271484374,2.01112939453125,9.399635717773437,9.669409576087098
1.7508082566525738,1.01514150390625,1.85790048828125,9.404424121093749,9.639787318541767
1.7532952001989555,0.948103857421875,1.6807295654296874,9.390058911132812,9.586290166227624
1.755782143745337,0.7900865478515624,1.5801730957031248,9.3852705078125,9.550103992642965
1.7582690872917184,0.622492431640625,1.4987702392578124,9.370905297851563,9.510398264995912
1.7607560308380998,0.43574470214843747,1.4221557861328125,9.34696328125,9.464571998062947
1.7632429743844813,0.1867477294921875,1.3215993164062498,9.34696328125,9.441780660904579
1.765729917930863,-0.0430956298828125,1.3646949462890625,9.3852705078125,9.48406832717674
1.7682168614772444,-0.3112462158203125,1.3407529296874998,9.366116894531249,9.46671211706323
1.770703805023626,-0.622492431640625,1.407790576171875,9.351751684570312,9.477585700149161
1.7731907485700074,-0.852335791015625,1.5322890624999999,9.390058911132812,9.552360568270446
1.7756776921163888,-1.1109095703125,1.618480322265625,9.361328491210937,9.564939610229152
1.7781646356627703,-1.3646949462890625,1.7908628417968748,9.423577734375,9.688828584011793
1.780651579209152,-1.5897499023437498,1.9728221679687499,9.457096557617186,9.790608119954843
1.7831385227555334,-1.7190367919921874,2.1404162841796874,9.404424121093749,9.796921067928142
1.7856254663019149,-1.9009961181640624,2.346317626953125,9.471461767578125,9.941206197565762
1.7881124098482963,-2.0350714111328125,2.5617957763671875,9.519345800781249,10.06589577350543
1.7905993533946778,-2.0877438476562498,2.710236279296875,9.519345800781249,10.115433729598307
1.7930862969410593,-2.1356278808593747,2.901772412109375,9.543287817382812,10.200761341321057
1.795573240487441,-2.0829554443359375,3.1507693847656246,9.576806640625,10.294720808792444
1.7980601840338224,-2.0446482177734375,3.289633081054687,9.572018237304688,10.325977206913977
1.8005471275802039,-1.93451494140625,3.394977954101562,9.6151138671875,10.378758983921971
1.8030340711265853,-1.7621324218749999,3.5577836669921874,9.6151138671875,10.40256458630855
1.8055210146729668,-1.5705962890624998,3.6583401367187496,9.634267480468749,10.424458506050177
1.8080079582193482,-1.3455413330078123,3.67749375,9.610325463867188,10.377514022229773
1.81049490176573,-1.1156979736328125,3.7301661865234372,9.629479077148437,10.38680841474852
1.8129818453121114,-0.8475473876953125,3.6679169433593746,9.600748657226562,10.31243550559273
1.8154687888584928,-0.59376201171875,3.6008792968749996,9.6151138671875,10.284420242104298
1.8179557324048743,-0.2825157958984375,3.5194764404296874,9.572018237304688,10.202453760001331
1.8204426759512558,-0.0383072265625,3.447650390625,9.567229833984374,10.169545090900787
1.8229296194976372,0.2154781494140625,3.2130186279296873,9.567229833984374,10.094642451943445
1.825416563044019,0.5123591552734374,3.1172505615234374,9.5384994140625,10.048021399229867
1.8279035065904004,0.6177040283203125,2.906560815429687,9.490615380859374,9.944920027219874
1.8303904501367818,0.82360537109375,2.70065947265625,9.5001921875,9.91087982945906
1.8328773936831633,0.9576806640625,2.518700146484375,9.437942944335937,9.815078690604578
1.8353643372295447,1.0390835205078124,2.3223756103515623,9.418789331054686,9.756367946163996
1.8378512807759262,1.0726023437499999,2.1308394775390624,9.409212524414063,9.706916760560349
1.8403382243223079,1.024718310546875,1.9201497314453124,9.342174877929686,9.59235393722313
1.8428251678686893,0.948103857421875,1.7669208251953124,9.3852705078125,9.597093968060447
1.8453121114150708,0.8954314208984374,1.656787548828125,9.404424121093749,9.59113838190723
1.8477990549614522,0.7422025146484375,1.5035586425781249,9.3852705078125,9.533879360954645
1.8502859985078337,0.5410895751953124,1.3934253662109375,9.370905297851563,9.489377128183262
1.8527729420542152,0.354341845703125,1.3215993164062498,9.313444458007812,9.413417581789208
1.8552598856005968,0.105344873046875,1.3407529296874998,9.356540087890625,9.452701115398032
1.8577468291469783,-0.1484405029296875,1.3311761230468748,9.332598071289063,9.428226302635531
1.8602337726933598,-0.44532150878906246,1.3646949462890625,9.34696328125,9.456554664551613
1.8627207162397412,-0.70868369140625,1.4508862060546874,9.375693701171874,9.513723547359305
1.8652076597861227,-1.005564697265625,1.5514426757812498,9.375693701171874,9.556242311432676
1.8676946033325041,-1.20667763671875,1.68551796875,9.409212524414063,9.634849353857419
1.8701815468788858,-1.4796166259765624,1.8339584716796873,9.442731347656249,9.732309301482458
1.8726684904252673,0.143652099609375,9.749189160156249,10.290278735351562,14.175936006396855
1.8751554339716487,1.5562310791015623,9.34696328125,10.266336718749999,13.970871389263873
1.8776423775180302,2.6862942626953124,8.762778076171875,10.20887587890625,13.719460747017067
1.8801293210644117,3.687070556640625,8.12113203125,10.122684619140625,13.491331241105419
1.8826162646107931,4.410119458007812,7.321468676757812,9.97903251953125,13.139031442404997
1.8851032081571748,4.932055419921875,6.536170532226562,9.897629663085937,12.845612824584363
1.8875901517035563,5.190629199218749,5.683834741210937,9.80665,12.466715408305376
1.8900770952499377,5.315127685546875,4.855440966796874,9.686939916992188,12.069080091338066
1.8925640387963192,5.190629199218749,4.04141240234375,9.624690673828125,11.658057996788068
1.8950509823427006,4.946420629882812,3.2321722412109373,9.519345800781249,11.204104556787945
1.897537925889082,4.601655590820312,2.499546533203125,9.423577734375,10.78085267332709
1.9000248694354638,4.103661645507812,1.8914193115234375,9.356540087890625,10.39049317064017
1.9025118129818452,3.5673604736328124,1.2976572998046874,9.303867651367186,10.048478914280055
1.9049987565282267,2.9975404785156248,0.8571241943359375,9.212887988281249,9.726110008090215
1.9074857000746082,2.31758720703125,0.45010991210937495,9.188945971679686,9.487388337452114
1.9099726436209896,1.7573440185546874,0.201112939453125,9.188945971679686,9.357640326728408
1.9124595871673713,1.1061211669921875,-0.0430956298828125,9.17458076171875,9.241119706111535
1.9149465307137528,0.5746083984375,-0.11013327636718749,9.145850341796875,9.164544867295064
1.9174334742601342,0.028730419921875,-0.1580173095703125,9.169792358398437,9.171198765880886
1.9199204178065157,-0.45489831542968745,-0.09576806640624999,9.13627353515625,9.148092594039504
1.9224073613528971,-0.833182177734375,0.023942016601562498,9.188945971679686,9.226672955724695
1.9248943048992786,-1.2018892333984375,0.1292868896484375,9.236830004882812,9.31559345228727
1.9273812484456603,-1.484405029296875,0.33039982910156246,9.203311181640624,9.32810586583276
1.9298681919920417,-1.695094775390625,0.55545478515625,9.332598071289063,9.501540037074932
1.9323551355384232,-1.9009961181640624,0.7613561279296874,9.323021264648437,9.545269765485827
1.9348420790848047,-1.9536685546875,1.0199299072265624,9.332598071289063,9.589289055892426
1.9373290226311861,-2.0638018310546875,1.2210428466796874,9.351751684570312,9.654298690280717
1.9398159661775676,-2.059013427734375,1.5131354492187499,9.394847314453125,9.736132252858935
1.9423029097239493,-2.0159177978515626,1.7573440185546874,9.428366137695312,9.800319923027219
1.9447898532703307,-1.9728221679687499,2.0446482177734375,9.442731347656249,9.860922317150816
1.9472767968167122,-1.944091748046875,2.2266075439453124,9.490615380859374,9.940274351695866
1.9497637403630936,-1.8291700683593748,2.442085693359375,9.495403784179686,9.973582039433289
1.952250683909475,-1.7525556152343749,2.6431986328124997,9.495403784179686,10.01102608235566
1.9547376274558566,-1.6424223388671875,2.829946362304687,9.572018237304688,10.115813397252099
1.9572245710022382,-1.5849614990234373,2.9448680419921875,9.543287817382812,10.11230404524808
1.9597115145486197,-1.5083470458984374,3.1459809814453124,9.552864624023437,10.170030957249077
1.9621984580950012,-1.4173673828125,3.2417490478515623,9.552864624023437,10.187005924805664
1.9646854016413826,0.7709329345703124,10.970232006835937,10.462661254882812,15.17918339067813
1.967172345187764,2.3415292236328122,10.424354028320312,10.357316381835936,14.880319843549447
1.9696592887341455,3.7110125732421873,9.701305126953125,10.32379755859375,14.644716846557152
1.9721462322805272,4.802768530273437,8.858546142578124,10.175357055664062,14.320555733833203
1.9746331758269087,5.597643481445312,7.900865478515625,10.05564697265625,13.959703574705944
1.9771201193732901,6.148309863281249,6.928819604492187,9.907206469726562,13.563295887073636
1.9796070629196716,6.402095239257812,5.904101293945312,9.763554370117188,13.0832805320351
1.982094006466053,6.507440112304687,4.927267016601562,9.682151513671874,12.663680152381467
1.9845809500124345,6.382941625976562,3.9264907226562498,9.576806640625,12.160365892013653
1.9870678935588162,6.038176586914062,3.0262708984374997,9.485826977539062,11.644690012760954
1.9895548371051976,5.506663818359375,2.1691467041015624,9.361328491210937,11.075333627150947
1.992041780651579,4.917690209960937,1.47482822265625,9.294290844726563,10.618033602972682
1.9945287241979606,4.2137949218749995,0.7757213378906249,9.217676391601563,10.164810342449442
1.997015667744342,3.4620156005859375,0.2346317626953125,9.165003955078124,9.799892937137813
1.9995026112907235,2.710236279296875,-0.0909796630859375,9.165003955078124,9.557769378119032
2.001989554837105,-0.296881005859375,2.5761609863281247,8.52335791015625,8.909117454817974
2.0044764983834864,-0.296881005859375,2.6671406494140624,9.289502441406249,9.669365707443772
2.006963441929868,-0.3495534423828125,2.7054478759765623,9.95987890625,10.326704394233014
2.0094503854762498,-0.3687070556640625,2.7629087158203123,10.673351000976561,11.031320458354008
2.011937329022631,-0.469263525390625,2.7629087158203123,11.200075366210937,11.545369679530532
2.0144242725690127,-0.49799394531249996,2.73896669921875,11.702857714843748,12.0294145843792
2.016911216115394,-0.584185205078125,2.7629087158203123,11.966219897460936,12.294932108807192
2.0193981596617756,-0.6464344482421874,2.6623522460937497,12.004527124023436,12.313190831363292
2.021885103208157,-0.74699091796875,2.6240450195312497,11.85608662109375,12.165952394405165
2.0243720467545385,-0.7517793212890624,2.518700146484375,11.549628808593749,11.84495454580206
2.02685899030092,-0.7517793212890624,2.4564509033203126,11.018116040039061,11.313629137465442
2.0293459338473014,-0.7709329345703124,2.398990063476562,10.429142431640624,10.729235889554829
2.031832877393683,-0.7757213378906249,2.3415292236328122,9.792284790039062,10.098185188855256
2.0343198209400644,-0.699106884765625,2.29843359375,9.050082275390624,9.363521592464279
2.036806764486446,-0.6512228515624999,2.2649147705078123,8.317456567382813,8.644883681713777
2.0392937080328277,-0.5985504150390625,2.231395947265625,7.781155395507812,8.116881775771853
2.041780651579209,-0.5410895751953124,2.2457611572265623,7.345410693359375,7.700083074734381
2.0442675951255906,-0.49320554199218747,2.269703173828125,7.048529687499999,7.421359374097586
2.046754538671972,-0.39743747558593745,2.370259643554687,6.943184814453125,7.347373863668337
2.0492414822183536,-0.3112462158203125,2.384624853515625,7.067683300781249,7.465618336012699
2.0517284257647352,-0.316034619140625,2.528276953125,7.3837179199218745,7.810976414839172
2.0542153693111165,-0.277727392578125,2.5139117431640625,7.79552060546875,8.195549174234408
2.056702312857498,-0.316034619140625,2.6096798095703124,8.441955053710936,8.84177084739533
2.0591892564038794,-0.3064578125,2.6431986328124997,9.09796630859375,9.479103668367127
2.061676199950261,-0.36391865234375,2.729389892578125,9.849745629882811,10.22738944915206
2.0641631434966423,-0.39743747558593745,2.7724855224609373,10.539275708007812,10.905088948223174
2.066650087043024,-0.430956298828125,2.8012159423828122,11.109095703125,11.464926577547264
2.0691370305894057,-0.51714755859375,2.729389892578125,11.540052001953125,11.8697013859174
2.071623974135787,-0.5889736083984375,2.7341782958984373,11.9135474609375,12.237452102834245
2.0741109176821686,-0.6751648681640625,2.6719290527343746,11.9518546875,12.26547524285809
2.07659786122855,-0.7278373046875,2.6479870361328124,11.903970654296874,12.216632098249638
2.0790848047749315,-0.7326257080078125,2.5426421630859375,11.640608471679688,11.937568227594646
2.081571748321313,-0.7613561279296874,2.4947581298828125,11.200075366210937,11.49978997586293
2.0840586918676944,-0.7565677246093749,2.418143676757812,10.620678564453124,10.918728256202664
2.086545635414076,-0.7278373046875,2.365471240234375,9.94072529296875,10.244179844220783
2.0890325789604574,-0.7134720947265625,2.24097275390625,9.217676391601563,9.512967958213276
2.091519522506839,-0.6655880615234374,2.2744915771484373,8.566453540039062,8.888219487378192
2.0940064660532203,-0.6464344482421874,2.2266075439453124,7.876923461914062,8.211064600615474
2.096493409599602,-0.5698199951171875,2.2457611572265623,7.407659936523437,7.761543901654964
2.0989803531459836,-0.5027823486328125,2.250549560546875,7.101202124023437,7.466246380933958
2.101467296692365,-0.45489831542968745,2.2936451904296873,6.967126831054687,7.34905415798279
2.1039542402387466,-0.3447650390625,2.39420166015625,7.058106494140625,7.46109454465528
2.106441183785128,-0.316034619140625,2.4947581298828125,7.302315063476562,7.723179480847797
2.1089281273315095,-0.296881005859375,2.5522189697265625,7.714117749023437,8.130779338222789
2.111415070877891,-0.26815058593749996,2.6048914062499997,8.25520732421875,8.660589583909898
2.1139020144242724,-0.28730419921875,2.70065947265625,8.94473740234375,9.347964082463298
2.116388957970654,-0.277727392578125,2.7629087158203123,9.65342109375,10.044866145937512
2.1188759015170353,-0.354341845703125,2.7964275390625,10.366893188476562,10.743278806124561
2.121362845063417,-0.38786066894531246,2.7820623291015623,10.946289990234375,11.300954439861528
2.1238497886097982,-0.4836287353515625,2.77727392578125,11.458649145507811,11.800329972179975
2.12633673215618,-0.5793968017578125,2.73896669921875,11.793837377929687,12.121560927965005
2.1288236757025616,-0.63206923828125,2.6575638427734374,11.975796704101562,12.283397893024878
2.131310619248943,-0.6703764648437499,2.6527754394531247,11.93270107421875,12.242384451708883
2.1337975627953245,-0.718260498046875,2.5857377929687497,11.698069311523437,12.001948329094233
2.1362845063417057,-0.7805097412109374,2.4660277099609376,11.276689819335937,11.569538513006261
2.1387714498880874,-0.7661445312499999,2.4564509033203126,10.740388647460938,11.044323283103191
2.141258393434469,-0.7517793212890624,2.3511060302734372,10.098742602539062,10.396031640286758
2.1437453369808503,-0.718260498046875,2.3319524169921872,9.437942944335937,9.748264832200176
2.146232280527232,-0.6751648681640625,2.2840683837890623,8.705317236328124,9.02526255386176
2.1487192240736133,-0.679953271484375,2.212242333984375,8.068459594726562,8.393830640858205
2.151206167619995,-0.5698199951171875,2.24097275390625,7.541735229492187,7.888245938251995
2.153693111166376,-0.5123591552734374,2.2649147705078123,7.173028173828125,7.539541365639492
2.156180054712758,-0.4836287353515625,2.308010400390625,7.029376074218749,7.414373658965944
2.1586669982591395,-0.373495458984375,2.360682836914062,7.000645654296875,7.397388856306548
2.161153941805521,-0.33518823242187495,2.4660277099609376,7.235277416992187,7.651332113971163
2.1636408853519025,-0.316034619140625,2.4899697265625,7.575254052734374,7.980244425026195
2.1661278288982837,-0.33039982910156246,2.5570073730468748,8.14028564453125,8.538834881144382
2.1686147724446654,-0.3064578125,2.6671406494140624,8.757989672851561,9.160236827963224
2.171101715991047,-0.32082302246093747,2.6862942626953124,9.4618849609375,9.841055395207668
2.1735886595374283,-0.3495534423828125,2.729389892578125,10.17056865234375,10.5362338388452
2.17607560308381,-0.39743747558593745,2.748543505859375,10.749965454101561,11.102891750124327
2.178562546630191,-0.5123591552734374,2.7150246826171873,11.324573852539062,11.656750999863748
2.181049490176573,-0.5410895751953124,2.7581203125,11.736376538085937,12.068245101519285
2.1835364337229546,-0.6512228515624999,2.7150246826171873,11.927912670898436,12.250328604335365
2.186023377269336,-0.6655880615234374,2.6623522460937497,11.999738720703125,12.309543302457033
2.1885103208157175,-0.689530078125,2.6288334228515624,11.769895361328125,12.079596587235596
2.1909972643620987,-0.7805097412109374,2.4660277099609376,11.405976708984374,11.695588604611329
2.1934842079084804,-0.7565677246093749,2.427720483398437,10.927136376953124,11.219114531368561
2.1959711514548617,-0.7326257080078125,2.379836450195312,10.28549033203125,10.582611838672932
2.1984580950012433,-0.74699091796875,2.3223756103515623,9.600748657226562,9.905846692046127
2.200945038547625,-0.6847416748046875,2.288856787109375,8.882488159179687,9.198170059912913
2.2034319820940063,-0.679953271484375,2.2601263671875,8.298302954101562,8.627417896746929
2.205918925640388,-0.622492431640625,2.2457611572265623,7.685387329101562,8.030947540674905
2.208405869186769,-0.51714755859375,2.2840683837890623,7.302315063476562,7.668651463292679
2.210892812733151,-0.469263525390625,2.3032219970703123,7.005434057617187,7.389258836965545
2.2133797562795325,-0.4165910888671875,2.389413256835937,7.034164477539062,7.440585578053602
2.2158666998259138,-0.3495534423828125,2.437297290039062,7.163451367187499,7.5748030455698245
2.2183536433722955,-0.33039982910156246,2.47081611328125,7.4411787597656245,7.847626242852527
2.2208405869186767,-0.296881005859375,2.5761609863281247,7.900865478515625,8.31555284203757
2.2233275304650584,-0.26815058593749996,2.6623522460937497,8.552088330078124,8.960928468885214
2.2258144740114396,-0.2920926025390625,2.70065947265625,9.217676391601563,9.609601330752216
2.2283014175578213,-0.373495458984375,2.729389892578125,9.888052856445311,10.264631378449295
2.230788361104203,-0.373495458984375,2.7581203125,10.587159741210938,10.946902662489729
2.233275304650584,-0.469263525390625,2.7724855224609373,11.133037719726563,11.482657057378836
2.235762248196966,-0.5458779785156249,2.7581203125,11.602301245117188,11.9381156221617
2.238249191743347,-0.59376201171875,2.6767174560546874,11.880028637695311,12.192311105716131
2.240736135289729,-0.6177040283203125,2.73896669921875,12.004527124023436,12.328510385178202
2.2432230788361105,-0.6943184814453125,2.5953145996093747,11.875240234375,12.175346674684087
2.2457100223824917,-0.7517793212890624,2.5665841796874997,11.578359228515625,11.883220477795273
2.2481969659288734,-0.7996633544921875,2.4564509033203126,11.109095703125,11.40550831230819
2.2506839094752547,-0.7661445312499999,2.422932080078125,10.539275708007812,10.84130572195248
2.2531708530216363,-0.7613561279296874,2.327164013671875,9.835380419921874,10.13558402385615
2.2556577965680176,-0.7326257080078125,2.346317626953125,9.126696728515624,9.451906686424843
2.2581447401143993,-0.6943184814453125,2.2601263671875,8.480262280273436,8.803697955493538
2.260631683660781,-0.6416460449218749,2.2553379638671873,7.924807495117187,8.264431790080309
2.263118627207162,-0.5506663818359374,2.250549560546875,7.45075556640625,7.802689619541183
2.265605570753544,-0.45968671875,2.2936451904296873,7.129932543945312,7.5038695497847545
2.268092514299925,-0.4261678955078125,2.269703173828125,6.962338427734375,7.335347841428775
2.2705794578463068,-0.3591302490234375,2.43250888671875,7.077260107421875,7.492241630369006
2.2730664013926885,-0.3112462158203125,2.408566870117187,7.326257080078125,7.718297181249463
2.2755533449390697,-0.296881005859375,2.5474305664062498,7.766790185546874,8.179276900106036
2.2780402884854514,-0.3064578125,2.6096798095703124,8.355763793945313,8.759174257858362
2.2805272320318326,-0.3064578125,2.6862942626953124,9.0021982421875,9.399450326922087
2.2830141755782143,-0.3399766357421875,2.7054478759765623,9.744400756835937,10.118714267746741
2.2855011191245955,-0.37828386230468747,2.7198130859375,10.36210478515625,10.719780663869717
2.287988062670977,-0.43574470214843747,2.767697119140625,10.951078393554686,11.303810807445869
2.290475006217359,-0.4836287353515625,2.7629087158203123,11.496956372070311,11.83416947431892
2.29296194976374,-0.5698199951171875,2.6910826660156246,11.81777939453125,12.133694019546253
2.295448893310122,-0.6177040283203125,2.7054478759765623,11.97100830078125,12.288451741924318
2.297935836856503,-0.7134720947265625,2.5953145996093747,11.884817041015625,12.185794040575052
2.3004227804028847,-0.737414111328125,2.5761609863281247,11.698069311523437,12.001050396372452
2.3029097239492664,-0.7757213378906249,2.4899697265625,11.276689819335937,11.574343442060604
2.3053966674956476,-0.7757213378906249,2.39420166015625,10.726023437499999,11.017328349711333
2.3078836110420293,-0.7805097412109374,2.3319524169921872,10.0748005859375,10.370573965680368
2.3103705545884106,-0.7517793212890624,2.2936451904296873,9.3852705078125,9.690680208959233
2.3128574981347922,-0.679953271484375,2.288856787109375,8.643067993164061,8.966818063156852
2.315344441681174,-0.622492431640625,2.212242333984375,8.054094384765625,8.375556657944333
2.317831385227555,-0.5746083984375,2.2649147705078123,7.584830859375,7.936603360036751
2.320318328773937,-0.5123591552734374,2.269703173828125,7.187393383789062,7.554646785562695
2.322805272320318,-0.488417138671875,2.2744915771484373,6.967126831054687,7.345251494392124
2.3252922158666998,-0.3591302490234375,2.360682836914062,7.015010864257812,7.410274989358991
2.327779159413081,-0.3016694091796875,2.480392919921875,7.230489013671875,7.65005391134357
2.3302661029594627,-0.3064578125,2.499546533203125,7.60398447265625,8.010132902947827
2.3327530465058444,-0.296881005859375,2.5761609863281247,8.116343627929687,8.520550313550999
2.3352399900522256,-0.26815058593749996,2.6910826660156246,8.796296899414061,9.20264471740107
2.3377269335986073,-0.3399766357421875,2.6815058593749996,9.476250170898437,9.854205959293001
2.3402138771449885,-0.373495458984375,2.710236279296875,10.199299072265624,10.559857059308017
2.34270082069137,-0.45010991210937495,2.7533319091796873,10.812214697265624,11.166352233153535
2.345187764237752,-0.4740519287109375,2.767697119140625,11.314997045898437,11.658217304678457
2.347674707784133,-0.51714755859375,2.7820623291015623,11.745953344726562,12.08200034666688
2.350161651330515,-0.59376201171875,2.6719290527343746,11.908759057617187,12.219259408073212
2.352648594876896,-0.7134720947265625,2.6144682128906247,11.927912670898436,12.231908565336338
2.3551355384232777,-0.689530078125,2.5617957763671875,11.793837377929687,12.08854207195819
2.357622481969659,-0.74699091796875,2.5234885498046875,11.640608471679688,11.934393804607927
2.3601094255160406,-0.7852981445312499,2.427720483398437,10.927136376953124,11.221088597896767
2.3625963690624223,-0.82360537109375,2.379836450195312,10.299855541992187,10.603252874607861
2.3650833126088036,-0.7230489013671875,2.35589443359375,9.648632690429688,9.958370905466152
2.3675702561551852,-0.7422025146484375,2.269703173828125,8.90643017578125,9.221004042191
2.3700571997015665,-0.679953271484375,2.2553379638671873,8.212111694335936,8.54328182040789
2.372544143247948,-0.622492431640625,2.212242333984375,7.6470801025390625,7.984945025882854
2.37503108679433,-0.5363011718749999,2.2170307373046874,7.302315063476562,7.650271205871395
2.377518030340711,-0.45010991210937495,2.3032219970703123,7.058106494140625,7.438030504333639
2.3800049738870928,-0.430956298828125,2.3415292236328122,7.000645654296875,7.394425063089884
2.382491917433474,-0.3687070556640625,2.408566870117187,7.144297753906249,7.548385897474535
2.3849788609798557,-0.3112462158203125,2.50912333984375,7.45075556640625,7.868057743289943
2.387465804526237,-0.2825157958984375,2.5570073730468748,7.963114721679687,8.368350969658238
2.3899527480726186,-0.22026655273437498,2.6479870361328124,8.580818749999999,8.982805971306096
2.3924396916190003,-0.296881005859375,2.6671406494140624,9.241618408203124,9.62337198586004
2.3949266351653815,-0.3495534423828125,2.7341782958984373,9.916783276367187,10.292740602642217
2.397413578711763,-0.3687070556640625,2.7964275390625,10.601524951171875,10.970336510993793
2.3999005222581444,-0.411802685546875,2.77727392578125,11.176133349609374,11.523401778940924
2.402387465804526,-0.5219359619140624,2.7054478759765623,11.559205615234374,11.883059362522394
2.404874409350908,-0.5793968017578125,2.7054478759765623,11.870451831054687,12.188633046281394
2.407361352897289,-0.622492431640625,2.6719290527343746,12.004527124023436,12.314031555981586
2.4098482964436707,-0.6655880615234374,2.6288334228515624,11.846509814453125,12.15292423314974
2.412335239990052,-0.7134720947265625,2.5378537597656248,11.6070896484375,11.902700292067133
2.4148221835364336,-0.7517793212890624,2.528276953125,11.118672509765624,11.427258414818432
2.417309127082815,-0.7757213378906249,2.375048046875,10.510545288085936,10.803432744823704
2.4197960706291965,-0.7661445312499999,2.308010400390625,9.859322436523437,10.15480813991136
2.4222830141755782,-0.7278373046875,2.288856787109375,9.179369165039063,9.488383993181419
2.4247699577219595,-0.699106884765625,2.24097275390625,8.508992700195313,8.826871818036896
2.427256901268341,-0.6464344482421874,2.2026655273437497,7.8912886718749995,8.218397034950636
2.4297438448147224,-0.5410895751953124,2.231395947265625,7.4028715332031245,7.750768525699092
2.432230788361104,-0.4740519287109375,2.31758720703125,7.082048510742187,7.466682449509628
2.4347177319074857,-0.430956298828125,2.3032219970703123,6.976703637695312,7.359683997803112
2.437204675453867,-0.38786066894531246,2.370259643554687,7.053318090820312,7.451030986828051
2.4396916190002487,1.2210428466796874,0.8667010009765624,-8.825027319335938,8.95115765951796
2.44217856254663,1.2210428466796874,1.16837041015625,-8.360552197265624,8.529646422446792
2.4446655060930116,1.1109095703125,1.6519991455078125,-6.5409589355468745,6.837204476003402
2.4471524496393933,0.9816226806640624,2.1739351074218747,-3.6343981201171873,4.347232065807714
2.4496393931857745,0.6655880615234374,2.6910826660156246,0.3064578125,2.789058940541518
2.452126336732156,0.3064578125,3.1459809814453124,4.678270043945313,5.6460006491793795
2.4546132802785374,-0.1292868896484375,3.5529952636718747,9.270348828125,9.92873898532076
2.457100223824919,-0.5506663818359374,3.840299462890625,13.646949462890625,14.187683499128848
2.4595871673713003,-1.0103531005859374,3.9647979492187497,17.477672119140625,17.95019383934832
2.462074110917682,-1.3646949462890625,4.012681982421875,20.532673437499998,20.965559555602088
2.4645610544640637,-1.608903515625,3.9456443359374997,22.534226025390623,22.93355668690965
2.467047998010445,-1.7812860351562498,3.787627026367187,23.46317626953125,23.833584268527556
2.4695349415568266,-1.8722656982421875,3.4620156005859375,23.209390893554687,23.54074672803167
2.472021885103208,-1.8626888916015625,3.1364041748046874,21.883003173828122,22.184960422781913
2.4745088286495895,-1.7094599853515624,2.7629087158203123,19.680337646484375,19.94671922630647
2.4769957721959712,-1.47482822265625,2.379836450195312,16.735469604492188,16.968048877195738
2.4794827157423525,-1.197100830078125,2.039859814453125,13.359645263671874,13.567394740006087
2.481969659288734,-0.8810662109374999,1.7238251953125,9.816226806640625,10.005306576585244
2.4844566028351154,-0.5602431884765625,1.47482822265625,6.411672045898437,6.602918229141811
2.486943546381497,-0.26336218261718747,1.3646949462890625,3.438073583984375,3.7083826534691586
2.4894304899278783,0.0430956298828125,1.3168109130859373,1.0342951171875,1.6749968965867132
2.49191743347426,0.27293898925781246,1.35990654296875,-0.55545478515625,1.494112283538044
2.4944043770206417,0.45489831542968745,1.4987702392578124,-1.350329736328125,2.068002684784928
2.496891320567023,0.507570751953125,1.7381904052734374,-1.2018892333984375,2.1733549370919563
2.4993782641134046,0.5027823486328125,2.0254946044921875,-0.22026655273437498,2.0985556550106494
2.501865207659786,0.4070142822265625,2.2936451904296873,1.5035586425781249,2.7725723574307333
2.5043521512061675,0.24899697265624998,2.5857377929687497,3.749319799804687,4.561297884109997
2.506839094752549,0.105344873046875,2.887407202148437,6.3973068359375,7.0195265258013375
2.5093260382989304,-0.201112939453125,3.1507693847656246,9.145850341796875,9.67545206204536
2.511812981845312,-0.411802685546875,3.294421484375,11.793837377929687,12.252240385561597
2.5142999253916933,-0.7038952880859375,3.366247534179687,14.168885424804687,14.580274524823018
2.516786868938075,-0.9624690673828125,3.399766357421875,16.055516333007812,16.43971905812891
2.5192738124844563,-1.1444283935546875,3.3710359375,17.386692456054686,17.747413169285252
2.521760756030838,-1.2832920898437499,3.23696064453125,17.9660892578125,18.300413001399324
2.5242476995772196,-1.369483349609375,3.1364041748046874,17.884686401367187,18.209187886005186
2.526734643123601,-1.3551181396484375,2.896984008789062,17.12811867675781,17.42415882975943
2.5292215866699825,-1.3072341064453123,2.6815058593749996,15.82567297363281,16.104386351279835
2.5317085302163638,-1.2497732666015624,2.398990063476562,14.010868115234373,14.269600971472974
2.5341954737627455,-1.0103531005859374,2.212242333984375,11.937489477539062,12.182712528763538
2.536682417309127,-0.842758984375,2.0542250244140625,9.734823950195311,9.98483252227948
2.5391693608555084,-0.63206923828125,1.8818425048828125,7.632714892578124,7.8866456346503195
2.54165630440189,-0.411802685546875,1.7860744384765623,5.702988354492187,5.990302122854613
2.5441432479482713,-0.258573779296875,1.7860744384765623,4.199429711914062,4.570791201140768
2.546630191494653,-0.05746083984375,1.7956512451171873,3.1268273681640624,3.606205004226223
2.549117135041034,0.08140285644531249,1.8770541015625,2.6048914062499997,3.211762407710938
2.551604078587416,0.181959326171875,2.0877438476562498,2.6862942626953124,3.407045704946911
2.5540910221337976,0.13407529296874998,2.221819140625,3.31357509765625,3.9917710863274585
2.556577965680179,0.12449848632812499,2.408566870117187,4.405331054687499,5.0223138036484904
2.5590649092265605,0.0383072265625,2.6096798095703124,5.846640454101562,6.4027416589788135
2.5615518527729417,-0.086191259765625,2.7629087158203123,7.517793212890624,8.009888157583736
2.5640387963193234,-0.201112939453125,2.91134921875,9.265560424804686,9.71426840650589
2.566525739865705,-0.39743747558593745,3.0406361083984375,11.075576879882812,11.492250767925803
2.5690126834120863,-0.5458779785156249,3.1555577880859373,12.54561669921875,12.947896589218438
2.571499626958468,-0.718260498046875,3.1028853515624997,13.88636962890625,14.24693149834748
2.5739865705048492,-0.8810662109374999,3.0741549316406247,14.676456176757812,15.02082128647028
2.576473514051231,-0.9959878906249999,2.959233251953125,15.126566088867186,15.445454184277114
2.5789604575976126,-1.0342951171875,2.89219560546875,15.049951635742186,15.360195508127804
2.581447401143994,-1.13006318359375,2.7341782958984373,14.547169287109375,14.844962378547626
2.5839343446903755,-1.0726023437499999,2.5953145996093747,13.63737265625,13.923507698284896
2.5864212882367568,-0.9959878906249999,2.43250888671875,12.454637036132812,12.728985625887415
2.5889082317831384,-0.948103857421875,2.3223756103515623,11.056423266601563,11.337408206916711
2.5913951753295197,-0.8092401611328125,2.1404162841796874,9.557653027343749,9.827765915968133
2.5938821188759014,-0.679953271484375,2.0829554443359375,8.111555224609374,8.402283498929243
2.596369062422283,-0.51714755859375,2.01112939453125,6.828263134765624,7.137034431506295
2.5988560059686643,-0.38307226562499996,2.0063409912109376,5.80354482421875,6.152502016287406
2.601342949515046,-0.2442085693359375,2.0542250244140625,5.104437939453125,5.507700514188705
2.603829893061427,-0.19632453613281248,2.059013427734375,4.726154077148437,5.1589351595096655
2.606316836607809,-0.1005564697265625,2.1835119140624997,4.76924970703125,5.246291895279409
2.6088037801541906,-0.1005564697265625,2.269703173828125,5.195417602539062,5.67045220116192
2.611290723700572,-0.0526724365234375,2.4564509033203126,5.95677373046875,6.44360758442001
2.6137776672469535,-0.11013327636718749,2.6575638427734374,7.015010864257812,7.5023431234938345
2.6162646107933347,-0.181959326171875,2.73896669921875,8.183381274414062,8.631499108395998
2.6187515543397164,-0.239420166015625,2.858676782226562,9.528922607421874,9.951367796407279
2.6212384978860976,-0.354341845703125,2.91134921875,10.658985791015624,11.055111510527857
2.6237254414324793,-0.5315127685546874,2.9640216552734375,11.79862578125,12.17684279778809
2.626212384978861,-0.5889736083984375,2.9640216552734375,12.694057202148437,13.048808471877283
2.6286993285252422,-0.7565677246093749,2.91134921875,13.302184423828125,13.638051893176401
2.631186272071624,-0.842758984375,2.8203695556640622,13.579911816406248,13.895277330000706
2.633673215618005,-0.8954314208984374,2.7820623291015623,13.536816186523437,13.848720543799745
2.636160159164387,-0.928950244140625,2.6623522460937497,13.172897534179686,13.47131387372318
2.6386471027107685,-0.928950244140625,2.5378537597656248,12.492944262695312,12.781913261044183
2.6411340462571498,-0.9241618408203125,2.418143676757812,11.602301245117188,11.88759387478896
2.6436209898035314,-0.86191259765625,2.269703173828125,10.563217724609375,10.838635270216711
2.6461079333499127,-0.7709329345703124,2.1883003173828124,9.423577734375,9.70498908729274
2.6485948768962944,-0.679953271484375,2.1547814941406247,8.317456567382813,8.61890384499054
2.6510818204426756,-0.5410895751953124,2.2026655273437497,7.3932947265625,7.733389959619936
2.6535687639890573,-0.430956298828125,2.1978771240234374,6.660669018554687,7.0271543997936625
2.656055707535439,-0.36391865234375,2.1452046874999997,6.0716954101562495,6.449792639341837
2.65854265108182,-0.3064578125,2.1787235107421874,5.8083332275390624,6.211077797712519
2.661029594628202,-0.2154781494140625,2.2936451904296873,5.894524487304687,6.328716933462164
2.663516538174583,-0.1867477294921875,2.446874096679687,6.2009822998046875,6.668901636848721
2.666003481720965,-0.1484405029296875,2.480392919921875,6.766013891601562,7.207865675874787
2.6684904252673465,-0.19153613281249998,2.5905261962890624,7.584830859375,8.017304486494195
2.6709773688137277,-0.26336218261718747,2.6815058593749996,8.537723120117187,8.95279561862544
2.6734643123601094,-0.2920926025390625,2.7581203125,9.557653027343749,9.951948409119506
2.6759512559064906,-0.37828386230468747,2.81558115234375,10.491391674804687,10.869217781426343
2.6784381994528723,-0.488417138671875,2.85388837890625,11.405976708984374,11.767732783612082
2.6809251429992536,-0.55545478515625,2.863465185546875,12.114660400390624,12.460857093474136
2.6834120865456352,-0.6272808349609375,2.868253588867187,12.579135522460938,12.917236948682074
2.685899030092017,-0.7517793212890624,2.767697119140625,12.789825268554686,13.10743872354081
2.688385973638398,-0.8044517578125,2.6910826660156246,12.722787622070312,13.029136326797833
2.69087291718478,-0.82360537109375,2.6096798095703124,12.46900224609375,12.765765606843344
2.693359860731161,-0.8762778076171874,2.4851813232421875,11.942277880859374,12.229553957081887
2.6958468042775428,-0.8571241943359375,2.4133552734375,11.180921752929686,11.470481977906633
2.6983337478239244,-0.8044517578125,2.3511060302734372,10.376469995117187,10.669862780551727
2.7008206913703057,-0.7326257080078125,2.2649147705078123,9.404424121093749,9.701019142085451
2.7033076349166874,-0.6751648681640625,2.1978771240234374,8.52335791015625,8.82803157652552
2.7057945784630686,-0.5985504150390625,2.1883003173828124,7.71890615234375,8.045398254100995
2.7082815220094503,-0.5267243652343749,2.1739351074218747,7.082048510742187,7.426899993720027
2.7107684655558315,-0.411802685546875,2.24097275390625,6.660669018554687,7.039605962716098
2.713255409102213,-0.32561142578124996,2.2649147705078123,6.430825659179687,6.825787894230791
2.715742352648595,-0.27293898925781246,2.35589443359375,6.41646044921875,6.840738189002965
2.718229296194976,-0.2154781494140625,2.446874096679687,6.7037646484375,7.139613724811539
2.720716239741358,-0.22505495605468748,2.499546533203125,7.206546997070312,7.631035462234183
2.723203183287739,-0.2442085693359375,2.5617957763671875,7.8721350585937495,8.282085836665223
2.7256901268341207,-0.2442085693359375,2.6767174560546874,8.657433203124999,9.06507605216063
2.7281770703805024,-0.3064578125,2.7054478759765623,9.509768994140625,9.89186892970114
2.7306640139268836,-0.3495534423828125,2.81558115234375,10.319009155273436,10.701945373675388
2.7331509574732653,-0.430956298828125,2.8107927490234372,11.171344946289063,11.527585485193356
2.7356379010196465,-0.5267243652343749,2.839523168945312,11.7603185546875,12.109724311132597
2.7381248445660282,-0.5985504150390625,2.8107927490234372,12.181698046874999,12.516093071823345
2.74061178811241,-0.6703764648437499,2.7964275390625,12.445060229492187,12.772976775267843
2.743098731658791,-0.7326257080078125,2.6767174560546874,12.397176196289061,12.70399678878336
2.745585675205173,-0.7709329345703124,2.5761609863281247,12.172121240234373,12.465611838335457
2.748072618751554,-0.82360537109375,2.528276953125,11.669338891601562,11.968457725456622
2.7505595622979357,-0.8092401611328125,2.43250888671875,11.051634863281249,11.345069513830644
2.753046505844317,-0.8044517578125,2.3367408203125,10.251971508789062,10.545635121176202
2.7555334493906987,-0.7613561279296874,2.2649147705078123,9.5001921875,9.796078484303633
2.7580203929370803,-0.679953271484375,2.231395947265625,8.681375219726561,8.989312544936801
2.7605073364834616,-0.6177040283203125,2.2266075439453124,7.948749511718749,8.277799117000024
2.7629942800298433,-0.5219359619140624,2.2170307373046874,7.292738256835937,7.640135713533588
2.7654812235762245,-0.45010991210937495,2.231395947265625,6.924031201171875,7.2886168016472235
2.767968167122606,-0.39743747558593745,2.269703173828125,6.698976245117187,7.0841930928603265
2.770455110668988,-0.40222587890625,2.5234885498046875,6.517016918945312,7.000092116570803
2.772942054215369,-0.258573779296875,2.403778466796875,6.924031201171875,7.333977051476085
2.775428997761751,-0.24899697265624998,2.5139117431640625,7.311891870117187,7.735988266866489
2.777915941308132,-0.239420166015625,2.6048914062499997,7.920019091796875,8.340832312705793
2.7804028848545137,-0.229843359375,2.6479870361328124,8.695740429687499,9.09288540199853
2.782889828400895,-0.2920926025390625,2.6958710693359373,9.433154541015625,9.815163957144284
2.7853767719472766,-0.3399766357421875,2.7629087158203123,10.199299072265624,10.57236729641592
2.7878637154936583,-0.39264907226562495,2.85388837890625,10.912771166992187,11.286603861053297
2.7903506590400395,-0.44532150878906246,2.8012159423828122,11.554417211914062,11.897465238824013
2.792837602586421,-0.584185205078125,2.748543505859375,11.9135474609375,12.24044022335162
2.7953245461328025,-0.6368576416015624,2.7629087158203123,12.23915888671875,12.56329027293283
2.797811489679184,-0.699106884765625,2.6719290527343746,12.16254443359375,12.47218675286395
2.800298433225566,-0.737414111328125,2.5522189697265625,11.927912670898436,12.220176018601265
2.802785376771947,-0.7996633544921875,2.4899697265625,11.587936035156249,11.879380130065211
2.8052723203183287,-0.7900865478515624,2.480392919921875,11.061211669921875,11.363405712950252
2.80775926386471,-0.7757213378906249,2.398990063476562,10.333374365234375,10.63651835380361
2.8102462074110917,-0.7422025146484375,2.3415292236328122,9.591171850585937,9.900717203584245
2.812733150957473,-0.6751648681640625,2.2553379638671873,8.858546142578124,9.16603713120612
2.8152200945038546,-0.6560112548828124,2.250549560546875,8.130708837890625,8.46189992245024
2.8177070380502363,-0.5746083984375,2.2074539306640624,7.551312036132812,7.8883040721439865
2.8201939815966175,-0.488417138671875,2.2170307373046874,7.072471704101562,7.427895569864956
2.822680925142999,-0.4070142822265625,2.2744915771484373,6.823474731445312,7.204080785994023
2.8251678686893804,-0.3447650390625,2.3415292236328122,6.842628344726562,7.2403856735219305
2.827654812235762,-0.2825157958984375,2.461239306640625,7.019799267578125,7.444131638853207
2.8301417557821438,-0.2920926025390625,2.480392919921875,7.287949853515625,7.70401714646424
2.832628699328525,-0.27293898925781246,2.6001030029296874,7.867346655273437,8.290366379837696
2.8351156428749067,-0.26815058593749996,2.6096798095703124,8.585607153320312,8.977470893094697
2.837602586421288,-0.2920926025390625,2.7341782958984373,9.318232861328125,9.715477996483521
2.8400895299676696,-0.3495534423828125,2.7437551025390623,10.060435375976562,10.43373085842219
2.842576473514051,-0.39264907226562495,2.7629087158203123,10.735600244140624,11.092382542443222
2.8450634170604325,-0.430956298828125,2.77727392578125,11.324573852539062,11.668116674593866
2.847550360606814,-0.49320554199218747,2.767697119140625,11.731588134765625,12.06372907577606
2.8500373041531954,-0.5746083984375,2.7198130859375,12.061987963867187,12.378170772552327
2.852524247699577,-0.6703764648437499,2.6575638427734374,12.109871997070313,12.416160838538651
2.8550111912459584,-0.7038952880859375,2.6240450195312497,11.956643090820311,12.261418957134506
2.85749813479234,-0.7422025146484375,2.5426421630859375,11.626243261718749,11.924153056838602
2.8599850783387217,-0.7709329345703124,2.4899697265625,11.099518896484375,11.401473876750174
2.862472021885103,-0.8188169677734375,2.346317626953125,10.457872851562499,10.749082389335035
2.8649589654314846,-0.7326257080078125,2.3367408203125,9.730035546875,10.033478451304898
2.867445908977866,-0.6943184814453125,2.27927998046875,9.026140258789061,9.335330918311081
2.8699328525242476,-0.6655880615234374,2.1787235107421874,8.336610180664062,8.642274753110721
2.8724197960706292,-0.584185205078125,2.24097275390625,7.7763669921875,8.113884078218371
2.8749067396170105,-0.5267243652343749,2.2170307373046874,7.240065820312499,7.590205328549592
2.877393683163392,-0.4644751220703125,2.3032219970703123,6.981492041015625,7.366260912130069
2.8798806267097734,-0.38786066894531246,2.3319524169921872,6.900089184570312,7.293810302486253
2.882367570256155,-0.373495458984375,2.384624853515625,6.9719152343749995,7.377908686423041
2.8848545138025363,-0.3064578125,2.4899697265625,7.297526660156249,7.716719574128065
2.887341457348918,-0.296881005859375,2.5234885498046875,7.742848168945312,8.149099984659362
2.8898284008952997,-0.32082302246093747,2.5474305664062498,8.379705810546875,8.764234100805096
2.892315344441681,-0.3064578125,2.6623522460937497,9.102754711914063,9.489055760105764
2.8948022879880626,-0.3064578125,2.7198130859375,9.811438403320311,10.186050419835343
2.897289231534444,-0.3447650390625,2.8107927490234372,10.529698901367187,10.903851510524886
2.8997761750808255,-0.411802685546875,2.7581203125,11.133037719726563,11.476991678088083
2.902263118627207,-0.4836287353515625,2.81558115234375,11.611878051757811,11.958139732750487
2.9047500621735884,-0.584185205078125,2.7437551025390623,11.93270107421875,12.258010415365236
2.90723700571997,-0.63206923828125,2.6671406494140624,12.052411157226562,12.360168504861802
2.9097239492663514,-0.7134720947265625,2.6719290527343746,11.956643090820311,12.272308718984403
2.912210892812733,-0.7565677246093749,2.5378537597656248,11.664550488281249,11.961389322379715
2.9146978363591143,-0.7757213378906249,2.4756045166015626,11.190498559570312,11.487280763018813
2.917184779905496,-0.7852981445312499,2.43250888671875,10.649408984374999,10.951881316753614
2.9196717234518776,-0.7422025146484375,2.3415292236328122,9.969455712890625,10.267602976798647
2.922158666998259,-0.699106884765625,2.3127988037109373,9.241618408203124,9.552240551075558
2.9246456105446406,-0.6560112548828124,2.2266075439453124,8.504204296874999,8.815306157149296
2.927132554091022,-0.6416460449218749,2.2170307373046874,7.9104422851562495,8.240268932741557
2.9296194976374035,-0.5219359619140624,2.2601263671875,7.431601953125,7.785197231521282
2.932106441183785,-0.469263525390625,2.31758720703125,7.091625317382812,7.475464424408815
2.9345933847301664,-0.4213794921875,2.308010400390625,6.9336080078124995,7.319794579819102
2.937080328276548,-0.38786066894531246,2.3415292236328122,6.986280444335937,7.378435433786212
2.9395672718229293,-0.3399766357421875,2.437297290039062,7.240065820312499,7.646865715790989
2.942054215369311,-0.27293898925781246,2.5426421630859375,7.685387329101562,8.099673034121455
2.9445411589156922,-0.26815058593749996,2.6001030029296874,8.245630517578125,8.650020982344396
2.947028102462074,-0.316034619140625,2.6240450195312497,8.877699755859375,9.262777288708161
2.9495150460084556,-0.316034619140625,2.748543505859375,9.619902270507811,10.009839608016627
2.952001989554837,-0.36391865234375,2.7150246826171873,10.333374365234375,10.690295673405258
2.9544889331012185,-0.39264907226562495,2.7820623291015623,10.922347973632812,11.277931075958827
2.9569758766475998,-0.49799394531249996,2.73896669921875,11.482591162109374,11.815237464611089
2.9594628201939814,-0.565031591796875,2.710236279296875,11.784260571289062,12.105099693987798
2.961949763740363,-0.6177040283203125,2.710236279296875,11.994950317382811,12.312829572145557
2.9644367072867444,-0.6943184814453125,2.6288334228515624,11.985373510742187,12.289915439529212
2.966923650833126,-0.6703764648437499,2.5665841796874997,11.731588134765625,12.027756196390586
2.9694105943795073,-0.7517793212890624,2.4899697265625,11.362881079101562,11.656765752339705
2.971897537925889,-0.7757213378906249,2.408566870117187,10.826579907226561,11.11835286584514
2.97438448147227,-0.7948749511718749,2.360682836914062,10.141838232421874,10.44325295954834
2.976871425018652,-0.7230489013671875,2.308010400390625,9.466673364257812,9.770753108518704
2.9793583685650336,-0.689530078125,2.250549560546875,8.801085302734375,9.110407650545822
2.981845312111415,-0.63206923828125,2.2266075439453124,8.111555224609374,8.435319842105766
2.9843322556577965,-0.5506663818359374,2.2457611572265623,7.60398447265625,7.947783118567669
2.9868191992041777,-0.4836287353515625,2.250549560546875,7.163451367187499,7.524221259917597
2.9893061427505594,-0.44532150878906246,2.29843359375,7.019799267578125,7.399911485157041
2.991793086296941,-0.36391865234375,2.3319524169921872,7.005434057617187,7.392330160122868
2.9942800298433223,-0.3112462158203125,2.442085693359375,7.225700610351562,7.633570989452311
2.996766973389704,-0.2920926025390625,2.5330653564453125,7.6087728759765625,8.024659672950506
2.9992539169360852,-0.2825157958984375,2.5713725830078125,8.087613208007811,8.491246053313894
3.001740860482467,-0.047884033203124995,3.418919970703125,9.610325463867188,10.200473624698146
3.0042278040288486,0.1867477294921875,3.361459130859375,9.557653027343749,10.133262731914211
3.00671474757523,0.45489831542968745,3.1411925781249996,9.567229833984374,10.079975693746936
3.0092016911216115,0.63206923828125,2.9640216552734375,9.5001921875,9.971889865734948
3.0116886346679927,0.7948749511718749,2.7724855224609373,9.490615380859374,9.919187591111507
3.0141755782143744,0.9193734375,2.5953145996093747,9.442731347656249,9.835958554840301
3.0166625217607557,1.01514150390625,2.360682836914062,9.423577734375,9.767658524194113
3.0191494653071373,1.0917559570312498,2.1452046874999997,9.414000927734374,9.716853795769948
3.021636408853519,1.0534487304687499,1.9919757812499999,9.3852705078125,9.651995868504496
3.0241233523999003,0.9959878906249999,1.8004396484374998,9.380482104492186,9.603489955148365
3.026610295946282,0.9097966308593749,1.6519991455078125,9.366116894531249,9.554107847847716
3.029097239492663,0.7805097412109374,1.5370774658203123,9.351751684570312,9.509314494847745
3.031584183039045,0.5985504150390625,1.4221557861328125,9.337386474609374,9.464014785258556
3.0340711265854265,0.39743747558593745,1.35990654296875,9.34696328125,9.453730741545641
3.036558070131808,0.16759411621093748,1.3168109130859373,9.342174877929686,9.436011351118188
3.0390450136781895,-0.086191259765625,1.3263877197265623,9.366116894531249,9.45996189201231
3.0415319572245707,-0.36391865234375,1.3838485595703125,9.327809667968749,9.436922529257076
3.0440189007709524,-0.6272808349609375,1.446097802734375,9.370905297851563,9.502554719773254
3.0465058443173336,-0.928950244140625,1.5035586425781249,9.375693701171874,9.540821218634917
3.0489927878637153,-1.1635820068359375,1.6472107421875,9.366116894531249,9.58078138764443
3.051479731410097,-1.426944189453125,1.8100164550781248,9.423577734375,9.701347669436236
3.0539666749564782,-1.599326708984375,1.9967641845703124,9.495403784179686,9.834002550104787
3.05645361850286,-1.8339584716796873,2.1691467041015624,9.476250170898437,9.892821559151516
3.058940562049241,-1.9297265380859374,2.427720483398437,9.476250170898437,9.97080681583783
3.061427505595623,-2.0446482177734375,2.5809493896484375,9.509768994140625,10.063676883142122
3.0639144491420045,-2.0925322509765625,2.786850732421875,9.5384994140625,10.15520552712982
3.0664013926883857,-2.1116858642578125,3.0119056884765625,9.572018237304688,10.254478348549831
3.0688883362347674,-2.0781670410156248,3.1316157714843746,9.567229833984374,10.27899227973511
3.0713752797811487,-2.0254946044921875,3.347093920898437,9.557653027343749,10.327361594290933
3.0738622233275303,-1.8914193115234375,3.447650390625,9.591171850585937,10.36601841091615
3.0763491668739116,-1.7477672119140624,3.5673604736328124,9.624690673828125,10.412272640627197
3.0788361104202933,-1.5179238525390624,3.6343981201171873,9.629479077148437,10.403836302771102
3.081323053966675,-1.2737152832031249,3.69664736328125,9.600748657226562,10.366384477259034
3.083809997513056,-1.0103531005859374,3.69664736328125,9.634267480468749,10.368467823238662
3.086296941059438,-0.7326257080078125,3.6822821533203123,9.595960253906249,10.30429014921667
3.088783884605819,-0.4836287353515625,3.6535517333984373,9.567229833984374,10.25252279775847
3.091270828152201,-0.2346317626953125,3.5098996337890624,9.543287817382812,10.170977822645437
3.0937577716985825,0.033518823242187495,3.380612744140625,9.552864624023437,10.133453930535037
3.0962447152449637,0.3016694091796875,3.2609026611328122,9.533711010742186,10.080482936554413
3.0987316587913454,0.5458779785156249,3.0885201416015624,9.548076220703125,10.050009897948524
3.1012186023377266,0.6847416748046875,2.89219560546875,9.5001921875,9.954261307648252
3.1037055458841083,0.842758984375,2.6527754394531247,9.409212524414063,9.812274994490368
3.1061924894304895,0.9911994873046874,2.4947581298828125,9.414000927734374,9.78926493755446
3.108679432976871,1.0534487304687499,2.27927998046875,9.481038574218749,9.807903134866072
3.111166376523253,1.0965443603515623,2.1691467041015624,9.447519750976562,9.755164601544442
3.113653320069634,1.0390835205078124,1.915361328125,9.409212524414063,9.658239172305587
3.116140263616016,0.9528922607421875,1.7334020019531249,9.375693701171874,9.582083204562117
3.118627207162397,0.8571241943359375,1.6041151123046875,9.366116894531249,9.541068748314519
3.1211141507087787,0.7517793212890624,1.5131354492187499,9.356540087890625,9.50787007967108
3.1236010942551604,0.49799394531249996,1.4125789794921875,9.327809667968749,9.447296467493882
3.1260880378015417,0.296881005859375,1.35990654296875,9.323021264648437,9.426357177528137
3.1285749813479233,0.062249243164062495,1.37906015625,9.356540087890625,9.457828730693693
3.1310619248943046,-0.1771709228515625,1.3359645263671873,9.332598071289063,9.429399636872112
3.1335488684406863,-0.43574470214843747,1.446097802734375,9.380482104492186,9.50129027096961
3.136035811987068,-0.7422025146484375,1.4987702392578124,9.327809667968749,9.476561085366708
3.138522755533449,-1.0342951171875,1.618480322265625,9.409212524414063,9.603255972460039
3.141009699079831,-1.2832920898437499,1.7334020019531249,9.394847314453125,9.639225962187925
3.143496642626212,-1.4987702392578124,1.905784521484375,9.4618849609375,9.767578711555366
3.1459835861725938,-1.656787548828125,2.0877438476562498,9.4618849609375,9.83010103556386
3.148470529718975,-1.9009961181640624,2.2649147705078123,9.437942944335937,9.89031810304804
3.1509574732653567,-2.001552587890625,2.4516625,9.481038574218749,9.995346628397726
3.1534444168117384,-2.0733786376953125,2.6240450195312497,9.495403784179686,10.067134858756583
3.1559313603581196,-2.1164742675781247,2.896984008789062,9.548076220703125,10.199889175322268
3.1584183039045013,-2.068590234375,3.0837317382812497,9.557653027343749,10.253643176087602
3.1609052474508825,-2.0638018310546875,3.21780703125,9.562441430664062,10.298244811768031
3.163392190997264,-1.9488801513671874,3.361459130859375,9.581595043945311,10.339463473458776
3.165879134543646,-1.7621324218749999,3.5242648437499997,9.567229833984374,10.346856530241247
3.168366078090027,-1.6041151123046875,3.5865140869140624,9.6151138671875,10.386851460771867
3.170853021636409,-1.3934253662109375,3.6631285400390623,9.600748657226562,10.369885232310262
3.17333996518279,-1.139639990234375,3.6822821533203123,9.572018237304688,10.318988046281293
3.1758269087291717,-0.9145850341796874,3.7205893798828122,9.605537060546874,10.341450253227626
3.178313852275553,-0.63206923828125,3.6679169433593746,9.605537060546874,10.301430407807631
3.1808007958219346,-0.38786066894531246,3.5386300537109374,9.581595043945311,10.221511734655413
3.1832877393683163,-0.1149216796875,3.4668040039062498,9.591171850585937,10.199142829739893
3.1857746829146976,0.13407529296874998,3.356670727539062,9.552864624023437,10.126323966880612
3.1882616264610792,0.39264907226562495,3.1364041748046874,9.519345800781249,10.030411203761036
3.1907485700074605,0.584185205078125,2.9831752685546875,9.5384994140625,10.011172664019893
3.193235513553842,0.7661445312499999,2.7964275390625,9.4618849609375,9.89617357557994
3.195722457100224,0.9145850341796874,2.5665841796874997,9.476250170898437,9.860179381614731
3.198209400646605,1.024718310546875,2.418143676757812,9.414000927734374,9.773478394348528
3.2006963441929868,1.0486603271484374,2.1978771240234374,9.433154541015625,9.742420486138151
3.203183287739368,1.0726023437499999,1.9967641845703124,9.394847314453125,9.664403709411555
3.2056702312857497,1.024718310546875,1.8531120849609375,9.394847314453125,9.63053622999703
3.208157174832131,0.9193734375,1.695094775390625,9.399635717773437,9.59540230745847
3.2106441183785126,0.8092401611328125,1.5945383056640625,9.337386474609374,9.507060966609941
3.2131310619248943,0.6081272216796875,1.426944189453125,9.351751684570312,9.479517287680082
3.2156180054712755,0.4165910888671875,1.3407529296874998,9.323021264648437,9.428143616580948
3.218104949017657,0.2059013427734375,1.3646949462890625,9.318232861328125,9.419885950334969
