Time (s),Acceleration x (m/s^2),Acceleration y (m/s^2),Acceleration z (m/s^2),Absolute acceleration (m/s^2)
0.0,-0.5793968017578125,2.901772412109375,22.92687509765625,23.117041020188907
0.002486943546381497,-0.047884033203124995,2.370259643554687,25.15348264160156,25.264958196281484
0.004973887092762994,0.3495534423828125,1.9584569580078124,26.02976044921875,26.105673144149407
0.007460830639144491,0.737414111328125,1.47482822265625,25.608380957031248,25.661412141547665
0.009947774185525988,0.9720458740234375,1.1827356201171875,23.898920971679686,23.947905134664516
0.012434717731907486,1.0295067138671874,0.9528922607421875,21.236568725585936,21.282850818699423
0.014921661278288981,0.9959878906249999,0.8954314208984374,17.745822705078123,17.796292107848476
0.01740860482467048,0.852335791015625,1.0438719238281249,13.694833496093748,13.760981410485742
0.019895548371051976,0.6177040283203125,1.1923124267578125,9.619902270507811,9.713170794530773
0.022382491917433474,0.33518823242187495,1.5179238525390624,5.674257934570313,5.883336390288701
0.02486943546381497,-0.076614453125,1.8339584716796873,2.1787235107421874,2.8488786542311875
0.027356379010196465,-0.49320554199218747,2.2553379638671873,-0.5793968017578125,2.380231436604344
0.029843322556577963,-0.8571241943359375,2.7198130859375,-2.360682836914062,3.7020087200671905
0.032330266102959464,-1.1731588134765625,3.0262708984374997,-3.2609026611328122,4.60088071109766
0.03481720964934096,-1.426944189453125,3.399766357421875,-3.0502129150390624,4.785225160004776
0.03730415319572245,-1.62805712890625,3.6056677001953124,-1.886630908203125,4.383011038430266
0.03979109674210395,-1.714248388671875,3.7397429931640622,0.11013327636718749,4.115392390957051
0.04227804028848545,-1.6472107421875,3.782838623046875,2.7437551025390623,4.954933232638177
0.04476498383486695,-1.5466542724609373,3.782838623046875,5.798756420898437,7.09419364800875
0.04725192738124844,-1.369483349609375,3.5817256835937497,9.0021982421875,9.784876938879515
0.04973887092762994,-1.0869675537109373,3.414131567382812,12.109871997070313,12.628808043819808
0.05222581447401144,-0.7900865478515624,3.1364041748046874,14.867992309570312,15.215730781604615
0.05471275802039293,-0.507570751953125,2.8107927490234372,17.085023046874998,17.32213025174591
0.05719970156677443,-0.22505495605468748,2.4899697265625,18.67477294921875,18.841383804734587
0.059686645113155926,-0.0143652099609375,2.1547814941406247,19.40739865722656,19.526659014979174
0.062173588659537427,0.16280571289062498,1.867477294921875,19.330784204101562,19.42146222849199
0.06466053220591893,0.26336218261718747,1.7477672119140624,18.607735302734373,18.691491726528994
0.06714747575230041,0.28730419921875,1.5418658691406248,17.037139013671872,17.109178818180894
0.06963441929868192,0.3112462158203125,1.5658078857421873,15.069105249023437,15.153433985340108
0.07212136284506342,0.239420166015625,1.5897499023437498,12.722787622070312,12.823960060925113
0.0746083063914449,0.1005564697265625,1.7477672119140624,10.189722265624999,10.339015508317008
0.0770952499378264,-0.11013327636718749,1.9488801513671874,7.709329345703124,7.9526110267933845
0.0795821934842079,-0.32561142578124996,2.1978771240234374,5.511452221679687,5.942456751610633
0.0820691370305894,-0.5746083984375,2.3367408203125,3.6583401367187496,4.378810914939923
0.0845560805769709,-0.7517793212890624,2.6240450195312497,2.365471240234375,3.611957724118674
0.0870430241233524,-0.9720458740234375,2.8107927490234372,1.637633935546875,3.3951839369942047
0.0895299676697339,-1.0630255371093749,3.0166940917968748,1.6136919189453125,3.582522595225081
0.09201691121611538,-1.13006318359375,3.19865341796875,2.1739351074218747,4.029195991569356
0.09450385476249688,-1.158793603515625,3.294421484375,3.303998291015625,4.807537856251834
0.09699079830887838,-1.1013327636718748,3.347093920898437,4.8314989501953125,5.97991251419206
0.09947774185525989,-1.0773907470703123,3.318363500976562,6.660669018554687,7.519096948518513
0.10196468540164137,-0.9145850341796874,3.21780703125,8.757989672851561,9.37513365157436
0.10445162894802287,-0.7661445312499999,3.0597897216796874,10.721235034179687,11.175606079393763
0.10693857249440437,-0.565031591796875,2.868253588867187,12.531251489257812,12.867727197792318
0.10942551604078586,-0.45010991210937495,2.70065947265625,14.092270971679687,14.355774505733677
0.11191245958716736,-0.2920926025390625,2.480392919921875,15.160084912109374,15.364434310055898
0.11439940313354886,-0.143652099609375,2.308010400390625,15.816096166992187,15.984256188436747
0.11688634667993036,-0.0430956298828125,2.1212626708984375,15.940594653320312,16.08117441152002
0.11937329022631185,-0.033518823242187495,2.0254946044921875,15.5144267578125,15.646123786032978
0.12186023377269335,-0.0,1.9536685546875,14.69082138671875,14.82015701124815
0.12434717731907485,-0.047884033203124995,1.9297265380859374,13.4458365234375,13.583690853646322
0.12683412086545634,-0.143652099609375,1.9105729248046874,11.89439384765625,12.04771886416187
0.12932106441183785,-0.24899697265624998,1.9680337646484374,10.290278735351562,10.479742021749239
0.13180800795821934,-0.3687070556640625,2.1595698974609374,8.671798413085938,8.944259318250769
0.13429495150460083,-0.45489831542968745,2.288856787109375,7.144297753906249,7.515769306315043
0.13678189505098234,-0.6081272216796875,2.442085693359375,5.875370874023437,6.391680855516905
0.13926883859736383,-0.7422025146484375,2.6240450195312497,4.898536596679687,5.60643715975551
0.14175578214374532,-0.833182177734375,2.7437551025390623,4.357447021484375,5.216294580355521
0.14424272569012683,-0.8810662109374999,2.901772412109375,4.151545678710937,5.141195612127424
0.14672966923650832,-0.93852705078125,2.9927520751953125,4.438849877929687,5.4351436271206675
0.1492166127828898,-0.9193734375,3.0980969482421874,5.104437939453125,6.0414186161874746
0.15170355632927132,-0.8475473876953125,3.0789433349609374,6.148309863281249,6.928199102884603
0.1541904998756528,-0.8044517578125,3.0310593017578125,7.297526660156249,7.942818043812372
0.15667744342203432,-0.689530078125,3.0166940917968748,8.686163623046875,9.220918254624321
0.1591643869684158,-0.55545478515625,2.896984008789062,10.065223779296874,10.488554528287287
0.1616513305147973,-0.49320554199218747,2.7724855224609373,11.348515869140625,11.692678910799009
0.1641382740611788,-0.39743747558593745,2.6192566162109374,12.50730947265625,12.784805513317817
0.1666252176075603,-0.26815058593749996,2.480392919921875,13.321338037109374,13.552944361756756
0.1691121611539418,-0.19153613281249998,2.408566870117187,13.84806240234375,14.057265479359968
0.1715991047003233,-0.15322890625,2.288856787109375,14.010868115234373,14.197421238805955
0.1740860482467048,-0.17238251953125,2.1883003173828124,13.852850805664062,14.02568534710818
0.17657299179308628,-0.1484405029296875,2.1404162841796874,13.321338037109374,13.493015361713208
0.1790599353394678,-0.24899697265624998,2.1068974609374997,12.492944262695312,12.671806215141888
0.18154687888584928,-0.296881005859375,2.1164742675781247,11.535263598632811,11.731577385283858
0.18403382243223076,-0.4261678955078125,2.1835119140624997,10.32379755859375,10.560783085777338
0.18652076597861228,-0.44532150878906246,2.269703173828125,9.165003955078124,9.452362733204502
0.18900770952499377,-0.5889736083984375,2.3223756103515623,7.972691528320312,8.324910125202322
0.19149465307137528,-0.679953271484375,2.480392919921875,7.043741284179687,7.498598320156786
0.19398159661775677,-0.7230489013671875,2.5761609863281247,6.2392895263671875,6.7888245621081325
0.19646854016413826,-0.7900865478515624,2.73896669921875,5.76523759765625,6.431495929405107
0.19895548371051977,-0.8379705810546875,2.7820623291015623,5.559336254882812,6.272821143040314
0.20144242725690126,-0.833182177734375,2.916137622070312,5.7125651611328125,6.467723857149163
0.20392937080328274,-0.7852981445312499,2.9640216552734375,6.0908490234374995,6.819131863737763
0.20641631434966426,-0.718260498046875,2.93050283203125,6.809109521484374,7.447665235976096
0.20890325789604575,-0.6655880615234374,2.9544448486328125,7.666233715820312,8.242747795294697
0.21139020144242723,-0.5793968017578125,2.858676782226562,8.647856396484375,9.12650830566346
0.21387714498880875,-0.507570751953125,2.825157958984375,9.720458740234374,10.135406438917476
0.21636408853519024,-0.411802685546875,2.710236279296875,10.730811840820312,11.075436104485007
0.21885103208157172,-0.3016694091796875,2.6288334228515624,11.592724438476562,11.890880097956922
0.22133797562795324,-0.258573779296875,2.4851813232421875,12.310984936523436,12.56197980877372
0.22382491917433472,-0.24899697265624998,2.360682836914062,12.765883251953124,12.984706317487117
0.22631186272071624,-0.229843359375,2.3223756103515623,13.034033837890624,13.241310151668616
0.22879880626709773,-0.22505495605468748,2.2744915771484373,12.933477368164061,13.133879796182693
0.2312857498134792,-0.258573779296875,2.2170307373046874,12.550405102539061,12.747343014421952
0.23377269335986073,-0.32561142578124996,2.2074539306640624,11.994950317382811,12.20072574780228
0.23625963690624222,-0.37828386230468747,2.231395947265625,11.276689819335937,11.501563364841685
0.2387465804526237,-0.51714755859375,2.269703173828125,10.381258398437499,10.639056350531002
0.24123352399900522,-0.5746083984375,2.29843359375,9.399635717773437,9.69361250635054
0.2437204675453867,-0.6655880615234374,2.422932080078125,8.499415893554687,8.863051272779835
0.2462074110917682,-0.679953271484375,2.5234885498046875,7.690175732421874,8.122138493520533
0.2486943546381497,-0.7709329345703124,2.6048914062499997,7.015010864257812,7.522644099890372
0.2511812981845312,-0.7805097412109374,2.6958710693359373,6.612784985351562,7.183720591803296
0.2536682417309127,-0.8092401611328125,2.767697119140625,6.330269189453125,6.956099840616802
0.2561551852772942,-0.7996633544921875,2.8107927490234372,6.368576416015625,7.007052370655642
0.2586421288236757,-0.7278373046875,2.896984008789062,6.679822631835937,7.31725999825494
0.26112907237005717,-0.6943184814453125,2.863465185546875,7.153874560546875,7.7368877625667585
0.2636160159164387,-0.612915625,2.8203695556640622,7.848193041992187,8.362074145704545
0.2661029594628202,-0.5219359619140624,2.868253588867187,8.633491186523438,9.11243468378054
0.26858990300920166,-0.6560112548828124,2.7629087158203123,9.710881933593749,10.117571016142474
0.2710768465555832,-0.3591302490234375,2.710236279296875,10.376469995117187,10.73058641384281
0.2735637901019647,-0.32082302246093747,2.5761609863281247,11.123460913085937,11.42238659493587
0.27605073364834615,-0.26336218261718747,2.5330653564453125,11.712434521484374,11.986112887809593
0.27853767719472766,-0.2346317626953125,2.427720483398437,12.157756030273436,12.399996391178021
0.2810246207411092,-0.2346317626953125,2.375048046875,12.387599389648436,12.61540819503866
0.28351156428749064,-0.258573779296875,2.288856787109375,12.406753002929687,12.618765623742336
0.28599850783387215,-0.2920926025390625,2.250549560546875,12.20085166015625,12.410119767595852
0.28848545138025367,-0.33039982910156246,2.269703173828125,11.774683764648437,11.995994927551083
0.2909723949266351,-0.430956298828125,2.250549560546875,11.080365283203124,11.314821760204197
0.29345933847301664,-0.5219359619140624,2.2649147705078123,10.405200415039062,10.661634571824935
0.29594628201939815,-0.5793968017578125,2.346317626953125,9.643844287109374,9.942064156625134
0.2984332255657796,-0.6655880615234374,2.398990063476562,8.786720092773438,9.132612483898036
0.30092016911216113,-0.74699091796875,2.480392919921875,8.0828248046875,8.487779526589854
0.30340711265854264,-0.7661445312499999,2.5713725830078125,7.4794859863281244,7.946171721218171
0.30589405620492416,-0.7948749511718749,2.6958710693359373,7.038952880859375,7.57934064872674
0.3083809997513056,-0.7900865478515624,2.7533319091796873,6.818686328125,7.395914858660952
0.31086794329768713,-0.7230489013671875,2.849099975585937,6.775590698242187,7.3857159229663125
0.31335488684406865,-0.679953271484375,2.85388837890625,6.900089184570312,7.4978827735356495
0.3158418303904501,-0.612915625,2.887407202148437,7.321468676757812,7.894092063000887
0.3183287739368316,-0.59376201171875,2.8203695556640622,7.8529814453124995,8.365187107142278
0.32081571748321314,-0.4740519287109375,2.839523168945312,8.566453540039062,9.037242019097395
0.3233026610295946,-0.45489831542968745,2.748543505859375,9.299079248046874,9.707435229886343
0.3257896045759761,-0.3687070556640625,2.6719290527343746,10.060435375976562,10.41573375763528
0.3282765481223576,-0.32082302246093747,2.5665841796874997,10.749965454101561,11.056764401376205
0.3307634916687391,-0.229843359375,2.5474305664062498,11.386823095703125,11.670559998275479
0.3332504352151206,-0.229843359375,2.408566870117187,11.803414184570311,12.048842631148872
0.3357373787615021,-0.258573779296875,2.3415292236328122,12.076353173828124,12.30398006677087
0.3382243223078836,-0.28730419921875,2.3223756103515623,12.167332836914062,12.390317209123086
0.3407112658542651,-0.316034619140625,2.2649147705078123,11.994950317382811,12.211001183958741
0.3431982094006466,-0.3399766357421875,2.29843359375,11.626243261718749,11.856134002211249
0.34568515294702806,-0.45010991210937495,2.2361843505859373,11.180921752929686,11.41122826990683
0.3481720964934096,-0.507570751953125,2.3367408203125,10.544064111328124,10.811811768309266
0.3506590400397911,-0.6081272216796875,2.3511060302734372,9.80665,10.10286605403813
0.35314598358617255,-0.6847416748046875,2.418143676757812,9.069235888671875,9.411021708987397
0.35563292713255407,-0.718260498046875,2.499546533203125,8.374917407226562,8.769428293370598
0.3581198706789356,-0.7805097412109374,2.6096798095703124,7.79552060546875,8.257709469029045
0.36060681422531704,-0.7805097412109374,2.6623522460937497,7.364564306640625,7.869823528202567
0.36309375777169856,-0.8092401611328125,2.7341782958984373,7.024587670898437,7.581255340528418
0.36558070131808007,-0.7613561279296874,2.7916391357421872,6.9527616210937495,7.530856948415477
0.36806764486446153,-0.718260498046875,2.8107927490234372,7.062894897460937,7.635505114502709
0.37055458841084304,-0.6081272216796875,2.858676782226562,7.340622290039062,7.901049757342842
0.37304153195722456,-0.3591302490234375,3.0166940917968748,7.977479931640625,8.536369476479724
0.3755284755036061,-0.5123591552734374,2.786850732421875,8.44674345703125,8.909350365637952
0.37801541904998753,-0.44053310546874996,2.7054478759765623,9.09796630859375,9.501921309869232
0.38050236259636905,-0.3591302490234375,2.6958710693359373,9.854534033203125,10.222941669099201
0.38298930614275056,-0.3399766357421875,2.5474305664062498,10.496180078124999,10.806238144513545
0.385476249689132,-0.24899697265624998,2.5713725830078125,11.123460913085937,11.419515713811462
0.38796319323551354,-0.26336218261718747,2.461239306640625,11.573570825195311,11.835311580587888
0.39045013678189505,-0.239420166015625,2.3511060302734372,11.846509814453125,12.079934452033143
0.3929370803282765,-0.24899697265624998,2.346317626953125,11.975796704101562,12.206019523043242
0.395424023874658,-0.3112462158203125,2.2744915771484373,11.875240234375,12.095103007643235
0.39791096742103954,-0.3687070556640625,2.2840683837890623,11.654973681640625,11.882395583149757
0.400397910967421,-0.45489831542968745,2.27927998046875,11.152191333007812,11.391813781604796
0.4028848545138025,-0.49320554199218747,2.31758720703125,10.611101757812499,10.872439592083197
0.40537179806018403,-0.6272808349609375,2.346317626953125,9.964667309570311,10.256377637493632
0.4078587416065655,-0.689530078125,2.4851813232421875,9.299079248046874,9.65010118079012
0.410345685152947,-0.74699091796875,2.4899697265625,8.609549169921875,8.993457709914912
0.4128326286993285,-0.74699091796875,2.6001030029296874,7.996633544921875,8.441840978669378
0.41531957224571,-0.8092401611328125,2.6431986328124997,7.580042456054687,8.068358710821162
0.4178065157920915,-0.842758984375,2.729389892578125,7.225700610351562,7.7698494967333405
0.420293459338473,-0.74699091796875,2.73896669921875,7.072471704101562,7.621009776681454
0.42278040288485447,-0.7326257080078125,2.7916391357421872,7.125144140624999,7.6875007978486805
0.425267346431236,-0.6368576416015624,2.806004345703125,7.350199096679687,7.893331033511899
0.4277542899776175,-0.622492431640625,2.8203695556640622,7.723694555664062,8.246055957071917
0.43024123352399896,-0.5123591552734374,2.7724855224609373,8.322244970703125,8.78686230850589
0.43272817707038047,-0.4644751220703125,2.7198130859375,8.94473740234375,9.360632860995366
0.435215120616762,-0.239420166015625,2.868253588867187,9.6151138671875,10.036663556427794
0.43770206416314344,-0.316034619140625,2.6527754394531247,10.256759912109374,10.598972559041512
0.44018900770952496,-0.258573779296875,2.5330653564453125,10.831368310546875,11.126626621671203
0.4426759512559065,-0.2442085693359375,2.499546533203125,11.334150659179686,11.609062919201023
0.445162894802288,-0.2442085693359375,2.389413256835937,11.693280908203125,11.937409766587896
0.44764983834866945,-0.26336218261718747,2.346317626953125,11.880028637695311,12.112375756978667
0.45013678189505096,-0.277727392578125,2.3319524169921872,11.903970654296874,12.133410564143336
0.4526237254414325,-0.33039982910156246,2.346317626953125,11.693280908203125,11.930934114802955
0.45511066898781394,-0.45968671875,2.288856787109375,11.305420239257812,11.54394664131431
0.45759761253419545,-0.4836287353515625,2.346317626953125,10.812214697265624,11.074434063191468
0.46008455608057697,-0.565031591796875,2.3511060302734372,10.17056865234375,10.454062702000309
0.4625714996269584,-0.6560112548828124,2.389413256835937,9.528922607421874,9.845811928770116
0.46505844317333994,-0.679953271484375,2.4756045166015626,8.839392529296875,9.20466264786547
0.46754538671972146,-0.7565677246093749,2.5570073730468748,8.21690009765625,8.638757355233448
0.4700323302661029,-0.7996633544921875,2.5953145996093747,7.738059765625,8.20077363959326
0.47251927381248443,-0.7852981445312499,2.6862942626953124,7.3549875,7.869479726560723
0.47500621735886595,-0.7422025146484375,2.8107927490234372,7.187393383789062,7.753066754778265
0.4774931609052474,-0.7852981445312499,2.7533319091796873,7.134720947265625,7.687767736688081
0.4799801044516289,-0.6703764648437499,2.85388837890625,7.331045483398437,7.895461440823404
0.48246704799801043,-0.63206923828125,2.786850732421875,7.637503295898437,8.154600242908371
0.4849539915443919,-0.49799394531249996,2.8203695556640622,8.197746484375,8.683635749049316
0.4874409350907734,-0.45010991210937495,2.7820623291015623,8.743624462890624,9.186590144555511
0.4899278786371549,-0.44053310546874996,2.6671406494140624,9.380482104492186,9.762230952680282
0.4924148221835364,-0.2920926025390625,2.6671406494140624,10.060435375976562,10.412075551320955
0.4949017657299179,-0.22505495605468748,2.5953145996093747,10.63025537109375,10.94479953488678
0.4973887092762994,-0.258573779296875,2.5330653564453125,11.152191333007812,11.439171824366387
0.49987565282268087,-0.27293898925781246,2.408566870117187,11.511321582031249,11.763767025261151
0.5023625963690624,-0.2154781494140625,2.418143676757812,11.774683764648437,12.022355319644905
0.5048495399154439,-0.296881005859375,2.327164013671875,11.803414184570311,12.034301686873446
0.5073364834618254,-0.38307226562499996,2.31758720703125,11.6837041015625,11.917503780396057
0.5098234270082069,-0.37828386230468747,2.288856787109375,11.405976708984374,11.639513252635215
0.5123103705545884,-0.5267243652343749,2.288856787109375,10.93671318359375,11.186062721486122
0.5147973141009698,-0.5746083984375,2.35589443359375,10.328585961914062,10.609434545084914
0.5172842576473514,-0.63206923828125,2.403778466796875,9.701305126953125,10.014638466048824
0.5197712011937329,-0.6847416748046875,2.47081611328125,9.04050546875,9.397049673028405
0.5222581447401143,-0.7613561279296874,2.528276953125,8.437166650390624,8.84068032403066
0.5247450882864959,-0.7661445312499999,2.6527754394531247,7.9104422851562495,8.378501782640978
0.5272320318328774,-0.7805097412109374,2.6767174560546874,7.517793212890624,8.01818100241304
0.5297189753792588,-0.8283937744140625,2.7198130859375,7.244854223632812,7.782771497970054
0.5322059189256404,-0.737414111328125,2.806004345703125,7.182604980468749,7.746434939063591
0.5346928624720219,-0.6847416748046875,2.806004345703125,7.273584643554687,7.826082360688119
0.5371798060184033,-0.6368576416015624,2.7916391357421872,7.56567724609375,8.089394842133396
0.5396667495647849,-0.565031591796875,2.7916391357421872,7.987056738281249,8.479716098104925
0.5421536931111663,-0.5363011718749999,2.729389892578125,8.537723120117187,8.979415582789654
0.5446406366575478,-0.44053310546874996,2.6767174560546874,9.188945971679686,9.581002756862674
0.5471275802039294,-0.33039982910156246,2.6862942626953124,9.840168823242188,10.205599609173762
0.5496145237503108,-0.258573779296875,2.6144682128906247,10.467449658203124,10.792117808038054
0.5521014672966923,-0.27293898925781246,2.5139117431640625,10.998962426757812,11.285894843099742
0.5545884108430739,-0.26336218261718747,2.437297290039062,11.425130322265625,11.685177816362833
0.5570753543894553,-0.26815058593749996,2.360682836914062,11.712434521484374,11.95097697317245
0.5595622979358368,-0.26815058593749996,2.308010400390625,11.793837377929687,12.020541453782409
0.5620492414822184,-0.39743747558593745,2.2601263671875,11.736376538085937,11.9586229134625
0.5645361850285998,-0.38307226562499996,2.31758720703125,11.473014355468749,11.711021015422949
0.5670231285749813,-0.45010991210937495,2.3127988037109373,11.037269653320312,11.28596290262959
0.5695100721213628,-0.5267243652343749,2.3367408203125,10.520122094726561,10.789382053954723
0.5719970156677443,-0.6272808349609375,2.375048046875,9.945513696289062,10.244392473638804
0.5744839592141258,-0.7134720947265625,2.427720483398437,9.255983618164063,9.595629313139778
0.5769709027605073,-0.737414111328125,2.5330653564453125,8.695740429687499,9.087139334912335
0.5794578463068888,-0.7852981445312499,2.6048914062499997,8.092401611328125,8.537512298859976
0.5819447898532703,-0.7900865478515624,2.6144682128906247,7.637503295898437,8.111173613243091
0.5844317333996518,-0.7996633544921875,2.7198130859375,7.335833886718749,7.864559969666813
0.5869186769460333,-0.7805097412109374,2.7437551025390623,7.230489013671875,7.772860406289565
0.5894056204924147,-0.737414111328125,2.8107927490234372,7.249642626953125,7.810355540440165
0.5918925640387963,-0.6655880615234374,2.829946362304687,7.522581616210937,8.064790019195714
0.5943795075851778,-0.603338818359375,2.8107927490234372,7.838616235351562,8.34916032262042
0.5968664511315592,-0.49799394531249996,2.7964275390625,8.389282617187499,8.857091383848276
0.5993533946779408,-0.4165910888671875,2.7533319091796873,8.992621435546875,9.413905938582971
0.6018403382243223,-0.3591302490234375,2.6479870361328124,9.595960253906249,9.961087444342589
0.6043272817707037,-0.3064578125,2.6001030029296874,10.271125122070313,10.599550145638737
0.6068142253170853,-0.229843359375,2.5905261962890624,10.826579907226561,11.134562695996218
0.6093011688634667,-0.24899697265624998,2.4899697265625,11.3006318359375,11.574378109557067
0.6117881124098483,-0.2920926025390625,2.398990063476562,11.587936035156249,11.83726036581058
0.6142750559562298,-0.2442085693359375,2.360682836914062,11.808202587890625,12.044339319302846
0.6167619995026112,-0.3064578125,2.308010400390625,11.736376538085937,11.965089328663101
0.6192489430489928,-0.3399766357421875,2.3127988037109373,11.525686791992188,11.760360472638604
0.6217358865953743,-0.45489831542968745,2.2553379638671873,11.18571015625,11.419877123168872
0.6242228301417557,-0.5027823486328125,2.29843359375,10.74517705078125,10.999746221054888
0.6267097736881373,-0.5746083984375,2.389413256835937,10.180145458984374,10.472575236759027
0.6291967172345188,-0.6272808349609375,2.5043349365234375,9.528922607421874,9.872463764351675
0.6316836607809002,-0.6943184814453125,2.5139117431640625,8.872911352539061,9.24826396012307
0.6341706043272818,-0.7757213378906249,2.5139117431640625,8.264784130859374,8.673416430460486
0.6366575478736632,-0.7996633544921875,2.6384102294921874,7.762001782226562,8.237071183794336
0.6391444914200447,-0.7565677246093749,2.6862942626953124,7.493851196289062,7.99664788144591
0.6416314349664263,-0.8092401611328125,2.7198130859375,7.244854223632812,7.780756106093888
0.6441183785128077,-0.7565677246093749,2.8107927490234372,7.211335400390625,7.776651519568712
0.6466053220591892,-0.6416460449218749,2.7820623291015623,7.359775903320312,7.894167581009679
0.6490922656055708,-0.6607996582031249,2.7581203125,7.675810522460937,8.183028230626393
0.6515792091519522,-0.5410895751953124,2.81558115234375,8.183381274414062,8.671101673734954
0.6540661526983337,-0.062249243164062495,2.839523168945312,8.820238916015624,9.266249582805775
0.6565530962447153,-0.3591302490234375,2.7581203125,9.409212524414063,9.811701306276053
0.6590400397910967,-0.32561142578124996,2.6001030029296874,10.01733974609375,10.354402639221293
0.6615269833374782,-0.24899697265624998,2.5330653564453125,10.620678564453124,10.921411665249574
0.6640139268838597,-0.2442085693359375,2.4899697265625,11.152191333007812,11.429390123385822
0.6665008704302412,-0.26815058593749996,2.418143676757812,11.5304751953125,11.784361748007367
0.6689878139766227,-0.239420166015625,2.3511060302734372,11.745953344726562,11.981337219107731
0.6714747575230042,-0.2537853759765625,2.3367408203125,11.789048974609374,12.021083162681833
0.6739617010693857,-0.3064578125,2.308010400390625,11.674127294921874,11.904036143140422
0.6764486446157671,-0.4213794921875,2.250549560546875,11.348515869140625,11.577190783305358
0.6789355881621487,-0.47884033203125,2.2744915771484373,10.93671318359375,11.180979172607929
0.6814225317085302,-0.5698199951171875,2.29843359375,10.342951171874999,10.610566938458298
0.6839094752549116,-0.6655880615234374,2.408566870117187,9.725247143554688,10.041147037997563
0.6863964188012932,-0.718260498046875,2.480392919921875,9.02135185546875,9.383657947752708
0.6888833623476747,-0.7326257080078125,2.528276953125,8.432378247070313,8.833681434226705
0.6913703058940561,-0.8044517578125,2.5522189697265625,7.896077075195312,8.33720561564273
0.6938572494404377,-0.7996633544921875,2.6671406494140624,7.570465649414062,8.066291023341076
0.6963441929868192,-0.7948749511718749,2.710236279296875,7.287949853515625,7.816100047016791
0.6988311365332006,-0.7805097412109374,2.77727392578125,7.216123803710937,7.771414843220839
0.7013180800795822,-0.7134720947265625,2.8107927490234372,7.316680273437499,7.870413491782098
0.7038050236259636,-0.63206923828125,2.8107927490234372,7.6087728759765625,8.135938303486626
0.7062919671723451,-0.565031591796875,2.8107927490234372,7.987056738281249,8.486041003802372
0.7087789107187267,-0.4644751220703125,2.8012159423828122,8.576030346679687,9.033872060310173
0.7112658542651081,-0.43574470214843747,2.6431986328124997,9.169792358398437,9.553086640143837
0.7137527978114896,-0.3495534423828125,2.6384102294921874,9.8449572265625,10.19836158120587
0.7162397413578712,-0.3016694091796875,2.6431986328124997,10.405200415039062,10.73991150438707
0.7187266849042526,-0.24899697265624998,2.5043349365234375,11.027692846679686,11.31122020329346
0.7212136284506341,-0.277727392578125,2.389413256835937,11.410765112304686,11.661560301465723
0.7237005719970157,-0.26336218261718747,2.375048046875,11.635820068359374,11.878658237672822
0.7261875155433971,-0.27293898925781246,2.3511060302734372,11.7603185546875,11.996136368230076
0.7286744590897786,-0.2920926025390625,2.346317626953125,11.755530151367187,11.990955492983536
0.7311614026361601,-0.3591302490234375,2.3127988037109373,11.520898388671874,11.756237175402363
0.7336483461825416,-0.4213794921875,2.308010400390625,11.0707884765625,11.316661618053997
0.7361352897289231,-0.5123591552734374,2.35589443359375,10.539275708007812,10.811525467557024
0.7386222332753046,-0.622492431640625,2.3367408203125,9.935936889648437,10.225981437683194
0.7411091768216861,-0.6607996582031249,2.4516625,9.342174877929686,9.681091707654058
0.7435961203680675,-0.7613561279296874,2.4660277099609376,8.633491186523438,9.011000271202368
0.7460830639144491,-0.7565677246093749,2.5857377929687497,8.135497241210937,8.569991249567193
0.7485700074608306,-0.7948749511718749,2.6623522460937497,7.68059892578125,8.167713604736212
0.7510569510072121,-0.7900865478515624,2.6958710693359373,7.345410693359375,7.864287369475809
0.7535438945535936,-0.7613561279296874,2.8107927490234372,7.206546997070312,7.772678988127707
0.7560308380999751,-0.737414111328125,2.7916391357421872,7.220912207031249,7.7767989389880805
0.7585177816463566,-0.679953271484375,2.81558115234375,7.503428002929687,8.043088055714984
0.7610047251927381,-0.5793968017578125,2.786850732421875,7.838616235351562,8.339432962966045
0.7634916687391196,-0.51714755859375,2.806004345703125,8.365340600585936,8.838553351611099
0.7659786122855011,-0.45489831542968745,2.767697119140625,8.939948999023438,9.369619412004964
0.7684655558318826,-0.33039982910156246,2.6575638427734374,9.595960253906249,9.962643365093198
0.770952499378264,-0.3112462158203125,2.6096798095703124,10.213664282226562,10.546385209415217
0.7734394429246456,-0.2442085693359375,2.5713725830078125,10.836156713867187,11.139743583829489
0.7759263864710271,-0.2154781494140625,2.4851813232421875,11.262324609375,11.535272543342893
0.7784133300174085,-0.239420166015625,2.422932080078125,11.6070896484375,11.859698646569043
0.7809002735637901,-0.2442085693359375,2.3127988037109373,11.789048974609374,12.016253653178355
0.7833872171101716,-0.1149216796875,2.1643583007812497,11.602301245117188,11.803010125771761
0.785874160656553,-0.37828386230468747,2.327164013671875,11.6070896484375,11.844126018152394
0.7883611042029346,-0.6272808349609375,2.6910826660156246,23.29079375,23.45413568363324
0.790848047749316,-0.201112939453125,2.2457611572265623,24.497471386718747,24.601016115860475
0.7933349912956975,0.19153613281249998,1.838746875,24.396914916992188,24.466857861757624
0.7958219348420791,0.4836287353515625,1.4987702392578124,23.185448876953124,23.238873651912428
0.7983088783884605,0.699106884765625,1.3215993164062498,20.930110913085937,20.98344390283757
0.800795821934842,0.842758984375,1.1635820068359375,17.903840014648438,17.96139340537097
0.8032827654812236,0.7948749511718749,1.1540052001953125,14.317325927734375,14.385735153653194
0.805769709027605,0.7038952880859375,1.3263877197265623,10.544064111328124,10.650448861124527
0.8082566525739865,0.507570751953125,1.47482822265625,6.8569935546875,7.032148104498907
0.8107435961203681,0.24899697265624998,1.8004396484374998,3.5721488769531247,4.007970810669059
0.8132305396667495,-0.0718260498046875,2.1835119140624997,0.948103857421875,2.3815507940713054
0.815717483213131,-0.37828386230468747,2.4851813232421875,-0.8810662109374999,2.663738455240624
0.8182044267595125,-0.7038952880859375,2.8107927490234372,-1.7286135986328124,3.374037555797297
0.820691370305894,-0.9624690673828125,3.0406361083984375,-1.8100164550781248,3.667147967701701
0.8231783138522755,-1.22583125,3.318363500976562,-0.833182177734375,3.6343350312518226
0.825665257398657,-1.3551181396484375,3.4811692138671875,0.9002198242187499,3.8425616455559135
0.8281522009450385,-1.4317325927734375,3.5290532470703124,3.2034418212890623,4.976556494228821
0.83063914449142,-1.4030021728515625,3.5529952636718747,5.908889697265625,7.03613302142255
0.8331260880378015,-1.3455413330078123,3.4524387939453125,8.805873706054687,9.553702257855658
0.835613031584183,-1.216254443359375,3.303998291015625,11.578359228515625,12.101821433262783
0.8380999751305644,-1.0199299072265624,3.0645781249999997,14.063540551757812,14.429659349784393
0.840586918676946,-0.8475473876953125,2.844311572265625,16.03157431640625,16.303981720946876
0.8430738622233275,-0.59376201171875,2.5665841796874997,17.4297880859375,17.627745754879474
0.8455608057697089,-0.4261678955078125,2.3415292236328122,18.057068920898438,18.2132401344287
0.8480477493160905,-0.201112939453125,2.1883003173828124,18.052280517578122,18.185541965495663
0.850534692862472,-0.1005564697265625,1.9584569580078124,17.26219396972656,17.373226698239943
0.8530216364088534,0.01915361328125,1.838746875,15.95495986328125,16.06057599123206
0.855508579955235,0.047884033203124995,1.8291700683593748,14.130578198242187,14.248557689684072
0.8579955235016165,0.076614453125,1.886630908203125,12.038045947265624,12.185228606254924
0.8604824670479979,0.023942016601562498,1.89620771484375,9.816226806640625,9.9977240228665
0.8629694105943795,-0.076614453125,2.0159177978515626,7.714117749023437,7.973544192385263
0.8654563541407609,-0.181959326171875,2.1883003173828124,5.8226984375,6.222988395417718
0.8679432976871424,-0.28730419921875,2.398990063476562,4.299986181640625,4.932299482984415
0.870430241233524,-0.469263525390625,2.5570073730468748,3.294421484375,4.196630538752452
0.8729171847799054,-0.5985504150390625,2.7150246826171873,2.8012159423828122,3.9466989221910023
0.8754041283262869,-0.7134720947265625,2.8730419921875,2.882618798828125,4.13193705883615
0.8778910718726685,-0.7996633544921875,3.0214824951171875,3.5482068603515624,4.7284870595850395
0.8803780154190499,-0.8571241943359375,3.0741549316406247,4.6351744140625,5.62760448832592
0.8828649589654315,-0.8379705810546875,3.1507693847656246,6.081272216796875,6.900102476447365
0.885351902511813,-0.9050082275390624,3.0837317382812497,7.75721337890625,8.396594591349436
0.8878388460581944,-0.8667010009765624,2.9640216552734375,9.447519750976562,9.939427772418084
0.890325789604576,-0.7948749511718749,2.901772412109375,11.171344946289063,11.569401766239157
0.8928127331509574,-0.737414111328125,2.786850732421875,12.617442749023438,12.942572313928569
0.8952996766973389,-0.6464344482421874,2.6479870361328124,13.761871142578125,14.029212742856464
0.8977866202437205,-0.5698199951171875,2.43250888671875,14.475343237304687,14.689362006179287
0.9002735637901019,-0.45489831542968745,2.3319524169921872,14.762647436523437,14.952614951492214
0.9027605073364834,-0.37828386230468747,2.308010400390625,14.657302563476561,14.842726472117176
0.905247450882865,-0.3447650390625,2.231395947265625,14.058752148437499,14.238908061253476
0.9077343944292464,-0.33518823242187495,2.1356278808593747,13.120225097656249,13.297126163567334
0.9102213379756279,-0.32082302246093747,2.1260510742187497,11.985373510742187,12.176707222148694
0.9127082815220094,-0.2825157958984375,2.1883003173828124,10.639832177734375,10.866209192921957
0.9151952250683909,-0.4261678955078125,2.231395947265625,9.198522778320312,9.474891463859237
0.9176821686147724,-0.38786066894531246,2.3032219970703123,7.9104422851562495,8.248052170851691
0.9201691121611539,-0.430956298828125,2.418143676757812,6.746860278320312,7.180060291398664
0.9226560557075354,-0.45968671875,2.5378537597656248,5.88015927734375,6.4209256896715
0.9251429992539169,-0.49799394531249996,2.6431986328124997,5.324704492187499,5.965481951292076
0.9276299428002984,-0.5889736083984375,2.7341782958984373,5.1523219726562495,5.8625116268599715
0.9301168863466799,-0.603338818359375,2.7341782958984373,5.3199160888671875,6.01175979860218
0.9326038298930613,-0.612915625,2.882618798828125,5.928043310546875,6.620185359523251
0.9350907734394429,-0.612915625,2.91134921875,6.713341455078124,7.343062939220652
0.9375777169858244,-0.5698199951171875,2.920926025390625,7.709329345703124,8.26379226706232
0.9400646605322058,-0.55545478515625,2.877830395507812,8.872911352539061,9.344463263006505
0.9425516040785874,-0.59376201171875,2.77727392578125,9.974244116210937,10.370696672603687
0.9450385476249689,-0.5219359619140624,2.70065947265625,11.109095703125,11.444561419153528
0.9475254911713503,-0.469263525390625,2.6623522460937497,11.956643090820311,12.258451849226457
0.9500124347177319,-0.488417138671875,2.5378537597656248,12.598289135742187,12.860643147022802
0.9524993782641133,-0.5219359619140624,2.480392919921875,13.014880224609374,13.259406979441648
0.9549863218104948,-0.469263525390625,2.375048046875,13.096283081054686,13.318171496881469
0.9574732653568764,-0.47884033203125,2.3367408203125,12.895170141601561,13.11392613620143
0.9599602089032578,-0.47884033203125,2.308010400390625,12.363657373046875,12.58635069072793
0.9624471524496393,-0.5027823486328125,2.27927998046875,11.645396875,11.877001965804423
0.9649340959960209,-0.5267243652343749,2.3032219970703123,10.749965454101561,11.006544752514165
0.9674210395424023,-0.5267243652343749,2.375048046875,9.801861596679688,10.099246632415726
0.9699079830887838,-0.5746083984375,2.418143676757812,8.796296899414061,9.140701985933035
0.9723949266351654,-0.565031591796875,2.4899697265625,7.9295958984374995,8.330528257646273
0.9748818701815468,-0.5363011718749999,2.5905261962890624,7.192181787109375,7.663284137981717
0.9773688137279283,-0.612915625,2.6336218261718747,6.655880615234374,7.184175405076823
0.9798557572743098,-0.5746083984375,2.710236279296875,6.387730029296875,6.962661159955505
0.9823427008206913,-0.565031591796875,2.7198130859375,6.373364819335937,6.95244007831167
0.9848296443670728,-0.5315127685546874,2.77727392578125,6.574477758789062,7.156780986083975
0.9873165879134543,-0.5602431884765625,2.839523168945312,7.125144140624999,7.690542456933345
0.9898035314598358,-0.49799394531249996,2.7916391357421872,7.747636572265624,8.2502799643214
0.9922904750062173,-0.49799394531249996,2.7341782958984373,8.56166513671875,9.00143537646276
0.9947774185525988,-0.4644751220703125,2.710236279296875,9.447519750976562,9.839550156065645
0.9972643620989803,-0.43574470214843747,2.6910826660156246,10.271125122070313,10.626749768108972
0.9997513056453617,-0.40222587890625,2.6336218261718747,11.075576879882812,11.391494757192556
1.0022382491917432,0.8475473876953125,3.9647979492187497,9.390058911132812,10.22795999733393
1.0047251927381249,0.7948749511718749,3.9983167724609374,9.399635717773437,10.2455607375968
1.0072121362845063,0.6751648681640625,4.036623999023437,9.380482104492186,10.234433321947686
1.0096990798308878,0.5602431884765625,3.9983167724609374,9.3852705078125,10.216834732342102
1.0121860233772693,0.3399766357421875,3.921702319335937,9.418789331054686,10.208277310943558
1.0146729669236507,0.12449848632812499,3.854664672851562,9.452308154296874,10.208823098526834
1.0171599104700322,-0.0383072265625,3.69664736328125,9.481038574218749,10.176284273637654
1.0196468540164139,-0.2537853759765625,3.5098996337890624,9.528922607421874,10.157960844311612
1.0221337975627953,-0.5219359619140624,3.2704794677734372,9.485826977539062,10.047356196794988
1.0246207411091768,-0.7613561279296874,3.0837317382812497,9.557653027343749,10.071633232912738
1.0271076846555582,-0.9720458740234375,2.8730419921875,9.595960253906249,10.063880795430121
1.0295946282019397,-1.2401964599609374,2.5378537597656248,9.572018237304688,9.980096297158145
1.0320815717483212,-1.4413093994140624,2.3319524169921872,9.6151138671875,9.998289330627335
1.0345685152947028,-1.5705962890624998,2.0446482177734375,9.6151138671875,9.95478647267948
1.0370554588410843,-1.7717092285156248,1.8291700683593748,9.624690673828125,9.955877022958015
1.0395424023874658,-1.8195932617187498,1.6472107421875,9.619902270507811,9.928078492910474
1.0420293459338472,-1.8626888916015625,1.43652099609375,9.624690673828125,9.90797017789154
1.0445162894802287,-1.9488801513671874,1.235408056640625,9.595960253906249,9.86948935382951
1.0470032330266101,-1.9009961181640624,1.1923124267578125,9.634267480468749,9.892143602348966
1.0494901765729918,-1.8914193115234375,1.13006318359375,9.572018237304688,9.822323704002601
1.0519771201193733,-1.7429788085937499,1.1013327636718748,9.595960253906249,9.814956045652599
1.0544640636657547,-1.62805712890625,1.1013327636718748,9.572018237304688,9.77174687589753
1.0569510072121362,-1.4604630126953124,1.1109095703125,9.576806640625,9.751015214672885
1.0594379507585177,-1.2976572998046874,1.197100830078125,9.524134204101562,9.686387211073457
1.0619248943048991,-1.0726023437499999,1.3838485595703125,9.504980590820312,9.66489361842714
1.0644118378512808,-0.852335791015625,1.5083470458984374,9.481038574218749,9.638032971376507
1.0668987813976623,-0.603338818359375,1.7573440185546874,9.481038574218749,9.661385416963403
1.0693857249440437,-0.36391865234375,1.9967641845703124,9.428366137695312,9.644355448693606
1.0718726684904252,-0.0718260498046875,2.2553379638671873,9.442731347656249,9.708598437297793
1.0743596120368066,0.1005564697265625,2.5043349365234375,9.394847314453125,9.723423324106733
1.076846555583188,0.33518823242187495,2.729389892578125,9.375693701171874,9.770647507461094
1.0793334991295698,0.47884033203125,2.9496564453125,9.394847314453125,9.858646827574283
1.0818204426759512,0.679953271484375,3.208230224609375,9.380482104492186,9.937229097600477
1.0843073862223327,0.7517793212890624,3.4524387939453125,9.366116894531249,10.010427136535188
1.0867943297687142,0.8475473876953125,3.6631285400390623,9.375693701171874,10.101508781040177
1.0892812733150956,0.8906430175781249,3.758896606445312,9.34696328125,10.113766423234349
1.0917682168614773,0.9097966308593749,3.878606689453125,9.399635717773437,10.209038710272175
1.0942551604078588,0.8283937744140625,4.012681982421875,9.380482104492186,10.23627361153654
1.0967421039542402,0.7278373046875,4.031835595703125,9.390058911132812,10.244932980133068
1.0992290475006217,0.603338818359375,4.04141240234375,9.370905297851563,10.223057176640442
1.1017159910470031,0.49320554199218747,3.9983167724609374,9.390058911132812,10.217778382512462
1.1042029345933846,0.296881005859375,3.897760302734375,9.375693701171874,10.157967615985296
1.1066898781397663,0.08140285644531249,3.801992236328125,9.414000927734374,10.153087454440666
1.1091768216861477,-0.0909796630859375,3.6248213134765623,9.552864624023437,10.217868142555355
1.1116637652325292,-0.354341845703125,3.4572271972656248,9.533711010742186,10.147394920543707
1.1141507087789106,-0.6081272216796875,3.21780703125,9.562441430664062,10.107640027374854
1.116637652325292,-0.8714894042968749,2.9735984619140625,9.533711010742186,10.024641002591872
1.1191245958716736,-1.0869675537109373,2.7533319091796873,9.605537060546874,10.051302268187287
1.1216115394180552,-1.3455413330078123,2.442085693359375,9.548076220703125,9.946859983376637
1.1240984829644367,-1.5035586425781249,2.2266075439453124,9.605537060546874,9.974207335320688
1.1265854265108182,-1.656787548828125,1.9871873779296874,9.624690673828125,9.966369912050679
1.1290723700571996,-1.7717092285156248,1.7190367919921874,9.595960253906249,9.908405233799167
1.131559313603581,-1.8722656982421875,1.5801730957031248,9.658209497070311,9.964102395424158
1.1340462571499625,-1.9297265380859374,1.3934253662109375,9.595960253906249,9.886755380686916
1.1365332006963442,-1.89620771484375,1.2401964599609374,9.610325463867188,9.873806078639921
1.1390201442427257,-1.9201497314453124,1.1252747802734375,9.643844287109374,9.897320392727572
1.1415070877891071,-1.8052280517578123,1.0726023437499999,9.591171850585937,9.818345154563643
1.1439940313354886,-1.7238251953125,1.0821791503906248,9.576806640625,9.790705309090528
1.14648097488187,-1.5610194824218748,1.1252747802734375,9.562441430664062,9.754143287367715
1.1489679184282515,-1.3934253662109375,1.1875240234375,9.528922607421874,9.703206357471585
1.1514548619746332,-1.216254443359375,1.254561669921875,9.452308154296874,9.612456985517062
1.1539418055210147,-0.9337386474609375,1.5083470458984374,9.514557397460937,9.678521640323556
1.1564287490673961,-0.7038952880859375,1.62805712890625,9.5001921875,9.664351514251129
1.1589156926137776,-0.4740519287109375,1.838746875,9.433154541015625,9.62237600055831
1.161402636160159,-0.26815058593749996,2.0925322509765625,9.437942944335937,9.670851202384211
1.1638895797065405,-0.0047884033203125,2.3415292236328122,9.447519750976562,9.733365886425162
1.1663765232529222,0.21068974609375,2.5857377929687497,9.332598071289063,9.686475977533021
1.1688634667993036,0.39264907226562495,2.868253588867187,9.399635717773437,9.83535477605372
1.171350410345685,0.5506663818359374,3.1172505615234374,9.356540087890625,9.87751623353294
1.1738373538920666,0.6943184814453125,3.303998291015625,9.356540087890625,9.947025951359281
1.176324297438448,0.833182177734375,3.5003228271484375,9.327809667968749,9.9977240228665
1.1788112409848295,0.8571241943359375,3.6918589599609373,9.3086560546875,10.05064983019656
1.1812981845312112,0.8667010009765624,3.825934252929687,9.361328491210937,10.150045056707485
1.1837851280775926,0.8714894042968749,3.9552211425781247,9.3852705078125,10.221867274295525
1.186272071623974,0.7900865478515624,4.050989208984375,9.380482104492186,10.2483264407952
1.1887590151703555,0.689530078125,4.007893579101562,9.390058911132812,10.232881755624234
1.191245958716737,0.5793968017578125,4.046200805664062,9.423577734375,10.271867353575589
1.1937329022631185,0.4261678955078125,4.00310517578125,9.457096557617186,10.278285140217848
1.1962198458095001,0.19153613281249998,3.854664672851562,9.447519750976562,10.205427736033158
1.1987067893558816,-0.009576806640625,3.744531396484375,9.4618849609375,10.175896722574276
1.201193732902263,-0.2059013427734375,3.5338416503906247,9.5001921875,10.138248555466939
1.2036806764486445,-0.47884033203125,3.327940307617187,9.548076220703125,10.122758234344998
1.206167619995026,-0.7517793212890624,3.0406361083984375,9.485826977539062,9.98957224006224
1.2086545635414074,-0.9624690673828125,2.858676782226562,9.543287817382812,10.008632374921017
1.2111415070877891,-1.20667763671875,2.6192566162109374,9.567229833984374,9.992420269224198
1.2136284506341706,-1.3838485595703125,2.346317626953125,9.576806640625,9.956679600865685
1.216115394180552,-1.6232687255859375,2.0542250244140625,9.576806640625,9.928245929584614
1.2186023377269335,-1.6998831787109374,1.886630908203125,9.624690673828125,9.95407703264978
1.221089281273315,-1.8339584716796873,1.66636435546875,9.610325463867188,9.924642530714975
1.2235762248196966,-1.9201497314453124,1.4604630126953124,9.533711010742186,9.834204230082237
1.226063168366078,-1.915361328125,1.2785036865234374,9.634267480468749,9.905669617898047
1.2285501119124596,-1.9393033447265624,1.197100830078125,9.600748657226562,9.867538833948363
1.231037055458841,-1.8531120849609375,1.120486376953125,9.639055883789062,9.879317408160057
1.2335239990052225,-1.7956512451171873,1.1013327636718748,9.572018237304688,9.801062717160908
1.236010942551604,-1.66636435546875,1.0438719238281249,9.543287817382812,9.743756006999591
1.2384978860979856,-1.4939818359375,1.1156979736328125,9.543287817382812,9.7237393043976
1.240984829644367,-1.2880804931640624,1.2210428466796874,9.533711010742186,9.697512187496555
1.2434717731907485,-1.13006318359375,1.369483349609375,9.485826977539062,9.650566868924292
1.24595871673713,-0.852335791015625,1.5466542724609373,9.485826977539062,9.648809729027501
1.2484456602835114,-0.6512228515624999,1.68551796875,9.409212524414063,9.58114514841346
1.250932603829893,-0.38307226562499996,1.9680337646484374,9.4618849609375,9.671978508738665
1.2534195473762746,-0.1292868896484375,2.1739351074218747,9.351751684570312,9.601977323498529
1.255906490922656,0.0909796630859375,2.437297290039062,9.404424121093749,9.715548797084852
1.2583934344690375,0.33518823242187495,2.7437551025390623,9.399635717773437,9.79763720703647
1.260880378015419,0.44532150878906246,2.920926025390625,9.380482104492186,9.834813907984868
1.2633673215618004,0.5985504150390625,3.2034418212890623,9.366116894531249,9.916876916839843
1.2658542651081819,0.7709329345703124,3.39018955078125,9.342174877929686,9.968146980740809
1.2683412086545636,0.8714894042968749,3.67749375,9.323021264648437,10.059929401550377
1.270828152200945,0.8762778076171874,3.77326181640625,9.366116894531249,10.135556877315398
1.2733150957473265,0.9145850341796874,3.921702319335937,9.375693701171874,10.203913329915355
1.275802039293708,0.8379705810546875,4.00310517578125,9.375693701171874,10.228913829008128
1.2782889828400894,0.7709329345703124,4.036623999023437,9.370905297851563,10.23242576324889
1.2807759263864709,0.6272808349609375,4.060566015625,9.399635717773437,10.25840286009475
1.2832628699328525,0.4740519287109375,4.031835595703125,9.404424121093749,10.243222957219238
1.285749813479234,0.316034619140625,3.921702319335937,9.428366137695312,10.21634548106219
1.2882367570256155,0.13407529296874998,3.821145849609375,9.476250170898437,10.218534586212655
1.290723700571997,-0.13407529296874998,3.6343981201171873,9.457096557617186,10.132299895867218
1.2932106441183784,-0.3495534423828125,3.4811692138671875,9.5001921875,10.123950726079933
1.2956975876647598,-0.5698199951171875,3.2417490478515623,9.519345800781249,10.072317319809452
1.2981845312111415,-0.852335791015625,2.978386865234375,9.552864624023437,10.042633476562077
1.300671474757523,-1.0486603271484374,2.7533319091796873,9.591171850585937,10.033499018354174
1.3031584183039044,-1.2497732666015624,2.5139117431640625,9.557653027343749,9.96144652454769
1.305645361850286,-1.4939818359375,2.2457611572265623,9.562441430664062,9.935578041377328
1.3081323053966674,-1.6472107421875,1.9728221679687499,9.586383447265625,9.924922071916493
1.3106192489430488,-1.7717092285156248,1.7621324218749999,9.600748657226562,9.920606787987724
1.3131061924894305,-1.85790048828125,1.5322890624999999,9.658209497070311,9.95392961019476
1.315593136035812,-1.905784521484375,1.4125789794921875,9.576806640625,9.866236336493856
1.3180800795821934,-1.89620771484375,1.2785036865234374,9.600748657226562,9.869374354715937
1.3205670231285749,-1.924938134765625,1.1252747802734375,9.576806640625,9.832947451589146
1.3230539666749563,-1.7908628417968748,1.1252747802734375,9.634267480468749,9.86369823820994
1.3255409102213378,-1.70467158203125,1.0390835205078124,9.572018237304688,9.777992273492007
1.3280278537677195,-1.5658078857421873,1.1061211669921875,9.548076220703125,9.738635319564906
1.330514797314101,-1.4221557861328125,1.20667763671875,9.528922607421874,9.709735529726021
1.3330017408604824,-1.22583125,1.2880804931640624,9.509768994140625,9.67458112438284
1.3354886844068639,-0.967257470703125,1.426944189453125,9.5001921875,9.655330565748697
1.3379756279532453,-0.7230489013671875,1.6041151123046875,9.442731347656249,9.605267321178655
1.3404625714996268,-0.5123591552734374,1.8195932617187498,9.466673364257812,9.653565979866357
1.3429495150460085,-0.277727392578125,2.068590234375,9.447519750976562,9.675320537709958
1.34543645859239,-0.0383072265625,2.3032219970703123,9.404424121093749,9.682432135615793
1.3479234021387714,0.19632453613281248,2.5665841796874997,9.34696328125,9.694927552898251
1.3504103456851528,0.354341845703125,2.81558115234375,9.34696328125,9.768253577282145
1.3528972892315343,0.55545478515625,3.0741549316406247,9.332598071289063,9.841562138314815
1.3553842327779158,0.6560112548828124,3.2609026611328122,9.370905297851563,9.943726818110928
1.3578711763242974,0.833182177734375,3.4859576171874997,9.351751684570312,10.015056296396212
1.360358119870679,0.852335791015625,3.6535517333984373,9.351751684570312,10.076218345149563
1.3628450634170604,0.8906430175781249,3.825934252929687,9.375693701171874,10.165365230560841
1.3653320069634418,0.8954314208984374,3.9552211425781247,9.375693701171874,10.215145818558987
1.3678189505098233,0.833182177734375,3.9647979492187497,9.361328491210937,10.200406189940724
1.370305894056205,0.7230489013671875,4.065354418945312,9.404424121093749,10.270983366494972
1.3727928376025864,0.5746083984375,4.027047192382812,9.418789331054686,10.25967233219574
1.3752797811489679,0.411802685546875,3.9456443359374997,9.3852705078125,10.189258716037903
1.3777667246953493,0.239420166015625,3.883395092773437,9.433154541015625,10.204042535052247
1.3802536682417308,8.844180932617187,-0.5746083984375,8.767566479492187,12.466753111886806
1.3827406117881123,8.346186987304687,0.8714894042968749,8.777143286132812,12.143169902219194
1.385227555334494,7.589619262695312,2.2744915771484373,8.79150849609375,11.834958982779936
1.3877144988808754,6.64630380859375,3.5051112304687497,8.810662109374999,11.579590919357308
1.3902014424272569,5.5449710449218745,4.620809204101562,8.863334545898438,11.430541582193223
1.3926883859736383,4.319139794921875,5.42047255859375,8.9255837890625,11.300554734265083
1.3951753295200198,3.0837317382812497,6.157886669921875,8.997409838867187,11.3305936950289
1.3976622730664012,1.8148048583984373,6.617573388671874,9.088389501953124,11.38791543557189
1.400149216612783,0.584185205078125,6.9336080078124995,9.1554271484375,11.49947992868287
1.4026361601591644,-0.5698199951171875,7.034164477539062,9.255983618164063,11.639475824264133
1.4051231037055458,-1.6519991455078125,6.9910688476562495,9.366116894531249,11.803740529656348
1.4076100472519273,-2.6240450195312497,6.7277066650390625,9.404424121093749,11.85710092243242
1.4100969907983087,-3.414131567382812,6.37815322265625,9.495403784179686,11.937329094721902
1.4125839343446902,-4.04141240234375,6.042964990234375,9.610325463867188,12.0502612254038
1.4150708778910719,-4.520252734375,5.45877978515625,9.6151138671875,11.944930983661504
1.4175578214374533,-4.774038110351563,4.927267016601562,9.639055883789062,11.83134812533159
1.4200447649838348,-4.879382983398437,4.371812231445312,9.744400756835937,11.741995852303724
1.4225317085302163,-4.874594580078124,3.81156904296875,9.706093530273437,11.510776798629214
1.4250186520765977,-4.687846850585937,3.21780703125,9.749189160156249,11.286136604942302
1.4275055956229792,-4.371812231445312,2.748543505859375,9.725247143554688,11.011251772338838
1.4299925391693609,-3.9839515624999997,2.3415292236328122,9.782707983398437,10.81924233234103
1.4324794827157423,-3.447650390625,1.924938134765625,9.720458740234374,10.491853895248948
1.4349664262621238,-2.849099975585937,1.5945383056640625,9.686939916992188,10.222364111815349
1.4374533698085052,-2.2744915771484373,1.3455413330078123,9.686939916992188,10.040946089326853
1.4399403133548867,-1.6136919189453125,1.2832920898437499,9.624690673828125,9.843043775377565
1.4424272569012682,-1.0582371337890624,1.1013327636718748,9.557653027343749,9.678921999828304
1.4449142004476498,-0.45489831542968745,1.1540052001953125,9.552864624023437,9.633061974490616
1.4474011439940313,0.1484405029296875,1.2593500732421874,9.509768994140625,9.593940979170318
1.4498880875404128,0.6464344482421874,1.3407529296874998,9.466673364257812,9.582974512117211
1.4523750310867942,1.0582371337890624,1.4796166259765624,9.370905297851563,9.545836647067603
1.4548619746331757,1.3838485595703125,1.7429788085937499,9.414000927734374,9.673490860615695
1.4573489181795571,1.6615759521484375,1.944091748046875,9.375693701171874,9.718228220605642
1.4598358617259388,1.867477294921875,2.1978771240234374,9.375693701171874,9.80926947726222
1.4623228052723203,1.924938134765625,2.39420166015625,9.356540087890625,9.847965821857537
1.4648097488187017,1.8722656982421875,2.6144682128906247,9.34696328125,9.884662131912531
1.4672966923650832,1.8052280517578123,2.8107927490234372,9.380482104492186,9.95755234530626
1.4697836359114647,1.5753846923828123,2.9448680419921875,9.351751684570312,9.930223778123263
1.4722705794578461,1.3311761230468748,3.0885201416015624,9.390058911132812,9.97417630133904
1.4747575230042278,1.0295067138671874,3.1459809814453124,9.418789331054686,9.983520064200944
1.4772444665506093,0.70868369140625,3.1747114013671873,9.418789331054686,9.964668460075607
1.4797314100969907,0.32561142578124996,3.2130186279296873,9.409212524414063,9.948004414635777
1.4822183536433722,-0.0430956298828125,3.1172505615234374,9.457096557617186,9.957699714127154
1.4847052971897536,-0.4165910888671875,3.0550013183593747,9.490615380859374,9.978895805544099
1.487192240736135,-0.7709329345703124,2.9544448486328125,9.548076220703125,10.02441227551893
1.4896791842825168,-1.1540052001953125,2.7437551025390623,9.504980590820312,9.960149401322141
1.4921661278288982,-1.4604630126953124,2.6144682128906247,9.552864624023437,10.011274582818364
1.4946530713752797,-1.714248388671875,2.4564509033203126,9.591171850585937,10.048053346094425
1.4971400149216612,-1.9297265380859374,2.2649147705078123,9.533711010742186,9.987258335789877
1.4996269584680426,-2.0973206542968748,2.1499930908203124,9.576806640625,10.03675493620495
1.5021139020144243,-2.2170307373046874,1.9201497314453124,9.572018237304688,10.011280308562776
1.5046008455608058,-2.1883003173828124,1.8722656982421875,9.591171850585937,10.014220618268007
1.5070877891071872,-2.1930887207031247,1.7286135986328124,9.595960253906249,9.994008020048915
1.5095747326535687,-2.1499930908203124,1.62805712890625,9.591171850585937,9.963112855580308
1.5120616761999501,-2.001552587890625,1.6232687255859375,9.586383447265625,9.926729658632063
1.5145486197463316,-1.8531120849609375,1.5705962890624998,9.5384994140625,9.842955256157362
1.5170355632927133,-1.5897499023437498,1.6903063720703124,9.562441430664062,9.83995561465315
1.5195225068390947,-1.3072341064453123,1.7381904052734374,9.5001921875,9.745964215688181
1.5220094503854762,-1.0438719238281249,1.838746875,9.514557397460937,9.746664102822951
1.5244963939318577,-0.7757213378906249,1.9823989746093749,9.471461767578125,9.707741101990992
1.5269833374782391,-0.45968671875,2.1404162841796874,9.471461767578125,9.721176974197665
1.5294702810246206,-0.19632453613281248,2.3223756103515623,9.423577734375,9.707511994061703
1.5319572245710023,0.12449848632812499,2.518700146484375,9.433154541015625,9.764412675408702
1.5344441681173837,0.33039982910156246,2.7198130859375,9.390058911132812,9.781602814674695
1.5369311116637652,0.5219359619140624,2.89219560546875,9.414000927734374,9.8620802083544
1.5394180552101466,0.7134720947265625,3.1364041748046874,9.370905297851563,9.907569817013064
1.541904998756528,0.833182177734375,3.308786694335937,9.342174877929686,9.945777665910759
1.5443919423029095,0.9433154541015625,3.447650390625,9.390058911132812,10.047355055758121
1.5468788858492912,0.967257470703125,3.5769372802734374,9.399635717773437,10.103624050234803
1.5493658293956727,0.9433154541015625,3.69664736328125,9.390058911132812,10.135494666218603
1.5518527729420541,0.928950244140625,3.782838623046875,9.433154541015625,10.205744519572681
1.5543397164884356,0.7948749511718749,3.787627026367187,9.437942944335937,10.200623103487754
1.556826660034817,0.6943184814453125,3.782838623046875,9.433154541015625,10.187067821329915
1.5593136035811985,0.49799394531249996,3.7301661865234372,9.452308154296874,10.17390127691624
1.5618005471275802,0.26815058593749996,3.6104561035156246,9.457096557617186,10.126399819888936
1.5642874906739617,0.0526724365234375,3.5003228271484375,9.485826977539062,10.111179344054461
1.5667744342203431,-0.22026655273437498,3.3327287109375,9.533711010742186,10.101843576858009
1.5692613777667246,-0.430956298828125,3.189076611328125,9.562441430664062,10.089411235513214
1.571748321313106,-0.7134720947265625,2.93050283203125,9.533711010742186,9.99942672931021
1.5742352648594875,-0.9816226806640624,2.729389892578125,9.557653027343749,9.988087087325322
1.5767222084058692,-1.24498486328125,2.43250888671875,9.562441430664062,9.945218595317334
1.5792091519522506,-1.426944189453125,2.2361843505859373,9.562441430664062,9.923556634821008
1.581696095498632,-1.6328455322265625,2.04943662109375,9.595960253906249,9.947302558510065
1.5841830390450136,-1.7573440185546874,1.8148048583984373,9.595960253906249,9.922914283020134
1.586669982591395,-1.944091748046875,1.5753846923828123,9.610325463867188,9.930744442148942
1.5891569261377765,-1.93451494140625,1.4173673828125,9.595960253906249,9.891093546768895
1.5916438696841582,-1.9584569580078124,1.3168109130859373,9.619902270507811,9.90515342290632
1.5941308132305396,-1.8722656982421875,1.2593500732421874,9.624690673828125,9.885646767847994
1.596617756776921,-1.886630908203125,1.1923124267578125,9.591171850585937,9.847414004410524
1.5991047003233025,-1.7812860351562498,1.16837041015625,9.576806640625,9.810876351595226
1.601591643869684,-1.6041151123046875,1.22583125,9.576806640625,9.78729140155334
1.6040785874160655,-1.4221557861328125,1.2689268798828124,9.519345800781249,9.708277240652523
1.6065655309624471,-1.22583125,1.369483349609375,9.557653027343749,9.732773412004772
1.6090524745088286,-1.0199299072265624,1.4987702392578124,9.5384994140625,9.709250244885583
1.61153941805521,-0.7278373046875,1.70467158203125,9.466673364257812,9.646427158810043
1.6140263616015915,-0.5219359619140624,1.8435352783203125,9.418789331054686,9.61169245937157
1.616513305147973,-0.2537853759765625,2.1404162841796874,9.394847314453125,9.638928620366904
1.6190002486943544,-0.009576806640625,2.3127988037109373,9.428366137695312,9.707894624897397
1.6214871922407361,0.22026655273437498,2.6048914062499997,9.423577734375,9.779457751246582
1.6239741357871176,0.38307226562499996,2.8203695556640622,9.370905297851563,9.793625217074128
1.626461079333499,0.622492431640625,3.0837317382812497,9.34696328125,9.862181342997538
1.6289480228798805,0.74699091796875,3.323151904296875,9.351751684570312,9.952717899168217
1.631434966426262,0.842758984375,3.4811692138671875,9.3852705078125,10.045500699623517
1.6339219099726436,0.8714894042968749,3.6535517333984373,9.332598071289063,10.060085527004667
1.636408853519025,0.9050082275390624,3.782838623046875,9.332598071289063,10.110701988495007
1.6388957970654066,0.8810662109374999,3.912125512695312,9.375693701171874,10.197285720883341
1.641382740611788,0.833182177734375,3.9600095458984375,9.380482104492186,10.216130023526478
1.6438696841581695,0.6943184814453125,3.9983167724609374,9.409212524414063,10.247043256286636
1.646356627704551,0.584185205078125,3.9743747558593747,9.442731347656249,10.261681263704034
1.6488435712509326,0.39743747558593745,3.84987626953125,9.3852705078125,10.151985339947801
1.651330514797314,0.19153613281249998,3.81156904296875,9.447519750976562,10.189228337051965
1.6538174583436955,0.01915361328125,3.6631285400390623,9.514557397460937,10.195375423756062
1.656304401890077,-0.26336218261718747,3.4620156005859375,9.485826977539062,10.101278389676287
1.6587913454364585,-0.49799394531249996,3.2800562744140622,9.533711010742186,10.09447436815002
1.66127828898284,-0.7613561279296874,3.0310593017578125,9.524134204101562,10.023777530554334
1.6637652325292216,-0.9864110839843749,2.806004345703125,9.567229833984374,10.01890981649165
1.666252176075603,-1.2306196533203124,2.5665841796874997,9.600748657226562,10.013798173610152
1.6687391196219845,-1.4413093994140624,2.3223756103515623,9.591171850585937,9.97303257429089
1.671226063168366,-1.6041151123046875,2.0446482177734375,9.600748657226562,9.946262936762029
1.6737130067147474,-1.714248388671875,1.8052280517578123,9.648632690429688,9.9646178377169
1.676199950261129,-1.8148048583984373,1.6232687255859375,9.672574707031249,9.974328022109189
1.6786868938075106,-1.915361328125,1.4173673828125,9.581595043945311,9.873424071784564
1.681173837353892,-1.9393033447265624,1.2785036865234374,9.624690673828125,9.901017104631006
1.6836607809002735,-1.915361328125,1.158793603515625,9.610325463867188,9.86761202897031
1.686147724446655,-1.85790048828125,1.0821791503906248,9.591171850585937,9.829215808261
1.6886346679930364,-1.7764976318359373,1.0342951171875,9.562441430664062,9.780899567025374
1.6911216115394179,-1.6136919189453125,1.0486603271484374,9.562441430664062,9.754177372074235
1.6936085550857995,-1.4413093994140624,1.13006318359375,9.514557397460937,9.689232067265806
1.696095498632181,-1.254561669921875,1.216254443359375,9.504980590820312,9.664256613237225
1.6985824421785625,-1.024718310546875,1.4125789794921875,9.5001921875,9.659144816634091
1.701069385724944,-0.7996633544921875,1.5610194824218748,9.490615380859374,9.651322376359774
1.7035563292713254,-0.5458779785156249,1.7429788085937499,9.466673364257812,9.641258345267152
1.7060432728177068,-0.316034619140625,1.9871873779296874,9.437942944335937,9.650054848343553
1.7085302163640885,-0.0526724365234375,2.27927998046875,9.428366137695312,9.700102042833082
1.71101715991047,0.1197100830078125,2.446874096679687,9.399635717773437,9.713633459000702
1.7135041034568514,0.33518823242187495,2.7820623291015623,9.3852705078125,9.79466816482188
1.715991047003233,0.5410895751953124,2.9975404785156248,9.356540087890625,9.839861242163378
1.7184779905496144,0.6751648681640625,3.2225954345703123,9.332598071289063,9.89638093922949
1.7209649340959958,0.7422025146484375,3.4524387939453125,9.318232861328125,9.96492156801168
1.7234518776423775,0.852335791015625,3.6343981201171873,9.380482104492186,10.095977937221125
1.725938821188759,0.9097966308593749,3.840299462890625,9.3086560546875,10.110722398457558
1.7284257647351404,0.93852705078125,3.9408559326171875,9.3852705078125,10.222254204015243
1.7309127082815219,0.8667010009765624,3.9743747558593747,9.409212524414063,10.250858776448757
1.7333996518279033,0.7517793212890624,4.0222587890625,9.366116894531249,10.220953164755821
1.7358865953742848,0.6368576416015624,4.036623999023437,9.394847314453125,10.245148950944802
1.7383735389206665,0.488417138671875,3.9504327392578125,9.418789331054686,10.225363689939735
1.740860482467048,0.2920926025390625,3.912125512695312,9.428366137695312,10.21196024972577
1.7433474260134294,0.0909796630859375,3.768473413085937,9.442731347656249,10.167342055239452
1.7458343695598109,-0.15322890625,3.6008792968749996,9.471461767578125,10.134021848361474
1.7483213131061923,-0.44053310546874996,3.347093920898437,9.466673364257812,10.050622454250162
1.7508082566525738,-0.6081272216796875,3.19865341796875,9.557653027343749,10.097025987741349
1.7532952001989555,-0.8858546142578124,2.901772412109375,9.548076220703125,10.018521899244288
1.755782143745337,-1.0678139404296874,2.6431986328124997,9.576806640625,9.992094427886325
1.7582690872917184,-1.3072341064453123,2.408566870117187,9.576806640625,9.961188724685377
1.7607560308380998,-1.4604630126953124,2.1930887207031247,9.619902270507811,9.974222277573709
1.7632429743844813,-1.6472107421875,1.9393033447265624,9.605537060546874,9.936827608124487
1.765729917930863,-1.7812860351562498,1.7094599853515624,9.6151138671875,9.92701607027722
1.7682168614772444,-1.85790048828125,1.484405029296875,9.581595043945311,9.87229538159768
1.770703805023626,-1.924938134765625,1.3407529296874998,9.605537060546874,9.887838361476186
1.7731907485700074,-1.89620771484375,1.20667763671875,9.624690673828125,9.883640279960831
1.7756776921163888,-1.867477294921875,1.1109095703125,9.591171850585937,9.834234540010357
1.7781646356627703,-1.8052280517578123,1.0773907470703123,9.610325463867188,9.837579715670929
1.780651579209152,-1.6615759521484375,1.0438719238281249,9.581595043945311,9.780463528088633
1.7831385227555334,-1.5370774658203123,1.1156979736328125,9.548076220703125,9.735150159122222
1.7856254663019149,-1.37906015625,1.1635820068359375,9.514557397460937,9.684138189367562
1.7881124098482963,-1.1827356201171875,1.3120225097656248,9.5001921875,9.663018069560964
1.7905993533946778,-0.9528922607421875,1.455674609375,9.519345800781249,9.677031399340038
1.7930862969410593,-0.718260498046875,1.618480322265625,9.404424121093749,9.56966926001236
1.795573240487441,-0.45010991210937495,1.8531120849609375,9.509768994140625,9.699089114670809
1.7980601840338224,-0.2059013427734375,2.0638018310546875,9.4618849609375,9.686533971180602
1.8005471275802039,0.033518823242187495,2.3511060302734372,9.418789331054686,9.707853292046044
1.8030340711265853,0.22505495605468748,2.5761609863281247,9.356540087890625,9.707321853993932
1.8055210146729668,0.45010991210937495,2.863465185546875,9.394847314453125,9.83184559804034
1.8080079582193482,0.5746083984375,3.0406361083984375,9.361328491210937,9.859518947474514
1.81049490176573,0.7038952880859375,3.31357509765625,9.299079248046874,9.89687442407214
1.8129818453121114,0.7757213378906249,3.5051112304687497,9.342174877929686,10.0081856388577
1.8154687888584928,0.8906430175781249,3.69664736328125,9.370905297851563,10.112977445565543
1.8179557324048743,0.9145850341796874,3.912125512695312,9.356540087890625,10.182633953360561
1.8204426759512558,0.86191259765625,3.902548706054687,9.370905297851563,10.187573107979649
1.8229296194976372,0.7948749511718749,4.007893579101562,9.409212524414063,10.258085467522411
1.825416563044019,0.70868369140625,4.046200805664062,9.366116894531249,10.227322191866518
1.8279035065904004,0.5506663818359374,4.0222587890625,9.418789331054686,10.25648047300166
1.8303904501367818,0.38786066894531246,3.9408559326171875,9.437942944335937,10.235015798751816
1.8328773936831633,0.21068974609375,3.845087866210937,9.418789331054686,10.175592529714484
1.8353643372295447,-0.0047884033203125,3.7158009765625,9.476250170898437,10.178728659694286
1.8378512807759262,-0.2442085693359375,3.5434184570312497,9.509768994140625,10.151411651040718
1.8403382243223079,-0.49320554199218747,3.327940307617187,9.514557397460937,10.091840311226374
1.8428251678686893,-0.737414111328125,3.0933085449218747,9.528922607421874,10.045531513260421
1.8453121114150708,-0.9528922607421875,2.858676782226562,9.552864624023437,10.016848762497217
1.8477990549614522,-1.20667763671875,2.6144682128906247,9.576806640625,10.000337013675676
1.8502859985078337,-1.3838485595703125,2.308010400390625,9.648632690429688,10.01688882033561
1.8527729420542152,-1.5945383056640625,2.068590234375,9.600748657226562,9.949672996898906
1.8552598856005968,-1.66636435546875,1.838746875,9.643844287109374,9.957986386288704
1.8577468291469783,-1.8195932617187498,1.618480322265625,9.624690673828125,9.927994196136872
1.8602337726933598,-1.8770541015625,1.4173673828125,9.629479077148437,9.912574322308654
1.8627207162397412,-1.89620771484375,1.2737152832031249,9.605537060546874,9.873413621541319
1.8652076597861227,-1.89620771484375,1.1540052001953125,9.581595043945311,9.835359438580175
1.8676946033325041,-1.867477294921875,1.0726023437499999,9.6151138671875,9.853342677175501
1.8701815468788858,-1.7334020019531249,1.0869675537109373,9.581595043945311,9.79760912413599
1.8726684904252673,-1.6711527587890624,1.0726023437499999,9.567229833984374,9.771136782754962
1.8751554339716487,-1.465251416015625,1.16837041015625,9.543287817382812,9.725553634260194
1.8776423775180302,-1.2593500732421874,1.2306196533203124,9.528922607421874,9.690240110355832
1.8801293210644117,-1.0678139404296874,1.3551181396484375,9.490615380859374,9.646157374373733
1.8826162646107931,-0.833182177734375,1.5705962890624998,9.495403784179686,9.660417085671043
1.8851032081571748,-0.584185205078125,1.7525556152343749,9.471461767578125,9.649938422239588
1.8875901517035563,-0.33518823242187495,1.93451494140625,9.409212524414063,9.611866600159855
1.8900770952499377,-0.11013327636718749,2.2170307373046874,9.418789331054686,9.676825258911453
1.8925640387963192,0.09576806640624999,2.422932080078125,9.361328491210937,9.670276237397387
1.8950509823427006,0.296881005859375,2.7246014892578123,9.34696328125,9.740498662180583
1.897537925889082,0.4836287353515625,2.940079638671875,9.351751684570312,9.81494903732334
1.9000248694354638,0.6272808349609375,3.227383837890625,9.337386474609374,9.899306736292445
1.9025118129818452,0.7805097412109374,3.4093431640625,9.318232861328125,9.953003562965312
1.9049987565282267,0.852335791015625,3.5673604736328124,9.337386474609374,10.031915232182838
1.9074857000746082,0.8667010009765624,3.801992236328125,9.342174877929686,10.123366388707545
1.9099726436209896,0.9002198242187499,3.907337109375,9.332598071289063,10.157512775204555
1.9124595871673713,0.833182177734375,3.9743747558593747,9.342174877929686,10.18656363506001
1.9149465307137528,0.7613561279296874,4.031835595703125,9.390058911132812,10.247368822232348
1.9174334742601342,0.59376201171875,4.012681982421875,9.404424121093749,10.24194137202627
1.9199204178065157,0.488417138671875,3.9839515624999997,9.414000927734374,10.23395499409091
1.9224073613528971,0.296881005859375,3.907337109375,9.414000927734374,10.197001279068406
1.9248943048992786,0.05746083984375,3.73495458984375,9.471461767578125,10.18144270479408
1.9273812484456603,-0.143652099609375,3.5769372802734374,9.490615380859374,10.143317827029607
1.9298681919920417,-0.36391865234375,3.4093431640625,9.519345800781249,10.118003858010482
1.9323551355384232,-0.622492431640625,3.1603461914062496,9.533711010742186,10.06314714755442
1.9348420790848047,-0.8762778076171874,2.93050283203125,9.514557397460937,9.99412387927247
1.9373290226311861,-1.1156979736328125,2.710236279296875,9.581595043945311,10.019836637597574
1.9398159661775676,-1.2976572998046874,2.4133552734375,9.629479077148437,10.011746373176084
1.9423029097239493,-1.4796166259765624,2.1930887207031247,9.639055883789062,9.995514085205926
1.9447898532703307,-1.656787548828125,1.905784521484375,9.624690673828125,9.950458792998212
1.9472767968167122,-1.7764976318359373,1.6998831787109374,9.639055883789062,9.947710540018322
1.9497637403630936,-1.8626888916015625,1.4891934326171874,9.639055883789062,9.929688077550804
1.952250683909475,-1.93451494140625,1.369483349609375,9.639055883789062,9.926189149627861
1.9547376274558566,-1.9009961181640624,1.149216796875,9.552864624023437,9.807737150454885
1.9572245710022382,-1.867477294921875,1.120486376953125,9.643844287109374,9.886692763608991
1.9597115145486197,-1.7717092285156248,1.0965443603515623,9.624690673828125,9.84764102166099
1.9621984580950012,-1.6615759521484375,1.0869675537109373,9.557653027343749,9.761714219268635
1.9646854016413826,-1.5418658691406248,1.0821791503906248,9.557653027343749,9.741519053158706
1.967172345187764,-1.4125789794921875,1.1252747802734375,9.533711010742186,9.703260706626892
1.9696592887341455,-1.2114660400390624,1.24498486328125,9.504980590820312,9.662416535620796
1.9721462322805272,-0.9911994873046874,1.446097802734375,9.5001921875,9.66060696220182
1.9746331758269087,-0.689530078125,1.5753846923828123,9.476250170898437,9.631023100329779
1.9771201193732901,-0.47884033203125,1.848323681640625,9.433154541015625,9.624447677159301
1.9796070629196716,-0.2059013427734375,2.04943662109375,9.466673364257812,9.688162385735717
1.982094006466053,0.0143652099609375,2.3223756103515623,9.399635717773437,9.682292417689892
1.9845809500124345,0.21068974609375,2.5426421630859375,9.375693701171874,9.716637881325276
1.9870678935588162,0.4070142822265625,2.7964275390625,9.34696328125,9.764803643094893
1.9895548371051976,0.584185205078125,3.0789433349609374,9.351751684570312,9.862881119814645
1.992041780651579,0.70868369140625,3.2704794677734372,9.342174877929686,9.92343186470353
1.9945287241979606,0.8379705810546875,3.5051112304687497,9.361328491210937,10.031075244111618
1.997015667744342,0.8810662109374999,3.7205893798828122,9.356540087890625,10.107616208486393
1.9995026112907235,0.8810662109374999,3.787627026367187,9.342174877929686,10.119220701652052
2.001989554837105,-0.24899697265624998,2.3511060302734372,11.812990991210937,12.047259240856853
2.0044764983834864,-0.24899697265624998,2.327164013671875,11.899182250976562,12.127169087667452
2.006963441929868,-0.296881005859375,2.2744915771484373,11.755530151367187,11.97722586435867
2.0094503854762498,-0.36391865234375,2.24097275390625,11.449072338867186,11.672002959641828
2.011937329022631,-0.44053310546874996,2.231395947265625,11.027692846679686,11.259804918878379
2.0144242725690127,-0.5410895751953124,2.3319524169921872,10.481814868164061,10.751707907768232
2.016911216115394,-0.6272808349609375,2.375048046875,9.792284790039062,10.095700861262898
2.0193981596617756,-0.6655880615234374,2.422932080078125,9.1554271484375,9.493969328087207
2.021885103208157,-0.7852981445312499,2.518700146484375,8.451531860351562,8.853752559804356
2.0243720467545385,-0.7852981445312499,2.5857377929687497,7.953537915039062,8.400089194511867
2.02685899030092,-0.8188169677734375,2.5905261962890624,7.474697583007812,7.953137189675304
2.0293459338473014,-0.7757213378906249,2.73896669921875,7.220912207031249,7.761781707516708
2.031832877393683,-0.737414111328125,2.786850732421875,7.096413720703125,7.659595568420682
2.0343198209400644,-0.737414111328125,2.7916391357421872,7.230489013671875,7.785692006021232
2.036806764486446,-0.63206923828125,2.849099975585937,7.517793212890624,8.064372076277827
2.0392937080328277,-0.5602431884765625,2.7820623291015623,7.896077075195312,8.390576643512969
2.041780651579209,-0.4644751220703125,2.8203695556640622,8.441955053710936,8.912733963179566
2.0442675951255906,-0.39264907226562495,2.729389892578125,9.045293872070312,9.456272188963863
2.046754538671972,-0.3591302490234375,2.6384102294921874,9.734823950195311,10.092421930148824
2.0492414822183536,-0.296881005859375,2.528276953125,10.357316381835936,10.665567275901932
2.0517284257647352,-0.2537853759765625,2.50912333984375,10.927136376953124,11.214384350116616
2.0542153693111165,-0.22026655273437498,2.43250888671875,11.425130322265625,11.683288052554923
2.056702312857498,-0.21068974609375,2.39420166015625,11.698069311523437,11.942420917712221
2.0591892564038794,-0.2154781494140625,2.31758720703125,11.851298217773437,12.07770304079669
2.061676199950261,-0.3447650390625,2.269703173828125,11.79862578125,12.019899573433314
2.0641631434966423,-0.3591302490234375,2.250549560546875,11.544840405273437,11.767637309310459
2.066650087043024,-0.4070142822265625,2.3415292236328122,11.142614526367186,11.39325582150563
2.0691370305894057,-0.5410895751953124,2.250549560546875,10.577582934570312,10.827881232751672
2.071623974135787,-0.5793968017578125,2.375048046875,9.993397729492187,10.288078151854775
2.0741109176821686,-0.6464344482421874,2.442085693359375,9.34696328125,9.682323203168778
2.07659786122855,-0.689530078125,2.461239306640625,8.724470849609375,9.09117936567504
2.0790848047749315,-0.8188169677734375,2.5330653564453125,8.106766821289062,8.532675408187648
2.081571748321313,-0.7565677246093749,2.6767174560546874,7.6997525390625,8.186782043285865
2.0840586918676944,-0.7565677246093749,2.73896669921875,7.321468676757812,7.853549317734985
2.086545635414076,-0.7565677246093749,2.7629087158203123,7.163451367187499,7.714991560846771
2.0890325789604574,-0.7661445312499999,2.748543505859375,7.206546997070312,7.750857273060133
2.091519522506839,-0.689530078125,2.786850732421875,7.417236743164062,7.953451429259025
2.0940064660532203,-0.612915625,2.849099975585937,7.7763669921875,8.30451201645444
2.096493409599602,-0.5219359619140624,2.7629087158203123,8.279149340820313,8.743591683507438
2.0989803531459836,-0.45968671875,2.6910826660156246,8.8489693359375,9.260534331402647
2.101467296692365,-0.37828386230468747,2.6623522460937497,9.5384994140625,9.910307222020478
2.1039542402387466,-0.316034619140625,2.5905261962890624,10.137049829101562,10.467592038852262
2.106441183785128,-0.258573779296875,2.528276953125,10.697293017578124,10.995049915983492
2.1089281273315095,-0.19153613281249998,2.50912333984375,11.247959399414063,11.526013043354956
2.111415070877891,-0.24899697265624998,2.403778466796875,11.554417211914062,11.804435925397039
2.1139020144242724,-0.22505495605468748,2.346317626953125,11.774683764648437,12.008290215399992
2.116388957970654,-0.26815058593749996,2.327164013671875,11.812990991210937,12.04302093503531
2.1188759015170353,-0.33039982910156246,2.29843359375,11.583147631835937,11.813605296134426
2.121362845063417,-0.4070142822265625,2.2553379638671873,11.2240173828125,11.455600209804555
2.1238497886097982,-0.49799394531249996,2.31758720703125,10.769119067382812,11.026927673619287
2.12633673215618,-0.55545478515625,2.31758720703125,10.228029492187499,10.502015414843246
2.1288236757025616,-0.59376201171875,2.39420166015625,9.605537060546874,9.917212165603534
2.131310619248943,-0.7230489013671875,2.4133552734375,8.935160595703124,9.283543410821252
2.1337975627953245,-0.7613561279296874,2.50912333984375,8.355763793945313,8.757519721261957
2.1362845063417057,-0.7757213378906249,2.6144682128906247,7.848193041992187,8.308508991067464
2.1387714498880874,-0.7996633544921875,2.6431986328124997,7.398083129882812,7.8966824989786835
2.141258393434469,-0.7900865478515624,2.7437551025390623,7.264007836914062,7.80501368804399
2.1437453369808503,-0.7565677246093749,2.7724855224609373,7.196970190429687,7.749545187693896
2.146232280527232,-0.6607996582031249,2.7629087158203123,7.316680273437499,7.848829911773261
2.1487192240736133,-0.584185205078125,2.8107927490234372,7.6614453125,8.181660742674627
2.151206167619995,-0.51714755859375,2.806004345703125,8.12113203125,8.60778063466182
2.153693111166376,-0.488417138671875,2.729389892578125,8.71489404296875,9.14535393887127
2.156180054712758,-0.354341845703125,2.7150246826171873,9.313444458007812,9.707582852761714
2.1586669982591395,-0.33518823242187495,2.6767174560546874,9.911994873046874,10.272526945888703
2.161153941805521,-0.2442085693359375,2.5474305664062498,10.539275708007812,10.845523166975466
2.1636408853519025,-0.258573779296875,2.4564509033203126,11.066000073242186,11.33831420718085
2.1661278288982837,-0.21068974609375,2.4516625,11.477802758789062,11.738611304267687
2.1686147724446654,-0.2442085693359375,2.3415292236328122,11.736376538085937,11.9701683853736
2.171101715991047,-0.258573779296875,2.3319524169921872,11.765106958007811,11.996774741897065
2.1735886595374283,-0.33518823242187495,2.269703173828125,11.688492504882811,11.911538972153902
2.17607560308381,-0.39264907226562495,2.269703173828125,11.396399902343749,11.62685067098469
2.178562546630191,-0.45968671875,2.31758720703125,10.97502041015625,11.226468516186927
2.181049490176573,-0.5746083984375,2.2601263671875,10.414777221679687,10.672672138898916
2.1835364337229546,-0.6464344482421874,2.384624853515625,9.792284790039062,10.099166034733212
2.186023377269336,-0.6847416748046875,2.4516625,9.169792358398437,9.516544124379552
2.1885103208157175,-0.718260498046875,2.50912333984375,8.52335791015625,8.913990584593765
2.1909972643620987,-0.7517793212890624,2.6048914062499997,7.996633544921875,8.443742028155688
2.1934842079084804,-0.7709329345703124,2.6767174560546874,7.594407666015624,8.089139739600865
2.1959711514548617,-0.7613561279296874,2.6910826660156246,7.311891870117187,7.828496138413282
2.1984580950012433,-0.74699091796875,2.7820623291015623,7.1778165771484375,7.7342690055182794
2.200945038547625,-0.699106884765625,2.7820623291015623,7.240065820312499,7.7876295701445635
2.2034319820940063,-0.63206923828125,2.786850732421875,7.580042456054687,8.10080811785919
2.205918925640388,-0.5506663818359374,2.7629087158203123,7.943961108398437,8.428725652658713
2.208405869186769,-0.469263525390625,2.7724855224609373,8.494627490234375,8.947937216272983
2.210892812733151,-0.39743747558593745,2.7533319091796873,9.05965908203125,9.477141754333871
2.2133797562795325,-0.3399766357421875,2.6910826660156246,9.725247143554688,10.096432143653468
2.2158666998259138,-0.2825157958984375,2.6144682128906247,10.366893188476562,10.695220128282978
2.2183536433722955,-0.2442085693359375,2.5043349365234375,10.884040747070312,11.171108910198479
2.2208405869186767,-0.17238251953125,2.446874096679687,11.353304272460937,11.615266956946007
2.2233275304650584,-0.1771709228515625,2.360682836914062,11.616666455078125,11.855427133635551
2.2258144740114396,-0.28730419921875,2.3415292236328122,11.774683764648437,12.008683548394915
2.2283014175578213,-0.277727392578125,2.2936451904296873,11.702857714843748,11.928739223323113
2.230788361104203,-0.373495458984375,2.2361843505859373,11.49216796875,11.713664837686405
2.233275304650584,-0.44532150878906246,2.29843359375,11.142614526367186,11.385910886454266
2.235762248196966,-0.5027823486328125,2.31758720703125,10.611101757812499,10.872878232875742
2.238249191743347,-0.5985504150390625,2.408566870117187,10.05564697265625,10.357388329393677
2.240736135289729,-0.6416460449218749,2.422932080078125,9.399635717773437,9.728075921706088
2.2432230788361105,-0.7134720947265625,2.50912333984375,8.738836059570312,9.119868312675822
2.2457100223824917,-0.7565677246093749,2.5665841796874997,8.221688500976562,8.646150061179426
2.2481969659288734,-0.7757213378906249,2.6288334228515624,7.704540942382812,8.177558308689294
2.2506839094752547,-0.7900865478515624,2.6815058593749996,7.37414111328125,7.886232787937678
2.2531708530216363,-0.7517793212890624,2.7629087158203123,7.244854223632812,7.7901700521595725
2.2556577965680176,-0.7134720947265625,2.8203695556640622,7.211335400390625,7.776045596406776
2.2581447401143993,-0.6607996582031249,2.748543505859375,7.4220251464843745,7.9421410757382995
2.260631683660781,-0.584185205078125,2.77727392578125,7.762001782226562,8.264574670238323
2.263118627207162,-0.488417138671875,2.7916391357421872,8.269572534179687,8.741717809653597
2.265605570753544,-0.4261678955078125,2.7198130859375,8.916006982421875,9.331354821685544
2.268092514299925,-0.36391865234375,2.6862942626953124,9.514557397460937,9.893200499377949
2.2705794578463068,-0.27293898925781246,2.5953145996093747,10.117896215820313,10.449018011129736
2.2730664013926885,-0.229843359375,2.5378537597656248,10.70686982421875,11.005934358725357
2.2755533449390697,-0.21068974609375,2.461239306640625,11.219228979492186,11.487958390764616
2.2780402884854514,-0.229843359375,2.384624853515625,11.506533178710937,11.753279093709502
2.2805272320318326,-0.2442085693359375,2.365471240234375,11.77947216796875,12.017115151718546
2.2830141755782143,-0.27293898925781246,2.360682836914062,11.789048974609374,12.026179562691388
2.2855011191245955,-0.354341845703125,2.2266075439453124,11.602301245117188,11.819337269103473
2.287988062670977,-0.40222587890625,2.269703173828125,11.286266625976562,11.519251386595387
2.290475006217359,-0.507570751953125,2.308010400390625,10.802637890625,11.05809773299714
2.29296194976374,-0.5889736083984375,2.346317626953125,10.228029492187499,10.510218057252574
2.295448893310122,-0.6416460449218749,2.437297290039062,9.595960253906249,9.92142030767491
2.297935836856503,-0.718260498046875,2.437297290039062,8.959102612304687,9.3124559510846
2.3004227804028847,-0.7805097412109374,2.480392919921875,8.350975390624999,8.746446962518442
2.3029097239492664,-0.8044517578125,2.6048914062499997,7.8721350585937495,8.330853032537757
2.3053966674956476,-0.7709329345703124,2.6575638427734374,7.4794859863281244,7.974941616570037
2.3078836110420293,-0.7565677246093749,2.7054478759765623,7.249642626953125,7.774905861171729
2.3103705545884106,-0.7805097412109374,2.6958710693359373,7.1586629638671875,7.68917236826249
2.3128574981347922,-0.718260498046875,2.8012159423828122,7.364564306640625,7.911985612067256
2.315344441681174,-0.6177040283203125,2.7820623291015623,7.6279264892578125,8.142892090352799
2.317831385227555,-0.5793968017578125,2.7198130859375,8.073247998046874,8.538759694141293
2.320318328773937,-0.488417138671875,2.7054478759765623,8.695740429687499,9.119972649710975
2.322805272320318,-0.40222587890625,2.7198130859375,9.255983618164063,9.655692705332967
2.3252922158666998,-0.3447650390625,2.6144682128906247,9.911994873046874,10.256800150713808
2.327779159413081,-0.2442085693359375,2.5570073730468748,10.548852514648438,10.857081279375128
2.3302661029594627,-0.2442085693359375,2.461239306640625,11.042058056640624,11.31566979352579
2.3327530465058444,-0.21068974609375,2.43250888671875,11.463437548828125,11.720575501610718
2.3352399900522256,-0.19632453613281248,2.398990063476562,11.745953344726562,11.990042394613964
2.3377269335986073,-0.2537853759765625,2.3415292236328122,11.784260571289062,12.017319307325742
2.3402138771449885,-0.32082302246093747,2.27927998046875,11.678915698242188,11.90357578745792
2.34270082069137,-0.38786066894531246,2.29843359375,11.405976708984374,11.641715404925824
2.345187764237752,-0.47884033203125,2.250549560546875,10.951078393554686,11.19019121238944
2.347674707784133,-0.5363011718749999,2.327164013671875,10.453084448242187,10.722419772400563
2.350161651330515,-0.603338818359375,2.403778466796875,9.830592016601562,10.138180706815499
2.352648594876896,-0.6943184814453125,2.4133552734375,9.141061938476563,9.479734974806522
2.3551355384232777,-0.7613561279296874,2.446874096679687,8.537723120117187,8.914009876274632
2.357622481969659,-0.7661445312499999,2.5426421630859375,8.001421948242188,8.430584784347905
2.3601094255160406,-0.8188169677734375,2.6384102294921874,7.5465236328125,8.036273309588237
2.3625963690624223,-0.7852981445312499,2.6958710693359373,7.292738256835937,7.814630207566138
2.3650833126088036,-0.74699091796875,2.7533319091796873,7.1778165771484375,7.723981023333872
2.3675702561551852,-0.6847416748046875,2.7916391357421872,7.259219433593749,7.807585222748893
2.3700571997015665,-0.6703764648437499,2.786850732421875,7.50821640625,8.036744067873407
2.372544143247948,-0.5363011718749999,2.834734765625,7.977479931640625,8.483131862592167
2.37503108679433,-0.469263525390625,2.7724855224609373,8.480262280273436,8.934300899944324
2.377518030340711,-0.39264907226562495,2.7150246826171873,9.064447485351561,9.470466753854735
2.3800049738870928,-0.3495534423828125,2.6479870361328124,9.696516723632811,10.05765676110991
2.382491917433474,-0.296881005859375,2.6336218261718747,10.309432348632813,10.644646429354317
2.3849788609798557,-0.5889736083984375,2.9831752685546875,22.50549560546875,22.709988045837438
2.387465804526237,-0.009576806640625,2.480392919921875,24.909274072265625,25.032466429812075
2.3899527480726186,0.47884033203125,1.944091748046875,25.967511206054684,26.044585215068782
2.3924396916190003,0.852335791015625,1.4796166259765624,25.68978381347656,25.74647032203977
2.3949266351653815,1.1252747802734375,1.158793603515625,24.224532397460937,24.278323991212876
2.397413578711763,1.216254443359375,0.9433154541015625,21.672313427734373,21.72690240754291
2.3999005222581444,1.1875240234375,0.833182177734375,18.29170068359375,18.349134032583645
2.402387465804526,0.9816226806640624,0.9193734375,14.441824414062499,14.50431394487124
2.404874409350908,0.7134720947265625,1.120486376953125,10.352527978515624,10.43740234430195
2.407361352897289,0.354341845703125,1.3646949462890625,6.373364819335937,6.527459655975838
2.4098482964436707,-0.08140285644531249,1.7286135986328124,2.839523168945312,3.3253004714450944
2.412335239990052,-0.4740519287109375,2.1547814941406247,-0.0383072265625,2.2066435965539095
2.4148221835364336,-0.8571241943359375,2.6192566162109374,-2.0254946044921875,3.4202040142230934
2.417309127082815,-1.20667763671875,2.9640216552734375,-3.1172505615234374,4.467521276413266
2.4197960706291965,-1.5370774658203123,3.294421484375,-3.1028853515624997,4.77951017967169
2.4222830141755782,-1.70467158203125,3.5673604736328124,-2.1883003173828124,4.518918480176464
2.4247699577219595,-1.7956512451171873,3.801992236328125,-0.3495534423828125,4.2192056086746845
2.427256901268341,-1.7621324218749999,3.845087866210937,2.0733786376953125,4.710489395631509
2.4297438448147224,-1.62805712890625,3.797203833007812,5.023035083007812,6.503861038607681
2.432230788361104,-1.426944189453125,3.7110125732421873,8.173804467773436,9.089491928373588
2.4347177319074857,-1.1444283935546875,3.4668040039062498,11.262324609375,11.839273708991119
2.437204675453867,-0.8283937744140625,3.2034418212890623,14.144943408203124,14.526792480418408
2.4396916190002487,-0.51714755859375,2.8730419921875,16.47689582519531,16.733496583815672
2.44217856254663,-0.181959326171875,2.5905261962890624,18.23423984375,18.418236556452435
2.4446655060930116,0.0718260498046875,2.2170307373046874,19.196708911132813,19.32444093086137
2.4471524496393933,0.26336218261718747,1.9009961181640624,19.36909143066406,19.463937133322528
2.4496393931857745,0.38307226562499996,1.695094775390625,18.77532941894531,18.855584993528073
2.452126336732156,0.469263525390625,1.5897499023437498,17.535132958984374,17.613301817022386
2.4546132802785374,0.45489831542968745,1.5083470458984374,15.715539697265624,15.794310091440622
2.457100223824919,0.3687070556640625,1.5227122558593749,13.512874169921874,13.603395379065573
2.4595871673713003,0.22026655273437498,1.6615759521484375,11.022904443359375,11.14960870911815
2.462074110917682,0.0047884033203125,1.7717092285156248,8.590395556640624,8.771195604862816
2.4645610544640637,-0.277727392578125,1.9680337646484374,6.263231542968749,6.571024179245063
2.467047998010445,-0.5219359619140624,2.231395947265625,4.299986181640625,4.87251743805119
2.4695349415568266,-0.7230489013671875,2.518700146484375,2.77727392578125,3.8183636024471403
2.472021885103208,-0.9528922607421875,2.748543505859375,1.8531120849609375,3.449133146692423
2.4745088286495895,-1.149216796875,2.959233251953125,1.6041151123046875,3.5568168323950813
2.4769957721959712,-1.2210428466796874,3.1507693847656246,1.9201497314453124,3.886549670411211
2.4794827157423525,-1.2785036865234374,3.303998291015625,2.8107927490234372,4.522337035366882
2.481969659288734,-1.2210428466796874,3.39018955078125,4.132392065429687,5.482790804515547
2.4844566028351154,-1.158793603515625,3.356670727539062,5.851428857421874,6.844651975238464
2.486943546381497,-1.0199299072265624,3.284844677734375,7.8338278320312495,8.555660119149339
2.4894304899278783,-0.842758984375,3.1555577880859373,9.868899243164062,10.395333565182927
2.49191743347426,-0.6560112548828124,2.9831752685546875,11.640608471679688,12.034677022686989
2.4944043770206417,-0.45968671875,2.77727392578125,13.359645263671874,13.653010067723889
2.496891320567023,-0.2442085693359375,2.6192566162109374,14.633360546874998,14.867931394169789
2.4993782641134046,-0.1388636962890625,2.384624853515625,15.466542724609374,15.649909350226876
2.501865207659786,0.023942016601562498,2.2074539306640624,15.82567297363281,15.978903314825304
2.5043521512061675,0.1005564697265625,2.0350714111328125,15.734693310546874,15.866070743223808
2.506839094752549,0.11013327636718749,1.9728221679687499,15.116989282226562,15.245573836492513
2.5093260382989304,0.1005564697265625,1.89620771484375,14.125789794921873,14.252847176327816
2.511812981845312,-0.009576806640625,1.867477294921875,12.732364428710937,12.868592273740658
2.5142999253916933,-0.12449848632812499,1.9823989746093749,11.18571015625,11.360700562344942
2.516786868938075,-0.239420166015625,2.0159177978515626,9.586383447265625,9.798979241818916
2.5192738124844563,-0.38786066894531246,2.1739351074218747,8.0062103515625,8.305169109853368
2.521760756030838,-0.5506663818359374,2.360682836914062,6.6319385986328125,7.061066951716338
2.5242476995772196,-0.7278373046875,2.5426421630859375,5.492298608398437,6.095910130194876
2.526734643123601,-0.8810662109374999,2.6384102294921874,4.630386010742187,5.401662782479273
2.5292215866699825,-0.948103857421875,2.849099975585937,4.266467358398438,5.217184615826947
2.5317085302163638,-0.9911994873046874,2.935291235351562,4.228160131835938,5.241731504036779
2.5341954737627455,-1.0103531005859374,3.0741549316406247,4.69263525390625,5.700181361833829
2.536682417309127,-0.9720458740234375,3.1028853515624997,5.430049365234375,6.329155298697399
2.5391693608555084,-0.9097966308593749,3.1220389648437497,6.5218053222656245,7.287578601226743
2.54165630440189,-0.8044517578125,3.0933085449218747,7.762001782226562,8.394305930332932
2.5441432479482713,-0.70868369140625,2.96881005859375,9.074024291992187,9.573608650354208
2.546630191494653,-0.55545478515625,2.849099975585937,10.43871923828125,10.834793953966077
2.549117135041034,-0.4261678955078125,2.73896669921875,11.664550488281249,11.989382625817441
2.551604078587416,-0.26815058593749996,2.6001030029296874,12.670115185546875,12.936933917184865
2.5540910221337976,-0.19632453613281248,2.398990063476562,13.441048120117186,13.654869871787602
2.556577965680179,-0.1005564697265625,2.29843359375,13.867216015624999,14.056763091568731
2.5590649092265605,-0.0047884033203125,2.24097275390625,14.00129130859375,14.179497174464947
2.5615518527729417,-0.08140285644531249,2.0829554443359375,13.661314672851562,13.819437340166768
2.5640387963193234,-0.0909796630859375,2.0829554443359375,13.129801904296874,13.294310013244832
2.566525739865705,-0.17238251953125,2.0829554443359375,12.248735693359373,12.425777448590676
2.5690126834120863,-0.258573779296875,2.1356278808593747,11.233594189453123,11.437718533788054
2.571499626958468,-0.3591302490234375,2.1739351074218747,10.060435375976562,10.298899375236445
2.5739865705048492,-0.5027823486328125,2.288856787109375,8.916006982421875,9.218830511110886
2.576473514051231,-0.63206923828125,2.3511060302734372,7.800309008789062,8.171415527322385
2.5789604575976126,-0.7134720947265625,2.4851813232421875,6.904877587890625,7.373093186926336
2.581447401143994,-0.82360537109375,2.6288334228515624,6.1818286865234375,6.767872404376432
2.5839343446903755,-0.8475473876953125,2.7054478759765623,5.698199951171874,6.3645319912425915
2.5864212882367568,-0.82360537109375,2.8203695556640622,5.5641246582031245,6.292240733620672
2.5889082317831384,-0.8858546142578124,2.901772412109375,5.698199951171874,6.455579308847199
2.5913951753295197,-0.8667010009765624,2.9544448486328125,6.148309863281249,6.876163840662047
2.5938821188759014,-0.7709329345703124,2.9735984619140625,6.904877587890625,7.55737784592362
2.596369062422283,-0.7134720947265625,2.93050283203125,7.728482958984374,8.296164060926506
2.5988560059686643,-0.5889736083984375,2.882618798828125,8.757989672851561,9.238980688394244
2.601342949515046,-0.5027823486328125,2.806004345703125,9.715670336914062,10.12525064251712
2.603829893061427,-0.38307226562499996,2.7341782958984373,10.754753857421875,11.103477196274321
2.606316836607809,-0.277727392578125,2.5953145996093747,11.602301245117188,11.89227415417176
2.6088037801541906,-0.2154781494140625,2.446874096679687,12.267889306640624,12.511384084819085
2.611290723700572,-0.143652099609375,2.422932080078125,12.746729638671875,12.975760180883043
2.6137776672469535,-0.17238251953125,2.35589443359375,12.923900561523437,13.138004416174619
2.6162646107933347,-0.16759411621093748,2.2170307373046874,12.876016528320312,13.066564763376798
2.6187515543397164,-0.17238251953125,2.1883003173828124,12.54561669921875,12.736203216650322
2.6212384978860976,-0.26336218261718747,2.1260510742187497,11.980585107421874,12.170615116977382
2.6237254414324793,-0.36391865234375,2.1883003173828124,11.180921752929686,11.398864255254454
2.626212384978861,-0.44053310546874996,2.2457611572265623,10.414777221679687,10.663259218903926
2.6286993285252422,-0.5315127685546874,2.3319524169921872,9.3852705078125,9.685236724162579
2.631186272071624,-0.6081272216796875,2.375048046875,8.56166513671875,8.90577238963684
2.633673215618005,-0.7038952880859375,2.518700146484375,7.709329345703124,8.140827842732541
2.636160159164387,-0.7852981445312499,2.6096798095703124,7.072471704101562,7.5793784632778705
2.6386471027107685,-0.8188169677734375,2.710236279296875,6.579266162109374,7.162582296086243
2.6411340462571498,-0.82360537109375,2.7820623291015623,6.37815322265625,7.007070367991233
2.6436209898035314,-0.82360537109375,2.839523168945312,6.354211206054687,7.008367690512726
2.6461079333499127,-0.7900865478515624,2.89219560546875,6.617573388671874,7.265074653976166
2.6485948768962944,-0.737414111328125,2.882618798828125,7.043741284179687,7.64640843725997
2.6510818204426756,-0.6560112548828124,2.834734765625,7.666233715820312,8.199829958209868
2.6535687639890573,-0.5602431884765625,2.849099975585937,8.552088330078124,9.031581141006075
2.656055707535439,-0.44532150878906246,2.7820623291015623,9.327809667968749,9.744034854773838
2.65854265108182,-0.3687070556640625,2.710236279296875,10.180145458984374,10.541190025257755
2.661029594628202,-0.3016694091796875,2.5522189697265625,10.922347973632812,11.22062883081816
2.663516538174583,-0.19632453613281248,2.528276953125,11.597512841796874,11.871521881832766
2.666003481720965,-0.15322890625,2.4133552734375,12.081141577148436,12.320785063486976
2.6684904252673465,-0.2346317626953125,2.346317626953125,12.301408129882812,12.525370271914655
2.6709773688137277,-0.22505495605468748,2.2553379638671873,12.35408056640625,12.560274905660384
2.6734643123601094,-0.24899697265624998,2.2601263671875,12.23915888671875,12.448581483140746
2.6759512559064906,-0.316034619140625,2.2553379638671873,11.860875024414062,12.077532179900215
2.6784381994528723,-0.38786066894531246,2.2170307373046874,11.271901416015623,11.49440832409583
2.6809251429992536,-0.5027823486328125,2.269703173828125,10.587159741210938,10.83938623600524
2.6834120865456352,-0.5410895751953124,2.3511060302734372,9.811438403320311,10.103702343008813
2.685899030092017,-0.6416460449218749,2.403778466796875,9.011775048828124,9.34890101001617
2.688385973638398,-0.7326257080078125,2.480392919921875,8.2360537109375,8.6325934802167
2.69087291718478,-0.7709329345703124,2.5570073730468748,7.64229169921875,8.095507810592803
2.693359860731161,-0.8044517578125,2.70065947265625,7.134720947265625,7.671046031229799
2.6958468042775428,-0.8188169677734375,2.70065947265625,6.823474731445312,7.384025340194486
2.6983337478239244,-0.7948749511718749,2.767697119140625,6.742071875,7.331269105616422
2.7008206913703057,-0.74699091796875,2.85388837890625,6.861781958007812,7.469051208153916
2.7033076349166874,-0.699106884765625,2.8107927490234372,7.149086157226562,7.7135425841657135
2.7057945784630686,-0.603338818359375,2.868253588867187,7.68059892578125,8.220857390716668
2.7082815220094503,-0.49320554199218747,2.844311572265625,8.327033374023436,8.81321989053241
2.7107684655558315,-0.45968671875,2.748543505859375,9.069235888671875,9.487720637085117
2.713255409102213,-0.354341845703125,2.6719290527343746,9.763554370117188,10.12875890446094
2.715742352648595,-0.2825157958984375,2.6192566162109374,10.500968481445312,10.826387183396166
2.718229296194976,-0.2537853759765625,2.5234885498046875,11.133037719726563,11.418271775838468
2.720716239741358,-0.2154781494140625,2.4660277099609376,11.6837041015625,11.943059282781713
2.723203183287739,-0.2442085693359375,2.35589443359375,11.966219897460936,12.198372639084491
2.7256901268341207,-0.19632453613281248,2.3127988037109373,12.12423720703125,12.344420176026716
2.7281770703805024,-0.2154781494140625,2.3032219970703123,12.038045947265624,12.258295665758018
2.7306640139268836,-0.3064578125,2.2553379638671873,11.769895361328125,11.98794822055535
2.7331509574732653,-0.36391865234375,2.29843359375,11.372457885742186,11.608102003918724
2.7356379010196465,-0.44053310546874996,2.29843359375,10.769119067382812,11.02047149124576
2.7381248445660282,-0.5602431884765625,2.370259643554687,10.065223779296874,10.355710160844673
2.74061178811241,-0.679953271484375,2.389413256835937,9.332598071289063,9.657588670241344
2.743098731658791,-0.718260498046875,2.480392919921875,8.633491186523438,9.011404843199033
2.745585675205173,-0.7326257080078125,2.518700146484375,7.967903124999999,8.388567879281846
2.748072618751554,-0.7948749511718749,2.6001030029296874,7.474697583007812,7.953833401025401
2.7505595622979357,-0.8092401611328125,2.7054478759765623,7.129932543945312,7.668784514460348
2.753046505844317,-0.7805097412109374,2.7724855224609373,6.981492041015625,7.552291211754562
2.7555334493906987,-0.7517793212890624,2.858676782226562,7.015010864257812,7.612330951739697
2.7580203929370803,-0.6943184814453125,2.81558115234375,7.201758593749999,7.763691275531366
2.7605073364834616,-0.612915625,2.7964275390625,7.618349682617187,8.138484160531965
2.7629942800298433,-0.55545478515625,2.8107927490234372,8.164227661132813,8.652381128864
2.7654812235762245,-0.44532150878906246,2.8107927490234372,8.82981572265625,9.277096141585492
2.767968167122606,-0.3495534423828125,2.7341782958984373,9.519345800781249,9.910391669237667
2.770455110668988,-0.3112462158203125,2.6001030029296874,10.189722265624999,10.520829324881205
2.772942054215369,-0.24899697265624998,2.5330653564453125,10.845733520507812,11.140392954931265
2.775428997761751,-0.181959326171875,2.4756045166015626,11.334150659179686,11.60278837538556
2.777915941308132,-0.22026655273437498,2.389413256835937,11.741164941406248,11.983854440350317
2.7804028848545137,-0.21068974609375,2.346317626953125,11.966219897460936,12.195901574301509
2.782889828400895,-0.27293898925781246,2.3127988037109373,11.947066284179687,12.171931925412943
2.7853767719472766,-0.3064578125,2.2840683837890623,11.77947216796875,12.00278506550115
2.7878637154936583,-0.36391865234375,2.27927998046875,11.420341918945311,11.651255879110577
2.7903506590400395,-0.44053310546874996,2.27927998046875,10.93671318359375,11.18037932749032
2.792837602586421,-0.5506663818359374,2.3127988037109373,10.24718310546875,10.51936468459646
2.7953245461328025,-0.5985504150390625,2.384624853515625,9.600748657226562,9.9105536207916
2.797811489679184,-0.718260498046875,2.461239306640625,8.872911352539061,9.235916464413476
2.800298433225566,-0.7326257080078125,2.5426421630859375,8.317456567382813,8.728221660099827
2.802785376771947,-0.7422025146484375,2.6336218261718747,7.733271362304687,8.203067381113064
2.8052723203183287,-0.7757213378906249,2.6910826660156246,7.350199096679687,7.865691086625477
2.80775926386471,-0.7805097412109374,2.73896669921875,7.153874560546875,7.699938653235762
2.8102462074110917,-0.7613561279296874,2.7629087158203123,7.062894897460937,7.622192076959991
2.812733150957473,-0.6943184814453125,2.8203695556640622,7.235277416992187,7.79652498777695
2.8152200945038546,-0.6512228515624999,2.882618798828125,7.575254052734374,8.131301021683004
2.8177070380502363,-0.507570751953125,2.8107927490234372,8.0062103515625,8.50044634943763
2.8201939815966175,-0.4644751220703125,2.7437551025390623,8.59997236328125,9.038996285591264
2.822680925142999,-0.354341845703125,2.748543505859375,9.251195214843749,9.657363120974892
2.8251678686893804,-0.3112462158203125,2.6384102294921874,9.950302099609374,10.298863753805184
2.827654812235762,-0.28730419921875,2.5857377929687497,10.563217724609375,10.878885620061334
2.8301417557821438,-0.2154781494140625,2.5617957763671875,11.142614526367186,11.435343760285333
2.832628699328525,-0.239420166015625,2.427720483398437,11.573570825195311,11.827877679753852
2.8351156428749067,-0.201112939453125,2.389413256835937,11.870451831054687,12.110217537259535
2.837602586421288,-0.26336218261718747,2.2936451904296873,11.870451831054687,12.092881979586327
2.8400895299676696,-0.354341845703125,2.2553379638671873,11.717222924804688,11.937563425776862
2.842576473514051,-0.373495458984375,2.3032219970703123,11.496956372070311,11.731339916947196
2.8450634170604325,-0.44053310546874996,2.308010400390625,11.046846459960937,11.293971760867684
2.847550360606814,-0.5123591552734374,2.3127988037109373,10.443507641601562,10.708800216206738
2.8500373041531954,-0.5985504150390625,2.365471240234375,9.849745629882811,10.147472875603803
2.852524247699577,-0.6560112548828124,2.4660277099609376,9.169792358398437,9.518231733309001
2.8550111912459584,-0.74699091796875,2.480392919921875,8.518569506835936,8.903727922141456
2.85749813479234,-0.7709329345703124,2.5857377929687497,7.967903124999999,8.412363385694704
2.8599850783387217,-0.8092401611328125,2.6671406494140624,7.52737001953125,8.02681806777038
2.862472021885103,-0.7996633544921875,2.73896669921875,7.249642626953125,7.790938215547776
2.8649589654314846,-0.7805097412109374,2.77727392578125,7.110778930664062,7.673696821983881
2.867445908977866,-0.7278373046875,2.7820623291015623,7.201758593749999,7.754672448772594
2.8699328525242476,-0.622492431640625,2.834734765625,7.4699091796875,8.013910479389725
2.8724197960706292,-0.5793968017578125,2.8012159423828122,7.848193041992187,8.35324161233957
2.8749067396170105,-0.4836287353515625,2.77727392578125,8.37012900390625,8.832112247617484
2.877393683163392,-0.4165910888671875,2.748543505859375,9.02135185546875,9.439959154524702
2.8798806267097734,-0.36391865234375,2.6623522460937497,9.677363110351562,10.04350103486814
2.882367570256155,-0.24899697265624998,2.6384102294921874,10.352527978515624,10.686348467901924
2.8848545138025363,-0.2825157958984375,2.461239306640625,10.888829150390624,11.167099639829562
2.887341457348918,-0.1867477294921875,2.4899697265625,11.405976708984374,11.676092181871562
2.8898284008952997,-0.2346317626953125,2.398990063476562,11.678915698242188,11.925069277592169
2.892315344441681,-0.24899697265624998,2.35589443359375,11.808202587890625,12.043499758429725
2.8948022879880626,-0.26336218261718747,2.346317626953125,11.803414184570311,12.037240234302024
2.897289231534444,-0.3591302490234375,2.308010400390625,11.611878051757811,11.844475439333298
2.8997761750808255,-0.45489831542968745,2.269703173828125,11.166556542968749,11.403967292218285
2.902263118627207,-0.47884033203125,2.31758720703125,10.644620581054687,10.904514929165247
2.9047500621735884,-0.5793968017578125,2.3415292236328122,10.031704956054687,10.317633647515589
2.90723700571997,-0.6560112548828124,2.461239306640625,9.404424121093749,9.743266533380664
2.9097239492663514,-0.7278373046875,2.5234885498046875,8.801085302734375,9.184598200743304
2.912210892812733,-0.7996633544921875,2.5905261962890624,8.164227661132813,8.602610113040328
2.9146978363591143,-0.7900865478515624,2.6958710693359373,7.6997525390625,8.196227591909457
2.917184779905496,-0.7996633544921875,2.73896669921875,7.335833886718749,7.871204410601853
2.9196717234518776,-0.7709329345703124,2.7629087158203123,7.134720947265625,7.689749355922593
2.922158666998259,-0.7278373046875,2.77727392578125,7.182604980468749,7.735167219031121
2.9246456105446406,-0.6655880615234374,2.825157958984375,7.364564306640625,7.915891130346626
2.927132554091022,-0.5602431884765625,2.858676782226562,7.7763669921875,8.304082668944165
2.9296194976374035,-0.5123591552734374,2.806004345703125,8.212111694335936,8.693385460932143
2.932106441183785,-0.4070142822265625,2.767697119140625,8.839392529296875,9.271497627472334
2.9345933847301664,-0.3495534423828125,2.7150246826171873,9.452308154296874,9.84071522197901
2.937080328276548,-0.277727392578125,2.6336218261718747,10.117896215820313,10.458724600159817
2.9395672718229293,-0.2920926025390625,2.5665841796874997,10.673351000976561,10.98148869825615
2.942054215369311,-0.201112939453125,2.422932080078125,11.161768139648437,11.42348958428895
2.9445411589156922,-0.19153613281249998,2.398990063476562,11.540052001953125,11.78832641313492
2.947028102462074,-0.26815058593749996,2.3415292236328122,11.7603185546875,11.994155091109677
2.9495150460084556,-0.27293898925781246,2.3032219970703123,11.812990991210937,12.038524968536485
2.952001989554837,-0.3064578125,2.2744915771484373,11.6070896484375,11.83181129127009
2.9544889331012185,-0.4070142822265625,2.2936451904296873,11.319785449218749,11.556989724918083
2.9569758766475998,-0.4740519287109375,2.2840683837890623,10.802637890625,11.0516369379792
2.9594628201939814,-0.565031591796875,2.3511060302734372,10.266336718749999,10.547256984072737
2.961949763740363,-0.6177040283203125,2.398990063476562,9.639055883789062,9.952291691970798
2.9644367072867444,-0.737414111328125,2.418143676757812,8.954314208984375,9.304350668705963
2.966923650833126,-0.7852981445312499,2.50912333984375,8.413224633789062,8.8144620850593
2.9694105943795073,-0.7852981445312499,2.6001030029296874,7.857769848632812,8.31395067315961
2.971897537925889,-0.7996633544921875,2.6671406494140624,7.45075556640625,7.954046720670446
2.97438448147227,-0.7565677246093749,2.7198130859375,7.278373046874999,7.806695341425457
2.976871425018652,-0.7422025146484375,2.834734765625,7.163451367187499,7.7396137664778815
2.9793583685650336,-0.689530078125,2.806004345703125,7.345410693359375,7.893299080287161
2.981845312111415,-0.6177040283203125,2.8107927490234372,7.6087728759765625,8.134834898310016
2.9843322556577965,-0.5410895751953124,2.806004345703125,8.06367119140625,8.555070508160933
2.9868191992041777,-0.43574470214843747,2.8107927490234372,8.590395556640624,9.049051063120604
2.9893061427505594,-0.38307226562499996,2.6958710693359373,9.217676391601563,9.61145271243959
2.991793086296941,-0.3064578125,2.6240450195312497,9.849745629882811,10.1978928033572
2.9942800298433223,-0.26336218261718747,2.5905261962890624,10.491391674804687,10.80969402374803
2.996766973389704,-0.229843359375,2.528276953125,11.042058056640624,11.330139383422162
2.9992539169360852,-0.258573779296875,2.403778466796875,11.439495532226562,11.69217983733605
3.001740860482467,1.2641384765625,4.8123453369140625,9.3086560546875,10.554988928185313
3.0042278040288486,1.0869675537109373,4.8698061767578125,9.323021264648437,10.574272370385389
3.00671474757523,0.7709329345703124,4.96078583984375,9.34696328125,10.609875414887547
3.0092016911216115,0.49799394531249996,4.932055419921875,9.366116894531249,10.597042715624598
3.0116886346679927,0.2059013427734375,4.80755693359375,9.409212524414063,10.56826756674393
3.0141755782143744,-0.076614453125,4.668693237304687,9.437942944335937,10.529830641516636
3.0166625217607557,-0.4213794921875,4.44363828125,9.476250170898437,10.474865113808354
3.0191494653071373,-0.7038952880859375,4.165910888671875,9.509768994140625,10.406055373236436
3.021636408853519,-1.0103531005859374,3.892971899414062,9.519345800781249,10.334117672658017
3.0241233523999003,-1.2785036865234374,3.4955344238281247,9.5384994140625,10.238960086683223
3.026610295946282,-1.5370774658203123,3.1459809814453124,9.610325463867188,10.228301862626186
3.029097239492663,-1.7094599853515624,2.8107927490234372,9.610325463867188,10.15781299497756
3.031584183039045,-1.9009961181640624,2.4756045166015626,9.634267480468749,10.127265862468041
3.0340711265854265,-1.9823989746093749,2.1116858642578125,9.6151138671875,10.041889143125408
3.036558070131808,-2.1308394775390624,1.7764976318359373,9.677363110351562,10.067163328592166
3.0390450136781895,-2.1691467041015624,1.4796166259765624,9.672574707031249,10.022632600613553
3.0415319572245707,-2.212242333984375,1.235408056640625,9.648632690429688,9.975788791143968
3.0440189007709524,-2.1452046874999997,1.005564697265625,9.677363110351562,9.963153129469212
3.0465058443173336,-2.0781670410156248,0.8667010009765624,9.648632690429688,9.907878767439872
3.0489927878637153,-1.9393033447265624,0.7661445312499999,9.629479077148437,9.852651531586378
3.051479731410097,-1.848323681640625,0.6512228515624999,9.562441430664062,9.761182190154598
3.0539666749564782,-1.62805712890625,0.737414111328125,9.595960253906249,9.76098369945964
3.05645361850286,-1.4221557861328125,0.7278373046875,9.572018237304688,9.70442205169475
3.058940562049241,-1.1923124267578125,0.86191259765625,9.552864624023437,9.665491439855405
3.061427505595623,-0.928950244140625,1.0486603271484374,9.504980590820312,9.607668451278636
3.0639144491420045,-0.6607996582031249,1.2114660400390624,9.5001921875,9.599893632425585
3.0664013926883857,-0.37828386230468747,1.4891934326171874,9.495403784179686,9.618913077102018
3.0688883362347674,-0.1580173095703125,1.7286135986328124,9.433154541015625,9.591531631506296
3.0713752797811487,0.0909796630859375,2.001552587890625,9.380482104492186,9.592076655963767
3.0738622233275303,0.3064578125,2.29843359375,9.375693701171874,9.658175073683164
3.0763491668739116,0.45968671875,2.6048914062499997,9.332598071289063,9.700214321239432
3.0788361104202933,0.6655880615234374,2.896984008789062,9.356540087890625,9.817350265276593
3.081323053966675,0.8092401611328125,3.1651345947265623,9.3086560546875,9.865293922919651
3.083809997513056,0.86191259765625,3.4668040039062498,9.289502441406249,9.95271213973315
3.086296941059438,0.97683427734375,3.6679169433593746,9.342174877929686,10.083851018266632
3.088783884605819,1.0342951171875,3.835511059570312,9.337386474609374,10.1473000179231
3.091270828152201,0.967257470703125,4.031835595703125,9.366116894531249,10.242823388472218
3.0937577716985825,0.8667010009765624,4.0988732421875,9.375693701171874,10.269155995446189
3.0962447152449637,0.833182177734375,4.141968872070312,9.404424121093749,10.309863807437203
3.0987316587913454,0.6655880615234374,4.1754876953124995,9.380482104492186,10.289370703500131
3.1012186023377266,0.49320554199218747,4.108450048828125,9.423577734375,10.292056685919286
3.1037055458841083,0.33039982910156246,4.084508032226562,9.399635717773437,10.254049031442936
3.1061924894304895,0.1005564697265625,3.9504327392578125,9.447519750976562,10.240686494376053
3.108679432976871,-0.16280571289062498,3.749319799804687,9.452308154296874,10.170055757228889
3.111166376523253,-0.38307226562499996,3.6104561035156246,9.524134204101562,10.192706704984776
3.113653320069634,-0.6177040283203125,3.356670727539062,9.533711010742186,10.126225470335308
3.116140263616016,-0.8906430175781249,3.0645781249999997,9.548076220703125,10.067305676562407
3.118627207162397,-1.139639990234375,2.7916391357421872,9.572018237304688,10.035714299781672
3.1211141507087787,-1.3934253662109375,2.518700146484375,9.610325463867188,10.032140359891033
3.1236010942551604,-1.5370774658203123,2.2601263671875,9.634267480468749,10.014483921641016
3.1260880378015417,-1.66636435546875,1.9919757812499999,9.591171850585937,9.936564554499478
3.1285749813479233,-1.8339584716796873,1.7190367919921874,9.586383447265625,9.910461077370561
3.1310619248943046,-1.8914193115234375,1.5658078857421873,9.639055883789062,9.946889950022808
3.1335488684406863,-1.944091748046875,1.3407529296874998,9.629479077148437,9.914836279058221
3.136035811987068,-1.9488801513671874,1.254561669921875,9.610325463867188,9.885869428102124
3.138522755533449,-1.944091748046875,1.0773907470703123,9.591171850585937,9.845346160200195
3.141009699079831,-1.8914193115234375,1.005564697265625,9.610325463867188,9.846165898147602
3.143496642626212,-1.7334020019531249,1.0534487304687499,9.610325463867188,9.822056416532915
3.1459835861725938,-1.5897499023437498,1.0438719238281249,9.595960253906249,9.782608370976886
3.148470529718975,-1.39821376953125,1.120486376953125,9.543287817382812,9.710037787344163
3.1509574732653567,-1.2114660400390624,1.2210428466796874,9.543287817382812,9.697058211901316
3.1534444168117384,-0.9193734375,1.350329736328125,9.519345800781249,9.658497936493239
3.1559313603581196,-0.74699091796875,1.5179238525390624,9.485826977539062,9.635507340116694
3.1584183039045013,-0.47884033203125,1.7908628417968748,9.452308154296874,9.63237287616586
3.1609052474508825,-0.21068974609375,2.0638018310546875,9.433154541015625,9.65857508961117
3.163392190997264,0.0430956298828125,2.2361843505859373,9.418789331054686,9.680700911912837
3.165879134543646,0.21068974609375,2.5378537597656248,9.34696328125,9.687663002814524
3.168366078090027,0.4165910888671875,2.77727392578125,9.394847314453125,9.805608326668725
3.170853021636409,0.565031591796875,2.9975404785156248,9.303867651367186,9.79114206281499
3.17333996518279,0.7230489013671875,3.27526787109375,9.34696328125,9.930553958476992
3.1758269087291717,0.814028564453125,3.5051112304687497,9.327809667968749,9.997823785382248
3.178313852275553,0.8379705810546875,3.6487633300781246,9.313444458007812,10.037724652830061
3.1808007958219346,0.948103857421875,3.873818286132812,9.375693701171874,10.188670247712857
3.1832877393683163,0.8906430175781249,4.031835595703125,9.361328491210937,10.231491307521944
3.1857746829146976,0.8044517578125,4.027047192382812,9.327809667968749,10.191775356736292
3.1882616264610792,0.7326257080078125,4.031835595703125,9.375693701171874,10.232109805753977
3.1907485700074605,0.5698199951171875,4.0222587890625,9.414000927734374,10.253129964084604
3.193235513553842,0.4070142822265625,3.9600095458984375,9.428366137695312,10.234325784143417
3.195722457100224,0.2442085693359375,3.883395092773437,9.447519750976562,10.217437287157978
3.198209400646605,8.94473740234375,-1.9297265380859374,8.844180932617187,12.726024834077206
3.2006963441929868,8.657433203124999,-0.4165910888671875,8.82981572265625,12.372968257373097
3.203183287739368,8.058882788085937,1.0007762939453124,8.853757739257812,12.013998963213634
3.2056702312857497,7.297526660156249,2.379836450195312,8.834604125976561,11.703322047525289
3.208157174832131,6.272808349609375,3.5721488769531247,8.839392529296875,11.412415716097795
3.2106441183785126,5.200206005859375,4.544194750976562,8.8872765625,11.255022573790809
3.2131310619248943,3.9552211425781247,5.42047255859375,8.920795385742187,11.162700719783004
3.2156180054712755,2.73896669921875,6.047753393554687,8.997409838867187,11.181710222377681
3.218104949017657,1.465251416015625,6.536170532226562,9.107543115234375,11.305566263320724
