Time (s),Acceleration x (m/s^2),Acceleration y (m/s^2),Acceleration z (m/s^2),Absolute acceleration (m/s^2)
0.0,1.2785036865234374,3.9791631591796874,9.777919580078125,10.633721006228349
0.002486943546381497,0.9576806640625,3.5003228271484375,15.030798022460937,15.46267445627021
0.004973887092762994,0.59376201171875,2.9975404785156248,19.517531933593748,19.75529941625162
0.007460830639144491,0.0383072265625,2.4756045166015626,23.032219970703125,23.16491402844139
0.009947774185525988,-0.4740519287109375,1.915361328125,25.220520288085936,25.297588380123226
0.012434717731907486,-0.9959878906249999,1.426944189453125,26.082432885742186,26.140418260565976
0.014921661278288981,-1.4317325927734375,1.16837041015625,25.531766503906248,25.598555592894837
0.01740860482467048,-1.7525556152343749,0.9528922607421875,23.73611525878906,23.819794760316277
0.019895548371051976,-2.0446482177734375,0.8714894042968749,20.88222687988281,21.000178084462664
0.022382491917433474,-2.1212626708984375,0.9002198242187499,17.2765591796875,17.429562477013242
0.02486943546381497,-2.1404162841796874,1.0630255371093749,13.235146777343749,13.449182703047827
0.027356379010196465,-1.9728221679687499,1.3455413330078123,9.126696728515624,9.433933535888364
0.029843322556577963,-1.7525556152343749,1.6615759521484375,5.233724829101562,5.764040372516634
0.032330266102959464,-1.4508862060546874,2.068590234375,1.9776105712890624,3.208594694308652
0.03481720964934096,-1.0103531005859374,2.5953145996093747,-0.5506663818359374,2.838961909376994
0.03730415319572245,-0.622492431640625,2.925714428710937,-2.1547814941406247,3.686513940473863
0.03979109674210395,-0.2346317626953125,3.27526787109375,-2.767697119140625,4.294482394280341
0.04227804028848545,0.1292868896484375,3.5434184570312497,-2.288856787109375,4.2203548255284575
0.04476498383486695,0.39743747558593745,3.706224169921875,-0.9193734375,3.8391798163531985
0.04725192738124844,0.603338818359375,3.81156904296875,1.2785036865234374,4.065298018043821
0.04973887092762994,0.718260498046875,3.821145849609375,3.9456443359374997,5.5394190103978564
0.05222581447401144,0.6847416748046875,3.67749375,6.924031201171875,7.8698817981787395
0.05471275802039293,0.584185205078125,3.404554760742187,9.983820922851562,10.56451350949456
0.05719970156677443,0.4261678955078125,3.1699229980468746,12.837709301757812,13.230147807380956
0.059686645113155926,0.1771709228515625,2.8203695556640622,15.298948608398437,15.557753773885137
0.062173588659537427,-0.12449848632812499,2.5139117431640625,17.089811450195313,17.274168794148764
0.06466053220591893,-0.45489831542968745,2.212242333984375,18.253393457031247,18.39258876066239
0.06714747575230041,-0.7230489013671875,1.905784521484375,18.511967236328125,18.623848831940826
0.06963441929868192,-1.0295067138671874,1.7477672119140624,18.095376147460936,18.208712536009724
0.07212136284506342,-1.2880804931640624,1.5514426757812498,16.979678173828123,17.098994023622566
0.0746083063914449,-1.4317325927734375,1.4939818359375,15.318102221679686,15.457234410370733
0.0770952499378264,-1.4939818359375,1.5179238525390624,13.268665600585937,13.438510385023735
0.0795821934842079,-1.4987702392578124,1.5945383056640625,10.884040747070312,11.10185604402263
0.0820691370305894,-1.4173673828125,1.7764976318359373,8.695740429687499,8.987812623451893
0.0845560805769709,-1.2928688964843749,2.001552587890625,6.545747338867187,6.965955136941038
0.0870430241233524,-1.1061211669921875,2.1978771240234374,4.821922143554687,5.4134186099799
0.0895299676697339,-0.8858546142578124,2.5234885498046875,3.5960908935546874,4.481584828306184
0.09201691121611538,-0.63206923828125,2.7246014892578123,2.834734765625,3.9822965721666628
0.09450385476249688,-0.37828386230468747,3.0119056884765625,2.6958710693359373,4.059851644979175
0.09699079830887838,-0.1484405029296875,3.1459809814453124,3.1555577880859373,4.458337792549533
0.09947774185525989,0.0526724365234375,3.294421484375,4.113238452148437,5.270172470281533
0.10196468540164137,0.143652099609375,3.289633081054687,5.434837768554687,6.354508895595318
0.10445162894802287,0.2346317626953125,3.289633081054687,7.082048510742187,7.812307532383789
0.10693857249440437,0.239420166015625,3.2225954345703123,8.863334545898438,9.434041690777343
0.10942551604078586,0.201112939453125,3.0454245117187497,10.582371337890624,11.013702374951025
0.11191245958716736,0.0526724365234375,2.940079638671875,12.16254443359375,12.512966465488692
0.11439940313354886,-0.06703764648437499,2.6575638427734374,13.402740893554686,13.663842910551407
0.11688634667993036,-0.2825157958984375,2.499546533203125,14.250288281249999,14.470599992581889
0.11937329022631185,-0.4740519287109375,2.3223756103515623,14.647725756835937,14.838262147372422
0.12186023377269335,-0.70868369140625,2.0877438476562498,14.57589970703125,14.74170136779759
0.12434717731907485,-0.8762778076171874,1.9728221679687499,14.168885424804687,14.332383063670676
0.12683412086545634,-0.9959878906249999,1.9201497314453124,13.306972827148437,13.481635386402793
0.12932106441183785,-1.149216796875,1.8243816650390623,12.152967626953124,12.342758599588707
0.13180800795821934,-1.1827356201171875,1.838746875,10.769119067382812,10.988802441798846
0.13429495150460083,-1.1731588134765625,1.915361328125,9.399635717773437,9.664267289647812
0.13678189505098234,-1.1444283935546875,2.04943662109375,8.0828248046875,8.4167668160123
0.13926883859736383,-1.0438719238281249,2.1739351074218747,6.904877587890625,7.313890684744491
0.14175578214374532,-0.8906430175781249,2.327164013671875,6.023811376953125,6.518837383797817
0.14424272569012683,-0.7661445312499999,2.5043349365234375,5.439626171875,6.037234781487597
0.14672966923650832,-0.6177040283203125,2.6719290527343746,5.272032055664062,5.942649672107434
0.1492166127828898,-0.45968671875,2.767697119140625,5.4779333984375,6.154609129783261
0.15170355632927132,-0.2920926025390625,2.901772412109375,5.966350537109375,6.641004438471821
0.1541904998756528,-0.1292868896484375,3.0741549316406247,6.804321118164062,7.467658905082555
0.15667744342203432,-0.06703764648437499,3.0741549316406247,7.742848168945312,8.331063578986557
0.1591643869684158,0.0,3.0454245117187497,8.90643017578125,9.412709967519673
0.1616513305147973,0.023942016601562498,2.9640216552734375,10.0748005859375,10.501790534927624
0.1641382740611788,-0.0143652099609375,2.906560815429687,11.089942089843749,11.464515588943845
0.1666252176075603,-0.1005564697265625,2.8012159423828122,12.018892333984374,12.341421931664593
0.1691121611539418,-0.201112939453125,2.6719290527343746,12.62223115234375,12.903502258707071
0.1715991047003233,-0.36391865234375,2.5378537597656248,12.966996191406249,13.218022874826039
0.1740860482467048,-0.488417138671875,2.346317626953125,12.990938208007812,13.21015644238086
0.17657299179308628,-0.612915625,2.221819140625,12.703634008789061,12.911020985432515
0.1790599353394678,-0.7422025146484375,2.1116858642578125,12.148179223632813,12.352665308003802
0.18154687888584928,-0.8810662109374999,2.059013427734375,11.386823095703125,11.60497971460891
0.18403382243223076,-0.97683427734375,2.0302830078125,10.390835205078124,10.632295639056355
0.18652076597861228,-1.024718310546875,2.04943662109375,9.442731347656249,9.716759407531926
0.18900770952499377,-1.0342951171875,2.068590234375,8.480262280273436,8.789976125645504
0.19149465307137528,-0.9576806640625,2.1835119140624997,7.594407666015624,7.9598934874035185
0.19398159661775677,-0.9241618408203125,2.269703173828125,6.9719152343749995,7.390076429958222
0.19646854016413826,-0.8188169677734375,2.398990063476562,6.497863305664062,6.974800505424399
0.19895548371051977,-0.6943184814453125,2.499546533203125,6.272808349609375,6.788073041464225
0.20144242725690126,-0.6081272216796875,2.5857377929687497,6.3973068359375,6.926860284780358
0.20392937080328274,-0.45968671875,2.8203695556640622,6.813897924804687,7.388843024423341
0.20641631434966426,-0.38307226562499996,2.8107927490234372,7.350199096679687,7.878624689594288
0.20890325789604575,-0.28730419921875,2.844311572265625,8.149862451171874,8.636718705390035
0.21139020144242723,-0.16759411621093748,2.882618798828125,8.968679418945312,9.422037436083507
0.21387714498880875,-0.12449848632812499,2.920926025390625,9.911994873046874,10.334164266267969
0.21636408853519024,-0.105344873046875,2.89219560546875,10.759542260742187,11.141976603065862
0.21885103208157172,-0.1580173095703125,2.834734765625,11.496956372070311,11.842326481011026
0.22133797562795324,-0.1867477294921875,2.7246014892578123,12.081141577148436,12.385972299211756
0.22382491917433472,-0.27293898925781246,2.5857377929687497,12.378022583007812,12.648161079433459
0.22631186272071624,-0.39264907226562495,2.4947581298828125,12.464213842773436,12.717492604242095
0.22879880626709773,-0.5123591552734374,2.427720483398437,12.263100903320312,12.511593919821738
0.2312857498134792,-0.6272808349609375,2.3127988037109373,11.812990991210937,12.053600114106441
0.23377269335986073,-0.70868369140625,2.231395947265625,11.2240173828125,11.46559752728203
0.23625963690624222,-0.7996633544921875,2.1787235107421874,10.424354028320312,10.679581196120772
0.2387465804526237,-0.8954314208984374,2.1643583007812497,9.595960253906249,9.877686848561325
0.24123352399900522,-0.8714894042968749,2.1499930908203124,8.743624462890624,9.046155692913768
0.2437204675453867,-0.9002198242187499,2.1930887207031247,7.972691528320312,8.317682614439082
0.2462074110917682,-0.8810662109374999,2.2170307373046874,7.316680273437499,7.695798410945999
0.2486943546381497,-0.82360537109375,2.3223756103515623,6.880935571289062,7.3088322336117
0.2511812981845312,-0.7757213378906249,2.418143676757812,6.603208178710937,7.074709936590872
0.2536682417309127,-0.70868369140625,2.499546533203125,6.60799658203125,7.10039324785956
0.2561551852772942,-0.5746083984375,2.6192566162109374,6.890512377929687,7.393905656925973
0.2586421288236757,-0.49320554199218747,2.6623522460937497,7.331045483398437,7.8150879117633005
0.26112907237005717,-0.39264907226562495,2.786850732421875,7.996633544921875,8.47743229701784
0.2636160159164387,-0.296881005859375,2.863465185546875,8.734047656249999,9.196257916246433
0.2661029594628202,-0.27293898925781246,2.858676782226562,9.567229833984374,9.98891462238911
0.26858990300920166,-0.22505495605468748,2.863465185546875,10.414777221679687,10.803595104376221
0.2710768465555832,-0.21068974609375,2.81558115234375,11.118672509765624,11.47156335352598
0.2735637901019647,-0.181959326171875,2.786850732421875,11.741164941406248,12.068744772447898
0.27605073364834615,-0.2537853759765625,2.6958710693359373,12.143390820312499,12.441626439271996
0.27853767719472766,-0.316034619140625,2.6336218261718747,12.368445776367187,12.649675597687063
0.2810246207411092,-0.411802685546875,2.5043349365234375,12.243947290039062,12.50422009432697
0.28351156428749064,-0.49799394531249996,2.398990063476562,12.004527124023436,12.252013008711735
0.28599850783387215,-0.612915625,2.3223756103515623,11.506533178710937,11.754548048806493
0.28848545138025367,-0.6607996582031249,2.3032219970703123,10.86009873046875,11.121296335931296
0.2909723949266351,-0.7517793212890624,2.231395947265625,10.022128149414062,10.295015913764729
0.29345933847301664,-0.8379705810546875,2.1547814941406247,9.198522778320312,9.484624361854383
0.29594628201939815,-0.8858546142578124,2.1978771240234374,8.44674345703125,8.7728488690281
0.2984332255657796,-0.852335791015625,2.24097275390625,7.728482958984374,8.091840583681087
0.30092016911216113,-0.8667010009765624,2.269703173828125,7.1395093505859375,7.541572574038074
0.30340711265854264,-0.7661445312499999,2.308010400390625,6.737283471679687,7.162742353934272
0.30589405620492416,-0.7326257080078125,2.418143676757812,6.603208178710937,7.0701143923470395
0.3083809997513056,-0.6847416748046875,2.4851813232421875,6.675034228515624,7.155492947551643
0.31086794329768713,-0.6177040283203125,2.5905261962890624,6.995857250976562,7.48561306215492
0.31335488684406865,-0.5027823486328125,2.6910826660156246,7.522581616210937,8.00524516663801
0.3158418303904501,-0.4165910888671875,2.748543505859375,8.17859287109375,8.638137582258736
0.3183287739368316,-0.3016694091796875,2.829946362304687,8.98304462890625,9.423093528713263
0.32081571748321314,-0.33518823242187495,2.786850732421875,9.7683427734375,10.163631668617427
0.3233026610295946,-0.22026655273437498,2.8107927490234372,10.606313354492187,10.974650618853227
0.3257896045759761,-0.2442085693359375,2.8107927490234372,11.271901416015623,11.61963662235936
0.3282765481223576,-0.26815058593749996,2.7246014892578123,11.822567797851562,12.13542200942354
0.3307634916687391,-0.3016694091796875,2.6815058593749996,12.205640063476562,12.500365093285932
0.3332504352151206,-0.3399766357421875,2.5953145996093747,12.368445776367187,12.642376869352196
0.3357373787615021,-0.36391865234375,2.5378537597656248,12.263100903320312,12.528239391730015
0.3382243223078836,-0.47884033203125,2.446874096679687,11.9518546875,12.209148675468636
0.3407112658542651,-0.5746083984375,2.379836450195312,11.449072338867186,11.707905609537807
0.3431982094006466,-0.6416460449218749,2.3127988037109373,10.769119067382812,11.033343710810367
0.34568515294702806,-0.7134720947265625,2.2361843505859373,9.9981861328125,10.270018930173553
0.3481720964934096,-0.7805097412109374,2.1739351074218747,9.1554271484375,9.442300332956632
0.3506590400397911,-0.8571241943359375,2.1787235107421874,8.355763793945313,8.677573773871599
0.35314598358617255,-0.8188169677734375,2.2074539306640624,7.6279264892578125,7.983018013773921
0.35563292713255407,-0.8475473876953125,2.2266075439453124,7.096413720703125,7.4856666653362876
0.3581198706789356,-0.7948749511718749,2.35589443359375,6.694187841796874,7.141023430258411
0.36060681422531704,-0.7422025146484375,2.403778466796875,6.58884296875,7.052791444317145
0.36309375777169856,-0.6607996582031249,2.528276953125,6.660669018554687,7.15495299178958
0.36558070131808007,-0.622492431640625,2.5522189697265625,7.000645654296875,7.477322921601534
0.36806764486446153,-0.49799394531249996,2.6623522460937497,7.541735229492187,8.013356832414985
0.37055458841084304,-0.45489831542968745,2.6671406494140624,8.173804467773436,8.609973937157454
0.37304153195722456,-0.3447650390625,2.767697119140625,8.935160595703124,9.36034749068991
0.3755284755036061,-0.33039982910156246,2.7581203125,9.773131176757811,10.160240386103617
0.37801541904998753,-0.2825157958984375,2.7964275390625,10.544064111328124,10.912245879742493
0.38050236259636905,-0.258573779296875,2.8107927490234372,11.267113012695312,11.61530248930912
0.38298930614275056,-0.26336218261718747,2.7246014892578123,11.832144604492187,12.144647333542146
0.385476249689132,-0.27293898925781246,2.6910826660156246,12.258312499999999,12.55319269966183
0.38796319323551354,-0.32561142578124996,2.6479870361328124,12.411541406249999,12.695046995706038
0.39045013678189505,-0.430956298828125,2.5043349365234375,12.31577333984375,12.575201380661765
0.3929370803282765,-0.45010991210937495,2.4564509033203126,12.061987963867187,12.317804334128676
0.395424023874658,-0.565031591796875,2.403778466796875,11.506533178710937,11.768505317581347
0.39791096742103954,-0.63206923828125,2.31758720703125,10.807426293945312,11.071187157809087
0.400397910967421,-0.7326257080078125,2.2649147705078123,10.022128149414062,10.300952965089014
0.4028848545138025,-0.718260498046875,2.2457611572265623,9.284714038085937,9.579418358511763
0.40537179806018403,-0.833182177734375,2.1883003173828124,8.465897070312499,8.783749997892567
0.4078587416065655,-0.82360537109375,2.250549560546875,7.709329345703124,8.073230957447679
0.410345685152947,-0.842758984375,2.2361843505859373,7.115567333984375,7.506134933507107
0.4128326286993285,-0.8044517578125,2.308010400390625,6.713341455078124,7.1444389654772325
0.41531957224571,-0.7517793212890624,2.389413256835937,6.58884296875,7.0489232884680675
0.4178065157920915,-0.6607996582031249,2.5426421630859375,6.6319385986328125,7.133322853608931
0.420293459338473,-0.63206923828125,2.5330653564453125,6.928819604492187,7.404354984304853
0.42278040288485447,-0.5267243652343749,2.6144682128906247,7.3549875,7.823600431917731
0.425267346431236,-0.49320554199218747,2.6862942626953124,8.02536396484375,8.477375498387113
0.4277542899776175,-0.3687070556640625,2.767697119140625,8.772354882812499,9.205992745282828
0.43024123352399896,-0.32561142578124996,2.8203695556640622,9.591171850585937,10.002553908806894
0.43272817707038047,-0.26815058593749996,2.806004345703125,10.433930834960936,10.807982133293525
0.435215120616762,-0.258573779296875,2.825157958984375,11.171344946289063,11.525941427993239
0.43770206416314344,-0.26815058593749996,2.7533319091796873,11.745953344726562,12.067317900649622
0.44018900770952496,-0.27293898925781246,2.7054478759765623,12.210428466796873,12.509536651860717
0.4426759512559065,-0.3399766357421875,2.6431986328124997,12.401964599609375,12.685062437974697
0.445162894802288,-0.37828386230468747,2.5809493896484375,12.387599389648436,12.659266055772155
0.44764983834866945,-0.4644751220703125,2.499546533203125,12.105083593749999,12.369176157786152
0.45013678189505096,-0.5458779785156249,2.418143676757812,11.669338891601562,11.929747347530746
0.4526237254414325,-0.5889736083984375,2.31758720703125,11.027692846679686,11.283975801741827
0.45511066898781394,-0.6655880615234374,2.27927998046875,10.24718310546875,10.518692233068345
0.45759761253419545,-0.74699091796875,2.3032219970703123,9.437942944335937,9.743592459655568
0.46008455608057697,-0.7900865478515624,2.2361843505859373,8.628702783203124,8.948702080400196
0.4625714996269584,-0.7996633544921875,2.231395947265625,7.876923461914062,8.225844186394694
0.46505844317333994,-0.8092401611328125,2.2649147705078123,7.211335400390625,7.6018462765950305
0.46754538671972146,-0.7948749511718749,2.308010400390625,6.7803791015625,7.206405411661023
0.4700323302661029,-0.7900865478515624,2.408566870117187,6.526593725585937,7.001561024498739
0.47251927381248443,-0.7134720947265625,2.442085693359375,6.517016918945312,6.996022761932918
0.47500621735886595,-0.622492431640625,2.5234885498046875,6.794744311523437,7.2748911708303465
0.4774931609052474,-0.5267243652343749,2.6527754394531247,7.196970190429687,7.688370179110187
0.4799801044516289,-0.5027823486328125,2.6910826660156246,7.896077075195312,8.357197447879967
0.48246704799801043,-0.45010991210937495,2.729389892578125,8.604760766601562,9.03847752495586
0.4849539915443919,-0.32082302246093747,2.7581203125,9.428366137695312,9.828745753981313
0.4874409350907734,-0.28730419921875,2.7964275390625,10.213664282226562,10.593464435874909
0.4899278786371549,-0.277727392578125,2.7820623291015623,10.998962426757812,11.348752256209682
0.4924148221835364,-0.258573779296875,2.8203695556640622,11.654973681640625,11.994155091109677
0.4949017657299179,-0.277727392578125,2.7054478759765623,12.114660400390624,12.416182075461323
0.4973887092762994,-0.32082302246093747,2.6479870361328124,12.373234179687499,12.657475531110276
0.49987565282268087,-0.3399766357421875,2.6144682128906247,12.406753002929687,12.683790767147292
0.5023625963690624,-0.40222587890625,2.5234885498046875,12.23915888671875,12.503071237620132
0.5048495399154439,-0.5506663818359374,2.442085693359375,11.803414184570311,12.065968772142186
0.5073364834618254,-0.5602431884765625,2.365471240234375,11.214440576171874,11.474885797039573
0.5098234270082069,-0.6655880615234374,2.3511060302734372,10.462661254882812,10.744207163288348
0.5123103705545884,-0.699106884765625,2.2744915771484373,9.65342109375,9.9423639635704
0.5147973141009698,-0.7805097412109374,2.2649147705078123,8.781931689453124,9.10282146216274
0.5172842576473514,-0.8092401611328125,2.221819140625,8.044517578125,8.38484424403936
0.5197712011937329,-0.8283937744140625,2.221819140625,7.378929516601562,7.750568840421285
0.5222581447401143,-0.7996633544921875,2.360682836914062,6.885723974609375,7.322942003834842
0.5247450882864959,-0.7852981445312499,2.29843359375,6.564900952148437,6.999815331292836
0.5272320318328774,-0.699106884765625,2.418143676757812,6.545747338867187,7.013057642858595
0.5297189753792588,-0.6464344482421874,2.528276953125,6.7277066650390625,7.216099972865415
0.5322059189256404,-0.584185205078125,2.6144682128906247,7.072471704101562,7.5628415556168385
0.5346928624720219,-0.5315127685546874,2.6288334228515624,7.64229169921875,8.099252644792971
0.5371798060184033,-0.45489831542968745,2.710236279296875,8.394071020507813,8.832482180243943
0.5396667495647849,-0.3687070556640625,2.8012159423828122,9.188945971679686,9.613505277431559
0.5421536931111663,-0.28730419921875,2.806004345703125,10.103531005859374,10.489878115467084
0.5446406366575478,-0.3112462158203125,2.8107927490234372,10.836156713867187,11.199094713963005
0.5471275802039294,-0.2825157958984375,2.748543505859375,11.535263598632811,11.861560304971563
0.5496145237503108,-0.26336218261718747,2.710236279296875,12.071564770507813,12.374870356388191
0.5521014672966923,-0.3016694091796875,2.7198130859375,12.368445776367187,12.667550614771864
0.5545884108430739,-0.3399766357421875,2.6431986328124997,12.46900224609375,12.75061175545877
0.5570753543894553,-0.39264907226562495,2.5378537597656248,12.344503759765624,12.60879249074927
0.5595622979358368,-0.469263525390625,2.4516625,11.93270107421875,12.190988975338694
0.5620492414822184,-0.565031591796875,2.35589443359375,11.405976708984374,11.660437554734408
0.5645361850285998,-0.6464344482421874,2.27927998046875,10.639832177734375,10.900413913957195
0.5670231285749813,-0.6943184814453125,2.2840683837890623,9.892841259765625,10.17680474050782
0.5695100721213628,-0.7517793212890624,2.2457611572265623,9.045293872070312,9.35018484070439
0.5719970156677443,-0.842758984375,2.1978771240234374,8.197746484375,8.529006623290487
0.5744839592141258,-0.8044517578125,2.24097275390625,7.52737001953125,7.894960476489776
0.5769709027605073,-0.7948749511718749,2.3367408203125,6.9719152343749995,7.3959303596387
0.5794578463068888,-0.7613561279296874,2.327164013671875,6.636727001953124,7.074001752793053
0.5819447898532703,-0.7134720947265625,2.442085693359375,6.5505357421875,7.02725717996289
0.5844317333996518,-0.6655880615234374,2.5043349365234375,6.655880615234374,7.142509902421353
0.5869186769460333,-0.63206923828125,2.5953145996093747,6.938396411132812,7.434817694533451
0.5894056204924147,-0.51714755859375,2.6144682128906247,7.484274389648437,7.944636478349557
0.5918925640387963,-0.45968671875,2.729389892578125,8.145074047851562,8.602506164489963
0.5943795075851778,-0.38786066894531246,2.806004345703125,8.930372192382812,9.36886566138632
0.5968664511315592,-0.3447650390625,2.8107927490234372,9.777919580078125,10.179741161964664
0.5993533946779408,-0.2825157958984375,2.786850732421875,10.587159741210938,10.951452121323916
0.6018403382243223,-0.277727392578125,2.8107927490234372,11.314997045898437,11.66219732860156
0.6043272817707037,-0.239420166015625,2.729389892578125,11.937489477539062,12.24787925430188
0.6068142253170853,-0.26815058593749996,2.767697119140625,12.310984936523436,12.62110938813799
0.6093011688634667,-0.3112462158203125,2.6527754394531247,12.512097875976561,12.794009731004794
0.6117881124098483,-0.4070142822265625,2.518700146484375,12.368445776367187,12.628854341418785
0.6142750559562298,-0.45968671875,2.499546533203125,12.076353173828124,12.340881278501609
0.6167619995026112,-0.5458779785156249,2.418143676757812,11.563994018554688,11.826722253863947
0.6192489430489928,-0.603338818359375,2.35589443359375,10.93671318359375,11.203836466682768
0.6217358865953743,-0.70868369140625,2.288856787109375,10.184933862304687,10.462981207375005
0.6242228301417557,-0.7326257080078125,2.2601263671875,9.323021264648437,9.62099979860602
0.6267097736881373,-0.7565677246093749,2.2457611572265623,8.504204296874999,8.828212085140194
0.6291967172345188,-0.82360537109375,2.250549560546875,7.7763669921875,8.137271209008304
0.6316836607809002,-0.7948749511718749,2.2744915771484373,7.173028173828125,7.566866676838685
0.6341706043272818,-0.7805097412109374,2.360682836914062,6.742071875,7.185927363972711
0.6366575478736632,-0.7278373046875,2.384624853515625,6.5026517089843745,6.964241673179973
0.6391444914200447,-0.6607996582031249,2.4947581298828125,6.526593725585937,7.018326009366869
0.6416314349664263,-0.6560112548828124,2.50912333984375,6.813897924804687,7.29076509227524
0.6441183785128077,-0.584185205078125,2.6096798095703124,7.225700610351562,7.70470313333006
0.6466053220591892,-0.4644751220703125,2.6862942626953124,7.948749511718749,8.403245373357905
0.6490922656055708,-0.4213794921875,2.7533319091796873,8.657433203124999,9.094478926530888
0.6515792091519522,-0.373495458984375,2.7533319091796873,9.495403784179686,9.893585218948838
0.6540661526983337,-0.27293898925781246,2.81558115234375,10.32379755859375,10.704335053991757
0.6565530962447153,-0.24899697265624998,2.806004345703125,11.080365283203124,11.432854179499966
0.6590400397910967,-0.2346317626953125,2.7820623291015623,11.736376538085937,12.063890629096633
0.6615269833374782,-0.3016694091796875,2.7246014892578123,12.148179223632813,12.453622611802745
0.6640139268838597,-0.2920926025390625,2.6288334228515624,12.39238779296875,12.671517607014575
0.6665008704302412,-0.33518823242187495,2.6527754394531247,12.488155859374999,12.771202192877611
0.6689878139766227,-0.4165910888671875,2.4851813232421875,12.210428466796873,12.467727847826916
0.6714747575230042,-0.4740519287109375,2.446874096679687,11.77947216796875,12.04026090382044
0.6739617010693857,-0.603338818359375,2.403778466796875,11.152191333007812,11.424252280792393
0.6764486446157671,-0.6751648681640625,2.327164013671875,10.433930834960936,10.711603643455119
0.6789355881621487,-0.7230489013671875,2.269703173828125,9.548076220703125,9.840737356896089
0.6814225317085302,-0.7134720947265625,2.231395947265625,8.801085302734375,9.10753933889028
0.6839094752549116,-0.7948749511718749,2.288856787109375,7.963114721679687,8.323574211270595
0.6863964188012932,-0.7996633544921875,2.2744915771484373,7.331045483398437,7.717318270921156
0.6888833623476747,-0.8092401611328125,2.3367408203125,6.89530078125,7.325325942482823
0.6913703058940561,-0.7709329345703124,2.31758720703125,6.579266162109374,7.017997669113144
0.6938572494404377,-0.718260498046875,2.427720483398437,6.536170532226562,7.009368738689222
0.6963441929868192,-0.6464344482421874,2.5330653564453125,6.72291826171875,7.213315988479158
0.6988311365332006,-0.565031591796875,2.6144682128906247,7.1395093505859375,7.624126081266498
0.7013180800795822,-0.4836287353515625,2.6767174560546874,7.723694555664062,8.18866110438088
0.7038050236259636,-0.45010991210937495,2.73896669921875,8.422801440429687,8.868377620360603
0.7062919671723451,-0.36391865234375,2.77727392578125,9.208099584960937,9.624696629551805
0.7087789107187267,-0.28730419921875,2.8203695556640622,10.026916552734374,10.419984821913323
0.7112658542651081,-0.27293898925781246,2.767697119140625,10.807426293945312,11.159529834819068
0.7137527978114896,-0.258573779296875,2.8203695556640622,11.5304751953125,11.873213678679138
0.7162397413578712,-0.277727392578125,2.7246014892578123,11.980585107421874,12.289629990200392
0.7187266849042526,-0.2920926025390625,2.7198130859375,12.378022583007812,12.676677181988437
0.7212136284506341,-0.36391865234375,2.6384102294921874,12.459425439453124,12.740915493240836
0.7237005719970157,-0.39264907226562495,2.5761609863281247,12.325350146484375,12.59781865859612
0.7261875155433971,-0.47884033203125,2.499546533203125,11.97100830078125,12.238548143983467
0.7286744590897786,-0.5363011718749999,2.403778466796875,11.386823095703125,11.650129187147623
0.7311614026361601,-0.6416460449218749,2.288856787109375,10.678139404296875,10.939526323221594
0.7336483461825416,-0.6703764648437499,2.2840683837890623,9.888052856445311,10.170543853614587
0.7361352897289231,-0.7278373046875,2.231395947265625,9.02135185546875,9.321677119260121
0.7386222332753046,-0.8092401611328125,2.2553379638671873,8.2360537109375,8.577528764107889
0.7411091768216861,-0.82360537109375,2.2266075439453124,7.575254052734374,7.938550303771918
0.7435961203680675,-0.7996633544921875,2.250549560546875,6.981492041015625,7.378730644478083
0.7460830639144491,-0.7757213378906249,2.39420166015625,6.636727001953124,7.097893383392531
0.7485700074608306,-0.7422025146484375,2.384624853515625,6.5218053222656245,6.983641236939874
0.7510569510072121,-0.6703764648437499,2.50912333984375,6.603208178710937,7.095594604440143
0.7535438945535936,-0.59376201171875,2.6001030029296874,6.909665991210937,7.406522332545909
0.7560308380999751,-0.5219359619140624,2.6527754394531247,7.445967163085937,7.92161988953389
0.7585177816463566,-0.45968671875,2.6767174560546874,8.106766821289062,8.549607974269708
0.7610047251927381,-0.38307226562499996,2.7820623291015623,8.911218579101561,9.34325594898384
0.7634916687391196,-0.3064578125,2.7916391357421872,9.753977563476562,10.150233680258491
0.7659786122855011,-0.277727392578125,2.7964275390625,10.572794531249999,10.939886822350827
0.7684655558318826,-0.26815058593749996,2.7724855224609373,11.305420239257812,11.643500654666289
0.770952499378264,-0.2825157958984375,2.748543505859375,11.903970654296874,12.220426503068337
0.7734394429246456,-0.2442085693359375,2.748543505859375,12.320561743164061,12.625781991467171
0.7759263864710271,-0.36391865234375,2.6048914062499997,12.449848632812499,12.724646439246241
0.7784133300174085,-0.4070142822265625,2.5234885498046875,12.358868969726561,12.620431739754462
0.7809002735637901,-0.44532150878906246,2.50912333984375,12.119448803710936,12.38446811480046
0.7833872171101716,-0.5410895751953124,2.389413256835937,11.621454858398437,11.87688034233405
0.785874160656553,-0.603338818359375,2.384624853515625,10.946289990234375,11.219256569490199
0.7883611042029346,-0.6943184814453125,2.27927998046875,10.184933862304687,10.459927015164247
0.790848047749316,-0.718260498046875,2.288856787109375,9.366116894531249,9.668449162972047
0.7933349912956975,-0.737414111328125,2.269703173828125,8.470685473632813,8.800445696786342
0.7958219348420791,-0.7948749511718749,2.2601263671875,7.785943798828124,8.146221100741545
0.7983088783884605,-0.8092401611328125,2.2840683837890623,7.187393383789062,7.584883761373659
0.800795821934842,-0.7948749511718749,2.308010400390625,6.72291826171875,7.152368009971469
0.8032827654812236,-0.7613561279296874,2.389413256835937,6.517016918945312,6.98286963842938
0.805769709027605,-0.6560112548828124,2.4947581298828125,6.574477758789062,7.062430650559435
0.8082566525739865,-0.63206923828125,2.5905261962890624,6.804321118164062,7.308154580654048
0.8107435961203681,-0.5363011718749999,2.6431986328124997,7.283161450195312,7.766502344625117
0.8132305396667495,-0.488417138671875,2.6767174560546874,7.896077075195312,8.351730408623188
0.815717483213131,-0.4070142822265625,2.7437551025390623,8.614337573242187,9.049898591388615
0.8182044267595125,-0.3591302490234375,2.7724855224609373,9.457096557617186,9.861659384105394
0.820691370305894,-0.2825157958984375,2.8107927490234372,10.290278735351562,10.67099843051827
0.8231783138522755,-0.2825157958984375,2.7916391357421872,11.056423266601563,11.406908419435473
0.825665257398657,-0.24899697265624998,2.7629087158203123,11.707646118164062,12.031817888104435
0.8281522009450385,-0.2920926025390625,2.6958710693359373,12.129025610351562,12.428447254886855
0.83063914449142,-0.33039982910156246,2.6192566162109374,12.411541406249999,12.689209169514596
0.8331260880378015,-0.37828386230468747,2.6336218261718747,12.435483422851561,12.716930076232432
0.835613031584183,-0.38786066894531246,2.528276953125,12.220005273437499,12.484836768378592
0.8380999751305644,-0.5506663818359374,2.403778466796875,11.8369330078125,12.0910862792787
0.840586918676946,-0.565031591796875,2.35589443359375,11.195286962890624,11.454429250880871
0.8430738622233275,1.0534487304687499,3.83072265625,7.982268334960937,8.916322003390933
0.8455608057697089,0.7278373046875,3.284844677734375,12.58392392578125,13.025939239409356
0.8480477493160905,0.32561142578124996,2.7964275390625,16.730681201171873,16.965898833750966
0.850534692862472,-0.19153613281249998,2.35589443359375,20.029891088867185,20.168873585411056
0.8530216364088534,-0.6081272216796875,1.9201497314453124,22.366631909179688,22.457137321342906
0.855508579955235,-1.0486603271484374,1.5514426757812498,23.420080639648436,23.494825813902214
0.8579955235016165,-1.4221557861328125,1.2928688964843749,23.362619799804687,23.441545191683794
0.8604824670479979,-1.6903063720703124,1.0965443603515623,22.28044064941406,22.3713562552149
0.8629694105943795,-1.8818425048828125,1.0390835205078124,20.192696801757812,20.306797627974102
0.8654563541407609,-1.924938134765625,1.16837041015625,17.472883715820313,17.617381802770307
0.8679432976871424,-1.89620771484375,1.3551181396484375,14.288595507812499,14.477427618749013
0.870430241233524,-1.714248388671875,1.637633935546875,10.89840595703125,11.153284038756167
0.8729171847799054,-1.465251416015625,1.9393033447265624,7.68059892578125,8.056020049237434
0.8754041283262869,-1.13006318359375,2.360682836914062,4.8123453369140625,5.478004554318406
0.8778910718726685,-0.8092401611328125,2.729389892578125,2.427720483398437,3.74142560658504
0.8803780154190499,-0.4644751220703125,3.0023288818359375,0.8283937744140625,3.1489604791448933
0.8828649589654315,-0.1292868896484375,3.246537451171875,0.009576806640625,3.2491248416953713
0.885351902511813,0.1292868896484375,3.418919970703125,-0.028730419921875,3.421484225147985
0.8878388460581944,0.32561142578124996,3.5721488769531247,0.7038952880859375,3.6553712501340208
0.890325789604576,0.45968671875,3.5338416503906247,2.0446482177734375,4.1085198093565
0.8928127331509574,0.5123591552734374,3.5338416503906247,3.9264907226562498,5.3073419061837015
0.8952996766973389,0.4213794921875,3.337517114257812,6.023811376953125,6.899484377075573
0.8977866202437205,0.2537853759765625,3.1459809814453124,8.322244970703125,8.900638443677432
0.9002735637901019,0.1484405029296875,2.89219560546875,10.548852514648438,10.939155332063233
0.9027605073364834,-0.086191259765625,2.6671406494140624,12.536039892578124,12.81691711626969
0.905247450882865,-0.39743747558593745,2.3415292236328122,14.068328955078124,14.26739623198347
0.9077343944292464,-0.6416460449218749,2.1595698974609374,15.164873315429686,15.331302438541048
0.9102213379756279,-0.8667010009765624,1.9201497314453124,15.734693310546874,15.87509745460581
0.9127082815220094,-1.1013327636718748,1.8004396484374998,15.729904907226562,15.870867184070098
0.9151952250683909,-1.1827356201171875,1.7334020019531249,15.279794995117186,15.423218896854097
0.9176821686147724,-1.3168109130859373,1.7238251953125,14.350844750976561,14.513866106294627
0.9201691121611539,-1.2976572998046874,1.8004396484374998,13.1393787109375,13.325493248088033
0.9226560557075354,-1.2785036865234374,1.944091748046875,11.7603185546875,11.988292493470663
0.9251429992539169,-1.149216796875,2.0446482177734375,10.223241088867187,10.488848551760393
0.9276299428002984,-1.005564697265625,2.327164013671875,8.820238916015624,9.177334430133445
0.9301168863466799,-0.8283937744140625,2.480392919921875,7.536946826171874,7.977728545346027
0.9326038298930613,-0.6703764648437499,2.6623522460937497,6.5409589355468745,7.093776700982865
0.9350907734394429,-0.44053310546874996,2.868253588867187,5.875370874023437,6.552933005485892
0.9375777169858244,-0.277727392578125,2.9544448486328125,5.578489868164062,6.318656983680179
0.9400646605322058,-0.0909796630859375,3.0358477050781247,5.5832782714843745,6.355914162758406
0.9425516040785874,-0.009576806640625,3.1220389648437497,5.904101293945312,6.6787447250508665
0.9450385476249689,0.062249243164062495,3.1555577880859373,6.564900952148437,7.284184541439335
0.9475254911713503,0.047884033203124995,3.1076737548828124,7.321468676757812,7.953856462884469
0.9500124347177319,0.033518823242187495,2.940079638671875,8.221688500976562,8.731629492845807
0.9524993782641133,-0.0718260498046875,2.863465185546875,9.102754711914063,9.542784457145787
0.9549863218104948,-0.19153613281249998,2.6767174560546874,9.974244116210937,10.328942255598545
0.9574732653568764,-0.3399766357421875,2.5474305664062498,10.788272680664061,11.090167448504733
0.9599602089032578,-0.488417138671875,2.39420166015625,11.286266625976562,11.547751609879551
0.9624471524496393,-0.699106884765625,2.1930887207031247,11.578359228515625,11.804947733800217
0.9649340959960209,-0.7852981445312499,2.1212626708984375,11.731588134765625,11.94766122128197
0.9674210395424023,-0.8810662109374999,2.0638018310546875,11.645396875,11.859630012870563
0.9699079830887838,-0.9864110839843749,2.04943662109375,11.362881079101562,11.588281309507966
0.9723949266351654,-0.9911994873046874,2.0973206542968748,10.979808813476561,11.222184810947953
0.9748818701815468,-1.0342951171875,2.1021090576171875,10.433930834960936,10.693715048957623
0.9773688137279283,-0.9720458740234375,2.221819140625,9.926360083007811,10.218315808996335
0.9798557572743098,-0.8906430175781249,2.288856787109375,9.447519750976562,9.761543926129184
0.9823427008206913,-0.7900865478515624,2.4564509033203126,9.035717065429687,9.396944752419078
0.9848296443670728,-0.63206923828125,2.6240450195312497,8.628702783203124,9.040997484092424
0.9873165879134543,-0.5458779785156249,2.6910826660156246,8.432378247070313,8.868196636544695
0.9898035314598358,-0.38786066894531246,2.73896669921875,8.389282617187499,8.833597076445603
0.9922904750062173,-0.28730419921875,2.85388837890625,8.398859423828124,8.87513730617005
0.9947774185525988,-0.181959326171875,2.959233251953125,8.614337573242187,9.110267968705315
0.9972643620989803,-0.1484405029296875,2.935291235351562,8.86812294921875,9.34246080332703
0.9997513056453617,-0.1388636962890625,2.825157958984375,9.169792358398437,9.596139458944007
1.0022382491917432,0.201112939453125,2.403778466796875,9.557653027343749,9.857348970334009
1.0047251927381249,-0.0430956298828125,2.6001030029296874,9.595960253906249,9.942074534708913
1.0072121362845063,-0.3591302490234375,2.844311572265625,9.605537060546874,10.024241870457201
1.0096990798308878,-0.6655880615234374,3.0119056884765625,9.610325463867188,10.093212514624572
1.0121860233772693,-0.9528922607421875,3.1842882080078123,9.591171850585937,10.150776941678505
1.0146729669236507,-1.2114660400390624,3.347093920898437,9.595960253906249,10.234898185914293
1.0171599104700322,-1.4508862060546874,3.4572271972656248,9.629479077148437,10.333651725003723
1.0196468540164139,-1.675941162109375,3.6679169433593746,9.658209497070311,10.466298494287962
1.0221337975627953,-1.9009961181640624,3.69664736328125,9.619902270507811,10.479575738733434
1.0246207411091768,-2.020706201171875,3.744531396484375,9.639055883789062,10.536420989193637
1.0271076846555582,-2.1643583007812497,3.754108203125,9.605537060546874,10.537747267631284
1.0295946282019397,-2.2266075439453124,3.7205893798828122,9.595960253906249,10.530100649234052
1.0320815717483212,-2.2553379638671873,3.6822821533203123,9.557653027343749,10.487825445678194
1.0345685152947028,-2.1691467041015624,3.5194764404296874,9.567229833984374,10.42227415370249
1.0370554588410843,-2.0973206542968748,3.4907460205078125,9.543287817382812,10.375856787371276
1.0395424023874658,-1.9728221679687499,3.294421484375,9.471461767578125,10.220265565915332
1.0420293459338472,-1.8052280517578123,3.0550013183593747,9.457096557617186,10.100918605459885
1.0445162894802287,-1.5849614990234373,2.863465185546875,9.4618849609375,10.011933021961386
1.0470032330266101,-1.369483349609375,2.7198130859375,9.452308154296874,9.930709809025807
1.0494901765729918,-1.0678139404296874,2.5378537597656248,9.442731347656249,9.835959720400572
1.0519771201193733,-0.7948749511718749,2.2744915771484373,9.414000927734374,9.717435443053034
1.0544640636657547,-0.5027823486328125,2.0781670410156248,9.404424121093749,9.644416073037823
1.0569510072121362,-0.2154781494140625,1.8770541015625,9.342174877929686,9.531316508378476
1.0594379507585177,0.05746083984375,1.7573440185546874,9.361328491210937,9.525021305384211
1.0619248943048991,0.3112462158203125,1.5849614990234373,9.323021264648437,9.461907982079303
1.0644118378512808,0.5602431884765625,1.4700398193359374,9.337386474609374,9.468984933818708
1.0668987813976623,0.7709329345703124,1.3646949462890625,9.380482104492186,9.510529659210905
1.0693857249440437,0.9624690673828125,1.35990654296875,9.390058911132812,9.536713210840654
1.0718726684904252,1.0342951171875,1.3120225097656248,9.380482104492186,9.528096030596446
1.0743596120368066,1.1444283935546875,1.3168109130859373,9.390058911132812,9.550754613293188
1.076846555583188,1.1875240234375,1.3359645263671873,9.394847314453125,9.56337652630282
1.0793334991295698,1.1348515869140625,1.426944189453125,9.442731347656249,9.617132272571974
1.0818204426759512,1.0486603271484374,1.5945383056640625,9.437942944335937,9.628967125839903
1.0843073862223327,1.0007762939453124,1.7764976318359373,9.476250170898437,9.693132327988423
1.0867943297687142,0.7805097412109374,1.905784521484375,9.514557397460937,9.73488636646742
1.0892812733150956,0.5889736083984375,2.0638018310546875,9.476250170898437,9.71624851528136
1.0917682168614773,0.3112462158203125,2.346317626953125,9.552864624023437,9.841712408840845
1.0942551604078588,0.1005564697265625,2.5043349365234375,9.586383447265625,9.908610027440988
1.0967421039542402,-0.229843359375,2.710236279296875,9.586383447265625,9.964785810918071
1.0992290475006217,-0.45489831542968745,2.9831752685546875,9.595960253906249,10.059260427826967
1.1017159910470031,-0.8283937744140625,3.1268273681640624,9.557653027343749,10.090194102537419
1.1042029345933846,-1.0965443603515623,3.2609026611328122,9.6151138671875,10.212066900416549
1.1066898781397663,-1.3311761230468748,3.42849677734375,9.648632690429688,10.325828432511118
1.1091768216861477,-1.5562310791015623,3.5865140869140624,9.672574707031249,10.432815532266218
1.1116637652325292,-1.8339584716796873,3.6822821533203123,9.600748657226562,10.444949990868535
1.1141507087789106,-1.9584569580078124,3.7110125732421873,9.634267480468749,10.50839083115719
1.116637652325292,-2.1021090576171875,3.758896606445312,9.634267480468749,10.553069509544603
1.1191245958716736,-2.2026655273437497,3.744531396484375,9.610325463867188,10.546639575052321
1.1216115394180552,-2.221819140625,3.7205893798828122,9.6151138671875,10.546548265016652
1.1240984829644367,-2.2266075439453124,3.6104561035156246,9.557653027343749,10.45666800760455
1.1265854265108182,-2.1404162841796874,3.4955344238281247,9.572018237304688,10.412669010058975
1.1290723700571996,-2.020706201171875,3.347093920898437,9.476250170898437,10.251127185252479
1.131559313603581,-1.8722656982421875,3.2417490478515623,9.528922607421874,10.237904169911756
1.1340462571499625,-1.7238251953125,2.978386865234375,9.423577734375,10.032256921490951
1.1365332006963442,-1.5227122558593749,2.81558115234375,9.428366137695312,9.95691909508244
1.1390201442427257,-1.254561669921875,2.5953145996093747,9.390058911132812,9.822565306941332
1.1415070877891071,-0.948103857421875,2.379836450195312,9.414000927734374,9.756327993744375
1.1439940313354886,-0.6703764648437499,2.1978771240234374,9.418789331054686,9.695032796216397
1.14648097488187,-0.37828386230468747,2.01112939453125,9.394847314453125,9.615138906116483
1.1489679184282515,-0.062249243164062495,1.867477294921875,9.370905297851563,9.555376105451094
1.1514548619746332,0.19153613281249998,1.6711527587890624,9.375693701171874,9.52539080623861
1.1539418055210147,0.4261678955078125,1.4987702392578124,9.313444458007812,9.442890393181681
1.1564287490673961,0.6751648681640625,1.4030021728515625,9.390058911132812,9.518270276199027
1.1589156926137776,0.833182177734375,1.3311761230468748,9.342174877929686,9.473249382428653
1.161402636160159,0.9624690673828125,1.3263877197265623,9.313444458007812,9.456526781070659
1.1638895797065405,1.0726023437499999,1.3072341064453123,9.356540087890625,9.508111232688444
1.1663765232529222,1.139639990234375,1.4125789794921875,9.409212524414063,9.582663461180042
1.1688634667993036,1.1731588134765625,1.4317325927734375,9.409212524414063,9.589548485118469
1.171350410345685,1.0917559570312498,1.5083470458984374,9.447519750976562,9.629261203523146
1.1738373538920666,1.01514150390625,1.6328455322265625,9.442731347656249,9.636486502303383
1.176324297438448,0.8667010009765624,1.8100164550781248,9.471461767578125,9.681731157568954
1.1788112409848295,0.699106884765625,2.020706201171875,9.514557397460937,9.751861691869907
1.1812981845312112,0.43574470214843747,2.1595698974609374,9.504980590820312,9.756960162844814
1.1837851280775926,0.2059013427734375,2.422932080078125,9.562441430664062,9.866776643996163
1.186272071623974,-0.028730419921875,2.6144682128906247,9.576806640625,9.927310557505667
1.1887590151703555,-0.32561142578124996,2.8012159423828122,9.576806640625,9.983389153407675
1.191245958716737,-0.6512228515624999,3.0119056884765625,9.600748657226562,10.083156344018093
1.1937329022631185,-0.8906430175781249,3.1699229980468746,9.6151138671875,10.16327070766535
1.1962198458095001,-1.197100830078125,3.3710359375,9.610325463867188,10.254525304017944
1.1987067893558816,-1.4604630126953124,3.4524387939453125,9.624690673828125,10.328937815877474
1.201193732902263,-1.675941162109375,3.5865140869140624,9.662997900390625,10.442480093226855
1.2036806764486445,-1.8914193115234375,3.7158009765625,9.639055883789062,10.502192258773173
1.206167619995026,-2.0063409912109376,3.7924154296875,9.672574707031249,10.581423364909172
1.2086545635414074,-2.1930887207031247,3.725377783203125,9.595960253906249,10.524758000021054
1.2111415070877891,-2.1978771240234374,3.744531396484375,9.610325463867188,10.54564055679013
1.2136284506341706,-2.231395947265625,3.6727053466796873,9.600748657226562,10.518662805520512
1.216115394180552,-2.221819140625,3.5865140869140624,9.552864624023437,10.443025716438655
1.2186023377269335,-2.1308394775390624,3.414131567382812,9.562441430664062,10.374828063795531
1.221089281273315,-1.9919757812499999,3.284844677734375,9.490615380859374,10.238649929425799
1.2235762248196966,-1.8052280517578123,3.1268273681640624,9.4618849609375,10.127347368544655
1.226063168366078,-1.608903515625,2.887407202148437,9.423577734375,9.986466251353248
1.2285501119124596,-1.369483349609375,2.7246014892578123,9.452308154296874,9.932022319946245
1.231037055458841,-1.0917559570312498,2.5043349365234375,9.4618849609375,9.848395379858605
1.2335239990052225,-0.842758984375,2.2649147705078123,9.370905297851563,9.677496976218164
1.236010942551604,-0.5458779785156249,2.0638018310546875,9.390058911132812,9.629665992122348
1.2384978860979856,-0.2442085693359375,1.8770541015625,9.370905297851563,9.56016924676714
1.240984829644367,0.05746083984375,1.7764976318359373,9.342174877929686,9.509756938736908
1.2434717731907485,0.296881005859375,1.5610194824218748,9.3086560546875,9.443304384621465
1.24595871673713,0.5123591552734374,1.4939818359375,9.375693701171874,9.50779290941371
1.2484456602835114,0.74699091796875,1.39821376953125,9.390058911132812,9.522930406727717
1.250932603829893,0.9624690673828125,1.3934253662109375,9.34696328125,9.499142252746012
1.2534195473762746,1.0534487304687499,1.2689268798828124,9.34696328125,9.491346176135982
1.255906490922656,1.120486376953125,1.3024457031249999,9.390058911132812,9.545944735073164
1.2583934344690375,1.1444283935546875,1.39821376953125,9.390058911132812,9.562317943251294
1.260880378015419,1.1635820068359375,1.4891934326171874,9.442731347656249,9.629994572708362
1.2633673215618004,1.0726023437499999,1.5849614990234373,9.495403784179686,9.686344602883924
1.2658542651081819,0.928950244140625,1.714248388671875,9.476250170898437,9.674756503168734
1.2683412086545636,0.7900865478515624,1.89620771484375,9.524134204101562,9.743150044450012
1.270828152200945,0.612915625,2.1021090576171875,9.543287817382812,9.791265006059868
1.2733150957473265,0.3591302490234375,2.2601263671875,9.557653027343749,9.827811410609838
1.275802039293708,0.1197100830078125,2.4947581298828125,9.581595043945311,9.901773185482865
1.2782889828400894,-0.1771709228515625,2.6623522460937497,9.624690673828125,9.987701416495119
1.2807759263864709,-0.43574470214843747,2.887407202148437,9.576806640625,10.01210363651856
1.2832628699328525,-0.7613561279296874,3.0597897216796874,9.605537060546874,10.109812981255995
1.285749813479234,-1.01514150390625,3.2513258544921873,9.624690673828125,10.209618144275352
1.2882367570256155,-1.3215993164062498,3.438073583984375,9.634267480468749,10.314363024793838
1.290723700571997,-1.5658078857421873,3.5098996337890624,9.581595043945311,10.323667631248226
1.2932106441183784,-1.7717092285156248,3.6200329101562496,9.624690673828125,10.434474707808526
1.2956975876647598,-1.9632453613281249,3.6631285400390623,9.629479077148437,10.488074673021003
1.2981845312111415,-2.0925322509765625,3.7397429931640622,9.629479077148437,10.539982740665957
1.300671474757523,-2.1883003173828124,3.744531396484375,9.605537060546874,10.539284410236514
1.3031584183039044,-2.2074539306640624,3.6918589599609373,9.605537060546874,10.524686107328217
1.305645361850286,-2.2457611572265623,3.6343981201171873,9.591171850585937,10.499660486810562
1.3081323053966674,-2.1643583007812497,3.5051112304687497,9.567229833984374,10.416435968621874
1.3106192489430488,-2.0973206542968748,3.347093920898437,9.572018237304688,10.354966189106998
1.3131061924894305,-1.9201497314453124,3.1794998046874996,9.485826977539062,10.187104959063944
1.315593136035812,-1.7381904052734374,3.0214824951171875,9.528922607421874,10.146478621251804
1.3180800795821934,-1.4987702392578124,2.868253588867187,9.476250170898437,10.013616139117131
1.3205670231285749,-1.2306196533203124,2.6288334228515624,9.428366137695312,9.865053366438485
1.3230539666749563,-0.9720458740234375,2.427720483398437,9.404424121093749,9.761244437884356
1.3255409102213378,-0.679953271484375,2.250549560546875,9.409212524414063,9.69848390757393
1.3280278537677195,-0.3687070556640625,2.0446482177734375,9.370905297851563,9.598458070369587
1.330514797314101,-0.09576806640624999,1.8195932617187498,9.3852705078125,9.560512207274805
1.3330017408604824,0.12449848632812499,1.6998831787109374,9.337386474609374,9.491674713694126
1.3354886844068639,0.37828386230468747,1.5131354492187499,9.342174877929686,9.471478713378557
1.3379756279532453,0.622492431640625,1.4125789794921875,9.351751684570312,9.47829814737945
1.3404625714996268,0.86191259765625,1.3742717529296875,9.366116894531249,9.505559523716775
1.3429495150460085,0.9816226806640624,1.2976572998046874,9.337386474609374,9.478094942083487
1.34543645859239,1.0342951171875,1.3120225097656248,9.404424121093749,9.55166804830337
1.3479234021387714,1.1540052001953125,1.3359645263671873,9.428366137695312,9.592216492773135
1.3504103456851528,1.1444283935546875,1.4125789794921875,9.433154541015625,9.606742440388473
1.3528972892315343,1.1252747802734375,1.4796166259765624,9.452308154296874,9.633360687463792
1.3553842327779158,1.0678139404296874,1.618480322265625,9.4618849609375,9.658518115060522
1.3578711763242974,0.8810662109374999,1.7381904052734374,9.490615380859374,9.688620328016002
1.360358119870679,0.7134720947265625,1.9919757812499999,9.524134204101562,9.756338569400786
1.3628450634170604,0.49799394531249996,2.1643583007812497,9.552864624023437,9.807633116539742
1.3653320069634418,0.258573779296875,2.360682836914062,9.562441430664062,9.852916825525377
1.3678189505098233,-0.033518823242187495,2.5570073730468748,9.543287817382812,9.879967235914034
1.370305894056205,-0.27293898925781246,2.8203695556640622,9.591171850585937,10.000977831684553
1.3727928376025864,-0.5746083984375,2.9448680419921875,9.576806640625,10.035818254044903
1.3752797811489679,-0.8571241943359375,3.1842882080078123,9.595960253906249,10.146763349498308
1.3777667246953493,-1.1540052001953125,3.303998291015625,9.600748657226562,10.218733164553697
1.3802536682417308,-1.4125789794921875,3.4620156005859375,9.634267480468749,10.334410543287955
1.3827406117881123,-1.62805712890625,3.6583401367187496,9.65342109375,10.450959830760391
1.385227555334494,-1.85790048828125,3.6822821533203123,9.648632690429688,10.493193454608821
1.3877144988808754,-1.9919757812499999,3.7205893798828122,9.634267480468749,10.518073147302266
1.3902014424272569,-2.1260510742187497,3.763685009765625,9.634267480468749,10.559570441459199
1.3926883859736383,-2.1978771240234374,3.7110125732421873,9.552864624023437,10.481388300029037
1.3951753295200198,-2.2553379638671873,3.6487633300781246,9.572018237304688,10.489211424386342
1.3976622730664012,-2.221819140625,3.5529952636718747,9.5384994140625,10.41840806982492
1.400149216612783,-2.0973206542968748,3.4715924072265625,9.562441430664062,10.387058962176635
1.4026361601591644,-1.9823989746093749,3.342305517578125,9.5384994140625,10.299703051031916
1.4051231037055458,-1.8626888916015625,3.1124621582031247,9.509768994140625,10.178051724915761
1.4076100472519273,-1.6615759521484375,2.935291235351562,9.442731347656249,10.027060615409667
1.4100969907983087,-1.4030021728515625,2.729389892578125,9.466673364257812,9.951677691137418
1.4125839343446902,-1.158793603515625,2.4851813232421875,9.394847314453125,9.786832219202882
1.4150708778910719,-0.8762778076171874,2.3032219970703123,9.404424121093749,9.721928173635149
1.4175578214374533,-0.5746083984375,2.1356278808593747,9.380482104492186,9.637661841430056
1.4200447649838348,-0.277727392578125,1.9201497314453124,9.375693701171874,9.574327123821899
1.4225317085302163,-0.0,1.7238251953125,9.375693701171874,9.532848770550602
1.4250186520765977,0.3064578125,1.608903515625,9.361328491210937,9.503523453634994
1.4275055956229792,0.5027823486328125,1.4700398193359374,9.332598071289063,9.461035562810146
1.4299925391693609,0.7613561279296874,1.35990654296875,9.361328491210937,9.49017808470963
1.4324794827157423,0.9145850341796874,1.3455413330078123,9.370905297851563,9.511088968403165
1.4349664262621238,1.0630255371093749,1.3072341064453123,9.3852705078125,9.535312622374562
1.4374533698085052,1.1013327636718748,1.2880804931640624,9.366116894531249,9.518205234981572
1.4399403133548867,1.158793603515625,1.3742717529296875,9.409212524414063,9.5793896358818
1.4424272569012682,1.13006318359375,1.446097802734375,9.370905297851563,9.548932283522054
1.4449142004476498,1.0534487304687499,1.5275006591796874,9.428366137695312,9.609219558213884
1.4474011439940313,0.9864110839843749,1.7190367919921874,9.433154541015625,9.639112973376426
1.4498880875404128,0.8571241943359375,1.8914193115234375,9.4618849609375,9.687073650516705
1.4523750310867942,0.612915625,1.9536685546875,9.528922607421874,9.746427675983625
1.4548619746331757,0.40222587890625,2.231395947265625,9.548076220703125,9.813596336078422
1.4573489181795571,0.16759411621093748,2.4851813232421875,9.591171850585937,9.909328507252768
1.4598358617259388,-0.12449848632812499,2.6288334228515624,9.567229833984374,9.922608111503756
1.4623228052723203,-0.411802685546875,2.877830395507812,9.586383447265625,10.017496535319623
1.4648097488187017,-0.718260498046875,3.0071172851562498,9.6151138671875,10.099953821118262
1.4672966923650832,-1.0007762939453124,3.265691064453125,9.629479077148437,10.21729703083019
1.4697836359114647,-1.2689268798828124,3.3710359375,9.634267480468749,10.28558061577582
1.4722705794578461,-1.4987702392578124,3.5242648437499997,9.6151138671875,10.349742489451536
1.4747575230042278,-1.7334020019531249,3.6487633300781246,9.624690673828125,10.438047082963939
1.4772444665506093,-1.8722656982421875,3.725377783203125,9.610325463867188,10.475789898325177
1.4797314100969907,-2.0733786376953125,3.754108203125,9.600748657226562,10.515065485067572
1.4822183536433722,-2.1595698974609374,3.744531396484375,9.595960253906249,10.524624017789193
1.4847052971897536,-2.2266075439453124,3.7205893798828122,9.576806640625,10.512649139031039
1.487192240736135,-2.2266075439453124,3.5721488769531247,9.548076220703125,10.434739492207179
1.4896791842825168,-2.1691467041015624,3.5434184570312497,9.552864624023437,10.417208566140108
1.4921661278288982,-2.0542250244140625,3.380612744140625,9.548076220703125,10.335092766546968
1.4946530713752797,-1.9393033447265624,3.2321722412109373,9.471461767578125,10.193940497884824
1.4971400149216612,-1.7621324218749999,3.1220389648437497,9.476250170898437,10.13171038234307
1.4996269584680426,-1.5705962890624998,2.85388837890625,9.476250170898437,10.020517396019315
1.5021139020144243,-1.2880804931640624,2.6671406494140624,9.476250170898437,9.928348699661958
1.5046008455608058,-1.024718310546875,2.370259643554687,9.437942944335937,9.78483241626419
1.5070877891071872,-0.7565677246093749,2.2457611572265623,9.423577734375,9.716977678940939
1.5095747326535687,-0.45489831542968745,2.0350714111328125,9.394847314453125,9.62349230724886
1.5120616761999501,-0.1580173095703125,1.8626888916015625,9.418789331054686,9.602508622219991
1.5145486197463316,0.13407529296874998,1.6807295654296874,9.361328491210937,9.511955591604272
1.5170355632927133,0.354341845703125,1.5275006591796874,9.318232861328125,9.449247592551801
1.5195225068390947,0.612915625,1.426944189453125,9.34696328125,9.47510199756282
1.5220094503854762,0.8188169677734375,1.4125789794921875,9.332598071289063,9.474345748401058
1.5244963939318577,0.9959878906249999,1.2976572998046874,9.414000927734374,9.555067755562579
1.5269833374782391,1.0726023437499999,1.3311761230468748,9.351751684570312,9.50672210744859
1.5294702810246206,1.1444283935546875,1.350329736328125,9.375693701171874,9.54131747312603
1.5319572245710023,1.1731588134765625,1.407790576171875,9.428366137695312,9.604804211145362
1.5344441681173837,1.1252747802734375,1.4604630126953124,9.442731347656249,9.621037929796373
1.5369311116637652,1.0342951171875,1.6136919189453125,9.457096557617186,9.649375280234578
1.5394180552101466,0.9050082275390624,1.7381904052734374,9.452308154296874,9.65331420915559
1.541904998756528,0.7709329345703124,1.9201497314453124,9.543287817382812,9.765022014628634
1.5443919423029095,0.49320554199218747,2.0781670410156248,9.457096557617186,9.695292943336487
1.5468788858492912,0.27293898925781246,2.3415292236328122,9.552864624023437,9.839434807035515
1.5493658293956727,0.0383072265625,2.5617957763671875,9.581595043945311,9.91822709104692
1.5518527729420541,-0.26336218261718747,2.7964275390625,9.605537060546874,10.007782413801747
1.5543397164884356,-0.565031591796875,2.925714428710937,9.643844287109374,10.093700919489738
1.556826660034817,-0.852335791015625,3.1268273681640624,9.648632690429688,10.178390761106318
1.5593136035811985,-1.120486376953125,3.31357509765625,9.65342109375,10.26760967616137
1.5618005471275802,-1.3646949462890625,3.447650390625,9.6151138671875,10.305294764895615
1.5642874906739617,-1.6424223388671875,3.5577836669921874,9.605537060546874,10.374088778387518
1.5667744342203431,-1.8339584716796873,3.6679169433593746,9.6151138671875,10.453106383186284
1.5692613777667246,-2.0254946044921875,3.7301661865234372,9.639055883789062,10.53224413421557
1.571748321313106,-2.1883003173828124,3.7014357666015623,9.629479077148437,10.545906898440482
1.5742352648594875,-2.2266075439453124,3.7014357666015623,9.624690673828125,10.549553471872901
1.5767222084058692,-2.2553379638671873,3.6439749267578123,9.586383447265625,10.500659512435805
1.5792091519522506,-2.221819140625,3.5625720703124997,9.533711010742186,10.417295507288113
1.581696095498632,8.1594392578125,-4.611232397460937,9.753977563476562,13.527009704074635
1.5841830390450136,6.89530078125,-4.309562988281249,9.888052856445311,12.80199575479256
1.586669982591395,5.57370146484375,-3.816357446289062,9.97903251953125,12.050386807190446
1.5891569261377765,4.1754876953124995,-3.208230224609375,10.041281762695311,11.338199949976214
1.5916438696841582,2.7964275390625,-2.5617957763671875,10.036493359375,10.729119420242203
1.5941308132305396,1.4221557861328125,-1.7573440185546874,10.065223779296874,10.315983462903779
1.596617756776921,0.16759411621093748,-1.01514150390625,10.050858569335936,10.103383494727655
1.5991047003233025,-0.928950244140625,-0.1197100830078125,10.022128149414062,10.065800102492618
1.601591643869684,-1.89620771484375,0.6464344482421874,10.012551342773437,10.211007079881067
1.6040785874160655,-2.70065947265625,1.4700398193359374,9.916783276367187,10.382541558217675
1.6065655309624471,-3.361459130859375,2.1116858642578125,9.897629663085937,10.664037585518102
1.6090524745088286,-3.840299462890625,2.7820623291015623,9.816226806640625,10.901654896716096
1.61153941805521,-4.13718046875,3.323151904296875,9.734823950195311,11.087217782263261
1.6140263616015915,-4.276044165039062,3.806780639648437,9.682151513671874,11.248119419416978
1.616513305147973,5.923254907226562,-3.84987626953125,9.8449572265625,12.117329688488656
1.6190002486943544,4.659116430664063,-3.0693665283203124,9.883264453125,11.349330070539896
1.6214871922407361,3.399766357421875,-2.24097275390625,9.993397729492187,10.791124517334946
1.6239741357871176,2.0973206542968748,-1.2928688964843749,9.988609326171874,10.287982318284024
1.626461079333499,0.852335791015625,-0.4070142822265625,9.9981861328125,10.04270197073212
1.6289480228798805,-0.2920926025390625,0.5219359619140624,9.955090502929687,9.973041770609308
1.631434966426262,-1.350329736328125,1.5275006591796874,9.993397729492187,10.19924736637101
1.6339219099726436,-2.3032219970703123,2.422932080078125,9.950302099609374,10.496853971831321
1.636408853519025,-3.1316157714843746,3.284844677734375,9.97903251953125,10.962586917462124
1.6388957970654066,-3.7924154296875,4.036623999023437,9.883264453125,11.32941588746869
1.641382740611788,-4.4005426513671875,4.639962817382812,9.811438403320311,11.711462509667417
1.6438696841581695,-4.778826513671874,5.224148022460938,9.797073193359374,12.087661004693862
1.646356627704551,-5.0948611328124995,5.607220288085937,9.730035546875,12.331752554491882
1.6488435712509326,-5.204994409179688,5.951985327148437,9.672574707031249,12.493069982885821
1.651330514797314,-5.224148022460938,6.133944653320312,9.643844287109374,12.566651590801404
1.6538174583436955,-5.085284326171875,6.191405493164062,9.576806640625,12.486346306694786
1.656304401890077,-4.84586416015625,6.229712719726562,9.514557397460937,12.361978907059678
1.6587913454364585,-4.61602080078125,6.057330200195312,9.442731347656249,12.131120001527202
1.66127828898284,-4.189852905273438,5.851428857421874,9.437942944335937,11.868818562175353
1.6637652325292216,-3.768473413085937,5.635950708007812,9.418789331054686,11.605124933020708
1.666252176075603,-3.2800562744140622,5.228936425781249,9.361328491210937,11.213162641669953
1.6687391196219845,-2.7724855224609373,4.817133740234374,9.337386474609374,10.866381164848672
1.671226063168366,-2.1978771240234374,4.405331054687499,9.313444458007812,10.534602661044982
1.6737130067147474,-1.656787548828125,3.9600095458984375,9.318232861328125,10.259438787940303
1.676199950261129,-1.149216796875,3.5051112304687497,9.3086560546875,10.012870793566051
1.6786868938075106,-0.679953271484375,3.0023288818359375,9.303867651367186,9.799911654717368
1.681173837353892,-0.16759411621093748,2.5234885498046875,9.323021264648437,9.659958993177499
1.6836607809002735,0.239420166015625,2.1068974609374997,9.327809667968749,9.565791766950142
1.686147724446655,0.63206923828125,1.6998831787109374,9.3086560546875,9.483680292360983
1.6886346679930364,0.9864110839843749,1.3646949462890625,9.313444458007812,9.46444117713405
1.6911216115394179,1.2976572998046874,0.9864110839843749,9.356540087890625,9.497460908613835
1.6936085550857995,1.5418658691406248,0.7661445312499999,9.337386474609374,9.494794046076152
1.696095498632181,1.7573440185546874,0.584185205078125,9.351751684570312,9.533351452833665
1.6985824421785625,1.8531120849609375,0.45010991210937495,9.361328491210937,9.553590657588645
1.701069385724944,1.9009961181640624,0.39264907226562495,9.380482104492186,9.579217298293429
1.7035563292713254,1.924938134765625,0.36391865234375,9.423577734375,9.625052775128399
1.7060432728177068,1.867477294921875,0.39264907226562495,9.442731347656249,9.633629640224383
1.7085302163640885,1.7669208251953124,0.5315127685546874,9.495403784179686,9.673014424173028
1.71101715991047,1.608903515625,0.63206923828125,9.481038574218749,9.63733233267359
1.7135041034568514,1.4173673828125,0.8379705810546875,9.495403784179686,9.637106309322721
1.715991047003233,1.1923124267578125,1.0630255371093749,9.490615380859374,9.624105803811194
1.7184779905496144,0.9624690673828125,1.3455413330078123,9.543287817382812,9.68561668402732
1.7209649340959958,0.622492431640625,1.618480322265625,9.533711010742186,9.690130082581849
1.7234518776423775,0.33039982910156246,1.915361328125,9.552864624023437,9.748589415359822
1.725938821188759,0.0430956298828125,2.1930887207031247,9.581595043945311,9.829468905101008
1.7284257647351404,-0.28730419921875,2.528276953125,9.6151138671875,9.94611194053099
1.7309127082815219,-0.5985504150390625,2.786850732421875,9.595960253906249,10.01035727627602
1.7333996518279033,-0.948103857421875,3.1220389648437497,9.6151138671875,10.153641854105464
1.7358865953742848,-1.2306196533203124,3.356670727539062,9.629479077148437,10.271734537141006
1.7383735389206665,-1.4987702392578124,3.6104561035156246,9.591171850585937,10.357233364802118
1.740860482467048,-1.8100164550781248,3.7110125732421873,9.236830004882812,10.11764806788211
1.7433474260134294,-1.9584569580078124,3.9312791259765625,9.696516723632811,10.644855367472076
1.7458343695598109,-2.1308394775390624,4.012681982421875,9.624690673828125,10.64315574150666
1.7483213131061923,-2.250549560546875,4.074931225585937,9.624690673828125,10.691338007219073
1.7508082566525738,-2.365471240234375,4.065354418945312,9.576806640625,10.669479189348149
1.7532952001989555,-2.389413256835937,4.094084838867187,9.634267480468749,10.73731513298381
1.755782143745337,-2.422932080078125,4.007893579101562,9.595960253906249,10.677839856479574
1.7582690872917184,-2.360682836914062,3.912125512695312,9.528922607421874,10.567777228055949
1.7607560308380998,-2.2553379638671873,3.7397429931640622,9.519345800781249,10.473307570248851
1.7632429743844813,-2.1356278808593747,3.5769372802734374,9.495403784179686,10.369092524282332
1.765729917930863,-1.9536685546875,3.361459130859375,9.548076220703125,10.309315584769392
1.7682168614772444,-1.7381904052734374,3.1699229980468746,9.4618849609375,10.129016966741954
1.770703805023626,-1.4987702392578124,2.9640216552734375,9.433154541015625,10.00080702732027
1.7731907485700074,-1.2114660400390624,2.710236279296875,9.457096557617186,9.912098968224628
1.7756776921163888,-0.967257470703125,2.422932080078125,9.418789331054686,9.77342208963126
1.7781646356627703,-0.6368576416015624,2.212242333984375,9.418789331054686,9.696040236237085
1.780651579209152,-0.316034619140625,2.01112939453125,9.3852705078125,9.603531737171387
1.7831385227555334,-0.08140285644531249,1.8148048583984373,9.34696328125,9.52186251109203
1.7856254663019149,0.2059013427734375,1.5227122558593749,9.390058911132812,9.514948992592917
1.7881124098482963,0.47884033203125,1.43652099609375,9.394847314453125,9.51609356289045
1.7905993533946778,0.70868369140625,1.3455413330078123,9.375693701171874,9.498228594400725
1.7930862969410593,0.9145850341796874,1.254561669921875,9.303867651367186,9.432515255356833
1.795573240487441,1.024718310546875,1.22583125,9.351751684570312,9.487252997538869
1.7980601840338224,1.139639990234375,1.13006318359375,9.337386474609374,9.474313077077067
1.8005471275802039,1.20667763671875,1.1635820068359375,9.399635717773437,9.547939339586929
1.8030340711265853,1.2114660400390624,1.2497732666015624,9.409212524414063,9.568848599161255
1.8055210146729668,1.2018892333984375,1.35990654296875,9.428366137695312,9.60145674163082
1.8080079582193482,1.1109095703125,1.4796166259765624,9.452308154296874,9.631693250777111
1.81049490176573,0.9720458740234375,1.6519991455078125,9.471461767578125,9.663465339755644
1.8129818453121114,0.7805097412109374,1.7764976318359373,9.509768994140625,9.705712009634443
1.8154687888584928,0.59376201171875,2.001552587890625,9.5384994140625,9.76430935400567
1.8179557324048743,0.3591302490234375,2.2553379638671873,9.576806640625,9.845341502403222
1.8204426759512558,0.11013327636718749,2.422932080078125,9.591171850585937,9.893093887692926
1.8229296194976372,-0.19153613281249998,2.6815058593749996,9.600748657226562,9.97003182258075
1.825416563044019,-0.44532150878906246,2.925714428710937,9.591171850585937,10.037364874907636
1.8279035065904004,-0.7661445312499999,3.0837317382812497,9.619902270507811,10.131085754773213
1.8303904501367818,-1.0582371337890624,3.265691064453125,9.629479077148437,10.223085212254595
1.8328773936831633,-1.3407529296874998,3.4668040039062498,9.6151138671875,10.308577161710891
1.8353643372295447,-1.5849614990234373,3.6008792968749996,9.634267480468749,10.406610617740402
1.8378512807759262,-1.7812860351562498,3.6679169433593746,9.634267480468749,10.461630108527213
1.8403382243223079,-1.9680337646484374,3.73495458984375,9.629479077148437,10.514271728666266
1.8428251678686893,-2.1212626708984375,3.801992236328125,9.648632690429688,10.585415111315896
1.8453121114150708,-2.221819140625,3.782838623046875,9.629479077148437,10.581739726477036
1.8477990549614522,-2.2649147705078123,3.7205893798828122,9.586383447265625,10.52954756147526
1.8502859985078337,-2.269703173828125,3.67749375,9.595960253906249,10.524161057923953
1.8527729420542152,-2.2170307373046874,3.5817256835937497,9.586383447265625,10.471042534565374
1.8552598856005968,-2.0733786376953125,3.418919970703125,9.552864624023437,10.355922714381485
1.8577468291469783,-1.944091748046875,3.246537451171875,9.562441430664062,10.28395761667492
1.8602337726933598,-1.7956512451171873,3.0693665283203124,9.442731347656249,10.090121385953392
1.8627207162397412,-1.5418658691406248,2.882618798828125,9.490615380859374,10.037859423461887
1.8652076597861227,-1.24498486328125,2.7150246826171873,9.471461767578125,9.931260461377203
1.8676946033325041,-1.0342951171875,2.480392919921875,9.414000927734374,9.79007297695069
1.8701815468788858,-0.7517793212890624,2.2361843505859373,9.414000927734374,9.70510721553899
1.8726684904252673,-0.43574470214843747,2.039859814453125,9.390058911132812,9.618945257283457
1.8751554339716487,-0.086191259765625,1.886630908203125,9.399635717773437,9.587489595503586
1.8776423775180302,0.0909796630859375,1.6807295654296874,9.390058911132812,9.539724080168641
1.8801293210644117,0.38786066894531246,1.5897499023437498,9.366116894531249,9.507990656944314
1.8826162646107931,0.6272808349609375,1.4508862060546874,9.299079248046874,9.43246663870512
1.8851032081571748,0.7996633544921875,1.3359645263671873,9.318232861328125,9.44741903136325
1.8875901517035563,0.9241618408203125,1.235408056640625,9.327809667968749,9.454540780825488
1.8900770952499377,1.0726023437499999,1.235408056640625,9.390058911132812,9.531522187393536
1.8925640387963192,1.1731588134765625,1.2689268798828124,9.3852705078125,9.543048754614112
1.8950509823427006,1.197100830078125,1.3551181396484375,9.380482104492186,9.553158644264009
1.897537925889082,1.1923124267578125,1.465251416015625,9.485826977539062,9.67209822545991
1.9000248694354638,1.0534487304687499,1.5514426757812498,9.476250170898437,9.66002307996281
1.9025118129818452,0.967257470703125,1.7429788085937499,9.471461767578125,9.678953980494589
1.9049987565282267,0.8044517578125,1.915361328125,9.457096557617186,9.682583691764261
1.9074857000746082,0.5698199951171875,2.0446482177734375,9.533711010742186,9.767135035291886
1.9099726436209896,0.3064578125,2.308010400390625,9.543287817382812,9.82319554750697
1.9124595871673713,0.1005564697265625,2.528276953125,9.610325463867188,9.937839376683494
1.9149465307137528,-0.2154781494140625,2.73896669921875,9.576806640625,9.963111704895377
1.9174334742601342,-0.4740519287109375,2.882618798828125,9.581595043945311,10.017044472129951
1.9199204178065157,-0.82360537109375,3.0741549316406247,9.605537060546874,10.119046228403365
1.9224073613528971,-1.1061211669921875,3.23696064453125,9.567229833984374,10.160379173367154
1.9248943048992786,-1.35990654296875,3.4332851806640625,9.643844287109374,10.326689962005677
1.9273812484456603,-1.608903515625,3.5386300537109374,9.639055883789062,10.393357085678588
1.9298681919920417,-1.8626888916015625,3.6535517333984373,9.619902270507811,10.457560416733719
1.9323551355384232,-1.9919757812499999,3.706224169921875,9.629479077148437,10.508612296970478
1.9348420790848047,-2.0925322509765625,3.73495458984375,9.605537060546874,10.51641189908
1.9373290226311861,-2.221819140625,3.7301661865234372,9.572018237304688,10.510668542391771
1.9398159661775676,-2.221819140625,3.6918589599609373,9.543287817382812,10.470942901157406
1.9423029097239493,-2.231395947265625,3.5913024902343746,9.548076220703125,10.442334076545988
1.9447898532703307,-2.1643583007812497,3.4907460205078125,9.5001921875,10.350043779293296
1.9472767968167122,-2.059013427734375,3.366247534179687,9.519345800781249,10.304809713517901
1.9497637403630936,-1.93451494140625,3.1507693847656246,9.452308154296874,10.149671187693105
1.952250683909475,-1.7669208251953124,2.96881005859375,9.490615380859374,10.09988230990445
1.9547376274558566,-1.4700398193359374,2.8012159423828122,9.423577734375,9.940404676978757
1.9572245710022382,-1.2306196533203124,2.6144682128906247,9.442731347656249,9.874970585848025
1.9597115145486197,-0.9576806640625,2.39420166015625,9.380482104492186,9.728453029979242
1.9621984580950012,-0.6272808349609375,2.1739351074218747,9.414000927734374,9.682091125607851
1.9646854016413826,-0.373495458984375,1.9680337646484374,9.3852705078125,9.596663913125923
1.967172345187764,-0.06703764648437499,1.8148048583984373,9.34696328125,9.521750537645298
1.9696592887341455,0.22505495605468748,1.68551796875,9.366116894531249,9.51923138904857
1.9721462322805272,0.430956298828125,1.4987702392578124,9.380482104492186,9.509231308275275
1.9746331758269087,0.6703764648437499,1.3934253662109375,9.370905297851563,9.49762628013542
1.9771201193732901,0.8379705810546875,1.3551181396484375,9.342174877929686,9.477065543560302
1.9796070629196716,0.9720458740234375,1.3168109130859373,9.342174877929686,9.484466016168161
1.982094006466053,1.0965443603515623,1.2737152832031249,9.375693701171874,9.52514527632403
1.9845809500124345,10.510545288085936,-6.469132885742187,9.720458740234374,15.710141968387662
1.9870678935588162,9.083601098632812,-5.793968017578124,9.868899243164062,14.61085372521146
1.9895548371051976,7.4411787597656245,-4.946420629882812,9.945513696289062,13.36979659776433
1.992041780651579,5.7317187744140625,-3.9695863525390624,10.05564697265625,12.236267893353995
1.9945287241979606,4.007893579101562,-2.829946362304687,10.156203442382813,11.27919659009424
1.997015667744342,2.2744915771484373,-1.6424223388671875,10.17056865234375,10.550418464959886
1.9995026112907235,0.603338818359375,-0.39743747558593745,10.141838232421874,10.167539378303555
2.001989554837105,-0.4261678955078125,2.5426421630859375,11.793837377929687,12.072334005556476
2.0044764983834864,-0.5027823486328125,2.4516625,11.305420239257812,11.579117664581492
2.006963441929868,-0.5458779785156249,2.365471240234375,10.711658227539061,10.9833081965048
2.0094503854762498,-0.6368576416015624,2.3319524169921872,10.012551342773437,10.300231750910081
2.011937329022631,-0.6607996582031249,2.3319524169921872,9.265560424804686,9.57733095643582
2.0144242725690127,-0.7038952880859375,2.3223756103515623,8.508992700195313,8.848268408232341
2.016911216115394,-0.7757213378906249,2.250549560546875,7.81467421875,8.16920131125023
2.0193981596617756,-0.718260498046875,2.2649147705078123,7.283161450195312,7.660951492492958
2.021885103208157,-0.7422025146484375,2.365471240234375,6.885723974609375,7.318436541751028
2.0243720467545385,-0.7326257080078125,2.346317626953125,6.775590698242187,7.207674808472628
2.02685899030092,-0.7230489013671875,2.422932080078125,6.751648681640624,7.209588025590615
2.0293459338473014,-0.6560112548828124,2.4660277099609376,6.976703637695312,7.428730516115059
2.031832877393683,-0.6177040283203125,2.5426421630859375,7.445967163085937,7.892338970790568
2.0343198209400644,-0.5315127685546874,2.6431986328124997,8.030152368164062,8.470675999680866
2.036806764486446,-0.49320554199218747,2.6767174560546874,8.700528833007812,9.116318885394476
2.0392937080328277,-0.4213794921875,2.6862942626953124,9.433154541015625,9.817236990972035
2.041780651579209,-0.36391865234375,2.7533319091796873,10.20887587890625,10.579906431464535
2.0442675951255906,-0.26815058593749996,2.7246014892578123,10.93671318359375,11.274176389971812
2.046754538671972,-0.33518823242187495,2.6910826660156246,11.592724438476562,11.905693468796162
2.0492414822183536,-0.33039982910156246,2.7198130859375,11.947066284179687,12.25719951979612
2.0517284257647352,-0.3447650390625,2.6815058593749996,12.272677709960936,12.566938958178886
2.0542153693111165,-0.3399766357421875,2.6288334228515624,12.27746611328125,12.560355227489445
2.056702312857498,-0.373495458984375,2.518700146484375,12.08592998046875,12.351236892658797
2.0591892564038794,-0.45010991210937495,2.528276953125,11.774683764648437,12.051471322712327
2.061676199950261,-0.5219359619140624,2.403778466796875,11.176133349609374,11.443623757972224
2.0641631434966423,-0.6368576416015624,2.35589443359375,10.505756884765624,10.785488118750335
2.066650087043024,-0.6703764648437499,2.2744915771484373,9.725247143554688,10.010152273684662
2.0691370305894057,-0.737414111328125,2.2266075439453124,8.911218579101561,9.214736962651992
2.071623974135787,-0.7757213378906249,2.2936451904296873,8.21690009765625,8.566212644366432
2.0741109176821686,-0.8092401611328125,2.288856787109375,7.580042456054687,7.959320238932373
2.07659786122855,-0.7709329345703124,2.35589443359375,7.077260107421875,7.498812359297191
2.0790848047749315,-0.7805097412109374,2.398990063476562,6.742071875,7.198602777515263
2.081571748321313,-0.7230489013671875,2.360682836914062,6.60799658203125,7.054164868955474
2.0840586918676944,-0.718260498046875,2.39420166015625,6.713341455078124,7.16359220119487
2.086545635414076,-0.6177040283203125,2.5378537597656248,7.077260107421875,7.543863108558157
2.0890325789604574,-0.5698199951171875,2.5570073730468748,7.594407666015624,8.033555211130892
2.091519522506839,-0.469263525390625,2.70065947265625,8.279149340820313,8.721128576687503
2.0940064660532203,-0.38786066894531246,2.7820623291015623,9.05965908203125,9.485132017223165
2.096493409599602,-0.373495458984375,2.729389892578125,9.787496386718749,10.167799838884621
2.0989803531459836,-0.33518823242187495,2.748543505859375,10.55364091796875,10.910828528584808
2.101467296692365,-0.3399766357421875,2.7916391357421872,11.276689819335937,11.622072382263532
2.1039542402387466,-0.32082302246093747,2.7629087158203123,11.851298217773437,12.173325816320562
2.106441183785128,-0.3112462158203125,2.7150246826171873,12.234370483398436,12.535870706063218
2.1089281273315095,-0.2920926025390625,2.70065947265625,12.401964599609375,12.69596808461923
2.111415070877891,-0.411802685546875,2.5665841796874997,12.310984936523436,12.582419716038435
2.1139020144242724,-0.45489831542968745,2.4660277099609376,12.004527124023436,12.263641246183385
2.116388957970654,-0.5123591552734374,2.418143676757812,11.5304751953125,11.792446267639006
2.1188759015170353,-0.5793968017578125,2.398990063476562,10.888829150390624,11.165010266226496
2.121362845063417,-0.622492431640625,2.3319524169921872,10.1131078125,10.397136554350629
2.1238497886097982,-0.6943184814453125,2.2649147705078123,9.366116894531249,9.661059090667269
2.12633673215618,-0.7613561279296874,2.2649147705078123,8.532934716796875,8.861178079257742
2.1288236757025616,-0.814028564453125,2.29843359375,7.790732202148437,8.163390700818919
2.131310619248943,-0.8092401611328125,2.31758720703125,7.230489013671875,7.635839932673736
2.1337975627953245,-0.7900865478515624,2.2936451904296873,6.8569935546875,7.273472734650427
2.1362845063417057,-0.7278373046875,2.370259643554687,6.603208178710937,7.053384731556458
2.1387714498880874,-0.7230489013671875,2.4660277099609376,6.641515405273437,7.121363581404047
2.141258393434469,-0.6416460449218749,2.528276953125,6.842628344726562,7.32294043828859
2.1437453369808503,-0.5793968017578125,2.6240450195312497,7.326257080078125,7.80354763692827
2.146232280527232,-0.488417138671875,2.6527754394531247,7.924807495117187,8.37128082602535
2.1487192240736133,-0.4261678955078125,2.73896669921875,8.671798413085938,9.104045549742741
2.151206167619995,-0.3591302490234375,2.7629087158203123,9.504980590820312,9.904912677030037
2.153693111166376,-0.316034619140625,2.7533319091796873,10.242394702148436,10.610719283686699
2.156180054712758,-0.3016694091796875,2.73896669921875,10.998962426757812,11.338876376303524
2.1586669982591395,-0.26815058593749996,2.7437551025390623,11.688492504882811,12.009202880963807
2.161153941805521,-0.27293898925781246,2.7198130859375,12.143390820312499,12.447241442550386
2.1636408853519025,-0.3112462158203125,2.6527754394531247,12.363657373046875,12.648878028391472
2.1661278288982837,-0.3687070556640625,2.6001030029296874,12.411541406249999,12.68632494451402
2.1686147724446654,-0.45489831542968745,2.50912333984375,12.157756030273436,12.422305104270283
2.171101715991047,-0.47884033203125,2.427720483398437,11.784260571289062,12.041258739065867
2.1735886595374283,-0.5219359619140624,2.418143676757812,11.190498559570312,11.46067598362017
2.17607560308381,-0.6081272216796875,2.3367408203125,10.47702646484375,10.751663123633428
2.178562546630191,-0.7038952880859375,2.3511060302734372,9.648632690429688,9.955866659262073
2.181049490176573,-0.7900865478515624,2.2649147705078123,8.872911352539061,9.191443387236687
2.1835364337229546,-0.7996633544921875,2.2553379638671873,8.058882788085937,8.406640387448844
2.186023377269336,-0.7852981445312499,2.2649147705078123,7.4603323730468745,7.836012455949766
2.1885103208157175,-0.7661445312499999,2.31758720703125,6.9336080078124995,7.350721591174625
2.1909972643620987,-0.7661445312499999,2.379836450195312,6.6319385986328125,7.087538962748512
2.1934842079084804,-0.7038952880859375,2.437297290039062,6.5601125488281244,7.033559789318178
2.1959711514548617,-0.63206923828125,2.5426421630859375,6.7037646484375,7.197569114160984
2.1984580950012433,-0.5793968017578125,2.5809493896484375,7.096413720703125,7.573380229540663
2.200945038547625,-0.55545478515625,2.6384102294921874,7.685387329101562,8.144625034693545
2.2034319820940063,-0.44053310546874996,2.729389892578125,8.37012900390625,8.814913394058628
2.205918925640388,-0.39743747558593745,2.786850732421875,9.165003955078124,9.58758525638224
2.208405869186769,-0.3112462158203125,2.7916391357421872,10.046070166015625,10.431378099349052
2.210892812733151,-0.2825157958984375,2.7724855224609373,10.769119067382812,11.123866982064092
2.2133797562795325,-0.32082302246093747,2.7820623291015623,11.420341918945311,11.758699237601345
2.2158666998259138,-0.2825157958984375,2.7150246826171873,11.990161914062499,12.296957222320795
2.2183536433722955,-0.32082302246093747,2.6527754394531247,12.349292163085936,12.635076646904931
2.2208405869186767,-0.3016694091796875,2.5953145996093747,12.43069501953125,12.70231636245844
2.2233275304650584,-0.40222587890625,2.5570073730468748,12.320561743164061,12.589531922617132
2.2258144740114396,-0.4836287353515625,2.4660277099609376,11.966219897460936,12.227248588883068
2.2283014175578213,-0.5363011718749999,2.4133552734375,11.525686791992188,11.7878479227502
2.230788361104203,-0.6368576416015624,2.3223756103515623,10.831368310546875,11.095835056900457
2.233275304650584,-0.7278373046875,2.2744915771484373,10.007762939453125,10.28875007612224
2.235762248196966,-0.7661445312499999,2.2170307373046874,9.17458076171875,9.469695606840688
2.238249191743347,-0.7661445312499999,2.2553379638671873,8.389282617187499,8.72087092010134
2.240736135289729,-0.814028564453125,2.2553379638671873,7.68059892578125,8.04616627305938
2.2432230788361105,-0.8044517578125,2.308010400390625,7.096413720703125,7.505540775609875
2.2457100223824917,-0.8092401611328125,2.3367408203125,6.7037646484375,7.14532628795532
2.2481969659288734,-0.7565677246093749,2.403778466796875,6.49307490234375,6.964952787119468
2.2506839094752547,-0.7134720947265625,2.446874096679687,6.584054565429687,7.06017066334172
2.2531708530216363,-0.622492431640625,2.5665841796874997,6.919242797851562,7.406130708709693
2.2556577965680176,-0.5410895751953124,2.6431986328124997,7.378929516601562,7.856709091716497
2.2581447401143993,-0.4740519287109375,2.710236279296875,8.068459594726562,8.52467865391222
2.260631683660781,-0.38307226562499996,2.7246014892578123,8.839392529296875,9.257702626621054
2.263118627207162,-0.3399766357421875,2.8107927490234372,9.696516723632811,10.101414582250552
2.265605570753544,-0.316034619140625,2.7581203125,10.448296044921875,10.810827710265785
2.268092514299925,-0.27293898925781246,2.77727392578125,11.2240173828125,11.565738729556303
2.2705794578463068,-0.27293898925781246,2.73896669921875,11.765106958007811,12.082804972548805
2.2730664013926885,-0.3016694091796875,2.7054478759765623,12.23915888671875,12.538240023879245
2.2755533449390697,-0.296881005859375,2.6431986328124997,12.473790649414061,12.754218537783943
2.2780402884854514,-0.4070142822265625,2.5713725830078125,12.411541406249999,12.681639391878278
2.2805272320318326,-0.45010991210937495,2.4947581298828125,12.157756030273436,12.419237043846357
2.2830141755782143,-0.507570751953125,2.4133552734375,11.688492504882811,11.94582641681891
2.2855011191245955,-0.5698199951171875,2.3511060302734372,11.085153686523437,11.3460577579293
2.287988062670977,-0.6464344482421874,2.3127988037109373,10.280701928710936,10.557449879081675
2.290475006217359,-0.70868369140625,2.2170307373046874,9.504980590820312,9.785811867008777
2.29296194976374,-0.7326257080078125,2.3223756103515623,8.710105639648438,9.044120142801358
2.295448893310122,-0.7900865478515624,2.2361843505859373,7.8721350585937495,8.221634118813745
2.297935836856503,-0.82360537109375,2.2649147705078123,7.287949853515625,7.676091309534908
2.3004227804028847,-0.814028564453125,2.288856787109375,6.7803791015625,7.202433523230031
2.3029097239492664,-0.7757213378906249,2.360682836914062,6.56968935546875,7.023915238520383
2.3053966674956476,-0.7134720947265625,2.446874096679687,6.5601125488281244,7.037848529788615
2.3078836110420293,-0.603338818359375,2.518700146484375,6.737283471679687,7.21795377758877
2.3103705545884106,-0.59376201171875,2.5857377929687497,7.168239770507812,7.643445209330482
2.3128574981347922,-0.49320554199218747,2.7150246826171873,7.800309008789062,8.274021474861433
2.315344441681174,-0.39743747558593745,2.7629087158203123,8.556876733398436,9.000653340148784
2.317831385227555,-0.373495458984375,2.77727392578125,9.337386474609374,9.748822261838834
2.320318328773937,-0.32561142578124996,2.806004345703125,10.184933862304687,10.569416302153341
2.322805272320318,-0.3016694091796875,2.825157958984375,10.979808813476561,11.34146037801769
2.3252922158666998,-0.2825157958984375,2.7629087158203123,11.654973681640625,11.981314254564213
2.327779159413081,-0.2920926025390625,2.710236279296875,12.157756030273436,12.45960394513907
2.3302661029594627,-0.3112462158203125,2.6815058593749996,12.454637036132812,12.74383504218946
2.3327530465058444,-0.3447650390625,2.5953145996093747,12.454637036132812,12.726841890465854
2.3352399900522256,-0.4165910888671875,2.4851813232421875,12.27746611328125,12.533389346361371
2.3377269335986073,-0.4836287353515625,2.461239306640625,11.89439384765625,12.155994434079568
2.3402138771449885,-0.5458779785156249,2.389413256835937,11.348515869140625,11.610171872608442
2.34270082069137,-0.6512228515624999,2.3127988037109373,10.548852514648438,10.819030404091146
2.345187764237752,-0.70868369140625,2.2744915771484373,9.744400756835937,10.031395247861045
2.347674707784133,-0.7565677246093749,2.2553379638671873,8.911218579101561,9.223272771511533
2.350161651330515,-0.7996633544921875,2.231395947265625,8.12113203125,8.459986691655365
2.352648594876896,-0.852335791015625,2.2361843505859373,7.455543969726562,7.830206423522804
2.3551355384232777,-0.7948749511718749,2.3127988037109373,6.9336080078124995,7.352263903074267
2.357622481969659,-0.7517793212890624,2.346317626953125,6.593631372070312,7.0389170491787025
2.3601094255160406,-0.74699091796875,2.4133552734375,6.512228515625,6.985084061561162
2.3625963690624223,-0.7134720947265625,2.4947581298828125,6.6271501953125,7.117020462792024
2.3650833126088036,-0.612915625,2.5953145996093747,7.034164477539062,7.522685247395845
2.3675702561551852,-0.5219359619140624,2.6240450195312497,7.570465649414062,8.029319993736966
2.3700571997015665,-0.44053310546874996,2.729389892578125,8.33182177734375,8.778547301925366
2.372544143247948,-0.38786066894531246,2.748543505859375,9.102754711914063,9.516568217975959
2.37503108679433,-0.316034619140625,2.8012159423828122,9.90241806640625,10.295852184168336
2.377518030340711,-0.3447650390625,2.748543505859375,10.730811840820312,11.082584405221146
2.3800049738870928,-0.277727392578125,2.748543505859375,11.449072338867186,11.777643284155099
2.382491917433474,-0.27293898925781246,2.748543505859375,12.004527124023436,12.31818406125161
2.3849788609798557,-0.2537853759765625,2.6623522460937497,12.339715356445312,12.626206935474812
2.387465804526237,-0.3447650390625,2.6048914062499997,12.478579052734375,12.752225584024774
2.3899527480726186,-0.4070142822265625,2.5761609863281247,12.373234179687499,12.645125152358219
2.3924396916190003,-0.47884033203125,2.480392919921875,12.081141577148436,12.342431644853576
2.3949266351653815,-0.5889736083984375,2.418143676757812,11.501744775390625,11.76794126561903
2.397413578711763,-0.603338818359375,2.327164013671875,10.855310327148437,11.118339461221904
2.3999005222581444,-0.6847416748046875,2.327164013671875,10.036493359375,10.325490906514913
2.402387465804526,-0.7900865478515624,2.2266075439453124,9.188945971679686,9.487820928869732
2.404874409350908,-0.8044517578125,2.2361843505859373,8.374917407226562,8.705567451827568
2.407361352897289,-0.8092401611328125,2.2266075439453124,7.671022119140624,8.028526087987082
2.4098482964436707,-0.8044517578125,2.2744915771484373,7.062894897460937,7.463574136949839
2.412335239990052,-0.7996633544921875,2.346317626953125,6.737283471679687,7.178833920967732
2.4148221835364336,-0.7326257080078125,2.403778466796875,6.56968935546875,7.033897182418128
2.417309127082815,-0.679953271484375,2.50912333984375,6.598419775390624,7.092050473467953
2.4197960706291965,-0.6560112548828124,2.528276953125,6.89530078125,7.373446140180507
2.4222830141755782,-0.5698199951171875,2.6240450195312497,7.3549875,7.829824277499359
2.4247699577219595,-0.4836287353515625,2.70065947265625,8.044517578125,8.499513009912262
2.427256901268341,-0.45489831542968745,2.7054478759765623,8.762778076171875,9.182192564918541
2.4297438448147224,-0.38786066894531246,2.73896669921875,9.6151138671875,10.005138137823252
2.432230788361104,-0.2920926025390625,2.7964275390625,10.433930834960936,10.806120383302872
2.4347177319074857,-0.26815058593749996,2.7916391357421872,11.195286962890624,11.54121328034513
2.437204675453867,-0.296881005859375,2.7198130859375,11.784260571289062,12.097698903763266
2.4396916190002487,-0.316034619140625,2.6958710693359373,12.23915888671875,12.536530977799416
2.44217856254663,-0.32561142578124996,2.6048914062499997,12.411541406249999,12.686127940313884
2.4446655060930116,-0.4070142822265625,2.5857377929687497,12.401964599609375,12.675189406469926
2.4471524496393933,-0.45968671875,2.5043349365234375,12.176909643554687,12.440262610611647
2.4496393931857745,-0.4836287353515625,2.4133552734375,11.707646118164062,11.963576307177064
2.452126336732156,-0.603338818359375,2.3367408203125,11.056423266601563,11.316751779609836
2.4546132802785374,-0.6607996582031249,2.27927998046875,10.290278735351562,10.560379248344992
2.457100223824919,-0.7517793212890624,2.1978771240234374,9.481038574218749,9.76145114447884
2.4595871673713003,-0.7565677246093749,2.2553379638671873,8.633491186523438,8.95522831205096
2.462074110917682,-0.8092401611328125,2.269703173828125,7.9295958984374995,8.287636167701411
2.4645610544640637,-0.7948749511718749,2.2840683837890623,7.254431030273437,7.6469316815844115
2.467047998010445,-0.7948749511718749,2.3319524169921872,6.828263134765624,7.2591325721959
2.4695349415568266,-0.7852981445312499,2.418143676757812,6.56968935546875,7.0444964507484436
2.472021885103208,-0.718260498046875,2.418143676757812,6.49307490234375,6.9658695560529
2.4745088286495895,-0.6607996582031249,2.5330653564453125,6.7803791015625,7.268192144488909
2.4769957721959712,-0.603338818359375,2.6048914062499997,7.235277416992187,7.713541097896059
2.4794827157423525,-0.488417138671875,2.6575638427734374,7.809885815429687,8.264109953879787
2.481969659288734,-0.4261678955078125,2.7198130859375,8.542511523437499,8.97516046796161
2.4844566028351154,-0.4070142822265625,2.7964275390625,9.337386474609374,9.755637026016375
2.486943546381497,-0.2920926025390625,2.7964275390625,10.204087475585936,10.584362346362438
2.4894304899278783,-0.2537853759765625,2.767697119140625,10.9941740234375,11.340036014845225
2.49191743347426,-0.2825157958984375,2.7820623291015623,11.631031665039062,11.962465614206776
2.4944043770206417,-0.277727392578125,2.7198130859375,12.143390820312499,12.447347361662041
2.496891320567023,-0.3064578125,2.6671406494140624,12.397176196289061,12.684539143241873
2.4993782641134046,-0.373495458984375,2.5617957763671875,12.445060229492187,12.711483806911875
2.501865207659786,-0.430956298828125,2.5234885498046875,12.272677709960936,12.536839153672947
2.5043521512061675,-0.49320554199218747,2.461239306640625,11.860875024414062,12.123584741155312
2.506839094752549,-0.55545478515625,2.346317626953125,11.319785449218749,11.573732286572401
2.5093260382989304,-0.6560112548828124,2.31758720703125,10.606313354492187,10.876370911402717
2.511812981845312,-0.7517793212890624,2.2553379638671873,9.730035546875,10.016252454018394
2.5142999253916933,-0.737414111328125,2.2649147705078123,8.939948999023438,9.251827203011871
2.516786868938075,-0.8092401611328125,2.2744915771484373,8.169016064453125,8.518274768649029
2.5192738124844563,-0.7852981445312499,2.24097275390625,7.48906279296875,7.85650772141053
2.521760756030838,-0.8092401611328125,2.3127988037109373,6.957550024414062,7.376409037401676
2.5242476995772196,-0.7948749511718749,2.31758720703125,6.622361791992187,7.061070198931135
2.526734643123601,-0.737414111328125,2.442085693359375,6.512228515625,6.994046206954582
2.5292215866699825,-0.6847416748046875,2.5234885498046875,6.636727001953124,7.133232851986777
2.5317085302163638,-0.6272808349609375,2.528276953125,7.005434057617187,7.474073316019527
2.5341954737627455,-0.5219359619140624,2.6767174560546874,7.575254052734374,8.051192921012115
2.536682417309127,-0.44053310546874996,2.7246014892578123,8.29351455078125,8.740703993174701
2.5391693608555084,-0.411802685546875,2.7533319091796873,9.04050546875,9.459448038042671
2.54165630440189,-0.354341845703125,2.7916391357421872,9.878476049804688,10.271470015260158
2.5441432479482713,-0.2920926025390625,2.8107927490234372,10.726023437499999,11.092044570241326
2.546630191494653,-0.27293898925781246,2.825157958984375,11.463437548828125,11.809589900625356
2.549117135041034,-0.258573779296875,2.7629087158203123,11.990161914062499,12.307091764374336
2.551604078587416,1.3455413330078123,4.074931225585937,10.587159741210938,11.423812732971658
2.5540910221337976,1.005564697265625,3.5625720703124997,16.227898852539063,16.644752364778405
2.556577965680179,0.5602431884765625,3.0262708984374997,20.944476123046872,21.169394607542387
2.5590649092265605,0.062249243164062495,2.461239306640625,24.497471386718747,24.620878908680965
2.5615518527729417,-0.469263525390625,1.915361328125,26.752809350585935,26.825391430924864
2.5640387963193234,-0.9576806640625,1.4987702392578124,27.485435058593747,27.54292295390194
2.566525739865705,-1.4317325927734375,1.149216796875,26.72407893066406,26.787066882280936
2.5690126834120863,-1.8004396484374998,0.9002198242187499,24.746468359374997,24.828203215720826
2.571499626958468,-2.059013427734375,0.82360537109375,21.57175695800781,21.685445818756953
2.5739865705048492,-2.1978771240234374,0.8714894042968749,17.573440185546875,17.731778184635093
2.576473514051231,-2.1595698974609374,0.9959878906249999,13.077129467773437,13.291615745920414
2.5789604575976126,-2.01112939453125,1.2976572998046874,8.643067993164061,8.968343227360394
2.581447401143994,-1.7956512451171873,1.656787548828125,4.429273071289062,5.058435362450453
2.5839343446903755,-1.4891934326171874,2.01112939453125,0.8283937744140625,2.636014940546766
2.5864212882367568,-1.1156979736328125,2.4756045166015626,-1.8914193115234375,3.309209377327191
2.5889082317831384,-0.679953271484375,2.916137622070312,-3.5338416503906247,4.631871316465056
2.5913951753295197,-0.32561142578124996,3.2321722412109373,-4.132392065429687,5.256388910638183
2.5938821188759014,0.05746083984375,3.5673604736328124,-3.5673604736328124,5.045336782197101
2.596369062422283,0.3447650390625,3.763685009765625,-1.9728221679687499,4.263357255886863
2.5988560059686643,0.5746083984375,3.859453076171875,0.45010991210937495,3.927868606726371
2.601342949515046,0.6751648681640625,3.859453076171875,3.5194764404296874,5.266682073290087
2.603829893061427,0.7038952880859375,3.749319799804687,6.866570361328125,7.855103822666312
2.606316836607809,0.6464344482421874,3.5577836669921874,10.295067138671874,10.911650173404206
2.6088037801541906,0.4213794921875,3.2561142578125,13.48414375,13.878111305470572
2.611290723700572,0.2154781494140625,2.940079638671875,16.223110449218748,16.48877835869469
2.6137776672469535,-0.0909796630859375,2.5857377929687497,18.2725470703125,18.45481762765127
2.6162646107933347,-0.39743747558593745,2.2649147705078123,19.507955126953124,19.64301679223131
2.6187515543397164,-0.699106884765625,1.9776105712890624,19.9197578125,20.02988879940814
2.6212384978860976,-1.0295067138671874,1.7238251953125,19.40261025390625,19.50622316192655
2.6237254414324793,-1.2497732666015624,1.5658078857421873,18.157625390625,18.26781452115261
2.626212384978861,-1.465251416015625,1.4413093994140624,16.232687255859375,16.362288044265522
2.6286993285252422,-1.5514426757812498,1.4700398193359374,13.872004418945311,14.035686589757793
2.631186272071624,-1.5658078857421873,1.5370774658203123,11.252747802734374,11.464671586352933
2.633673215618005,-1.4796166259765624,1.695094775390625,8.63827958984375,8.92650468715129
2.636160159164387,-1.3646949462890625,1.905784521484375,6.110002636718749,6.544198893635982
2.6386471027107685,-1.2210428466796874,2.1643583007812497,4.055777612304687,4.756545440554546
2.6411340462571498,-0.9624690673828125,2.39420166015625,2.5378537597656248,3.6192886042867873
2.6436209898035314,-0.70868369140625,2.7150246826171873,1.675941162109375,3.2683895698857977
2.6461079333499127,-0.47884033203125,2.920926025390625,1.3934253662109375,3.2715028901995726
2.6485948768962944,-0.2154781494140625,3.1555577880859373,1.8531120849609375,3.665787798857566
2.6510818204426756,-0.023942016601562498,3.2609026611328122,2.863465185546875,4.339757165370086
2.6535687639890573,0.12449848632812499,3.327940307617187,4.429273071289062,5.541583393237677
2.656055707535439,0.24899697265624998,3.337517114257812,6.373364819335937,7.198666480724383
2.65854265108182,0.229843359375,3.27526787109375,8.37012900390625,8.991065962348424
2.661029594628202,0.201112939453125,3.2034418212890623,10.500968481445312,10.980565785291171
2.663516538174583,0.1292868896484375,3.0310593017578125,12.401964599609375,12.76764510473923
2.666003481720965,-0.0047884033203125,2.7724855224609373,13.991714501953124,14.263757345286942
2.6684904252673465,-0.16759411621093748,2.6479870361328124,15.212757348632811,15.442406201097597
2.6709773688137277,-0.36391865234375,2.384624853515625,15.773000537109374,15.956391146533752
2.6734643123601094,-0.5889736083984375,2.221819140625,15.897499023437499,16.062809387066565
2.6759512559064906,-0.74699091796875,2.04943662109375,15.509638354492187,15.662281691456807
2.6784381994528723,-0.9720458740234375,1.915361328125,14.585476513671875,14.742781532986122
2.6809251429992536,-1.0821791503906248,1.848323681640625,13.259088793945311,13.43096600365662
2.6834120865456352,-1.2018892333984375,1.8531120849609375,11.650185278320311,11.857713909012086
2.685899030092017,-1.2114660400390624,1.8770541015625,9.964667309570311,10.21203097609774
2.688385973638398,-1.177947216796875,1.9584569580078124,8.322244970703125,8.630346149160077
2.69087291718478,-1.158793603515625,2.1021090576171875,6.775590698242187,7.1882052291076795
2.693359860731161,-0.9959878906249999,2.2601263671875,5.568913061523437,6.092040361055903
2.6958468042775428,-0.9002198242187499,2.427720483398437,4.678270043945313,5.347002251870188
2.6983337478239244,-0.7326257080078125,2.5809493896484375,4.132392065429687,4.926936610347937
2.7008206913703057,-0.5506663818359374,2.7198130859375,4.2329485351562495,5.061469153101952
2.7033076349166874,-0.33039982910156246,2.920926025390625,4.668693237304687,5.517034478497405
2.7057945784630686,-0.229843359375,3.0262708984374997,5.4013189453125,6.195594391950641
2.7082815220094503,-0.09576806640624999,3.0885201416015624,6.675034228515624,7.35555641263643
2.7107684655558315,-0.06703764648437499,3.0645781249999997,7.987056738281249,8.555069168089677
2.713255409102213,0.0047884033203125,3.0597897216796874,9.375693701171874,9.862351060872706
2.715742352648595,-0.0383072265625,3.0119056884765625,10.78348427734375,11.196275116287747
2.718229296194976,-0.0430956298828125,2.916137622070312,12.018892333984374,12.367679200241136
2.720716239741358,-0.12449848632812499,2.7581203125,12.990938208007812,13.281084408119703
2.723203183287739,-0.2537853759765625,2.5953145996093747,13.690045092773437,13.936190280351916
2.7256901268341207,-0.4213794921875,2.461239306640625,13.977349291992187,14.198646161917816
2.7281770703805024,-0.5410895751953124,2.308010400390625,13.900734838867187,14.101422587710514
2.7306640139268836,-0.6751648681640625,2.1883003173828124,13.431471313476562,13.625304676336766
2.7331509574732653,-0.7852981445312499,2.0973206542968748,12.636596362304687,12.833511395037469
2.7356379010196465,-0.9145850341796874,2.04943662109375,11.621454858398437,11.836167845819789
2.7381248445660282,-1.0342951171875,1.93451494140625,10.472238061523436,10.699527301015783
2.74061178811241,-1.0390835205078124,2.039859814453125,9.222464794921875,9.50234600079291
2.743098731658791,-1.0438719238281249,2.1068974609374997,8.06367119140625,8.399492757742971
2.745585675205173,-0.9959878906249999,2.1547814941406247,6.957550024414062,7.351365689991668
2.748072618751554,-0.9050082275390624,2.2744915771484373,6.196193896484375,6.6622196473294695
2.7505595622979357,-0.814028564453125,2.427720483398437,5.683834741210937,6.2339751855982195
2.753046505844317,-0.7230489013671875,2.5330653564453125,5.511452221679687,6.108627129367913
2.7555334493906987,-0.5793968017578125,2.6862942626953124,5.616797094726562,6.253022239126107
2.7580203929370803,-0.45489831542968745,2.7629087158203123,6.0908490234374995,6.703658618668328
2.7605073364834616,-0.33518823242187495,2.9448680419921875,6.823474731445312,7.439382121290294
2.7629942800298433,-0.26336218261718747,2.896984008789062,7.785943798828124,8.311606151937335
2.7654812235762245,-0.1771709228515625,2.935291235351562,8.834604125976561,9.31115214326121
2.767968167122606,-0.15322890625,2.959233251953125,9.9215716796875,10.354618541131908
2.770455110668988,-0.1580173095703125,2.901772412109375,10.970232006835937,11.348622951072546
2.772942054215369,-0.1292868896484375,2.8203695556640622,11.870451831054687,12.201591134099735
2.775428997761751,-0.1867477294921875,2.7724855224609373,12.607865942382812,12.910454457834643
2.777915941308132,-0.27293898925781246,2.6431986328124997,13.000515014648437,13.269302368642384
2.7804028848545137,-0.354341845703125,2.50912333984375,13.057975854492186,13.301578533943477
2.782889828400895,-0.49320554199218747,2.360682836914062,12.89038173828125,13.114038909571953
2.7853767719472766,-0.603338818359375,2.365471240234375,12.483367456054687,12.71982448624982
2.7878637154936583,-0.737414111328125,2.1835119140624997,11.769895361328125,11.993412386266556
2.7903506590400395,-0.8092401611328125,2.1404162841796874,10.845733520507812,11.084502113574548
2.792837602586421,-0.8571241943359375,2.1643583007812497,9.907206469726562,10.177025536593124
2.7953245461328025,-0.9241618408203125,2.1595698974609374,8.863334545898438,9.169324758266798
2.797811489679184,-0.9193734375,2.1547814941406247,7.9104422851562495,8.250056239314947
2.800298433225566,-0.9097966308593749,2.1930887207031247,7.105990527343749,7.492160530921467
2.802785376771947,-0.9145850341796874,2.3127988037109373,6.5026517089843745,6.962038734418935
2.8052723203183287,-0.7852981445312499,2.384624853515625,6.157886669921875,6.650014820089512
2.80775926386471,-0.7422025146484375,2.5043349365234375,6.100425830078125,6.636094736765494
2.8102462074110917,-0.59376201171875,2.6384102294921874,6.272808349609375,6.830950626126528
2.812733150957473,-0.488417138671875,2.70065947265625,6.732495068359374,7.270392199467622
2.8152200945038546,-0.4165910888671875,2.77727392578125,7.4411787597656245,7.953486023683893
2.8177070380502363,-0.32082302246093747,2.863465185546875,8.336610180664062,8.820511866378938
2.8201939815966175,-0.2537853759765625,2.920926025390625,9.246406811523437,9.700116225440336
2.822680925142999,-0.19632453613281248,2.89219560546875,10.189722265624999,10.594044487085863
2.8251678686893804,-0.19632453613281248,2.839523168945312,11.085153686523437,11.444739726368143
2.827654812235762,-0.2346317626953125,2.7246014892578123,11.812990991210937,12.125397374839398
2.8301417557821438,-0.2537853759765625,2.7437551025390623,12.421118212890624,12.723080473626341
2.832628699328525,-0.2920926025390625,2.6384102294921874,12.746729638671875,13.020201346712849
2.8351156428749067,-0.4165910888671875,2.518700146484375,12.713210815429687,12.967001496135577
2.837602586421288,-0.44532150878906246,2.461239306640625,12.521674682617187,12.769038610171057
2.8400895299676696,-0.6177040283203125,2.3319524169921872,12.028469140624999,12.26799210175352
2.842576473514051,-0.6751648681640625,2.327164013671875,11.396399902343749,11.651157482408047
2.8450634170604325,-0.7326257080078125,2.3032219970703123,10.51533369140625,10.789523373970043
2.847550360606814,-0.7805097412109374,2.1978771240234374,9.624690673828125,9.903258548341793
2.8500373041531954,-0.8762778076171874,2.1499930908203124,8.719682446289061,9.023480207260338
2.852524247699577,-0.8810662109374999,2.1691467041015624,7.848193041992187,8.189970031468064
2.8550111912459584,-0.86191259765625,2.2026655273437497,7.168239770507812,7.548396528987925
2.85749813479234,-0.82360537109375,2.3511060302734372,6.622361791992187,7.075429391699175
2.8599850783387217,-0.8044517578125,2.408566870117187,6.349422802734375,6.83838481853405
2.862472021885103,-0.6847416748046875,2.4947581298828125,6.315903979492187,6.825198338949277
2.8649589654314846,-0.59376201171875,2.5761609863281247,6.593631372070312,7.103881574518907
2.867445908977866,-0.5219359619140624,2.7198130859375,7.034164477539062,7.5597136366299225
2.8699328525242476,-0.430956298828125,2.77727392578125,7.68059892578125,8.17866576215437
2.8724197960706292,-0.3687070556640625,2.786850732421875,8.475473876953124,8.929509467860575
2.8749067396170105,-0.3064578125,2.825157958984375,9.318232861328125,9.741914470061333
2.877393683163392,-0.26336218261718747,2.85388837890625,10.24718310546875,10.640432327471155
2.8798806267097734,-0.2442085693359375,2.834734765625,11.089942089843749,11.449112392358984
2.882367570256155,-0.22505495605468748,2.767697119140625,11.793837377929687,12.116327709896076
2.8848545138025363,-0.2825157958984375,2.6958710693359373,12.258312499999999,12.55443194035759
2.887341457348918,-0.3064578125,2.6575638427734374,12.483367456054687,12.766793842313906
2.8898284008952997,-0.3495534423828125,2.5665841796874997,12.569558715820312,12.833680230976546
2.892315344441681,-0.44532150878906246,2.4851813232421875,12.373234179687499,12.628197081173896
2.8948022879880626,-0.5746083984375,2.384624853515625,11.851298217773437,12.102474125159663
2.897289231534444,-0.6368576416015624,2.2601263671875,11.267113012695312,11.509196083661555
2.8997761750808255,-0.7613561279296874,2.2361843505859373,10.457872851562499,10.721347311918848
2.902263118627207,-0.7757213378906249,2.2361843505859373,9.600748657226562,9.888207058061735
2.9047500621735884,-0.8188169677734375,2.1835119140624997,8.762778076171875,9.067770680702342
2.90723700571997,-0.852335791015625,2.2361843505859373,7.920019091796875,8.273675070056756
2.9097239492663514,-0.8283937744140625,2.2840683837890623,7.254431030273437,7.650488494227469
2.912210892812733,-0.8283937744140625,2.3223756103515623,6.732495068359374,7.169808544621471
2.9146978363591143,-0.7661445312499999,2.39420166015625,6.459556079101562,6.931453222183438
2.917184779905496,-0.7326257080078125,2.446874096679687,6.426037255859375,6.915047945367311
2.9196717234518776,-0.6607996582031249,2.5713725830078125,6.612784985351562,7.12583597982838
2.922158666998259,-0.603338818359375,2.6479870361328124,7.067683300781249,7.571525626543759
2.9246456105446406,-0.469263525390625,2.7198130859375,7.685387329101562,8.16595186595009
2.927132554091022,-0.38786066894531246,2.8012159423828122,8.456320263671875,8.916647299078388
2.9296194976374035,-0.33518823242187495,2.825157958984375,9.332598071289063,9.756600607004223
2.932106441183785,-0.28730419921875,2.806004345703125,10.137049829101562,10.522166284975807
2.9345933847301664,-0.2537853759765625,2.844311572265625,10.979808813476561,11.345074566422262
2.937080328276548,-0.2059013427734375,2.7916391357421872,11.631031665039062,11.963132617350048
2.9395672718229293,-0.258573779296875,2.748543505859375,12.191274853515624,12.49994137413868
2.942054215369311,-0.28730419921875,2.6767174560546874,12.459425439453124,12.746946392125773
2.9445411589156922,-0.38786066894531246,2.5665841796874997,12.521674682617187,12.787889861397504
2.947028102462074,-0.45968671875,2.50912333984375,12.325350146484375,12.586551078329052
2.9495150460084556,-0.5410895751953124,2.422932080078125,11.889605444335936,12.146032085213651
2.952001989554837,-0.612915625,2.370259643554687,11.334150659179686,11.595549469784364
2.9544889331012185,-0.689530078125,2.288856787109375,10.568006127929687,10.834992876808695
2.9569758766475998,-0.7422025146484375,2.27927998046875,9.706093530273437,9.997711409144193
2.9594628201939814,-0.7996633544921875,2.212242333984375,8.834604125976561,9.142412574780927
2.961949763740363,-0.833182177734375,2.2457611572265623,8.092401611328125,8.439466781475463
2.9644367072867444,-0.7996633544921875,2.2936451904296873,7.426813549804687,7.813950936860395
2.966923650833126,-0.842758984375,2.3223756103515623,6.842628344726562,7.274973116469638
2.9694105943795073,-0.74699091796875,2.365471240234375,6.5218053222656245,6.9776352929510415
2.971897537925889,-0.737414111328125,2.422932080078125,6.4739212890625,6.951693052288357
2.97438448147227,-0.6512228515624999,2.5474305664062498,6.622361791992187,7.125248725279422
2.976871425018652,-0.6368576416015624,2.5761609863281247,7.0102224609374995,7.495692898923888
2.9793583685650336,-0.5027823486328125,2.710236279296875,7.618349682617187,8.101692580340671
2.981845312111415,-0.44532150878906246,2.7150246826171873,8.307879760742187,8.751601932924075
2.9843322556577965,-0.3447650390625,2.767697119140625,9.112331518554686,9.529616780306764
2.9868191992041777,-0.32561142578124996,2.825157958984375,10.01733974609375,10.413195277266324
2.9893061427505594,-0.24899697265624998,2.7820623291015623,10.812214697265624,11.167177662917554
2.991793086296941,-0.2825157958984375,2.7916391357421872,11.482591162109374,11.82044686275827
2.9942800298433223,-0.2442085693359375,2.767697119140625,12.04762275390625,12.363858588202797
2.996766973389704,-0.3399766357421875,2.6958710693359373,12.378022583007812,12.672756132774923
2.9992539169360852,-0.36391865234375,2.6240450195312497,12.50730947265625,12.784789372330199
3.001740860482467,-0.6703764648437499,2.9735984619140625,9.567229833984374,10.041094517710444
3.0042278040288486,-0.928950244140625,3.2130186279296873,9.5001921875,10.071747060909946
3.00671474757523,-1.0726023437499999,3.399766357421875,9.5384994140625,10.182919922347727
3.0092016911216115,-1.235408056640625,3.5098996337890624,9.5384994140625,10.23858386583593
3.0116886346679927,-1.446097802734375,3.6631285400390623,9.5384994140625,10.319529089449409
3.0141755782143744,-1.6472107421875,3.758896606445312,9.548076220703125,10.392707368317481
3.0166625217607557,-1.7621324218749999,3.88818349609375,9.581595043945311,10.489520730599478
3.0191494653071373,-1.886630908203125,3.921702319335937,9.548076220703125,10.493087476125828
3.021636408853519,-2.01112939453125,3.921702319335937,9.581595043945311,10.546627617830728
3.0241233523999003,-1.9776105712890624,3.907337109375,9.600748657226562,10.55237421802368
3.026610295946282,-2.0254946044921875,3.821145849609375,9.562441430664062,10.494954507366598
3.029097239492663,-2.0350714111328125,3.801992236328125,9.567229833984374,10.494214944901316
3.031584183039045,-1.9871873779296874,3.6056677001953124,9.524134204101562,10.37587999048621
3.0340711265854265,-1.93451494140625,3.4763808105468748,9.509768994140625,10.308408117666906
3.036558070131808,7.541735229492187,-4.414907861328125,9.854534033203125,13.171219484441792
3.0390450136781895,6.167463476562499,-3.9887399658203124,9.888052856445311,12.31751766962487
3.0415319572245707,4.740519287109374,-3.5051112304687497,9.945513696289062,11.56164220742397
3.0440189007709524,3.414131567382812,-2.7724855224609373,10.084377392578125,11.001710672781579
3.0465058443173336,2.0159177978515626,-2.0542250244140625,10.065223779296874,10.468643405233884
3.0489927878637153,0.679953271484375,-1.2593500732421874,10.041281762695311,10.142762863057326
3.051479731410097,-0.5027823486328125,-0.44532150878906246,10.09395419921875,10.116274645946142
3.0539666749564782,-1.5897499023437498,0.354341845703125,10.036493359375,10.167795328801455
3.05645361850286,-2.461239306640625,1.158793603515625,10.031704956054687,10.394017792241542
3.058940562049241,-3.2417490478515623,1.85790048828125,9.907206469726562,10.588364894892605
3.061427505595623,-3.797203833007812,2.518700146484375,9.854534033203125,10.856999971855407
3.0639144491420045,-4.146757275390625,3.1220389648437497,9.7683427734375,11.061792067218418
3.0664013926883857,-4.347870214843749,3.6056677001953124,9.648632690429688,11.180381378297684
3.0688883362347674,-4.410119458007812,4.00310517578125,9.600748657226562,11.298158233159217
3.0713752797811487,-4.299986181640625,4.271255761718749,9.495403784179686,11.264821346516323
3.0738622233275303,-4.070142822265625,4.544194750976562,9.437942944335937,11.23790619061148
3.0763491668739116,-3.749319799804687,4.668693237304687,9.423577734375,11.165030802513275
3.0788361104202933,-3.39018955078125,4.7884033203125,9.390058911132812,11.072280609826995
3.081323053966675,-2.9496564453125,4.7884033203125,9.3086560546875,10.875677314439942
3.083809997513056,-2.4851813232421875,4.73094248046875,9.313444458007812,10.737699503864505
3.086296941059438,-2.0159177978515626,4.630386010742187,9.270348828125,10.55669297513621
3.088783884605819,-1.5753846923828123,4.477157104492187,9.246406811523437,10.393402310672188
3.091270828152201,-1.139639990234375,4.276044165039062,9.251195214843749,10.25514241304595
3.0937577716985825,-0.718260498046875,4.084508032226562,9.251195214843749,10.138230462537619
3.0962447152449637,-0.45010991210937495,3.84987626953125,9.246406811523437,10.025975521008716
3.0987316587913454,-0.1580173095703125,3.6822821533203123,9.318232861328125,10.020660406615946
3.1012186023377266,0.047884033203124995,3.4811692138671875,9.375693701171874,10.001223142916393
3.1037055458841083,0.1484405029296875,3.294421484375,9.342174877929686,9.907142824722078
3.1061924894304895,0.229843359375,3.1268273681640624,9.390058911132812,9.899650686498656
3.108679432976871,0.3016694091796875,2.9831752685546875,9.457096557617186,9.92103897862749
3.111166376523253,0.201112939453125,2.7964275390625,9.481038574218749,9.886887570993538
3.113653320069634,0.17238251953125,2.6192566162109374,9.5001921875,9.856159117731448
3.116140263616016,0.062249243164062495,2.5474305664062498,9.524134204101562,9.85912824729817
3.118627207162397,-0.13407529296874998,2.408566870117187,9.509768994140625,9.810956980536055
3.1211141507087787,9.610325463867188,-5.5641246582031245,9.878476049804688,14.862776584475828
3.1236010942551604,8.02536396484375,-5.051765502929687,9.94072529296875,13.738443172902512
3.1260880378015417,6.311115576171875,-4.510675927734375,10.070012182617187,12.711472082292444
3.1285749813479233,4.5585599609375,-3.6631285400390623,10.137049829101562,11.70293804375633
3.1310619248943046,2.849099975585937,-2.85388837890625,10.228029492187499,10.994300197975186
3.1335488684406863,1.2210428466796874,-1.848323681640625,10.218452685546874,10.455812802087712
3.136035811987068,-0.3399766357421875,-0.9337386474609375,10.184933862304687,10.233295156211094
3.138522755533449,-1.6998831787109374,0.0430956298828125,10.137049829101562,10.278678869011689
3.141009699079831,-2.882618798828125,0.9528922607421875,10.137049829101562,10.581931488987616
3.143496642626212,-3.845087866210937,1.8339584716796873,10.036493359375,10.903178588260706
3.1459835861725938,-4.592078784179687,2.6192566162109374,9.94072529296875,11.259028027851542
3.148470529718975,-5.104437939453125,3.347093920898437,9.883264453125,11.616248991970167
3.1509574732653567,-5.463568188476562,3.9264907226562498,9.80665,11.892783146418616
3.1534444168117384,-5.588066674804687,4.333505004882812,9.667786303710937,11.977973401357504
3.1559313603581196,-5.45877978515625,4.75009609375,9.576806640625,12.003204366943379
3.1584183039045013,-5.2624552490234375,4.994304663085937,9.495403784179686,11.949862231017985
3.1609052474508825,-4.8698061767578125,5.109226342773437,9.423577734375,11.773827896512111
3.163392190997264,-4.352658618164062,5.137956762695312,9.323021264648437,11.500563561960401
3.165879134543646,-3.806780639648437,5.066130712890625,9.265560424804686,11.225322677954637
3.168366078090027,-3.1316157714843746,4.965574243164062,9.212887988281249,10.924342084958752
3.170853021636409,-2.518700146484375,4.75009609375,9.179369165039063,10.63804876825771
3.17333996518279,-1.838746875,4.592078784179687,9.198522778320312,10.444184933910021
3.1758269087291717,-1.2114660400390624,4.333505004882812,9.165003955078124,10.210005538201727
3.178313852275553,-0.6751648681640625,4.027047192382812,9.222464794921875,10.085971127385536
3.1808007958219346,-0.1771709228515625,3.754108203125,9.145850341796875,9.887936913796553
3.1832877393683163,0.26815058593749996,3.5434184570312497,9.184157568359375,9.84766314101072
3.1857746829146976,0.6416460449218749,3.27526787109375,9.279925634765624,9.861851198490221
3.1882616264610792,0.852335791015625,3.0262708984374997,9.289502441406249,9.80712228231445
3.1907485700074605,0.9864110839843749,2.7581203125,9.323021264648437,9.772356930951677
3.193235513553842,1.0582371337890624,2.6048914062499997,9.337386474609374,9.75151840719707
3.195722457100224,1.0582371337890624,2.4947581298828125,9.437942944335937,9.819289739002866
3.198209400646605,0.9528922607421875,2.370259643554687,9.4618849609375,9.800683723723646
3.2006963441929868,0.8044517578125,2.2936451904296873,9.514557397460937,9.8201198241064
3.203183287739368,0.59376201171875,2.231395947265625,9.552864624023437,9.827965390911396
3.2056702312857497,0.33518823242187495,2.1883003173828124,9.543287817382812,9.796701066972442
3.208157174832131,0.08140285644531249,2.1499930908203124,9.591171850585937,9.829530720389688
3.2106441183785126,-0.181959326171875,2.1499930908203124,9.605537060546874,9.844893179130766
