Time (s),Acceleration x (m/s^2),Acceleration y (m/s^2),Acceleration z (m/s^2),Absolute acceleration (m/s^2)
0.0,-0.9193734375,0.9050082275390624,3.5913024902343746,3.815984929983029
0.002486943546381497,-1.3551181396484375,1.235408056640625,8.44674345703125,8.64349774499404
0.004973887092762994,-1.7238251953125,1.6472107421875,13.125013500976562,13.33982218524629
0.007460830639144491,-2.0302830078125,2.0829554443359375,17.247828759765625,17.491379288126453
0.009947774185525988,-2.1021090576171875,2.5857377929687497,20.518308227539062,20.787156490111876
0.012434717731907486,-2.1212626708984375,2.9496564453125,22.692243334960935,22.981256189281726
0.014921661278288981,-1.9919757812499999,3.342305517578125,23.7887876953125,24.104883191971105
0.01740860482467048,-1.7717092285156248,3.6487633300781246,23.587674755859375,23.933884511661198
0.019895548371051976,-1.4939818359375,3.801992236328125,22.35705510253906,22.727187233557487
0.022382491917433474,-1.149216796875,3.859453076171875,20.063409912109375,20.463540617271512
0.02486943546381497,-0.699106884765625,3.864241479492187,17.113753466796872,17.55852130364219
0.027356379010196465,-0.2920926025390625,3.7301661865234372,13.690045092773437,14.192138405106924
0.029843322556577963,0.05746083984375,3.4668040039062498,10.089165795898436,10.668331556843501
0.032330266102959464,0.354341845703125,3.1794998046874996,6.6319385986328125,7.363245665306835
0.03481720964934096,0.565031591796875,2.887407202148437,3.6391865234374996,4.6797499509179215
0.03730415319572245,0.6655880615234374,2.528276953125,1.22583125,2.887534254830949
0.03979109674210395,0.6847416748046875,2.1499930908203124,-0.44053310546874996,2.299002146324215
0.04227804028848545,0.59376201171875,1.915361328125,-1.16837041015625,2.32082997205003
0.04476498383486695,0.39743747558593745,1.7525556152343749,-0.9816226806640624,2.0476793739948063
0.04725192738124844,0.1388636962890625,1.5227122558593749,-0.0143652099609375,1.5290984597299904
0.04973887092762994,-0.1580173095703125,1.47482822265625,1.7190367919921874,2.270501100790313
0.05222581447401144,-0.469263525390625,1.5131354492187499,3.9264907226562498,4.234042576433315
0.05471275802039293,-0.7565677246093749,1.656787548828125,6.5601125488281244,6.808260890797645
0.05719970156677443,-0.9911994873046874,1.8148048583984373,9.241618408203124,9.470137480551086
0.059686645113155926,-1.2737152832031249,2.001552587890625,11.774683764648437,12.011317210957023
0.062173588659537427,-1.3934253662109375,2.2936451904296873,14.034810131835936,14.289098570150111
0.06466053220591893,-1.5514426757812498,2.5378537597656248,15.806519360351562,16.083958790402335
0.06714747575230041,-1.5179238525390624,2.7820623291015623,16.984466577148435,17.27761755958805
0.06963441929868192,-1.4317325927734375,3.0119056884765625,17.41542287597656,17.73184671833633
0.07212136284506342,-1.2689268798828124,3.1411925781249996,17.266982373046876,17.596191250110582
0.0746083063914449,-1.1109095703125,3.284844677734375,16.390704565429687,16.753492793487847
0.0770952499378264,-0.8858546142578124,3.318363500976562,15.040374829101562,15.427545161887783
0.0795821934842079,-0.6368576416015624,3.318363500976562,13.306972827148437,13.729262536740515
0.0820691370305894,-0.3687070556640625,3.2130186279296873,11.319785449218749,11.77272169944844
0.0845560805769709,-0.143652099609375,3.1076737548828124,9.255983618164063,9.764809513361287
0.0870430241233524,0.0047884033203125,2.89219560546875,7.369352709960937,7.916576135736188
0.0895299676697339,0.11013327636718749,2.6575638427734374,5.722141967773437,6.3101254834063445
0.09201691121611538,0.17238251953125,2.4756045166015626,4.448426684570312,5.093803433943561
0.09450385476249688,0.1484405029296875,2.2601263671875,3.6583401367187496,4.302750089709318
0.09699079830887838,0.143652099609375,2.1499930908203124,3.375824340820312,4.004909012246365
0.09947774185525989,0.01915361328125,1.9919757812499999,3.6487633300781246,4.1571394266864665
0.10196468540164137,-0.1149216796875,1.9584569580078124,4.371812231445312,4.791816235609025
0.10445162894802287,-0.32561142578124996,1.93451494140625,5.487510205078125,5.827618648295364
0.10693857249440437,-0.5363011718749999,1.9488801513671874,6.871358764648437,7.162494262745233
0.10942551604078586,-0.7134720947265625,2.0254946044921875,8.451531860351562,8.720095275243155
0.11191245958716736,-0.8762778076171874,2.1212626708984375,10.007762939453125,10.267567246790303
0.11439940313354886,-1.0199299072265624,2.2936451904296873,11.444283935546874,11.716343289296907
0.11688634667993036,-1.139639990234375,2.4947581298828125,12.713210815429687,13.005703620777929
0.11937329022631185,-1.1731588134765625,2.5809493896484375,13.613430639648437,13.905505928734964
0.12186023377269335,-1.139639990234375,2.7581203125,14.111424584960936,14.42353322811739
0.12434717731907485,-1.1348515869140625,2.834734765625,14.197615844726561,14.522255506297743
0.12683412086545634,-1.0390835205078124,2.9448680419921875,13.891158032226562,14.23784442335392
0.12932106441183785,-0.8762778076171874,2.9448680419921875,13.196839550781249,13.549785411951495
0.13180800795821934,-0.7278373046875,3.0119056884765625,12.267889306640624,12.653158935947957
0.13429495150460083,-0.603338818359375,3.0358477050781247,11.0707884765625,11.495335858988916
0.13678189505098234,-0.39743747558593745,2.906560815429687,9.830592016601562,10.258976153479535
0.13926883859736383,-0.28730419921875,2.829946362304687,8.595183959960938,9.053636143670676
0.14175578214374532,-0.16759411621093748,2.710236279296875,7.4603323730468745,7.9391452684616315
0.14424272569012683,-0.11013327636718749,2.5474305664062498,6.584054565429687,7.060545754386112
0.14672966923650832,-0.06703764648437499,2.43250888671875,5.942408520507812,6.421355974762316
0.1492166127828898,-0.076614453125,2.308010400390625,5.607220288085937,6.0641323486432475
0.15170355632927132,-0.0909796630859375,2.24097275390625,5.635950708007812,6.065820353912498
0.1541904998756528,-0.17238251953125,2.1404162841796874,6.110002636718749,6.476359303137187
0.15667744342203432,-0.3112462158203125,2.0733786376953125,6.718129858398437,7.03768726048681
0.1591643869684158,-0.430956298828125,2.1452046874999997,7.560888842773437,7.871128672277404
0.1616513305147973,-0.565031591796875,2.2026655273437497,8.585607153320312,8.881646599376825
0.1641382740611788,-0.6607996582031249,2.2074539306640624,9.567229833984374,9.84080259636206
0.1666252176075603,-0.8092401611328125,2.31758720703125,10.611101757812499,10.891352561332162
0.1691121611539418,-0.8954314208984374,2.384624853515625,11.520898388671874,11.799124238842424
0.1715991047003233,-0.9576806640625,2.4851813232421875,12.16254443359375,12.450733535131707
0.1740860482467048,-1.0007762939453124,2.6671406494140624,12.627019555664061,12.944373885723573
0.17657299179308628,-0.967257470703125,2.77727392578125,12.732364428710937,13.067591263081312
0.1790599353394678,-0.9193734375,2.834734765625,12.58392392578125,12.931980129851475
0.18154687888584928,-0.852335791015625,2.849099975585937,12.172121240234373,12.530138964053624
0.18403382243223076,-0.7900865478515624,2.844311572265625,11.511321582031249,11.883807034707294
0.18652076597861228,-0.689530078125,2.844311572265625,10.740388647460938,11.13200378850416
0.18900770952499377,-0.5889736083984375,2.8203695556640622,9.854534033203125,10.267093812441047
0.19149465307137528,-0.4740519287109375,2.7054478759765623,8.939948999023438,9.35237197431116
0.19398159661775677,-0.38786066894531246,2.6767174560546874,8.0828248046875,8.523339079335873
0.19646854016413826,-0.2442085693359375,2.5857377929687497,7.37414111328125,7.818160584044616
0.19895548371051977,-0.22026655273437498,2.4851813232421875,6.833051538085937,7.274286005223046
0.20144242725690126,-0.16759411621093748,2.418143676757812,6.536170532226562,6.971157138924583
0.20392937080328274,-0.19632453613281248,2.2936451904296873,6.584054565429687,6.974892551403535
0.20641631434966426,-0.2346317626953125,2.221819140625,6.751648681640624,7.111701081879968
0.20890325789604575,-0.2920926025390625,2.221819140625,7.216123803710937,7.556073129118674
0.21139020144242723,-0.3447650390625,2.2457611572265623,7.881711865234375,8.202663471948833
0.21387714498880875,-0.45010991210937495,2.2361843505859373,8.59997236328125,8.897339154600427
0.21636408853519024,-0.5458779785156249,2.269703173828125,9.442731347656249,9.727009333228985
0.21885103208157172,-0.689530078125,2.3415292236328122,10.319009155273436,10.603780494728403
0.22133797562795324,-0.7661445312499999,2.379836450195312,11.042058056640624,11.321556655277782
0.22382491917433472,-0.8475473876953125,2.4756045166015626,11.568782421875,11.861015176690872
0.22631186272071624,-0.8714894042968749,2.5522189697265625,11.985373510742187,12.285051633722762
0.22879880626709773,-0.928950244140625,2.6575638427734374,12.20085166015625,12.521436633535433
0.2312857498134792,-0.9050082275390624,2.7437551025390623,12.191274853515624,12.528943072286063
0.23377269335986073,-0.833182177734375,2.8012159423828122,11.875240234375,12.22956801858809
0.23625963690624222,-0.8188169677734375,2.8203695556640622,11.415553515625,11.787273125084049
0.2387465804526237,-0.7517793212890624,2.786850732421875,10.711658227539061,11.09375189628484
0.24123352399900522,-0.6272808349609375,2.7820623291015623,9.97903251953125,10.378556839694886
0.2437204675453867,-0.5363011718749999,2.767697119140625,9.284714038085937,9.7032819736048
0.2462074110917682,-0.4213794921875,2.7150246826171873,8.489839086914062,8.923356287034075
0.2486943546381497,-0.3687070556640625,2.5809493896484375,7.7763669921875,8.20177592000698
0.2511812981845312,-0.32561142578124996,2.50912333984375,7.292738256835937,7.719180916254419
0.2536682417309127,-0.3016694091796875,2.4660277099609376,6.919242797851562,7.351749315254889
0.2561551852772942,-0.239420166015625,2.384624853515625,6.833051538085937,7.241156746683361
0.2586421288236757,-0.258573779296875,2.327164013671875,6.9144543945312495,7.30015289702358
0.26112907237005717,-0.28730419921875,2.27927998046875,7.230489013671875,7.586674654226582
0.2636160159164387,-0.3495534423828125,2.288856787109375,7.738059765625,8.07704289560002
0.2661029594628202,-0.44053310546874996,2.2266075439453124,8.374917407226562,8.677043975319854
0.26858990300920166,-0.49320554199218747,2.250549560546875,9.088389501953124,9.375875893501433
0.2710768465555832,-0.603338818359375,2.288856787109375,9.821015209960937,10.102238508168377
0.2735637901019647,-0.689530078125,2.346317626953125,10.568006127929687,10.847276693029889
0.27605073364834615,-0.7852981445312499,2.422932080078125,11.238382592773437,11.523390835254565
0.27853767719472766,-0.7709329345703124,2.5474305664062498,11.736376538085937,12.034378850775811
0.2810246207411092,-0.8044517578125,2.6719290527343746,11.990161914062499,12.310577980701334
0.28351156428749064,-0.8810662109374999,2.6815058593749996,12.100295190429687,12.425131590347606
0.28599850783387215,-0.8475473876953125,2.77727392578125,11.9518546875,12.299529157830769
0.28848545138025367,-0.7757213378906249,2.7437551025390623,11.597512841796874,11.942874016433874
0.2909723949266351,-0.7613561279296874,2.825157958984375,11.123460913085937,11.501850430765455
0.29345933847301664,-0.689530078125,2.81558115234375,10.457872851562499,10.852191185816825
0.29594628201939815,-0.59376201171875,2.825157958984375,9.686939916992188,10.10796100977787
0.2984332255657796,-0.5219359619140624,2.7246014892578123,8.992621435546875,9.410797559540965
0.30092016911216113,-0.4740519287109375,2.6336218261718747,8.245630517578125,8.668974090791778
0.30340711265854264,-0.4070142822265625,2.5905261962890624,7.6279264892578125,8.066086357405139
0.30589405620492416,-0.354341845703125,2.528276953125,7.206546997070312,7.645394830635136
0.3083809997513056,-0.3064578125,2.47081611328125,6.928819604492187,7.362566792096884
0.31086794329768713,-0.258573779296875,2.389413256835937,6.885723974609375,7.293102958672222
0.31335488684406865,-0.2825157958984375,2.3032219970703123,7.062894897460937,7.434321157664661
0.3158418303904501,-0.3064578125,2.2936451904296873,7.369352709960937,7.724123511067915
0.3183287739368316,-0.39264907226562495,2.27927998046875,7.8721350585937495,8.204864465916394
0.32081571748321314,-0.44053310546874996,2.269703173828125,8.532934716796875,8.84062196881061
0.3233026610295946,-0.4836287353515625,2.3223756103515623,9.279925634765624,9.578326838023106
0.3257896045759761,-0.5793968017578125,2.3511060302734372,9.993397729492187,10.282577420048677
0.3282765481223576,-0.6512228515624999,2.39420166015625,10.726023437499999,11.009262989577978
0.3307634916687391,-0.7278373046875,2.446874096679687,11.324573852539062,11.608742952133458
0.3332504352151206,-0.7565677246093749,2.528276953125,11.731588134765625,12.024755267255847
0.3357373787615021,-0.7996633544921875,2.6336218261718747,12.004527124023436,12.316009778951175
0.3382243223078836,-0.8283937744140625,2.6623522460937497,12.057199560546874,12.375395628852443
0.3407112658542651,-0.8762778076171874,2.710236279296875,11.865663427734374,12.20275428196489
0.3431982094006466,-0.7900865478515624,2.7437551025390623,11.516109985351562,11.864788999831353
0.34568515294702806,-0.7230489013671875,2.748543505859375,11.066000073242186,11.425132329140267
0.3481720964934096,-0.6943184814453125,2.7437551025390623,10.386046801757812,10.76476838509261
0.3506590400397911,-0.612915625,2.7629087158203123,9.672574707031249,10.078096625773423
0.35314598358617255,-0.5219359619140624,2.7246014892578123,8.930372192382812,9.351332414051447
0.35563292713255407,-0.4836287353515625,2.6575638427734374,8.25520732421875,8.685907569040172
0.3581198706789356,-0.430956298828125,2.5953145996093747,7.675810522460937,8.114151118827357
0.36060681422531704,-0.36391865234375,2.4947581298828125,7.211335400390625,7.639346383629105
0.36309375777169856,-0.33039982910156246,2.4133552734375,6.924031201171875,7.340003800932298
0.36558070131808007,-0.316034619140625,2.422932080078125,6.87614716796875,7.297388410981816
0.36806764486446153,-0.2825157958984375,2.3511060302734372,7.053318090820312,7.440215778511625
0.37055458841084304,-0.3016694091796875,2.250549560546875,7.4028715332031245,7.743286427223374
0.37304153195722456,-0.38786066894531246,2.2840683837890623,7.896077075195312,8.22893902382102
0.3755284755036061,-0.38307226562499996,2.250549560546875,8.547299926757812,8.846923404388834
0.37801541904998753,-0.4644751220703125,2.288856787109375,9.260772021484375,9.550733006676852
0.38050236259636905,-0.5793968017578125,2.3223756103515623,9.9215716796875,10.206209566955796
0.38298930614275056,-0.6464344482421874,2.39420166015625,10.625466967773438,10.911032369515434
0.385476249689132,-0.737414111328125,2.4660277099609376,11.257536206054686,11.548038520394412
0.38796319323551354,-0.7709329345703124,2.5761609863281247,11.755530151367187,12.0591638249419
0.39045013678189505,-0.8188169677734375,2.6096798095703124,11.93270107421875,12.2421503365158
0.3929370803282765,-0.814028564453125,2.6719290527343746,12.105083593749999,12.42315966967611
0.395424023874658,-0.842758984375,2.7246014892578123,11.903970654296874,12.240842018397746
0.39791096742103954,-0.7757213378906249,2.7916391357421872,11.626243261718749,11.981841471114814
0.400397910967421,-0.7757213378906249,2.710236279296875,11.061211669921875,11.414794255285184
0.4028848545138025,-0.6943184814453125,2.77727392578125,10.500968481445312,10.884193477736822
0.40537179806018403,-0.63206923828125,2.748543505859375,9.801861596679688,10.199533993572807
0.4078587416065655,-0.5698199951171875,2.7581203125,9.026140258789061,9.455322863678063
0.410345685152947,-0.45968671875,2.6623522460937497,8.37012900390625,8.79536758206888
0.4128326286993285,-0.38307226562499996,2.6192566162109374,7.738059765625,8.178313916611435
0.41531957224571,-0.39264907226562495,2.5139117431640625,7.254431030273437,7.68769764749911
0.4178065157920915,-0.32561142578124996,2.4660277099609376,6.957550024414062,7.388830611748967
0.420293459338473,-0.3064578125,2.35589443359375,6.890512377929687,7.288574332712985
0.42278040288485447,-0.3064578125,2.375048046875,7.000645654296875,7.3989059456674235
0.425267346431236,-0.3064578125,2.2936451904296873,7.292738256835937,7.651062405518726
0.4277542899776175,-0.373495458984375,2.2744915771484373,7.771578588867187,8.106185573704813
0.43024123352399896,-0.4213794921875,2.2601263671875,8.394071020507813,8.703226997466022
0.43272817707038047,-0.4836287353515625,2.3319524169921872,9.126696728515624,9.432311063735717
0.435215120616762,-0.507570751953125,2.375048046875,9.830592016601562,10.126155276810316
0.43770206416314344,-0.6512228515624999,2.346317626953125,10.500968481445312,10.779593529315287
0.44018900770952496,-0.6943184814453125,2.461239306640625,11.180921752929686,11.469646390511157
0.4426759512559065,-0.737414111328125,2.5617957763671875,11.654973681640625,11.95596038347126
0.445162894802288,-0.7900865478515624,2.5570073730468748,11.956643090820311,12.252503314024166
0.44764983834866945,-0.8571241943359375,2.6336218261718747,12.038045947265624,12.352537230718362
0.45013678189505096,-0.7996633544921875,2.729389892578125,11.966219897460936,12.299571102303338
0.4526237254414325,-0.8044517578125,2.7437551025390623,11.688492504882811,12.033128925182279
0.45511066898781394,-0.7805097412109374,2.7581203125,11.214440576171874,11.574977345586488
0.45759761253419545,-0.699106884765625,2.748543505859375,10.635043774414061,11.006697866464389
0.46008455608057697,-0.6416460449218749,2.767697119140625,9.907206469726562,10.306531765053414
0.4625714996269584,-0.5746083984375,2.7246014892578123,9.217676391601563,9.629080233704027
0.46505844317333994,-0.5315127685546874,2.6671406494140624,8.470685473632813,8.896553122423734
0.46754538671972146,-0.4740519287109375,2.5522189697265625,7.819462622070312,8.239086272063268
0.4700323302661029,-0.3687070556640625,2.5570073730468748,7.4028715332031245,7.840710333625502
0.47251927381248443,-0.39264907226562495,2.4564509033203126,6.957550024414062,7.3888988811999825
0.47500621735886595,-0.32082302246093747,2.408566870117187,6.842628344726562,7.261245378282052
0.4774931609052474,-0.3447650390625,2.3415292236328122,6.900089184570312,7.294714030879514
0.4799801044516289,-0.316034619140625,2.308010400390625,7.211335400390625,7.578268149500495
0.48246704799801043,-0.3447650390625,2.2457611572265623,7.6231380859375,7.954529551440375
0.4849539915443919,-0.411802685546875,2.2601263671875,8.259995727539062,8.573522150577517
0.4874409350907734,-0.4644751220703125,2.3319524169921872,8.939948999023438,9.250752797436439
0.4899278786371549,-0.5315127685546874,2.3032219970703123,9.643844287109374,9.92930360221387
0.4924148221835364,-0.6081272216796875,2.31758720703125,10.395623608398436,10.66817788506705
0.4949017657299179,-0.6655880615234374,2.43250888671875,11.037269653320312,11.321723735885525
0.4973887092762994,-0.7230489013671875,2.4899697265625,11.559205615234374,11.846433362334501
0.49987565282268087,-0.7852981445312499,2.5570073730468748,11.923124267578125,12.219487394393052
0.5023625963690624,-0.852335791015625,2.5713725830078125,12.042834350585936,12.343755200786473
0.5048495399154439,-0.814028564453125,2.6815058593749996,12.066776367187499,12.387905717808914
0.5073364834618254,-0.842758984375,2.7198130859375,11.769895361328125,12.109420413248314
0.5098234270082069,-0.7852981445312499,2.7724855224609373,11.3772462890625,11.736485942139842
0.5123103705545884,-0.70868369140625,2.7629087158203123,10.793061083984375,11.16360446760091
0.5147973141009698,-0.6560112548828124,2.7198130859375,10.122684619140625,10.50221299953281
0.5172842576473514,-0.584185205078125,2.7437551025390623,9.404424121093749,9.813901235795642
0.5197712011937329,-0.5267243652343749,2.6575638427734374,8.63827958984375,9.053173941091565
0.5222581447401143,-0.45968671875,2.6384102294921874,7.996633544921875,8.433188511485673
0.5247450882864959,-0.44532150878906246,2.5617957763671875,7.431601953125,7.873361190476037
0.5272320318328774,-0.40222587890625,2.446874096679687,7.062894897460937,7.485550269368558
0.5297189753792588,-0.33039982910156246,2.384624853515625,6.89530078125,7.30347674761696
0.5322059189256404,-0.3016694091796875,2.360682836914062,6.890512377929687,7.2899237800773795
0.5346928624720219,-0.3064578125,2.360682836914062,7.105990527343749,7.494120443523843
0.5371798060184033,-0.3399766357421875,2.2936451904296873,7.474697583007812,7.826077965996419
0.5396667495647849,-0.43574470214843747,2.2744915771484373,7.996633544921875,8.325222725653616
0.5421536931111663,-0.45489831542968745,2.2840683837890623,8.767566479492187,9.071610817904423
0.5446406366575478,-0.5363011718749999,2.29843359375,9.452308154296874,9.742512272284815
0.5471275802039294,-0.565031591796875,2.360682836914062,10.180145458984374,10.465536093402445
0.5496145237503108,-0.6560112548828124,2.389413256835937,10.86009873046875,11.139182686086317
0.5521014672966923,-0.6751648681640625,2.4947581298828125,11.429918725585937,11.718477196262295
0.5545884108430739,-0.7517793212890624,2.5474305664062498,11.822567797851562,12.117247376090639
0.5570753543894553,-0.7996633544921875,2.6384102294921874,12.071564770507813,12.382380466944637
0.5595622979358368,-0.8092401611328125,2.6431986328124997,12.057199560546874,12.370021418483635
0.5620492414822184,-0.814028564453125,2.7437551025390623,11.851298217773437,12.191968832516533
0.5645361850285998,-0.82360537109375,2.7246014892578123,11.487379565429686,11.834765243248887
0.5670231285749813,-0.737414111328125,2.77727392578125,10.960655200195312,11.331063164945236
0.5695100721213628,-0.6943184814453125,2.7964275390625,10.275913525390624,10.672229566318823
0.5719970156677443,-0.6560112548828124,2.7341782958984373,9.591171850585937,9.994831623782718
0.5744839592141258,-0.488417138671875,2.710236279296875,8.86812294921875,9.285878344746157
0.5769709027605073,-0.4836287353515625,2.6431986328124997,8.145074047851562,8.576865803493993
0.5794578463068888,-0.43574470214843747,2.5905261962890624,7.560888842773437,8.00423259981156
0.5819447898532703,-0.354341845703125,2.5234885498046875,7.1586629638671875,7.59868462530558
0.5844317333996518,-0.33518823242187495,2.427720483398437,6.885723974609375,7.308855762099617
0.5869186769460333,-0.296881005859375,2.3367408203125,6.813897924804687,7.209556222307476
0.5894056204924147,-0.2920926025390625,2.3319524169921872,7.058106494140625,7.439098564087171
0.5918925640387963,-0.33039982910156246,2.2744915771484373,7.364564306640625,7.714874166714233
0.5943795075851778,-0.38786066894531246,2.269703173828125,7.8721350585937495,8.201981393330577
0.5968664511315592,-0.4165910888671875,2.2553379638671873,8.56166513671875,8.863532443664289
0.5993533946779408,-0.5123591552734374,2.3032219970703123,9.217676391601563,9.514877904212428
0.6018403382243223,-0.5506663818359374,2.3367408203125,9.955090502929687,10.240479385601041
0.6043272817707037,-0.6464344482421874,2.39420166015625,10.66856259765625,10.953004472996392
0.6068142253170853,-0.699106884765625,2.4660277099609376,11.262324609375,11.550324614899601
0.6093011688634667,-0.7613561279296874,2.518700146484375,11.731588134765625,12.0230476063771
0.6117881124098483,-0.7900865478515624,2.5953145996093747,12.018892333984374,12.321268910300997
0.6142750559562298,-0.82360537109375,2.6336218261718747,12.076353173828124,12.38759846417424
0.6167619995026112,-0.833182177734375,2.6958710693359373,11.97100830078125,12.299063098510809
0.6192489430489928,-0.7805097412109374,2.729389892578125,11.635820068359374,11.977106215821397
0.6217358865953743,-0.7565677246093749,2.73896669921875,11.128249316406249,11.485306532672343
0.6242228301417557,-0.7230489013671875,2.7246014892578123,10.55364091796875,10.923625296322575
0.6267097736881373,-0.6081272216796875,2.767697119140625,9.840168823242188,10.240062916357239
0.6291967172345188,-0.565031591796875,2.70065947265625,9.074024291992187,9.48423634978804
0.6316836607809002,-0.5315127685546874,2.6384102294921874,8.365340600585936,8.78764119238133
0.6341706043272818,-0.38786066894531246,2.5761609863281247,7.752424975585937,8.178455497713637
0.6366575478736632,-0.36391865234375,2.5378537597656248,7.264007836914062,7.703177808296334
0.6391444914200447,-0.3447650390625,2.437297290039062,6.9719152343749995,7.393705637060602
0.6416314349664263,-0.3591302490234375,2.370259643554687,6.813897924804687,7.223317121882802
0.6441183785128077,-0.316034619140625,2.3511060302734372,6.928819604492187,7.323668381192498
0.6466053220591892,-0.3495534423828125,2.31758720703125,7.240065820312499,7.6099902203441685
0.6490922656055708,-0.3687070556640625,2.288856787109375,7.656656909179687,7.999950331700951
0.6515792091519522,-0.40222587890625,2.3223756103515623,8.264784130859374,8.594292923965451
0.6540661526983337,-0.4740519287109375,2.27927998046875,8.997409838867187,9.293719721888767
0.6565530962447153,-0.5602431884765625,2.3511060302734372,9.753977563476562,10.048962648185467
0.6590400397910967,-0.603338818359375,2.360682836914062,10.419565624999999,10.70066301683786
0.6615269833374782,-0.7038952880859375,2.4133552734375,11.061211669921875,11.343286819050025
0.6640139268838597,-0.718260498046875,2.518700146484375,11.6070896484375,11.898919223098371
0.6665008704302412,-0.7613561279296874,2.5522189697265625,11.889605444335936,12.184260438982374
0.6689878139766227,-0.7996633544921875,2.6575638427734374,12.061987963867187,12.377142671045338
0.6714747575230042,-0.7996633544921875,2.6719290527343746,12.014103930664062,12.333586647855578
0.6739617010693857,-0.7996633544921875,2.7198130859375,11.808202587890625,12.143742959220663
0.6764486446157671,-0.74699091796875,2.7820623291015623,11.348515869140625,11.708402054365507
0.6789355881621487,-0.6847416748046875,2.7437551025390623,10.793061083984375,11.157384585400893
0.6814225317085302,-0.6560112548828124,2.77727392578125,10.098742602539062,10.49419855814129
0.6839094752549116,-0.63206923828125,2.7437551025390623,9.351751684570312,9.766420181138749
0.6863964188012932,-0.507570751953125,2.6958710693359373,8.576030346679687,9.004090481436293
0.6888833623476747,-0.44532150878906246,2.6192566162109374,7.987056738281249,8.417356580796541
0.6913703058940561,-0.36391865234375,2.6240450195312497,7.4411787597656245,7.898682825942406
0.6938572494404377,-0.36391865234375,2.5330653564453125,7.053318090820312,7.5032095116583415
0.6963441929868192,-0.3495534423828125,2.39420166015625,6.852205151367187,7.266849704995944
0.6988311365332006,-0.316034619140625,2.346317626953125,6.885723974609375,7.281365183916861
0.7013180800795822,-0.3447650390625,2.2936451904296873,7.091625317382812,7.461288148428921
0.7038050236259636,-0.373495458984375,2.308010400390625,7.52737001953125,7.882113312883235
0.7062919671723451,-0.36391865234375,2.27927998046875,8.125920434570313,8.447374558042085
0.7087789107187267,-0.45010991210937495,2.3032219970703123,8.738836059570312,9.048463194201215
0.7112658542651081,-0.5123591552734374,2.3367408203125,9.514557397460937,9.810691720510123
0.7137527978114896,-0.584185205078125,2.375048046875,10.194510668945313,10.483805289971611
0.7162397413578712,-0.6655880615234374,2.398990063476562,10.864887133789061,11.146476269309368
0.7187266849042526,-0.7038952880859375,2.50912333984375,11.458649145507811,11.751247114710214
0.7212136284506341,-0.7709329345703124,2.5713725830078125,11.808202587890625,12.109498045208824
0.7237005719970157,-0.7996633544921875,2.6192566162109374,12.081141577148436,12.387653067033606
0.7261875155433971,-0.7996633544921875,2.70065947265625,12.090718383789062,12.414446991463633
0.7286744590897786,-0.7996633544921875,2.7054478759765623,11.889605444335936,12.2197228819694
0.7311614026361601,-0.7613561279296874,2.7916391357421872,11.525686791992188,11.883365190250052
0.7336483461825416,-0.7326257080078125,2.849099975585937,10.984597216796875,11.371696756165255
0.7361352897289231,-0.6943184814453125,2.7724855224609373,10.36210478515625,10.749045060119995
0.7386222332753046,-0.622492431640625,2.748543505859375,9.591171850585937,9.99662771631132
0.7411091768216861,-0.55545478515625,2.7341782958984373,8.863334545898438,9.292091274015323
0.7435961203680675,-0.430956298828125,2.6623522460937497,8.1594392578125,8.593619250101312
0.7460830639144491,-0.4261678955078125,2.5474305664062498,7.613561279296874,8.03973487867797
0.7485700074608306,-0.38307226562499996,2.499546533203125,7.163451367187499,7.59667774243447
0.7510569510072121,-0.354341845703125,2.4947581298828125,6.943184814453125,7.386284020932661
0.7535438945535936,-0.33039982910156246,2.403778466796875,6.880935571289062,7.296203759540835
0.7560308380999751,-0.32561142578124996,2.3223756103515623,7.024587670898437,7.40569262272567
0.7585177816463566,-0.3064578125,2.3223756103515623,7.292738256835937,7.659724286755793
0.7610047251927381,-0.38786066894531246,2.2840683837890623,7.886500268554687,8.21975004280864
0.7634916687391196,-0.430956298828125,2.3367408203125,8.508992700195313,8.83453664686448
0.7659786122855011,-0.469263525390625,2.3032219970703123,9.208099584960937,9.503375073657168
0.7684655558318826,-0.5410895751953124,2.365471240234375,9.945513696289062,10.237259144899788
0.770952499378264,-0.6272808349609375,2.446874096679687,10.70686982421875,11.000806130628671
0.7734394429246456,-0.6703764648437499,2.480392919921875,11.238382592773437,11.528356211679442
0.7759263864710271,-0.737414111328125,2.5139117431640625,11.745953344726562,12.034573187300708
0.7784133300174085,-0.7996633544921875,2.6096798095703124,11.966219897460936,12.273561374897943
0.7809002735637901,-0.7948749511718749,2.6815058593749996,12.105083593749999,12.423982802368101
0.7833872171101716,-0.8092401611328125,2.6479870361328124,11.923124267578125,12.240408378891125
0.785874160656553,-0.7948749511718749,2.7581203125,11.611878051757811,11.961386447026966
0.7883611042029346,-0.7326257080078125,2.7820623291015623,11.180921752929686,11.545112493006563
0.790848047749316,-0.7278373046875,2.7820623291015623,10.568006127929687,10.952276999102068
0.7933349912956975,-0.6512228515624999,2.7724855224609373,9.849745629882811,10.253207115241954
0.7958219348420791,-0.603338818359375,2.7150246826171873,9.09796630859375,9.513588582089664
0.7983088783884605,-1.0199299072265624,1.2497732666015624,4.1946413085937495,4.494130165151896
0.800795821934842,-1.35990654296875,1.5227122558593749,8.312668164062499,8.559699201816134
0.8032827654812236,-1.5801730957031248,1.7860744384765623,12.263100903320312,12.492824047315276
0.805769709027605,-1.7286135986328124,2.1787235107421874,15.782577343749999,16.02575080054254
0.8082566525739865,-1.7525556152343749,2.499546533203125,18.54548605957031,18.795058851779476
0.8107435961203681,-1.6998831787109374,2.863465185546875,20.4943662109375,20.763142394110776
0.8132305396667495,-1.5849614990234373,3.1364041748046874,21.5669685546875,21.851390499004822
0.815717483213131,-1.3407529296874998,3.356670727539062,21.58612216796875,21.88665180063079
0.8182044267595125,-1.0821791503906248,3.5098996337890624,20.738574780273435,21.061315036573717
0.820691370305894,-0.7709329345703124,3.5482068603515624,19.01953798828125,19.36303010381187
0.8231783138522755,-0.5315127685546874,3.5242648437499997,16.75941162109375,17.13420048900097
0.825665257398657,-0.24899697265624998,3.4811692138671875,14.092270971679687,14.51801087364294
0.8281522009450385,-0.033518823242187495,3.308786694335937,11.262324609375,11.73836225829906
0.83063914449142,0.08140285644531249,3.1028853515624997,8.456320263671875,9.007989583240324
0.8331260880378015,0.19153613281249998,2.834734765625,5.91846650390625,6.565108760673813
0.835613031584183,0.2442085693359375,2.6001030029296874,3.782838623046875,4.596742487805496
0.8380999751305644,0.2346317626953125,2.370259643554687,2.2266075439453124,3.2605159095891065
0.840586918676946,0.1149216796875,2.1643583007812497,1.2785036865234374,2.516391369218412
0.8430738622233275,0.01915361328125,2.001552587890625,1.0726023437499999,2.2709151042721474
0.8455608057697089,-0.201112939453125,1.8722656982421875,1.446097802734375,2.3742417977752326
0.8480477493160905,-0.3591302490234375,1.8243816650390623,2.35589443359375,3.001263330288156
0.850534692862472,-0.5410895751953124,1.8100164550781248,3.7397429931640622,4.189822806630171
0.8530216364088534,-0.7422025146484375,1.905784521484375,5.516240625,5.883178549728053
0.855508579955235,-0.9433154541015625,1.944091748046875,7.465120776367187,7.771574163354541
0.8579955235016165,-1.024718310546875,2.1212626708984375,9.313444458007812,9.60677108123815
0.8604824670479979,-1.0917559570312498,2.269703173828125,11.133037719726563,11.414377444076969
0.8629694105943795,-1.0869675537109373,2.4133552734375,12.732364428710937,13.004571737821763
0.8654563541407609,-1.1061211669921875,2.5522189697265625,13.934253662109374,14.209178400791115
0.8679432976871424,-0.9864110839843749,2.6719290527343746,14.753070629882812,15.02548850120235
0.870430241233524,-0.9720458740234375,2.829946362304687,15.145719702148437,15.43846802279212
0.8729171847799054,-0.7996633544921875,2.9735984619140625,15.093047265625,15.403954851128514
0.8754041283262869,-0.7326257080078125,2.9831752685546875,14.657302563476561,14.975733489490485
0.8778910718726685,-0.5410895751953124,2.987963671875,13.876792822265624,14.20514286675472
0.8803780154190499,-0.47884033203125,2.940079638671875,12.794613671875,13.136799281325851
0.8828649589654315,-0.354341845703125,2.935291235351562,11.583147631835937,11.954530598934216
0.885351902511813,-0.27293898925781246,2.849099975585937,10.342951171874999,10.731659019300384
0.8878388460581944,-0.239420166015625,2.7820623291015623,9.064447485351561,9.484798418184607
0.890325789604576,-0.258573779296875,2.6336218261718747,7.934384301757812,8.364046781947692
0.8928127331509574,-0.258573779296875,2.5617957763671875,7.043741284179687,7.49959660765897
0.8952996766973389,-0.26815058593749996,2.427720483398437,6.277596752929687,6.736019037580307
0.8977866202437205,-0.3064578125,2.398990063476562,5.870582470703124,6.349236825070267
0.9002735637901019,-0.44532150878906246,2.3127988037109373,5.72693037109375,6.192340512923438
0.9027605073364834,-0.4836287353515625,2.27927998046875,5.851428857421874,6.298272275512773
0.905247450882865,-0.5458779785156249,2.269703173828125,6.191405493164062,6.616875187389883
0.9077343944292464,-0.6272808349609375,2.2170307373046874,6.698976245117187,7.084136451869587
0.9102213379756279,-0.6703764648437499,2.2744915771484373,7.417236743164062,7.787048057080335
0.9127082815220094,-0.7230489013671875,2.288856787109375,8.212111694335936,8.55572577785859
0.9151952250683909,-0.7422025146484375,2.35589443359375,9.0021982421875,9.334917050870468
0.9176821686147724,-0.7422025146484375,2.375048046875,9.753977563476562,10.066369559405187
0.9201691121611539,-0.7613561279296874,2.39420166015625,10.467449658203124,10.764727915281822
0.9226560557075354,-0.7326257080078125,2.518700146484375,11.118672509765624,11.423899038215987
0.9251429992539169,-0.6751648681640625,2.5570073730468748,11.501744775390625,11.8018755790444
0.9276299428002984,-0.6464344482421874,2.5905261962890624,11.765106958007811,12.06426314380194
0.9301168863466799,-0.5985504150390625,2.6192566162109374,11.9135474609375,12.212754845853516
0.9326038298930613,-0.5315127685546874,2.6910826660156246,11.89439384765625,12.206598082251634
0.9350907734394429,-0.5458779785156249,2.7054478759765623,11.698069311523437,12.019245258927901
0.9375777169858244,-0.5506663818359374,2.6767174560546874,11.410765112304686,11.7334398303235
0.9400646605322058,-0.45968671875,2.6431986328124997,11.008539233398437,11.330743441856304
0.9425516040785874,-0.4740519287109375,2.6671406494140624,10.529698901367187,10.87257666923185
0.9450385476249689,-0.49320554199218747,2.6767174560546874,9.9981861328125,10.36203618950271
0.9475254911713503,-0.5123591552734374,2.6001030029296874,9.481038574218749,9.844447164552227
0.9500124347177319,-0.5315127685546874,2.5713725830078125,9.030928662109375,9.404899536087004
0.9524993782641133,-0.565031591796875,2.50912333984375,8.609549169921875,8.985504857467921
0.9549863218104948,-0.5506663818359374,2.5426421630859375,8.269572534179687,8.669146009362494
0.9574732653568764,-0.5410895751953124,2.499546533203125,7.967903124999999,8.368272880912619
0.9599602089032578,-0.5506663818359374,2.4756045166015626,7.781155395507812,8.1840228784958
0.9624471524496393,-0.5746083984375,2.4516625,7.704540942382812,8.105601455679535
0.9649340959960209,-0.6177040283203125,2.4660277099609376,7.7763669921875,8.181365077423301
0.9674210395424023,-0.5746083984375,2.418143676757812,7.886500268554687,8.268886269559635
0.9699079830887838,-0.5698199951171875,2.43250888671875,8.0828248046875,8.460133044702816
0.9723949266351654,-0.5506663818359374,2.422932080078125,8.29351455078125,8.657725852253368
0.9748818701815468,-0.5363011718749999,2.4133552734375,8.719682446289061,9.063374900494003
0.9773688137279283,-0.5698199951171875,2.389413256835937,9.064447485351561,9.391389607160109
0.9798557572743098,-0.565031591796875,2.427720483398437,9.447519750976562,9.77080942861609
0.9823427008206913,-0.507570751953125,2.4133552734375,9.868899243164062,10.172368653159943
0.9848296443670728,-0.5027823486328125,2.47081611328125,10.194510668945313,10.501703201623382
0.9873165879134543,-0.5219359619140624,2.499546533203125,10.55364091796875,10.85815300340768
0.9898035314598358,-0.565031591796875,2.4756045166015626,10.788272680664061,11.08308196553238
0.9922904750062173,-0.5219359619140624,2.5234885498046875,11.008539233398437,11.306119920760047
0.9947774185525988,-0.5746083984375,2.5426421630859375,11.094730493164063,11.396852578541223
0.9972643620989803,-0.6081272216796875,2.5617957763671875,11.099518896484375,11.40753856232686
0.9997513056453617,-0.6272808349609375,2.6096798095703124,11.008539233398437,11.331012576449684
1.0022382491917432,-1.9871873779296874,3.706224169921875,9.404424121093749,10.30185441180985
1.0047251927381249,-2.020706201171875,3.5721488769531247,9.3852705078125,10.243378527389634
1.0072121362845063,-1.9728221679687499,3.423708374023437,9.390058911132812,10.187591113277556
1.0096990798308878,-1.85790048828125,3.299209887695312,9.476250170898437,10.204699770638767
1.0121860233772693,-1.7238251953125,3.1316157714843746,9.433154541015625,10.087764630426681
1.0146729669236507,-1.5658078857421873,2.940079638671875,9.5001921875,10.067247598833625
1.0171599104700322,-1.3263877197265623,2.7581203125,9.5001921875,9.980991115149966
1.0196468540164139,-1.13006318359375,2.5426421630859375,9.528922607421874,9.92685438729974
1.0221337975627953,-0.9050082275390624,2.2936451904296873,9.5384994140625,9.852046448508315
1.0246207411091768,-0.70868369140625,2.1116858642578125,9.543287817382812,9.799785310361582
1.0271076846555582,-0.38786066894531246,1.8531120849609375,9.552864624023437,9.7386694585483
1.0295946282019397,-0.181959326171875,1.7477672119140624,9.6151138671875,9.774365150862952
1.0320815717483212,0.062249243164062495,1.5945383056640625,9.595960253906249,9.72773769028817
1.0345685152947028,0.26815058593749996,1.5083470458984374,9.6151138671875,9.736397189237431
1.0370554588410843,0.44053310546874996,1.3934253662109375,9.595960253906249,9.706603775922993
1.0395424023874658,0.6177040283203125,1.2832920898437499,9.643844287109374,9.748442413456152
1.0420293459338472,0.7661445312499999,1.2976572998046874,9.629479077148437,9.746679393913611
1.0445162894802287,0.814028564453125,1.2785036865234374,9.581595043945311,9.70073078517062
1.0470032330266101,0.86191259765625,1.3168109130859373,9.528922607421874,9.658014825265928
1.0494901765729918,0.8475473876953125,1.4700398193359374,9.528922607421874,9.678828426160786
1.0519771201193733,0.8475473876953125,1.5370774658203123,9.567229833984374,9.726912686284503
1.0544640636657547,0.7422025146484375,1.7238251953125,9.533711010742186,9.716690975486019
1.0569510072121362,0.6416460449218749,1.915361328125,9.495403784179686,9.707883996466714
1.0594379507585177,0.49320554199218747,2.0733786376953125,9.509768994140625,9.745658366874014
1.0619248943048991,0.296881005859375,2.2744915771484373,9.504980590820312,9.777837506219363
1.0644118378512808,0.08140285644531249,2.499546533203125,9.452308154296874,9.77755024228832
1.0668987813976623,-0.11013327636718749,2.7246014892578123,9.452308154296874,9.837769668863793
1.0693857249440437,-0.39264907226562495,2.89219560546875,9.437942944335937,9.878954182239347
1.0718726684904252,-0.63206923828125,3.0980969482421874,9.366116894531249,9.885436859578473
1.0743596120368066,-0.8714894042968749,3.289633081054687,9.3852705078125,9.983210009540326
1.076846555583188,-1.1109095703125,3.438073583984375,9.370905297851563,10.043322963223156
1.0793334991295698,-1.3646949462890625,3.5625720703124997,9.337386474609374,10.086679246849068
1.0818204426759512,-1.5275006591796874,3.6104561035156246,9.327809667968749,10.11813642629209
1.0843073862223327,-1.7286135986328124,3.7397429931640622,9.366116894531249,10.23220056050123
1.0867943297687142,-1.838746875,3.725377783203125,9.418789331054686,10.294319897919205
1.0892812733150956,-1.8914193115234375,3.787627026367187,9.414000927734374,10.32216057665519
1.0917682168614773,-1.9488801513671874,3.6822821533203123,9.351751684570312,10.237802267621598
1.0942551604078588,-2.020706201171875,3.6535517333984373,9.418789331054686,10.302683450580377
1.0967421039542402,-2.0063409912109376,3.5338416503906247,9.409212524414063,10.24923027903263
1.0992290475006217,-1.8770541015625,3.399766357421875,9.428366137695312,10.196853995801343
1.1017159910470031,-1.8195932617187498,3.246537451171875,9.442731347656249,10.149684742097355
1.1042029345933846,-1.6424223388671875,3.0406361083984375,9.466673364257812,10.077743977123783
1.1066898781397663,-1.465251416015625,2.849099975585937,9.495403784179686,10.021328525082565
1.1091768216861477,-1.254561669921875,2.6336218261718747,9.524134204101562,9.960874522082051
1.1116637652325292,-1.0582371337890624,2.418143676757812,9.490615380859374,9.850840826050252
1.1141507087789106,-0.7948749511718749,2.1787235107421874,9.519345800781249,9.797785811044905
1.116637652325292,-0.5315127685546874,2.0254946044921875,9.586383447265625,9.812435060369674
1.1191245958716736,-0.3112462158203125,1.8435352783203125,9.600748657226562,9.781097653561774
1.1216115394180552,-0.1149216796875,1.6519991455078125,9.6151138671875,9.75667580932164
1.1240984829644367,0.19632453613281248,1.5131354492187499,9.658209497070311,9.777992273492005
1.1265854265108182,0.3447650390625,1.4173673828125,9.6151138671875,9.72513279647131
1.1290723700571996,0.5506663818359374,1.3551181396484375,9.605537060546874,9.716270933749636
1.131559313603581,0.70868369140625,1.2976572998046874,9.648632690429688,9.761263229573824
1.1340462571499625,0.8044517578125,1.3215993164062498,9.567229833984374,9.691524858351949
1.1365332006963442,0.8810662109374999,1.3551181396484375,9.586383447265625,9.721695862269524
1.1390201442427257,0.8906430175781249,1.35990654296875,9.514557397460937,9.652429396786516
1.1415070877891071,0.8762778076171874,1.4604630126953124,9.557653027343749,9.708220557788465
1.1439940313354886,0.8188169677734375,1.6232687255859375,9.552864624023437,9.724334687118576
1.14648097488187,0.7134720947265625,1.7717092285156248,9.514557397460937,9.704370071773829
1.1489679184282515,0.5985504150390625,2.001552587890625,9.548076220703125,9.773956971349504
1.1514548619746332,0.39743747558593745,2.1547814941406247,9.490615380859374,9.740267970743698
1.1539418055210147,0.1580173095703125,2.3367408203125,9.447519750976562,9.733496626420067
1.1564287490673961,-0.0143652099609375,2.5953145996093747,9.409212524414063,9.760591404202577
1.1589156926137776,-0.277727392578125,2.7437551025390623,9.366116894531249,9.763681183309965
1.161402636160159,-0.47884033203125,2.9544448486328125,9.3852705078125,9.85095604152246
1.1638895797065405,-0.7709329345703124,3.1699229980468746,9.380482104492186,9.931575600872696
1.1663765232529222,-1.005564697265625,3.375824340820312,9.370905297851563,10.011054711755614
1.1688634667993036,-1.22583125,3.5051112304687497,9.399635717773437,10.10651367278929
1.171350410345685,-1.4317325927734375,3.5865140869140624,9.361328491210937,10.126569637996887
1.1738373538920666,-1.6136919189453125,3.6583401367187496,9.323021264648437,10.144268315964622
1.176324297438448,-1.7334020019531249,3.797203833007812,9.442731347656249,10.32417622640152
1.1788112409848295,-1.8914193115234375,3.801992236328125,9.390058911132812,10.305620715495396
1.1812981845312112,-1.9728221679687499,3.7205893798828122,9.390058911132812,10.29116217900925
1.1837851280775926,-1.9776105712890624,3.687070556640625,9.380482104492186,10.271264643363962
1.186272071623974,-1.9632453613281249,3.6008792968749996,9.452308154296874,10.303727165605006
1.1887590151703555,-1.9393033447265624,3.4859576171874997,9.390058911132812,10.202254864795327
1.191245958716737,-1.8914193115234375,3.289633081054687,9.433154541015625,10.167770523308286
1.1937329022631185,-1.7381904052734374,3.1028853515624997,9.418789331054686,10.067909209598353
1.1962198458095001,-1.5658078857421873,2.925714428710937,9.442731347656249,10.008832826929911
1.1987067893558816,-1.35990654296875,2.7581203125,9.509768994140625,9.994612538050323
1.201193732902263,-1.1444283935546875,2.5426421630859375,9.543287817382812,9.94228785958663
1.2036806764486445,-0.948103857421875,2.3415292236328122,9.524134204101562,9.853466007822934
1.206167619995026,-0.689530078125,2.1308394775390624,9.552864624023437,9.8118882552033
1.2086545635414074,-0.44532150878906246,1.9536685546875,9.605537060546874,9.812312382374728
1.2111415070877891,-0.16280571289062498,1.7477672119140624,9.576806640625,9.7363453800238
1.2136284506341706,0.0430956298828125,1.637633935546875,9.576806640625,9.71591105208816
1.216115394180552,0.239420166015625,1.5035586425781249,9.624690673828125,9.74436663793191
1.2186023377269335,0.44532150878906246,1.35990654296875,9.624690673828125,9.730484449331055
1.221089281273315,0.5602431884765625,1.2785036865234374,9.600748657226562,9.70169154765941
1.2235762248196966,0.7230489013671875,1.3120225097656248,9.591171850585937,9.707460030686299
1.226063168366078,0.833182177734375,1.3311761230468748,9.629479077148437,9.756694609810426
1.2285501119124596,0.9097966308593749,1.3407529296874998,9.591171850585937,9.727071799645604
1.231037055458841,0.8571241943359375,1.3838485595703125,9.562441430664062,9.699999218310351
1.2335239990052225,0.8571241943359375,1.5610194824218748,9.581595043945311,9.745686599474356
1.236010942551604,0.7565677246093749,1.6807295654296874,9.5384994140625,9.714948155605398
1.2384978860979856,0.63206923828125,1.89620771484375,9.524134204101562,9.731610738081939
1.240984829644367,0.488417138671875,2.0159177978515626,9.4618849609375,9.686575395002011
1.2434717731907485,0.3016694091796875,2.1787235107421874,9.485826977539062,9.73749218312926
1.24595871673713,0.1197100830078125,2.480392919921875,9.423577734375,9.745280747981587
1.2484456602835114,-0.1149216796875,2.6336218261718747,9.466673364257812,9.826854812263148
1.250932603829893,-0.33518823242187495,2.839523168945312,9.404424121093749,9.82946773877107
1.2534195473762746,-0.5985504150390625,3.0837317382812497,9.437942944335937,9.94698100197075
1.255906490922656,-0.8571241943359375,3.23696064453125,9.351751684570312,9.933168460698925
1.2583934344690375,-1.0965443603515623,3.418919970703125,9.390058911132812,10.05309055240408
1.260880378015419,-1.3072341064453123,3.5817256835937497,9.366116894531249,10.112455961021174
1.2633673215618004,-1.5370774658203123,3.6296097167968746,9.356540087890625,10.152906788132313
1.2658542651081819,-1.675941162109375,3.749319799804687,9.404424121093749,10.26203541162619
1.2683412086545636,-1.8435352783203125,3.725377783203125,9.3852705078125,10.26451968943555
1.270828152200945,-1.924938134765625,3.778050219726562,9.356540087890625,10.272482304767196
1.2733150957473265,-1.9728221679687499,3.7014357666015623,9.3852705078125,10.279881154250827
1.275802039293708,-2.01112939453125,3.6727053466796873,9.370905297851563,10.26388192188412
1.2782889828400894,-1.9776105712890624,3.5242648437499997,9.447519750976562,10.275554277296127
1.2807759263864709,-1.93451494140625,3.399766357421875,9.414000927734374,10.194320615468463
1.2832628699328525,-1.848323681640625,3.246537451171875,9.452308154296874,10.163780561275528
1.285749813479234,-1.6328455322265625,3.0502129150390624,9.5001921875,10.110570456636923
1.2882367570256155,-1.4987702392578124,2.863465185546875,9.5001921875,10.034908903341373
1.290723700571997,-1.2880804931640624,2.6288334228515624,9.509768994140625,9.950156925591155
1.2932106441183784,-1.0678139404296874,2.47081611328125,9.567229833984374,9.938664174490802
1.2956975876647598,-0.8283937744140625,2.231395947265625,9.528922607421874,9.82169690925133
1.2981845312111415,-0.59376201171875,2.0638018310546875,9.595960253906249,9.833325201526362
1.300671474757523,-0.33518823242187495,1.8531120849609375,9.6151138671875,9.797795171851865
1.3031584183039044,-0.0909796630859375,1.6903063720703124,9.634267480468749,9.781846595391608
1.305645361850286,0.13407529296874998,1.5035586425781249,9.557653027343749,9.676125059493039
1.3081323053966674,0.373495458984375,1.455674609375,9.605537060546874,9.722388063012117
1.3106192489430488,0.507570751953125,1.350329736328125,9.639055883789062,9.746405326881229
1.3131061924894305,0.6703764648437499,1.3168109130859373,9.6151138671875,9.727991070329988
1.315593136035812,0.7517793212890624,1.2928688964843749,9.591171850585937,9.707072658576665
1.3180800795821934,0.8475473876953125,1.3455413330078123,9.624690673828125,9.755177528886682
1.3205670231285749,0.8714894042968749,1.4221557861328125,9.610325463867188,9.753992843102091
1.3230539666749563,0.86191259765625,1.484405029296875,9.557653027343749,9.710565534926044
1.3255409102213378,0.8283937744140625,1.6424223388671875,9.562441430664062,9.737765323706384
1.3280278537677195,0.718260498046875,1.6903063720703124,9.481038574218749,9.657283583924618
1.330514797314101,0.584185205078125,1.905784521484375,9.495403784179686,9.702369814678036
1.3330017408604824,0.4261678955078125,2.1499930908203124,9.476250170898437,9.726428258471314
1.3354886844068639,0.2154781494140625,2.29843359375,9.471461767578125,9.748734063069296
1.3379756279532453,-0.0143652099609375,2.5905261962890624,9.4618849609375,9.810112096552839
1.3404625714996268,-0.2154781494140625,2.77727392578125,9.428366137695312,9.831264889023126
1.3429495150460085,-0.5027823486328125,2.959233251953125,9.404424121093749,9.871830862558967
1.34543645859239,-0.70868369140625,3.1555577880859373,9.414000927734374,9.954053998035105
1.3479234021387714,-0.9337386474609375,3.347093920898437,9.390058911132812,10.012397911171039
1.3504103456851528,-1.1827356201171875,3.4332851806640625,9.3852705078125,10.063280438489059
1.3528972892315343,-1.446097802734375,3.5913024902343746,9.342174877929686,10.112610141860376
1.3553842327779158,-1.5801730957031248,3.69664736328125,9.370905297851563,10.196862990260323
1.3578711763242974,-1.7334020019531249,3.754108203125,9.418789331054686,10.286476722568088
1.360358119870679,-1.8770541015625,3.7205893798828122,9.370905297851563,10.255729302940471
1.3628450634170604,-1.9584569580078124,3.7397429931640622,9.351751684570312,10.26043326966033
1.3653320069634418,-2.01112939453125,3.6918589599609373,9.390058911132812,10.28822970079577
1.3678189505098233,-1.9871873779296874,3.5817256835937497,9.447519750976562,10.297247301711774
1.370305894056205,-1.9919757812499999,3.4715924072265625,9.452308154296874,10.264796675959385
1.3727928376025864,-1.838746875,3.380612744140625,9.485826977539062,10.236720473080045
1.3752797811489679,-1.7764976318359373,3.1651345947265623,9.437942944335937,10.11181427139532
1.3777667246953493,-1.6136919189453125,3.0071172851562498,9.476250170898437,10.072044145922295
1.3802536682417308,-1.4413093994140624,2.7533319091796873,9.4618849609375,9.959190549485516
1.3827406117881123,-1.1635820068359375,2.5857377929687497,9.524134204101562,9.937257939610733
1.385227555334494,-0.9720458740234375,2.3367408203125,9.5384994140625,9.86854608919629
1.3877144988808754,-0.70868369140625,2.1691467041015624,9.562441430664062,9.830957029367
1.3902014424272569,-0.4740519287109375,1.9393033447265624,9.543287817382812,9.749870002178971
1.3926883859736383,-0.201112939453125,1.7429788085937499,9.591171850585937,9.75033327682159
1.3951753295200198,-0.028730419921875,1.5514426757812498,9.576806640625,9.701702182874058
1.3976622730664012,0.21068974609375,1.455674609375,9.567229833984374,9.679631472001855
1.400149216612783,0.411802685546875,1.37906015625,9.619902270507811,9.726968081601854
1.4026361601591644,0.5889736083984375,1.3024457031249999,9.605537060546874,9.711312833109545
1.4051231037055458,0.7278373046875,1.3359645263671873,9.643844287109374,9.763108162456176
1.4076100472519273,0.833182177734375,1.2928688964843749,9.605537060546874,9.727900325678219
1.4100969907983087,0.8667010009765624,1.3168109130859373,9.562441430664062,9.691514211968972
1.4125839343446902,0.9050082275390624,1.4604630126953124,9.586383447265625,9.739134443130602
1.4150708778910719,0.8379705810546875,1.5466542724609373,9.624690673828125,9.784120026865414
1.4175578214374533,0.7900865478515624,1.6807295654296874,9.581595043945311,9.759920707227227
1.4200447649838348,0.6751648681640625,1.8291700683593748,9.552864624023437,9.749817088699833
1.4225317085302163,0.507570751953125,1.9967641845703124,9.524134204101562,9.744425463553934
1.4250186520765977,0.36391865234375,2.231395947265625,9.495403784179686,9.760853327635399
1.4275055956229792,0.0718260498046875,2.4133552734375,9.485826977539062,9.788276462435407
1.4299925391693609,-0.105344873046875,2.6431986328124997,9.418789331054686,9.783209545827418
1.4324794827157423,-0.36391865234375,2.7964275390625,9.390058911132812,9.804368930293045
1.4349664262621238,-0.5889736083984375,3.0502129150390624,9.370905297851563,9.872413830455217
1.4374533698085052,-0.833182177734375,3.2609026611328122,9.442731347656249,10.024612411993155
1.4399403133548867,-1.0726023437499999,3.404554760742187,9.433154541015625,10.085924523879504
1.4424272569012682,-5.008669873046875,3.6200329101562496,8.719682446289061,10.687575690113418
1.4449142004476498,-6.3973068359375,4.99909306640625,8.647856396484375,11.861782601866357
1.4474011439940313,-7.4603323730468745,6.210559106445312,8.667010009765624,13.013249634136722
1.4498880875404128,-8.25520732421875,7.220912207031249,8.686163623046875,13.990691889746934
1.4523750310867942,-8.719682446289061,7.982268334960937,8.724470849609375,14.692374258135592
1.4548619746331757,-8.968679418945312,8.518569506835936,8.738836059570312,15.144982424507948
1.4573489181795571,-8.872911352539061,8.839392529296875,8.896853369140624,15.362858328741915
1.4598358617259388,-8.59997236328125,8.877699755859375,8.9255837890625,15.245954334837888
1.4623228052723203,-8.087613208007811,8.700528833007812,9.064447485351561,14.94231901650607
1.4648097488187017,-7.407659936523437,8.403647827148436,9.179369165039063,14.482939646562814
1.4672966923650832,-6.53138212890625,7.8912886718749995,9.279925634765624,13.822026233640232
1.4697836359114647,-5.5545478515625,7.268796240234375,9.34696328125,13.078766119109964
1.4722705794578461,-4.525041137695312,6.545747338867187,9.490615380859374,12.385256793039305
1.4747575230042278,-3.4572271972656248,5.80354482421875,9.5384994140625,11.68830712688112
1.4772444665506093,-2.360682836914062,4.908113403320312,9.667786303710937,11.096327890368682
1.4797314100969907,-1.350329736328125,4.04141240234375,9.667786303710937,10.565154831655361
1.4822183536433722,-0.3016694091796875,3.227383837890625,9.787496386718749,10.310290800435505
1.4847052971897536,0.6177040283203125,2.398990063476562,9.840168823242188,10.147198335558933
1.487192240736135,1.37906015625,1.637633935546875,9.840168823242188,10.07038104002617
1.4896791842825168,2.1547814941406247,1.01514150390625,9.873687646484374,10.156933754868252
1.4921661278288982,2.729389892578125,0.4644751220703125,9.892841259765625,10.272955490785062
1.4946530713752797,3.1938650146484373,-0.01915361328125,9.868899243164062,10.372864255567078
1.4971400149216612,3.4907460205078125,-0.32561142578124996,9.849745629882811,10.455085822396962
1.4996269584680426,3.6535517333984373,-0.603338818359375,9.849745629882811,10.522829798668871
1.5021139020144243,3.687070556640625,-0.6847416748046875,9.792284790039062,10.485809547197151
1.5046008455608058,3.5529952636718747,-0.6943184814453125,9.763554370117188,10.413109402843405
1.5070877891071872,3.3710359375,-0.584185205078125,9.744400756835937,10.327560300263245
1.5095747326535687,3.0310593017578125,-0.33518823242187495,9.639055883789062,10.109949058859556
1.5120616761999501,2.6719290527343746,-0.05746083984375,9.605537060546874,9.970398629568482
1.5145486197463316,2.1691467041015624,0.3112462158203125,9.595960253906249,9.842993692232339
1.5170355632927133,1.6472107421875,0.718260498046875,9.452308154296874,9.621607496464383
1.5195225068390947,1.0630255371093749,1.1731588134765625,9.452308154296874,9.583968611069821
1.5220094503854762,0.49320554199218747,1.5849614990234373,9.356540087890625,9.502641584125055
1.5244963939318577,-0.1005564697265625,2.04943662109375,9.361328491210937,9.58356787359706
1.5269833374782391,-0.622492431640625,2.5043349365234375,9.294290844726563,9.645881639752258
1.5294702810246206,-1.1731588134765625,2.978386865234375,9.303867651367186,9.839158662954631
1.5319572245710023,-1.695094775390625,3.299209887695312,9.203311181640624,9.922654326677637
1.5344441681173837,-2.068590234375,3.7158009765625,9.265560424804686,10.194942493260138
1.5369311116637652,-2.427720483398437,3.9839515624999997,9.251195214843749,10.360999454734394
1.5394180552101466,-2.7533319091796873,4.218583325195312,9.2320416015625,10.517027812395654
1.541904998756528,-2.920926025390625,4.371812231445312,9.251195214843749,10.640919318177682
1.5443919423029095,-3.0837317382812497,4.486733911132812,9.303867651367186,10.779709453280686
1.5468788858492912,-3.1364041748046874,4.46279189453125,9.289502441406249,10.772576212332812
1.5493658293956727,-3.1076737548828124,4.4196962646484375,9.34696328125,10.79616014236407
1.5518527729420541,-3.0358477050781247,4.347870214843749,9.351751684570312,10.750609576364365
1.5543397164884356,-2.85388837890625,4.180276098632812,9.394847314453125,10.671576415972666
1.556826660034817,-2.6144682128906247,3.9791631591796874,9.394847314453125,10.532442240310434
1.5593136035811985,-2.384624853515625,3.725377783203125,9.447519750976562,10.431706704306832
1.5618005471275802,-2.0446482177734375,3.4620156005859375,9.481038574218749,10.29836058792701
1.5642874906739617,-1.70467158203125,3.1411925781249996,9.557653027343749,10.204005458962948
1.5667744342203431,-1.3024457031249999,2.85388837890625,9.581595043945311,10.082063641685776
1.5692613777667246,-0.9145850341796874,2.5522189697265625,9.581595043945311,9.95777339771974
1.571748321313106,-0.59376201171875,2.2266075439453124,9.595960253906249,9.86877842875515
1.5742352648594875,-0.17238251953125,2.0159177978515626,9.658209497070311,9.867859493833189
1.5767222084058692,0.15322890625,1.6519991455078125,9.629479077148437,9.771358532553629
1.5792091519522506,0.43574470214843747,1.4508862060546874,9.648632690429688,9.766834544682254
1.581696095498632,0.7230489013671875,1.3072341064453123,9.658209497070311,9.773058447186393
1.5841830390450136,0.9864110839843749,1.2018892333984375,9.696516723632811,9.820385996876961
1.586669982591395,1.0917559570312498,1.0103531005859374,9.662997900390625,9.776823250960941
1.5891569261377765,1.2497732666015624,0.9959878906249999,9.672574707031249,9.803704736439395
1.5916438696841582,1.3407529296874998,1.01514150390625,9.610325463867188,9.756356195469326
1.5941308132305396,1.3263877197265623,1.0486603271484374,9.595960253906249,9.743790128041807
1.596617756776921,1.24498486328125,1.149216796875,9.6151138671875,9.763252595062797
1.5991047003233025,1.139639990234375,1.2880804931640624,9.5384994140625,9.692311475405742
1.601591643869684,0.9959878906249999,1.4508862060546874,9.5384994140625,9.699486261305907
1.6040785874160655,0.8571241943359375,1.6711527587890624,9.509768994140625,9.693457574552165
1.6065655309624471,0.5746083984375,1.8914193115234375,9.485826977539062,9.689610687296295
1.6090524745088286,0.36391865234375,2.1595698974609374,9.5001921875,9.749350261785612
1.61153941805521,0.06703764648437499,2.422932080078125,9.437942944335937,9.744221925390368
1.6140263616015915,-0.22026655273437498,2.6288334228515624,9.399635717773437,9.762808722196553
1.616513305147973,-0.507570751953125,2.8730419921875,9.404424121093749,9.846582727348657
1.6190002486943544,-0.8188169677734375,3.1411925781249996,9.399635717773437,9.944380506920652
1.6214871922407361,-1.0821791503906248,3.356670727539062,9.34696328125,9.990198830238244
1.6239741357871176,-1.3838485595703125,3.4715924072265625,9.356540087890625,10.075308089286514
1.626461079333499,-1.608903515625,3.6727053466796873,9.327809667968749,10.153096487671695
1.6289480228798805,-1.7908628417968748,3.782838623046875,9.370905297851563,10.263085494501468
1.631434966426262,-1.9680337646484374,3.873818286132812,9.375693701171874,10.333598472505463
1.6339219099726436,-2.0350714111328125,3.864241479492187,9.337386474609374,10.308281332814706
1.636408853519025,-2.1835119140624997,3.845087866210937,9.366116894531249,10.357440352701007
1.6388957970654066,-2.1930887207031247,3.744531396484375,9.394847314453125,10.348638054257169
1.641382740611788,-2.1835119140624997,3.7014357666015623,9.428366137695312,10.361584774520246
1.6438696841581695,-2.1164742675781247,3.5673604736328124,9.390058911132812,10.265414284319109
1.646356627704551,-2.0254946044921875,3.404554760742187,9.418789331054686,10.21798482943231
1.6488435712509326,-1.85790048828125,3.1938650146484373,9.452308154296874,10.148827390390387
1.651330514797314,-1.66636435546875,3.0262708984374997,9.471461767578125,10.081848725834
1.6538174583436955,-1.4317325927734375,2.7964275390625,9.519345800781249,10.024360811208288
1.656304401890077,-1.1731588134765625,2.5953145996093747,9.548076220703125,9.963820501641917
1.6587913454364585,-0.928950244140625,2.370259643554687,9.519345800781249,9.85388369166211
1.66127828898284,-0.6751648681640625,2.0781670410156248,9.567229833984374,9.81358815856093
1.6637652325292216,-0.3687070556640625,1.915361328125,9.533711010742186,9.731197230891995
1.666252176075603,-0.1197100830078125,1.7238251953125,9.586383447265625,9.74087528951974
1.6687391196219845,0.105344873046875,1.5227122558593749,9.634267480468749,9.754427714717007
1.671226063168366,0.33518823242187495,1.455674609375,9.610325463867188,9.725723378802588
1.6737130067147474,0.5410895751953124,1.3551181396484375,9.639055883789062,9.748872828773479
1.676199950261129,0.7038952880859375,1.2976572998046874,9.624690673828125,9.737250824087878
1.6786868938075106,0.833182177734375,1.2689268798828124,9.591171850585937,9.710558451255798
1.681173837353892,0.9002198242187499,1.24498486328125,9.586383447265625,9.708714159955695
1.6836607809002735,0.93852705078125,1.2785036865234374,9.591171850585937,9.721418732313419
1.686147724446655,0.9528922607421875,1.3838485595703125,9.581595043945311,9.727795437948135
1.6886346679930364,0.8906430175781249,1.5179238525390624,9.576806640625,9.737174294362138
1.6911216115394179,0.7900865478515624,1.6519991455078125,9.533711010742186,9.707985556550923
1.6936085550857995,0.6751648681640625,1.8339584716796873,9.524134204101562,9.72257083351857
1.696095498632181,0.488417138671875,2.0350714111328125,9.524134204101562,9.75136909810596
1.6985824421785625,0.26815058593749996,2.231395947265625,9.433154541015625,9.69718707692575
1.701069385724944,0.086191259765625,2.446874096679687,9.457096557617186,9.768894363148618
1.7035563292713254,-0.16280571289062498,2.7150246826171873,9.428366137695312,9.812846312554273
1.7060432728177068,-0.411802685546875,2.89219560546875,9.437942944335937,9.879733999084028
1.7085302163640885,-0.6655880615234374,3.1028853515624997,9.394847314453125,9.916353212470337
1.71101715991047,-0.928950244140625,3.3327287109375,9.418789331054686,10.034122865481846
1.7135041034568514,-1.16837041015625,3.380612744140625,9.370905297851563,10.030328909984815
1.715991047003233,-1.37906015625,3.5482068603515624,9.380482104492186,10.123488694669458
1.7184779905496144,-1.5514426757812498,3.687070556640625,9.380482104492186,10.197789377045382
1.7209649340959958,-1.7238251953125,3.73495458984375,9.34696328125,10.212109560380991
1.7234518776423775,-1.886630908203125,3.725377783203125,9.3852705078125,10.272347264193606
1.725938821188759,-2.0159177978515626,3.7158009765625,9.380482104492186,10.289049809278584
1.7284257647351404,-2.0350714111328125,3.706224169921875,9.356540087890625,10.267543798904756
1.7309127082815219,-2.0254946044921875,3.6056677001953124,9.418789331054686,10.286741973037348
1.7333996518279033,-2.01112939453125,3.5577836669921874,9.399635717773437,10.249664272038679
1.7358865953742848,-1.9105729248046874,3.399766357421875,9.414000927734374,10.189804397211851
1.7383735389206665,-1.7956512451171873,3.21780703125,9.457096557617186,10.149646337904965
1.740860482467048,-1.6615759521484375,3.0358477050781247,9.485826977539062,10.097431325886498
1.7433474260134294,-1.4700398193359374,2.8012159423828122,9.504980590820312,10.017608689610695
1.7458343695598109,-1.2593500732421874,2.5809493896484375,9.490615380859374,9.915595930971888
1.7483213131061923,-1.0486603271484374,2.35589443359375,9.562441430664062,9.904050342100128
1.7508082566525738,-0.8188169677734375,2.1691467041015624,9.5384994140625,9.816243157272492
1.7532952001989555,-0.5506663818359374,1.9536685546875,9.533711010742186,9.74739451966554
1.755782143745337,-0.277727392578125,1.8100164550781248,9.576806640625,9.75030858507365
1.7582690872917184,-0.023942016601562498,1.6424223388671875,9.624690673828125,9.76385143917312
1.7607560308380998,0.181959326171875,1.5035586425781249,9.624690673828125,9.74312415783184
1.7632429743844813,0.373495458984375,1.407790576171875,9.610325463867188,9.720068347789246
1.765729917930863,0.5698199951171875,1.3455413330078123,9.610325463867188,9.720778355004391
1.7682168614772444,0.679953271484375,1.2976572998046874,9.648632690429688,9.759219421345497
1.770703805023626,0.7517793212890624,1.216254443359375,9.548076220703125,9.654543310548963
1.7731907485700074,0.852335791015625,1.350329736328125,9.600748657226562,9.732637950560775
1.7756776921163888,0.8858546142578124,1.3934253662109375,9.519345800781249,9.66148627922503
1.7781646356627703,0.8714894042968749,1.465251416015625,9.557653027343749,9.708511053968607
1.780651579209152,0.8044517578125,1.68551796875,9.572018237304688,9.752520012228649
1.7831385227555334,0.70868369140625,1.8052280517578123,9.5384994140625,9.733655632155328
1.7856254663019149,0.5506663818359374,2.01112939453125,9.5384994140625,9.763751634372033
1.7881124098482963,0.3687070556640625,2.1452046874999997,9.457096557617186,9.704355895383436
1.7905993533946778,0.1292868896484375,2.403778466796875,9.4618849609375,9.763305435726496
1.7930862969410593,-0.047884033203124995,2.6144682128906247,9.457096557617186,9.811952518074378
1.795573240487441,-0.3016694091796875,2.829946362304687,9.404424121093749,9.825619262691095
1.7980601840338224,-0.55545478515625,3.0166940917968748,9.423577734375,9.91023665598574
1.8005471275802039,-0.7900865478515624,3.21780703125,9.409212524414063,9.975560093200201
1.8030340711265853,-1.0103531005859374,3.361459130859375,9.375693701171874,10.011186405940878
1.8055210146729668,-1.254561669921875,3.5386300537109374,9.404424121093749,10.126155276810314
1.8080079582193482,-1.4700398193359374,3.6104561035156246,9.394847314453125,10.171507577922437
1.81049490176573,-1.62805712890625,3.73495458984375,9.3852705078125,10.231508115033309
1.8129818453121114,-1.7717092285156248,3.7110125732421873,9.375693701171874,10.237880654088666
1.8154687888584928,-1.924938134765625,3.7397429931640622,9.380482104492186,10.280297125584106
1.8179557324048743,-1.9536685546875,3.7014357666015623,9.399635717773437,10.289343962697243
1.8204426759512558,-2.0350714111328125,3.6439749267578123,9.390058911132812,10.275858858012523
1.8229296194976372,-1.9680337646484374,3.5865140869140624,9.447519750976562,10.295235288205975
1.825416563044019,-1.9632453613281249,3.42849677734375,9.442731347656249,10.235921932344095
1.8279035065904004,-1.85790048828125,3.284844677734375,9.437942944335937,10.164485515840733
1.8303904501367818,-1.70467158203125,3.1124621582031247,9.466673364257812,10.109956996663225
1.8328773936831633,-1.5849614990234373,2.896984008789062,9.490615380859374,10.048701389133358
1.8353643372295447,-1.3742717529296875,2.6862942626953124,9.519345800781249,9.986127587385502
1.8378512807759262,-1.1444283935546875,2.528276953125,9.485826977539062,9.883461647999908
1.8403382243223079,-0.948103857421875,2.2553379638671873,9.557653027343749,9.865808717323276
1.8428251678686893,-0.6560112548828124,2.0973206542968748,9.591171850585937,9.839699292201225
1.8453121114150708,-0.4261678955078125,1.867477294921875,9.552864624023437,9.743013550597615
1.8477990549614522,-0.19153613281249998,1.7094599853515624,9.557653027343749,9.711213668887327
1.8502859985078337,0.0047884033203125,1.5753846923828123,9.572018237304688,9.70079342080296
1.8527729420542152,0.258573779296875,1.4939818359375,9.600748657226562,9.719733376214014
1.8552598856005968,0.4261678955078125,1.3455413330078123,9.600748657226562,9.703941226802213
1.8577468291469783,0.603338818359375,1.3407529296874998,9.624690673828125,9.736339492595716
1.8602337726933598,0.7038952880859375,1.254561669921875,9.610325463867188,9.717394150783472
1.8627207162397412,0.7709329345703124,1.24498486328125,9.567229833984374,9.678647198637075
1.8652076597861227,0.8810662109374999,1.3407529296874998,9.567229833984374,9.700813511391818
1.8676946033325041,0.842758984375,1.4700398193359374,9.567229833984374,9.716128162620063
1.8701815468788858,0.8379705810546875,1.5418658691406248,9.562441430664062,9.722130999323886
1.8726684904252673,0.70868369140625,1.6807295654296874,9.548076220703125,9.720742973812811
1.8751554339716487,0.6272808349609375,1.886630908203125,9.557653027343749,9.762253265552465
1.8776423775180302,0.44532150878906246,2.0638018310546875,9.5001921875,9.731970039179677
1.8801293210644117,0.2346317626953125,2.2744915771484373,9.490615380859374,9.76217928056995
1.8826162646107931,0.062249243164062495,2.480392919921875,9.433154541015625,9.754005771997306
1.8851032081571748,-0.16759411621093748,2.70065947265625,9.409212524414063,9.79055308471523
1.8875901517035563,-3.797203833007812,2.6431986328124997,8.777143286132812,9.921869794913526
1.8900770952499377,-5.238513232421875,4.1754876953124995,8.738836059570312,11.011084145351518
1.8925640387963192,-6.4834980957031245,5.549759448242187,8.719682446289061,12.201165495741014
1.8950509823427006,-7.41244833984375,6.6893994384765625,8.686163623046875,13.234118547326291
1.897537925889082,-8.106766821289062,7.64229169921875,8.71489404296875,14.144739972543615
1.9000248694354638,-8.489839086914062,8.355763793945313,8.757989672851561,14.785078268703069
1.9025118129818452,-8.662221606445312,8.810662109374999,8.805873706054687,15.17251665649867
1.9049987565282267,-8.508992700195313,9.050082275390624,8.882488159179687,15.271068785821246
1.9074857000746082,-8.212111694335936,9.035717065429687,8.959102612304687,15.14425570916415
1.9099726436209896,-7.675810522460937,8.9255837890625,9.09796630859375,14.878074610130314
1.9124595871673713,-7.0102224609374995,8.518569506835936,9.160215551757812,14.33941401694272
1.9149465307137528,-6.229712719726562,8.010998754882811,9.275137231445312,13.748221422540439
1.9174334742601342,-5.3007624755859375,7.369352709960937,9.399635717773437,13.067463174359082
1.9199204178065157,-4.357447021484375,6.641515405273437,9.4618849609375,12.354122325666955
1.9224073613528971,-3.361459130859375,5.837063647460937,9.562441430664062,11.696623684971165
1.9248943048992786,-2.370259643554687,5.0182466796875,9.648632690429688,11.130904873858505
1.9273812484456603,-1.3742717529296875,4.11802685546875,9.686939916992188,10.61525190415559
1.9298681919920417,-0.4644751220703125,3.2704794677734372,9.701305126953125,10.248272744926183
1.9323551355384232,0.39743747558593745,2.384624853515625,9.80665,10.100236455722436
1.9348420790848047,1.177947216796875,1.6903063720703124,9.840168823242188,10.053537573756243
1.9373290226311861,1.8004396484374998,0.9864110839843749,9.80665,10.01923020879214
1.9398159661775676,2.389413256835937,0.430956298828125,9.897629663085937,10.191079039583668
1.9423029097239493,2.829946362304687,-0.0143652099609375,9.888052856445311,10.285056736092175
1.9447898532703307,3.1124621582031247,-0.4261678955078125,9.854534033203125,10.34315622878078
1.9472767968167122,3.342305517578125,-0.679953271484375,9.830592016601562,10.405473656739796
1.9497637403630936,3.42849677734375,-0.82360537109375,9.801861596679688,10.416784855223565
1.952250683909475,3.380612744140625,-0.8667010009765624,9.773131176757811,10.377562630456888
1.9547376274558566,3.1938650146484373,-0.7852981445312499,9.706093530273437,10.248205624694274
1.9572245710022382,3.0023288818359375,-0.6177040283203125,9.672574707031249,10.146636804597374
1.9597115145486197,2.6336218261718747,-0.40222587890625,9.643844287109374,10.005072824070941
1.9621984580950012,2.269703173828125,-0.06703764648437499,9.576806640625,9.842320456846075
1.9646854016413826,1.8100164550781248,0.373495458984375,9.533711010742186,9.71119478034924
1.967172345187764,1.3215993164062498,0.7613561279296874,9.457096557617186,9.579298680318741
1.9696592887341455,0.82360537109375,1.2928688964843749,9.481038574218749,9.604162026778551
1.9721462322805272,0.32561142578124996,1.6807295654296874,9.414000927734374,9.568400500610979
1.9746331758269087,-0.2154781494140625,2.1835119140624997,9.375693701171874,9.629007606701832
1.9771201193732901,-0.699106884765625,2.5953145996093747,9.303867651367186,9.68433588747463
1.9796070629196716,-1.139639990234375,3.0741549316406247,9.284714038085937,9.84657923443984
1.982094006466053,-1.608903515625,3.418919970703125,9.270348828125,10.010841707058487
1.9845809500124345,-1.9632453613281249,3.801992236328125,9.299079248046874,10.236325130403575
1.9870678935588162,-2.2744915771484373,4.089296435546875,9.255983618164063,10.371542315972928
1.9895548371051976,-2.5139117431640625,4.3239281982421875,9.270348828125,10.533540464207212
1.992041780651579,-2.7916391357421872,4.438849877929687,9.2320416015625,10.617308012673668
1.9945287241979606,-2.906560815429687,4.582501977539062,9.303867651367186,10.770764755675312
1.997015667744342,-2.987963671875,4.563348364257812,9.255983618164063,10.743617078886453
1.9995026112907235,-2.935291235351562,4.572925170898437,9.289502441406249,10.762083202794004
2.001989554837105,-0.8667010009765624,2.5905261962890624,12.028469140624999,12.334750360899955
2.0044764983834864,-0.842758984375,2.6575638427734374,12.133814013671874,12.449993204919489
2.006963441929868,-0.8044517578125,2.7198130859375,11.927912670898436,12.260490468886795
2.0094503854762498,-0.8092401611328125,2.6767174560546874,11.535263598632811,11.86937202500121
2.011937329022631,-0.7661445312499999,2.767697119140625,11.027692846679686,11.395487453671032
2.0144242725690127,-0.699106884765625,2.7581203125,10.381258398437499,10.76413043537103
2.016911216115394,-0.622492431640625,2.7437551025390623,9.672574707031249,10.073449774196506
2.0193981596617756,-0.565031591796875,2.6910826660156246,8.896853369140624,9.312098930265247
2.021885103208157,-0.44053310546874996,2.6671406494140624,8.197746484375,8.631961311478028
2.0243720467545385,-0.4165910888671875,2.5857377929687497,7.637503295898437,8.074097142354056
2.02685899030092,-0.354341845703125,2.5330653564453125,7.173028173828125,7.615399623537281
2.0293459338473014,-0.3495534423828125,2.408566870117187,6.9336080078124995,7.348353692012204
2.031832877393683,-0.26336218261718747,2.39420166015625,6.8569935546875,7.267731546896441
2.0343198209400644,-0.32561142578124996,2.308010400390625,7.038952880859375,7.414835970395373
2.036806764486446,-0.373495458984375,2.2601263671875,7.307103466796875,7.657769331078929
2.0392937080328277,-0.3591302490234375,2.250549560546875,7.8912886718749995,8.213792349646054
2.041780651579209,-0.45489831542968745,2.2457611572265623,8.52335791015625,8.825984688254987
2.0442675951255906,-0.49320554199218747,2.31758720703125,9.299079248046874,9.596214724061918
2.046754538671972,-0.5793968017578125,2.327164013671875,9.97903251953125,10.263161453776258
2.0492414822183536,-0.689530078125,2.365471240234375,10.663774194335938,10.94472411643163
2.0517284257647352,-0.7278373046875,2.4564509033203126,11.295843432617186,11.58274479718511
2.0542153693111165,-0.8188169677734375,2.5330653564453125,11.741164941406248,12.039179187471392
2.056702312857498,-0.8188169677734375,2.5665841796874997,12.014103930664062,12.312453404376136
2.0591892564038794,-0.8092401611328125,2.6815058593749996,12.138602416992187,12.457568460580951
2.061676199950261,-0.7996633544921875,2.6862942626953124,11.990161914062499,12.313391940149648
2.0641631434966423,-0.7852981445312499,2.729389892578125,11.664550488281249,12.005332167631773
2.066650087043024,-0.7757213378906249,2.7629087158203123,11.219228979492186,11.580436393344248
2.0691370305894057,-0.7326257080078125,2.767697119140625,10.491391674804687,10.875025841141452
2.071623974135787,-0.6368576416015624,2.7054478759765623,9.797073193359374,10.183696726696708
2.0741109176821686,-0.5506663818359374,2.7198130859375,9.064447485351561,9.479705950145151
2.07659786122855,-0.5027823486328125,2.6910826660156246,8.374917407226562,8.811013425440512
2.0790848047749315,-0.45489831542968745,2.6192566162109374,7.762001782226562,8.20463950251526
2.081571748321313,-0.39743747558593745,2.5378537597656248,7.292738256835937,7.731926638016886
2.0840586918676944,-0.3112462158203125,2.4851813232421875,6.962338427734375,7.39913216523134
2.086545635414076,-0.32082302246093747,2.403778466796875,6.83783994140625,7.255145304779769
2.0890325789604574,-0.3447650390625,2.346317626953125,6.9527616210937495,7.346084909559982
2.091519522506839,-0.33039982910156246,2.2936451904296873,7.273584643554687,7.63380677470986
2.0940064660532203,-0.373495458984375,2.250549560546875,7.723694555664062,8.053566276597863
2.096493409599602,-0.4070142822265625,2.2361843505859373,8.379705810546875,8.682491033514225
2.0989803531459836,-0.51714755859375,2.2744915771484373,9.117119921875,9.410771976927752
2.101467296692365,-0.5506663818359374,2.35589443359375,9.82580361328125,10.119283012797556
2.1039542402387466,-0.63206923828125,2.360682836914062,10.548852514648438,10.828232743817743
2.106441183785128,-0.6703764648437499,2.446874096679687,11.171344946289063,11.455808367749377
2.1089281273315095,-0.7805097412109374,2.518700146484375,11.635820068359374,11.930857242765933
2.111415070877891,-0.8283937744140625,2.5522189697265625,11.9518546875,12.249362774693049
2.1139020144242724,-0.8044517578125,2.6431986328124997,12.157756030273436,12.467745318813646
2.116388957970654,-0.8092401611328125,2.710236279296875,12.028469140624999,12.356549688119866
2.1188759015170353,-0.814028564453125,2.767697119140625,11.769895361328125,12.118301310978294
2.121362845063417,-0.7948749511718749,2.7724855224609373,11.267113012695312,11.630405745334254
2.1238497886097982,-0.699106884765625,2.834734765625,10.74517705078125,11.134778914752001
2.12633673215618,-0.6607996582031249,2.7964275390625,10.01733974609375,10.421312717607995
2.1288236757025616,-0.5889736083984375,2.7054478759765623,9.260772021484375,9.665828291198006
2.131310619248943,-0.5267243652343749,2.6910826660156246,8.614337573242187,9.040253110285873
2.1337975627953245,-0.4836287353515625,2.5953145996093747,7.886500268554687,8.316636406054823
2.1362845063417057,-0.411802685546875,2.5617957763671875,7.398083129882812,7.839898790691946
2.1387714498880874,-0.3399766357421875,2.5139117431640625,7.024587670898437,7.4686122078607795
2.141258393434469,-0.354341845703125,2.4133552734375,6.89530078125,7.314028621994293
2.1437453369808503,-0.3064578125,2.379836450195312,6.904877587890625,7.309916034009882
2.146232280527232,-0.3064578125,2.327164013671875,7.182604980468749,7.556416018379756
2.1487192240736133,-0.36391865234375,2.2840683837890623,7.589619262695312,7.934212356625212
2.151206167619995,-0.43574470214843747,2.3032219970703123,8.197746484375,8.526297698023548
2.153693111166376,-0.45489831542968745,2.2744915771484373,8.882488159179687,9.18035077270293
2.156180054712758,-0.5698199951171875,2.2744915771484373,9.581595043945311,9.864328175173
2.1586669982591395,-0.5793968017578125,2.398990063476562,10.314220751953124,10.605376169592803
2.161153941805521,-0.6751648681640625,2.398990063476562,10.984597216796875,11.263763888644148
2.1636408853519025,-0.7230489013671875,2.5522189697265625,11.525686791992188,11.827006274214265
2.1661278288982837,-0.7948749511718749,2.5617957763671875,11.89439384765625,12.193081185286028
2.1686147724446654,-0.8044517578125,2.6527754394531247,12.081141577148436,12.395093463541045
2.171101715991047,-0.8283937744140625,2.729389892578125,12.100295190429687,12.431932638440873
2.1735886595374283,-0.7948749511718749,2.7724855224609373,11.832144604492187,12.178593847479664
2.17607560308381,-0.814028564453125,2.7724855224609373,11.425130322265625,11.784859836109828
2.178562546630191,-0.7517793212890624,2.7916391357421872,10.89840595703125,11.275356917471813
2.181049490176573,-0.679953271484375,2.7533319091796873,10.175357055664062,10.5631938476846
2.1835364337229546,-0.6177040283203125,2.7724855224609373,9.452308154296874,9.869871512975527
2.186023377269336,-0.5219359619140624,2.7916391357421872,8.757989672851561,9.20695657219698
2.1885103208157175,-0.44053310546874996,2.6575638427734374,8.068459594726562,8.506277401258778
2.1909972643620987,-0.411802685546875,2.5857377929687497,7.5465236328125,7.987843283791195
2.1934842079084804,-0.354341845703125,2.4947581298828125,7.086836914062499,7.521478160358612
2.1959711514548617,-0.32561142578124996,2.4516625,6.89530078125,7.3254245391248425
2.1984580950012433,-0.316034619140625,2.365471240234375,6.87614716796875,7.2785116572302035
2.200945038547625,-0.316034619140625,2.346317626953125,7.072471704101562,7.458212942278033
2.2034319820940063,-0.33518823242187495,2.2840683837890623,7.436390356445312,7.786476807029718
2.205918925640388,-0.4070142822265625,2.3032219970703123,7.991845141601562,8.327069169946018
2.208405869186769,-0.4070142822265625,2.308010400390625,8.686163623046875,8.996777818785485
2.210892812733151,-0.4836287353515625,2.31758720703125,9.3852705078125,9.679277334629262
2.2133797562795325,-0.5267243652343749,2.365471240234375,10.09395419921875,10.380790149176187
2.2158666998259138,-0.6464344482421874,2.4899697265625,10.788272680664061,11.09074633049708
2.2183536433722955,-0.7278373046875,2.461239306640625,11.3772462890625,11.663154769985436
2.2208405869186767,-0.7230489013671875,2.5713725830078125,11.8369330078125,12.134567965356393
2.2233275304650584,-0.7757213378906249,2.6001030029296874,12.076353173828124,12.377422397209017
2.2258144740114396,-0.8475473876953125,2.6575638427734374,12.090718383789062,12.40832193283607
2.2283014175578213,-0.82360537109375,2.7198130859375,11.899182250976562,12.233815728205448
2.230788361104203,-0.7900865478515624,2.7916391357421872,11.583147631835937,11.940971270303343
2.233275304650584,-0.74699091796875,2.7724855224609373,11.051634863281249,11.418550895585518
2.235762248196966,-0.689530078125,2.77727392578125,10.395623608398436,10.78228604679705
2.238249191743347,-0.63206923828125,2.7581203125,9.739612353515625,10.142326556414988
2.240736135289729,-0.5410895751953124,2.7341782958984373,9.02135185546875,9.44210242384166
2.2432230788361105,-0.51714755859375,2.6623522460937497,8.307879760742187,8.739360800344015
2.2457100223824917,-0.44053310546874996,2.6001030029296874,7.68059892578125,8.120726870272758
2.2481969659288734,-0.36391865234375,2.5330653564453125,7.254431030273437,7.692569561501621
2.2506839094752547,-0.3399766357421875,2.480392919921875,6.962338427734375,7.398789734298164
2.2531708530216363,-0.354341845703125,2.365471240234375,6.87614716796875,7.280275558490688
2.2556577965680176,-0.3495534423828125,2.308010400390625,6.943184814453125,7.325088053057481
2.2581447401143993,-0.373495458984375,2.288856787109375,7.287949853515625,7.648044019037614
2.260631683660781,-0.36391865234375,2.269703173828125,7.800309008789062,8.131962242620471
2.263118627207162,-0.430956298828125,2.2553379638671873,8.403647827148436,8.711691538702278
2.265605570753544,-0.45968671875,2.3367408203125,9.121908325195312,9.427665725617207
2.268092514299925,-0.5315127685546874,2.3127988037109373,9.883264453125,10.164175341855708
2.2705794578463068,-0.6464344482421874,2.370259643554687,10.558429321289061,10.840499896517446
2.2730664013926885,-0.679953271484375,2.4564509033203126,11.161768139648437,11.44908535626739
2.2755533449390697,-0.7613561279296874,2.480392919921875,11.6837041015625,11.96833128400125
2.2780402884854514,-0.7661445312499999,2.5905261962890624,12.042834350585936,12.34210932588416
2.2805272320318326,-0.8044517578125,2.6479870361328124,12.109871997070313,12.422076225800692
2.2830141755782143,-0.7805097412109374,2.710236279296875,12.018892333984374,12.345377640301267
2.2855011191245955,-0.7996633544921875,2.7198130859375,11.755530151367187,12.092532151814094
2.287988062670977,-0.718260498046875,2.8012159423828122,11.324573852539062,11.687971673499453
2.290475006217359,-0.737414111328125,2.7964275390625,10.654197387695312,11.039733172898094
2.29296194976374,-0.6464344482421874,2.7629087158203123,9.94072529296875,10.33777352325435
2.295448893310122,-0.584185205078125,2.767697119140625,9.255983618164063,9.678566651981738
2.297935836856503,-0.5123591552734374,2.6767174560546874,8.480262280273436,8.907422555698636
2.3004227804028847,-0.45489831542968745,2.6144682128906247,7.886500268554687,8.321013339702647
2.3029097239492664,-0.39264907226562495,2.5809493896484375,7.335833886718749,7.786522449682452
2.3053966674956476,-0.3447650390625,2.480392919921875,7.024587670898437,7.457616503648914
2.3078836110420293,-0.3016694091796875,2.437297290039062,6.87614716796875,7.301563009933642
2.3103705545884106,-0.354341845703125,2.3367408203125,6.9336080078124995,7.3253556781177975
2.3128574981347922,-0.3016694091796875,2.327164013671875,7.196970190429687,7.569879569775053
2.315344441681174,-0.3447650390625,2.2840683837890623,7.6231380859375,7.965429404072037
2.317831385227555,-0.43574470214843747,2.2553379638671873,8.207323291015625,8.522709567969482
2.320318328773937,-0.4836287353515625,2.288856787109375,8.863334545898438,9.166867590298828
2.322805272320318,-0.5027823486328125,2.35589443359375,9.610325463867188,9.90764271629679
2.3252922158666998,-0.59376201171875,2.375048046875,10.32379755859375,10.610099084473779
2.327779159413081,-0.6703764648437499,2.427720483398437,10.970232006835937,11.255630663536202
2.3302661029594627,-0.737414111328125,2.4851813232421875,11.506533178710937,11.794923127081127
2.3327530465058444,-0.7852981445312499,2.5665841796874997,11.927912670898436,12.226166537873016
2.3352399900522256,-0.8188169677734375,2.6336218261718747,12.08592998046875,12.39661762912755
2.3377269335986073,-0.8092401611328125,2.6910826660156246,12.12423720703125,12.445638730337667
2.3402138771449885,-0.7996633544921875,2.7437551025390623,11.8369330078125,12.177053690226872
2.34270082069137,-0.7996633544921875,2.77727392578125,11.401188305664062,11.76179436653069
2.345187764237752,-0.7613561279296874,2.8107927490234372,10.951078393554686,11.331651998419256
2.347674707784133,-0.6703764648437499,2.7246014892578123,10.156203442382813,10.536665802945008
2.350161651330515,-0.584185205078125,2.767697119140625,9.504980590820312,9.916958996033125
2.352648594876896,-0.55545478515625,2.7341782958984373,8.743624462890624,9.177975251664956
2.3551355384232777,-0.4644751220703125,2.6048914062499997,8.0828248046875,8.504895837142795
2.357622481969659,-0.430956298828125,2.5330653564453125,7.493851196289062,7.922117720890422
2.3601094255160406,-0.3495534423828125,2.4851813232421875,7.134720947265625,7.56323719142963
2.3625963690624223,-0.3399766357421875,2.422932080078125,6.900089184570312,7.321025524647929
2.3650833126088036,-0.3064578125,2.39420166015625,6.880935571289062,7.29200879844288
2.3675702561551852,-0.33518823242187495,2.3415292236328122,7.105990527343749,7.489339866168425
2.3700571997015665,-0.3495534423828125,2.231395947265625,7.436390356445312,7.7718219881819195
2.372544143247948,-0.3447650390625,2.3127988037109373,8.015787158203125,8.34989490977106
2.37503108679433,-0.4740519287109375,2.2457611572265623,8.628702783203124,8.928755799509778
2.377518030340711,-0.469263525390625,2.308010400390625,9.399635717773437,9.690215265483811
2.3800049738870928,-0.5746083984375,2.35589443359375,10.117896215820313,10.404433537098688
2.382491917433474,-0.6368576416015624,2.370259643554687,10.773907470703124,11.049923104746153
2.3849788609798557,-0.70868369140625,2.4564509033203126,11.353304272460937,11.637607207582155
2.387465804526237,-0.7709329345703124,2.4899697265625,11.793837377929687,12.078447206733749
2.3899527480726186,-0.8379705810546875,2.6001030029296874,12.033257543945313,12.339449640866237
2.3924396916190003,-0.833182177734375,2.6479870361328124,12.071564770507813,12.38663408248532
2.3949266351653815,-0.8283937744140625,2.7341782958984373,11.942277880859374,12.279249495914362
2.397413578711763,-0.7757213378906249,2.7341782958984373,11.578359228515625,11.922075195718815
2.3999005222581444,-0.7805097412109374,2.7820623291015623,11.085153686523437,11.455553173591197
2.402387465804526,-0.689530078125,2.825157958984375,10.472238061523436,10.868520563493082
2.404874409350908,-0.63206923828125,2.729389892578125,9.725247143554688,10.120746647896473
2.407361352897289,-0.5315127685546874,2.767697119140625,9.0021982421875,9.43303908388382
2.4098482964436707,-0.5410895751953124,2.6527754394531247,8.288726147460936,8.719689020151657
2.412335239990052,-0.4213794921875,2.5905261962890624,7.709329345703124,8.143840961770769
2.4148221835364336,-0.411802685546875,2.518700146484375,7.211335400390625,7.649626797213773
2.417309127082815,-0.354341845703125,2.4899697265625,6.9527616210937495,7.393673075175031
2.4197960706291965,-0.3016694091796875,2.43250888671875,6.89530078125,7.3180104386579945
2.4222830141755782,-0.3016694091796875,2.375048046875,7.0102224609374995,7.407771365885436
2.4247699577219595,-0.3687070556640625,2.2936451904296873,7.311891870117187,7.672060731821896
2.427256901268341,-0.43574470214843747,2.250549560546875,7.728482958984374,8.061283744990002
2.4297438448147224,-0.4261678955078125,2.29843359375,8.374917407226562,8.69503637933198
2.432230788361104,-0.4836287353515625,2.2744915771484373,9.141061938476563,9.432190734460464
2.4347177319074857,-0.55545478515625,2.327164013671875,9.859322436523437,10.145465059435018
2.437204675453867,-0.6368576416015624,2.35589443359375,10.539275708007812,10.81814026010515
2.4396916190002487,-0.70868369140625,2.4564509033203126,11.161768139648437,11.450827551673255
2.44217856254663,-0.7326257080078125,2.47081611328125,11.616666455078125,11.899101319940996
2.4446655060930116,-0.7948749511718749,2.5665841796874997,11.9518546875,12.25014330571436
2.4471524496393933,-0.8475473876953125,2.6001030029296874,12.076353173828124,12.382131406961474
2.4496393931857745,-0.8044517578125,2.6862942626953124,12.014103930664062,12.337017984636118
2.452126336732156,-0.8092401611328125,2.748543505859375,11.774683764648437,12.118272929731674
2.4546132802785374,-0.74699091796875,2.7533319091796873,11.243170996093749,11.599470939704043
2.457100223824919,-0.7038952880859375,2.7629087158203123,10.692504614257812,11.066109888956916
2.4595871673713003,-0.679953271484375,2.767697119140625,9.988609326171874,10.387242178056182
2.462074110917682,-0.603338818359375,2.7246014892578123,9.241618408203124,9.653754803590363
2.4645610544640637,-0.5315127685546874,2.70065947265625,8.532934716796875,8.965882125675197
2.467047998010445,-0.4836287353515625,2.6192566162109374,7.915230688476562,8.351363890229168
2.4695349415568266,-0.4261678955078125,2.4947581298828125,7.364564306640625,7.787313055760828
2.472021885103208,-0.3447650390625,2.480392919921875,7.053318090820312,7.4846849004918985
2.4745088286495895,-0.3112462158203125,2.427720483398437,6.880935571289062,7.303285239438889
2.4769957721959712,-0.32561142578124996,2.3511060302734372,6.9144543945312495,7.310499431655811
2.4794827157423525,-0.3016694091796875,2.308010400390625,7.1778165771484375,7.5457913604825455
2.481969659288734,-0.5123591552734374,0.6512228515624999,-0.70868369140625,1.090337416057476
2.4844566028351154,-1.0199299072265624,0.8571241943359375,4.5585599609375,4.749251290217619
2.486943546381497,-1.4317325927734375,1.1923124267578125,9.95987890625,10.13265290865993
2.4894304899278783,-1.7238251953125,1.6807295654296874,15.097835668945311,15.288592710337369
2.49191743347426,-1.9297265380859374,2.1452046874999997,19.52232033691406,19.734404956829923
2.4944043770206417,-2.1021090576171875,2.6431986328124997,23.008277954101562,23.25481059728963
2.496891320567023,-2.0877438476562498,3.0310593017578125,25.24925070800781,25.516086223792865
2.4993782641134046,-1.9393033447265624,3.4620156005859375,26.20214296875,26.50091971302851
2.501865207659786,-1.7621324218749999,3.7397429931640622,25.910050366210935,26.237787603125575
2.5043521512061675,-1.465251416015625,3.9552211425781247,24.22932080078125,24.593713067896108
2.506839094752549,-1.1109095703125,3.9935283691406247,21.581333764648438,21.975812976308692
2.5093260382989304,-0.7565677246093749,3.9839515624999997,18.12410656738281,18.57222398206837
2.511812981845312,-0.354341845703125,3.840299462890625,14.111424584960936,14.628935775555728
2.5142999253916933,-0.028730419921875,3.5960908935546874,9.964667309570311,10.59373823266155
2.516786868938075,0.277727392578125,3.284844677734375,6.0333881835937495,6.875253452444992
2.5192738124844563,0.45010991210937495,2.987963671875,2.461239306640625,3.8972073029256045
2.521760756030838,0.5698199951171875,2.5953145996093747,-0.4261678955078125,2.691091186292742
2.5242476995772196,0.5889736083984375,2.221819140625,-2.360682836914062,3.2948738460733384
2.526734643123601,0.5315127685546874,1.8531120849609375,-3.4428619873046875,3.945862248760405
2.5292215866699825,0.39264907226562495,1.6998831787109374,-3.284844677734375,3.71940595687743
2.5317085302163638,0.19153613281249998,1.47482822265625,-2.27927998046875,2.7215660208567027
2.5341954737627455,-0.0430956298828125,1.39821376953125,-0.39743747558593745,1.4542405322442042
2.536682417309127,-0.316034619140625,1.446097802734375,2.212242333984375,2.6617837778153923
2.5391693608555084,-0.6081272216796875,1.47482822265625,5.1714755859374995,5.411940201077508
2.54165630440189,-0.9145850341796874,1.6424223388671875,8.398859423828124,8.606675115582203
2.5441432479482713,-1.1061211669921875,1.8195932617187498,11.540052001953125,11.734872128913155
2.546630191494653,-1.3263877197265623,2.1404162841796874,14.432247607421875,14.650271576136651
2.549117135041034,-1.4413093994140624,2.408566870117187,16.80250725097656,17.035340239390152
2.551604078587416,-1.4891934326171874,2.70065947265625,18.516755639648437,18.77182724418298
2.5540910221337976,-1.426944189453125,2.9496564453125,19.431340673828124,19.705675407038317
2.556577965680179,-1.3551181396484375,3.189076611328125,19.6516072265625,19.95475435560177
2.5590649092265605,-1.1731588134765625,3.3327287109375,19.009961181640623,19.335511536802645
2.5615518527729417,-1.0486603271484374,3.399766357421875,17.673996655273438,18.02854008336253
2.5640387963193234,-0.8188169677734375,3.438073583984375,15.777788940429687,16.168779639921816
2.566525739865705,-0.6416460449218749,3.4093431640625,13.508085766601562,13.946458745329128
2.5690126834120863,-0.39264907226562495,3.2561142578125,10.989385620117186,11.468349910144847
2.571499626958468,-0.19632453613281248,3.0837317382812497,8.413224633789062,8.962716859064887
2.5739865705048492,-0.0718260498046875,2.9496564453125,6.110002636718749,6.785113436598845
2.576473514051231,0.05746083984375,2.7246014892578123,4.065354418945312,4.894268236929768
2.5789604575976126,0.13407529296874998,2.480392919921875,2.5761609863281247,3.578677220547044
2.581447401143994,0.1197100830078125,2.269703173828125,1.6232687255859375,2.79300632951746
2.5839343446903755,0.06703764648437499,2.0446482177734375,1.3359645263671873,2.4433341147296583
2.5864212882367568,-0.0,1.9680337646484374,1.695094775390625,2.5974031639991693
2.5889082317831384,-0.12449848632812499,1.8243816650390623,2.5857377929687497,3.1670030418071273
2.5913951753295197,-0.3016694091796875,1.7860744384765623,3.9695863525390624,4.363333833490003
2.5938821188759014,-0.44532150878906246,1.8531120849609375,5.7891796142578125,6.094828648268684
2.596369062422283,-0.622492431640625,1.886630908203125,7.809885815429687,8.058609648151908
2.5988560059686643,-0.8092401611328125,2.0350714111328125,9.873687646484374,10.113658735944105
2.601342949515046,-0.9433154541015625,2.1643583007812497,11.79862578125,12.032533450029744
2.603829893061427,-1.0295067138671874,2.379836450195312,13.565546606445311,13.81113899485541
2.606316836607809,-1.1252747802734375,2.518700146484375,14.867992309570312,15.121748876253095
2.6088037801541906,-1.13006318359375,2.7246014892578123,15.744270117187499,16.01819395553516
2.611290723700572,-1.1061211669921875,2.829946362304687,16.132130786132812,16.415777293521124
2.6137776672469535,-1.0965443603515623,2.9831752685546875,15.99326708984375,16.306021477485373
2.6162646107933347,-0.9720458740234375,3.0693665283203124,15.332467431640625,15.666858064356731
2.6187515543397164,-0.8571241943359375,3.1124621582031247,14.279018701171875,14.6394145251502
2.6212384978860976,-0.7278373046875,3.1555577880859373,12.885593334960937,13.286301505311187
2.6237254414324793,-0.59376201171875,3.1268273681640624,11.295843432617186,11.73565854867382
2.626212384978861,-0.45010991210937495,3.0071172851562498,9.600748657226562,10.07073622328091
2.6286993285252422,-0.3687070556640625,2.863465185546875,7.9295958984374995,8.438831013490688
2.631186272071624,-0.22026655273437498,2.7629087158203123,6.4739212890625,7.042289314078626
2.633673215618005,-0.1580173095703125,2.5857377929687497,5.233724829101562,5.839767545961475
2.636160159164387,-0.143652099609375,2.408566870117187,4.42448466796875,5.039632414238049
2.6386471027107685,-0.0718260498046875,2.308010400390625,3.9695863525390624,4.592350901227629
2.6411340462571498,-0.143652099609375,2.1452046874999997,3.9600095458984375,4.506019826920528
2.6436209898035314,-0.1867477294921875,2.1308394775390624,4.395754248046875,4.888558785852082
2.6461079333499127,-0.2920926025390625,2.04943662109375,5.181052392578125,5.579320070311231
2.6485948768962944,-0.39264907226562495,2.04943662109375,6.277596752929687,6.615329526956656
2.6510818204426756,-0.4740519287109375,2.0781670410156248,7.584830859375,7.87865233696763
2.6535687639890573,-0.6081272216796875,2.1547814941406247,9.088389501953124,9.360113554036111
2.656055707535439,-0.70868369140625,2.2170307373046874,10.40041201171875,10.657674599936076
2.65854265108182,-0.8044517578125,2.384624853515625,11.741164941406248,12.007852951463024
2.661029594628202,-0.9337386474609375,2.398990063476562,12.828132495117186,13.083883387538386
2.663516538174583,-0.9624690673828125,2.5426421630859375,13.666103076171874,13.933906457405454
2.666003481720965,-0.948103857421875,2.70065947265625,14.135366601562499,14.422241555052208
2.6684904252673465,-0.9193734375,2.806004345703125,14.264653491210936,14.56706034620581
2.6709773688137277,-0.9193734375,2.896984008789062,14.00129130859375,14.327383647158436
2.6734643123601094,-0.8571241943359375,2.93050283203125,13.388375683593749,13.73211972632425
2.6759512559064906,-0.7565677246093749,2.978386865234375,12.536039892578124,12.907187115294771
2.6784381994528723,-0.6751648681640625,2.9496564453125,11.410765112304686,11.805163327661601
2.6809251429992536,-0.565031591796875,2.916137622070312,10.199299072265624,10.623032565896652
2.6834120865456352,-0.4836287353515625,2.81558115234375,8.978256225585938,9.421808681530514
2.685899030092017,-0.38307226562499996,2.7150246826171873,7.790732202148437,8.259153203174298
2.688385973638398,-0.32082302246093747,2.6479870361328124,6.775590698242187,7.281716285696282
2.69087291718478,-0.239420166015625,2.5378537597656248,5.999869360351562,6.51893059198646
2.693359860731161,-0.21068974609375,2.4564509033203126,5.482721801757812,6.011553839482988
2.6958468042775428,-0.24899697265624998,2.3367408203125,5.286397265624999,5.785183938624094
2.6983337478239244,-0.239420166015625,2.24097275390625,5.463568188476562,5.910148750224327
2.7008206913703057,-0.3064578125,2.1643583007812497,5.84185205078125,6.2374352604431955
2.7033076349166874,-0.3399766357421875,2.1452046874999997,6.603208178710937,6.9512477668054355
2.7057945784630686,-0.39743747558593745,2.1787235107421874,7.513004809570312,7.83262624870404
2.7082815220094503,-0.5123591552734374,2.1883003173828124,8.566453540039062,8.856370387280446
2.7107684655558315,-0.6081272216796875,2.250549560546875,9.710881933593749,9.986792276322916
2.713255409102213,-0.7134720947265625,2.31758720703125,10.749965454101561,11.020073055861536
2.715742352648595,-0.7565677246093749,2.418143676757812,11.654973681640625,11.927205250313252
2.718229296194976,-0.8283937744140625,2.4851813232421875,12.473790649414061,12.745894069083166
2.720716239741358,-0.9050082275390624,2.6240450195312497,12.97178459472656,13.265438090331788
2.723203183287739,-0.8954314208984374,2.6719290527343746,13.244723583984374,13.541185513407978
2.7256901268341207,-0.8810662109374999,2.8012159423828122,13.201627954101562,13.524277025498671
2.7281770703805024,-0.8092401611328125,2.868253588867187,12.89038173828125,13.23040776571359
2.7306640139268836,-0.7613561279296874,2.85388837890625,12.243947290039062,12.595181113189565
2.7331509574732653,-0.7517793212890624,2.868253588867187,11.477802758789062,11.854619646687663
2.7356379010196465,-0.612915625,2.901772412109375,10.534487304687499,10.944010757837836
2.7381248445660282,-0.584185205078125,2.8012159423828122,9.552864624023437,9.972226713959639
2.74061178811241,-0.488417138671875,2.7629087158203123,8.547299926757812,8.996029786036637
2.743098731658791,-0.40222587890625,2.6384102294921874,7.6470801025390625,8.099433825360867
2.745585675205173,-0.33039982910156246,2.5809493896484375,6.900089184570312,7.374394521180785
2.748072618751554,-0.2920926025390625,2.4947581298828125,6.368576416015625,6.8460135686182255
2.7505595622979357,-0.2825157958984375,2.389413256835937,6.047753393554687,6.508796509042795
2.753046505844317,-0.26336218261718747,2.3415292236328122,6.076483813476562,6.517344112428162
2.7555334493906987,-0.2920926025390625,2.250549560546875,6.282385156249999,6.679719654626689
2.7580203929370803,-0.3112462158203125,2.2074539306640624,6.751648681640624,7.1101678590006765
2.7605073364834616,-0.39264907226562495,2.1978771240234374,7.4411787597656245,7.76891102285537
2.7629942800298433,-0.43574470214843747,2.2026655273437497,8.298302954101562,8.596711044861847
2.7654812235762245,-0.5458779785156249,2.231395947265625,9.188945971679686,9.47173894864877
2.767968167122606,-0.59376201171875,2.3223756103515623,10.160991845703125,10.439910779818067
2.770455110668988,-0.679953271484375,2.35589443359375,10.9941740234375,11.26429924545989
2.772942054215369,-0.7709329345703124,2.442085693359375,11.784260571289062,12.05930832740227
2.775428997761751,-0.814028564453125,2.5953145996093747,12.310984936523436,12.60788049126411
2.777915941308132,-0.814028564453125,2.6384102294921874,12.62223115234375,12.92070316608317
2.7804028848545137,-0.86191259765625,2.7198130859375,12.732364428710937,13.048117890866063
2.782889828400895,-0.8571241943359375,2.7581203125,12.555193505859375,12.883119711945337
2.7853767719472766,-0.82360537109375,2.8012159423828122,12.157756030273436,12.503446255125192
2.7878637154936583,-0.7422025146484375,2.882618798828125,11.587936035156249,11.96413880172662
2.7903506590400395,-0.718260498046875,2.858676782226562,10.826579907226561,11.220640069793596
2.792837602586421,-0.6177040283203125,2.868253588867187,9.993397729492187,10.415202115008245
2.7953245461328025,-0.5698199951171875,2.748543505859375,9.045293872070312,9.47082506767757
2.797811489679184,-0.49320554199218747,2.6815058593749996,8.269572534179687,8.707442522266415
2.800298433225566,-0.39264907226562495,2.6527754394531247,7.474697583007812,7.941189758691049
2.802785376771947,-0.36391865234375,2.528276953125,6.9144543945312495,7.371180415054242
2.8052723203183287,-0.2825157958984375,2.480392919921875,6.564900952148437,7.023538191228845
2.80775926386471,-0.2537853759765625,2.39420166015625,6.4356140625,6.871225288695042
2.8102462074110917,-0.3112462158203125,2.346317626953125,6.517016918945312,6.933512106806539
2.812733150957473,-0.3399766357421875,2.2074539306640624,6.861781958007812,7.216126981151061
2.8152200945038546,-0.3495534423828125,2.2744915771484373,7.364564306640625,7.715718175921537
2.8177070380502363,-0.40222587890625,2.288856787109375,8.073247998046874,8.401070425102175
2.8201939815966175,-0.44053310546874996,2.2840683837890623,8.892064965820312,9.191292463805496
2.822680925142999,-0.584185205078125,2.3367408203125,9.701305126953125,9.995846696573228
2.8251678686893804,-0.6560112548828124,2.379836450195312,10.51533369140625,10.80121358634457
2.827654812235762,-0.7134720947265625,2.403778466796875,11.3006318359375,11.575468596942155
2.8301417557821438,-0.7326257080078125,2.5522189697265625,11.841721411132811,12.135770600845557
2.832628699328525,-0.82360537109375,2.5809493896484375,12.248735693359373,12.544765906345045
2.8351156428749067,-0.833182177734375,2.6240450195312497,12.43069501953125,12.731927720279439
2.837602586421288,-0.833182177734375,2.7198130859375,12.358868969726561,12.682003705038142
2.8400895299676696,-0.82360537109375,2.748543505859375,12.04762275390625,12.384588456276449
2.842576473514051,-0.814028564453125,2.81558115234375,11.654973681640625,12.017843036456858
2.8450634170604325,-0.7134720947265625,2.834734765625,10.989385620117186,11.37151528728845
2.847550360606814,-0.70868369140625,2.77727392578125,10.256759912109374,10.64972332635658
2.8500373041531954,-0.584185205078125,2.806004345703125,9.433154541015625,9.858972428028222
2.852524247699577,-0.5027823486328125,2.6767174560546874,8.628702783203124,9.048321289084619
2.8550111912459584,-0.45968671875,2.6862942626953124,7.9104422851562495,8.366754800516919
2.85749813479234,-0.4070142822265625,2.5665841796874997,7.268796240234375,7.719353195663737
2.8599850783387217,-0.32082302246093747,2.5330653564453125,6.89530078125,7.352857973310191
2.862472021885103,-0.296881005859375,2.418143676757812,6.641515405273437,7.074269153175348
2.8649589654314846,-0.26815058593749996,2.408566870117187,6.64630380859375,7.074351802157744
2.867445908977866,-0.316034619140625,2.31758720703125,6.871358764648437,7.2585576814682105
2.8699328525242476,-0.354341845703125,2.2840683837890623,7.326257080078125,7.682224243592212
2.8724197960706292,-0.39264907226562495,2.2457611572265623,7.900865478515625,8.223216632125082
2.8749067396170105,-0.411802685546875,2.288856787109375,8.652644799804687,8.959727053616497
2.877393683163392,-0.44532150878906246,2.2840683837890623,9.3852705078125,9.669466486462944
2.8798806267097734,-0.5793968017578125,2.370259643554687,10.180145458984374,10.468485707008027
2.882367570256155,-0.6512228515624999,2.4516625,10.93671318359375,11.227040370306716
2.8848545138025363,-0.7565677246093749,2.47081611328125,11.49216796875,11.779102326133955
2.887341457348918,-0.7613561279296874,2.5330653564453125,11.985373510742187,12.273763133023222
2.8898284008952997,-0.833182177734375,2.6288334228515624,12.229582080078124,12.536651688539633
2.892315344441681,-0.833182177734375,2.7198130859375,12.267889306640624,12.593358718138639
2.8948022879880626,-0.7996633544921875,2.7437551025390623,12.157756030273436,12.489142694151466
2.897289231534444,-0.7852981445312499,2.77727392578125,11.707646118164062,12.058147505433439
2.8997761750808255,-0.718260498046875,2.849099975585937,11.195286962890624,11.574442491775018
2.902263118627207,-0.679953271484375,2.77727392578125,10.558429321289061,10.938739262039446
2.9047500621735884,-0.6464344482421874,2.77727392578125,9.710881933593749,10.120887109482846
2.90723700571997,-0.51714755859375,2.786850732421875,8.987833032226561,9.424177482270945
2.9097239492663514,-0.4261678955078125,2.6815058593749996,8.240842114257813,8.676610599833854
2.912210892812733,-0.39743747558593745,2.6384102294921874,7.6279264892578125,8.08111549302509
2.9146978363591143,-0.3064578125,2.5426421630859375,7.096413720703125,7.544404102096347
2.917184779905496,-0.33039982910156246,2.50912333984375,6.8569935546875,7.309119275989748
2.9196717234518776,-0.28730419921875,2.4133552734375,6.770802294921874,7.193788368838538
2.922158666998259,-0.316034619140625,2.365471240234375,6.8569935546875,7.260419593790514
2.9246456105446406,-0.33518823242187495,2.29843359375,7.192181787109375,7.557951243217995
2.927132554091022,-0.39264907226562495,2.2744915771484373,7.6997525390625,8.038263145186878
2.9296194976374035,-0.44532150878906246,2.269703173828125,8.365340600585936,8.679215811770502
2.932106441183785,-0.488417138671875,2.2601263671875,9.088389501953124,9.377928675150837
2.9345933847301664,-0.5602431884765625,2.3319524169921872,9.883264453125,10.170092957085213
2.937080328276548,-0.6272808349609375,2.437297290039062,10.63025537109375,10.92411225595053
2.9395672718229293,-0.6703764648437499,2.4756045166015626,11.209652172851563,11.499318421695705
2.942054215369311,-0.737414111328125,2.5809493896484375,11.77947216796875,12.081433850311928
2.9445411589156922,-0.7805097412109374,2.5809493896484375,12.066776367187499,12.364367638652878
2.947028102462074,-0.7948749511718749,2.6910826660156246,12.220005273437499,12.53803337793334
2.9495150460084556,-0.842758984375,2.767697119140625,12.138602416992187,12.478624070259215
2.952001989554837,-0.7948749511718749,2.8107927490234372,11.812990991210937,12.168777186899018
2.9544889331012185,-0.7805097412109374,2.7916391357421872,11.319785449218749,11.685032611707896
2.9569758766475998,-0.6847416748046875,2.825157958984375,10.754753857421875,11.140696530655424
2.9594628201939814,-0.6512228515624999,2.8203695556640622,10.026916552734374,10.436361012748288
2.961949763740363,-0.565031591796875,2.77727392578125,9.270348828125,9.693909353489513
2.9644367072867444,-0.5123591552734374,2.7341782958984373,8.537723120117187,8.979474312761196
2.966923650833126,-0.4644751220703125,2.6144682128906247,7.848193041992187,8.285246839992897
2.9694105943795073,-0.37828386230468747,2.5857377929687497,7.292738256835937,7.746816758978201
2.971897537925889,-0.3687070556640625,2.480392919921875,6.938396411132812,7.377644521669211
2.97438448147227,-0.33518823242187495,2.43250888671875,6.813897924804687,7.242834774090696
2.976871425018652,-0.258573779296875,2.408566870117187,6.823474731445312,7.240708679254998
2.9793583685650336,-0.32082302246093747,2.31758720703125,7.125144140624999,7.499454440065533
2.981845312111415,-0.3399766357421875,2.29843359375,7.5465236328125,7.896100305741227
2.9843322556577965,-0.40222587890625,2.3032219970703123,8.130708837890625,8.460203510081962
2.9868191992041777,-0.47884033203125,2.308010400390625,8.844180932617187,9.152908632820527
2.9893061427505594,-0.5363011718749999,2.3511060302734372,9.591171850585937,9.889686343864232
2.991793086296941,-0.6177040283203125,2.3223756103515623,10.261548315429687,10.539182158595455
2.9942800298433223,-0.689530078125,2.43250888671875,11.018116040039061,11.30448726322299
2.996766973389704,-0.737414111328125,2.5426421630859375,11.554417211914062,11.853833381993528
2.9992539169360852,-0.7996633544921875,2.5809493896484375,11.980585107421874,12.281497496177863
3.001740860482467,-2.020706201171875,3.7110125732421873,9.390058911132812,10.296993455604445
3.0042278040288486,-1.9871873779296874,3.6056677001953124,9.428366137695312,10.288043607298446
3.00671474757523,-1.9967641845703124,3.4811692138671875,9.428366137695312,10.246935850818968
3.0092016911216115,-1.8722656982421875,3.342305517578125,9.399635717773437,10.150346626814754
3.0116886346679927,-1.7764976318359373,3.1555577880859373,9.4618849609375,10.131177414490566
3.0141755782143744,-1.608903515625,2.9448680419921875,9.471461767578125,10.048353413471858
3.0166625217607557,-1.407790576171875,2.7916391357421872,9.519345800781249,10.019634117342674
3.0191494653071373,-1.1635820068359375,2.5761609863281247,9.495403784179686,9.907230770438597
3.021636408853519,-0.928950244140625,2.4133552734375,9.5384994140625,9.882823650353586
3.0241233523999003,-0.7278373046875,2.1164742675781247,9.543287817382812,9.802221831443232
3.026610295946282,-0.4740519287109375,1.9728221679687499,9.552864624023437,9.765960017451532
3.029097239492663,-0.22026655273437498,1.7908628417968748,9.581595043945311,9.750008751716052
3.031584183039045,0.023942016601562498,1.637633935546875,9.6151138671875,9.753606143678093
3.0340711265854265,0.19632453613281248,1.465251416015625,9.6151138671875,9.728099491401439
3.036558070131808,0.45010991210937495,1.43652099609375,9.643844287109374,9.76063133917112
3.0390450136781895,0.5602431884765625,1.3359645263671873,9.572018237304688,9.681023023484627
3.0415319572245707,0.70868369140625,1.2785036865234374,9.581595043945311,9.69245932862638
3.0440189007709524,0.7852981445312499,1.3263877197265623,9.581595043945311,9.704790628602092
3.0465058443173336,0.9002198242187499,1.39821376953125,9.581595043945311,9.724832186900738
3.0489927878637153,0.8475473876953125,1.446097802734375,9.567229833984374,9.712951257251476
3.051479731410097,0.842758984375,1.5801730957031248,9.595960253906249,9.761641404634634
3.0539666749564782,0.7900865478515624,1.7429788085937499,9.591171850585937,9.780224401708528
3.05645361850286,0.6177040283203125,1.8435352783203125,9.528922607421874,9.725253037697804
3.058940562049241,0.49799394531249996,2.01112939453125,9.548076220703125,9.770281414957914
3.061427505595623,0.3064578125,2.2266075439453124,9.442731347656249,9.706537634481538
3.0639144491420045,0.1005564697265625,2.446874096679687,9.457096557617186,9.769031668937343
3.0664013926883857,-0.0718260498046875,2.7246014892578123,9.414000927734374,9.80061353814546
3.0688883362347674,-0.3495534423828125,2.916137622070312,9.423577734375,9.870656693236972
3.0713752797811487,-0.584185205078125,3.0454245117187497,9.399635717773437,9.897930815945912
3.0738622233275303,-0.833182177734375,3.23696064453125,9.414000927734374,9.989770779298293
3.0763491668739116,-1.0582371337890624,3.4620156005859375,9.414000927734374,10.086071153695782
3.0788361104202933,-1.3024457031249999,3.5482068603515624,9.318232861328125,10.055625310808374
3.081323053966675,-1.5179238525390624,3.6104561035156246,9.351751684570312,10.138774367120709
3.083809997513056,-1.66636435546875,3.7397429931640622,9.366116894531249,10.221868395852109
3.086296941059438,-1.8100164550781248,3.787627026367187,9.370905297851563,10.268210367918218
3.088783884605819,-1.93451494140625,3.758896606445312,9.356540087890625,10.26725348731463
3.091270828152201,-1.9488801513671874,3.6918589599609373,9.380482104492186,10.26749243668263
3.0937577716985825,-1.9967641845703124,3.7014357666015623,9.418789331054686,10.315099922242617
3.0962447152449637,-1.9823989746093749,3.5913024902343746,9.394847314453125,10.25136651050888
3.0987316587913454,-1.905784521484375,3.4524387939453125,9.418789331054686,10.211020552866279
3.1012186023377266,-1.8195932617187498,3.265691064453125,9.466673364257812,10.178092274689279
3.1037055458841083,-1.6807295654296874,3.0933085449218747,9.471461767578125,10.104553312288985
3.1061924894304895,-1.5035586425781249,2.906560815429687,9.476250170898437,10.025372894157869
3.108679432976871,-1.3072341064453123,2.6671406494140624,9.509768994140625,9.962841290250946
3.111166376523253,-1.0821791503906248,2.4564509033203126,9.495403784179686,9.867520244649983
3.113653320069634,-0.8762778076171874,2.250549560546875,9.562441430664062,9.86271373585793
3.116140263616016,-0.612915625,2.04943662109375,9.629479077148437,9.864214278110994
3.118627207162397,-0.3591302490234375,1.8914193115234375,9.610325463867188,9.801265074939128
3.1211141507087787,-0.1292868896484375,1.6615759521484375,9.572018237304688,9.716021967857344
3.1236010942551604,0.12449848632812499,1.5275006591796874,9.586383447265625,9.708115457435637
3.1260880378015417,0.32082302246093747,1.4508862060546874,9.600748657226562,9.715059082367866
3.1285749813479233,0.5123591552734374,1.3934253662109375,9.629479077148437,9.743254766885247
3.1310619248943046,0.6177040283203125,1.3168109130859373,9.634267480468749,9.743441852479185
3.1335488684406863,0.7565677246093749,1.2976572998046874,9.576806640625,9.693891613876033
3.136035811987068,0.833182177734375,1.369483349609375,9.6151138671875,9.747824981252633
3.138522755533449,0.8714894042968749,1.37906015625,9.581595043945311,9.719478601371339
3.141009699079831,0.8379705810546875,1.5083470458984374,9.605537060546874,9.759285205747558
3.143496642626212,0.7948749511718749,1.5705962890624998,9.5001921875,9.66189683709433
3.1459835861725938,0.737414111328125,1.7525556152343749,9.543287817382812,9.730856751667995
3.148470529718975,0.5746083984375,2.020706201171875,9.519345800781249,9.748403604583725
3.1509574732653567,0.45489831542968745,2.1978771240234374,9.485826977539062,9.747743830112391
3.1534444168117384,0.22026655273437498,2.3127988037109373,9.504980590820312,9.784794923378367
3.1559313603581196,-0.01915361328125,2.4851813232421875,9.394847314453125,9.71800643816316
3.1584183039045013,-0.2442085693359375,2.73896669921875,9.433154541015625,9.825781444722352
3.1609052474508825,-0.4644751220703125,3.0071172851562498,9.437942944335937,9.916312748509307
3.163392190997264,-0.70868369140625,3.1842882080078123,9.390058911132812,9.940579979089122
3.165879134543646,-0.948103857421875,3.31357509765625,9.342174877929686,9.957655964236082
3.168366078090027,-1.149216796875,3.5386300537109374,9.361328491210937,10.073582928809568
3.170853021636409,-1.3838485595703125,3.6008792968749996,9.370905297851563,10.133865730696765
3.17333996518279,-1.5849614990234373,3.6822821533203123,9.375693701171874,10.196810147700203
3.1758269087291717,-1.7429788085937499,3.768473413085937,9.34696328125,10.227662957556737
3.178313852275553,-1.848323681640625,3.77326181640625,9.375693701171874,10.274114927596289
3.1808007958219346,-1.93451494140625,3.81156904296875,9.409212524414063,10.334586927276396
3.1832877393683163,-5.272032055664062,3.337517114257812,8.772354882812499,10.76510811250484
3.1857746829146976,-6.507440112304687,4.587290380859375,8.738836059570312,11.821897712702619
3.1882616264610792,-7.4603323730468745,5.659892724609374,8.710105639648438,12.788936039571581
3.1907485700074605,-8.116343627929687,6.555324145507812,8.748412866210938,13.615507196465272
3.193235513553842,-8.480262280273436,7.206546997070312,8.810662109374999,14.194257105209411
3.195722457100224,-8.537723120117187,7.6614453125,8.82981572265625,14.476052847661178
3.198209400646605,-8.374917407226562,7.800309008789062,8.920795385742187,14.510846030633132
3.2006963441929868,-7.948749511718749,7.886500268554687,9.05965908203125,14.403365161259833
3.203183287739368,-7.311891870117187,7.723694555664062,9.107543115234375,14.002377009112902
3.2056702312857497,-6.5409589355468745,7.4220251464843745,9.236830004882812,13.53475635579231
3.208157174832131,-5.6215854980468745,6.900089184570312,9.260772021484375,12.844273148013588
3.2106441183785126,-4.630386010742187,6.354211206054687,9.442731347656249,12.287459052368716
3.2131310619248943,-3.5386300537109374,5.722141967773437,9.528922607421874,11.664697913560214
3.2156180054712755,-2.4516625,4.979939453125,9.600748657226562,11.089852151851927
3.218104949017657,-1.369483349609375,4.304774584960938,9.658209497070311,10.662437786992339
