Time (s),Acceleration x (m/s^2),Acceleration y (m/s^2),Acceleration z (m/s^2),Absolute acceleration (m/s^2)
0.0,-0.19153613281249998,0.82360537109375,22.711396948242186,22.72713275444335
0.002486943546381497,0.26815058593749996,0.7900865478515624,18.157625390625,18.176784680358196
0.004973887092762994,0.6464344482421874,0.93852705078125,13.129801904296874,13.179165700718698
0.007460830639144491,0.9145850341796874,1.1540052001953125,8.106766821289062,8.239409085703686
0.009947774185525988,1.0390835205078124,1.5035586425781249,3.337517114257812,3.805181157609461
0.012434717731907486,1.024718310546875,1.8818425048828125,-0.679953271484375,2.2480469925150506
0.014921661278288981,0.8858546142578124,2.2936451904296873,-3.67749375,4.423743543479002
0.01740860482467048,0.7038952880859375,2.70065947265625,-5.5545478515625,6.216271551270512
0.019895548371051976,0.38786066894531246,3.1842882080078123,-6.138733056640625,6.926338919722646
0.022382491917433474,-0.009576806640625,3.394977954101562,-5.49708701171875,6.460954468069562
0.02486943546381497,-0.40222587890625,3.6679169433593746,-3.7014357666015623,5.226473676899366
0.027356379010196465,-0.7900865478515624,3.7301661865234372,-0.9433154541015625,3.9278773629182515
0.029843322556577963,-1.16837041015625,3.787627026367187,2.4899697265625,4.680935498956758
0.032330266102959464,-1.4891934326171874,3.69664736328125,6.315903979492187,7.46816857645632
0.03481720964934096,-1.6615759521484375,3.5194764404296874,10.199299072265624,10.916650155840665
0.03730415319572245,-1.8195932617187498,3.284844677734375,13.88636962890625,14.385144617470553
0.03979109674210395,-1.8435352783203125,2.9735984619140625,17.003620190429686,17.359838988754973
0.04227804028848545,-1.714248388671875,2.6719290527343746,19.416975463867185,19.67477543875229
0.04476498383486695,-1.5945383056640625,2.3511060302734372,20.93489931640625,21.126766467253926
0.04725192738124844,-1.3407529296874998,2.0829554443359375,21.504719311523438,21.64692297923572
0.04973887092762994,-1.0869675537109373,1.8291700683593748,21.03545578613281,21.14279455824491
0.05222581447401144,-0.74699091796875,1.6232687255859375,19.76652890625,19.847132331614308
0.05471275802039293,-0.45489831542968745,1.47482822265625,17.611747412109374,17.67924482752771
0.05719970156677443,-0.1580173095703125,1.5705962890624998,14.9781255859375,15.061075268434731
0.059686645113155926,0.09576806640624999,1.5897499023437498,12.00931552734375,12.114459777878865
0.062173588659537427,0.22026655273437498,1.7573440185546874,8.987833032226561,9.160672353544053
0.06466053220591893,0.38307226562499996,1.9201497314453124,6.114791040039062,6.420622151723505
0.06714747575230041,0.43574470214843747,2.1643583007812497,3.6008792968749996,4.22381959963658
0.06963441929868192,0.39264907226562495,2.442085693359375,1.714248388671875,3.0094191076893417
0.07212136284506342,0.2154781494140625,2.6096798095703124,0.43574470214843747,2.6545683240037885
0.0746083063914449,0.0718260498046875,2.920926025390625,-0.0526724365234375,2.9222837324264277
0.0770952499378264,-0.201112939453125,3.0980969482421874,0.258573779296875,3.1153669951488703
0.0795821934842079,-0.373495458984375,3.2225954345703123,1.2832920898437499,3.488761783305204
0.0820691370305894,-0.6368576416015624,3.246537451171875,2.91134921875,4.406988467314625
0.0845560805769709,-0.9145850341796874,3.2704794677734372,4.955997436523437,6.0078625420943155
0.0870430241233524,-1.0869675537109373,3.227383837890625,7.326257080078125,8.079080869956236
0.0895299676697339,-1.2306196533203124,3.1124621582031247,9.701305126953125,10.262415241239834
0.09201691121611538,-1.3359645263671873,2.91134921875,12.023680737304687,12.443056455785271
0.09450385476249688,-1.3407529296874998,2.834734765625,14.034810131835936,14.380863501424152
0.09699079830887838,-1.3215993164062498,2.6192566162109374,15.557522387695311,15.831728674353002
0.09947774185525989,-1.2018892333984375,2.370259643554687,16.57266389160156,16.784393255974948
0.10196468540164137,-1.0869675537109373,2.1978771240234374,16.994043383789062,17.170022505670477
0.10445162894802287,-0.9816226806640624,2.0733786376953125,16.75941162109375,16.915683845109474
0.10693857249440437,-0.7326257080078125,1.9728221679687499,15.983690283203124,16.121635239758554
0.10942551604078586,-0.5410895751953124,1.9201497314453124,14.662090966796875,14.797184341562454
0.11191245958716736,-0.3687070556640625,1.9105729248046874,13.057975854492186,13.202157672531946
0.11439940313354886,-0.17238251953125,1.9871873779296874,11.137826123046874,11.31502541558208
0.11688634667993036,-0.0430956298828125,2.0877438476562498,9.169792358398437,9.404553338829222
0.11937329022631185,0.047884033203124995,2.1691467041015624,7.364564306640625,7.6775189827961725
0.12186023377269335,0.05746083984375,2.2936451904296873,5.679046337890624,6.125004270660201
0.12434717731907485,0.05746083984375,2.422932080078125,4.42448466796875,5.0447959512628255
0.12683412086545634,-0.028730419921875,2.6001030029296874,3.5865140869140624,4.42994857289629
0.12932106441183785,-0.1388636962890625,2.748543505859375,3.284844677734375,4.2853213516128115
0.13180800795821934,-0.28730419921875,2.8730419921875,3.4524387939453125,4.5006941262098685
0.13429495150460083,-0.4261678955078125,2.9544448486328125,4.050989208984375,5.031985394462346
0.13678189505098234,-0.5698199951171875,2.9927520751953125,5.1140147460937495,5.952680625876507
0.13926883859736383,-0.6847416748046875,2.9927520751953125,6.478709692382812,7.169317639983262
0.14175578214374532,-0.93852705078125,2.916137622070312,8.0062103515625,8.572286500658302
0.14424272569012683,-0.9576806640625,2.877830395507812,9.634267480468749,10.10040444362727
0.14672966923650832,-1.0007762939453124,2.7916391357421872,11.190498559570312,11.576789721959864
0.1492166127828898,-1.1156979736328125,2.6096798095703124,12.564770312499999,12.881330043234225
0.15170355632927132,-1.0726023437499999,2.4947581298828125,13.632584252929687,13.900418962306887
0.1541904998756528,-1.0917559570312498,2.3367408203125,14.26944189453125,14.500664147287583
0.15667744342203432,-0.9911994873046874,2.2457611572265623,14.595053320312498,14.80005071010588
0.1591643869684158,-0.852335791015625,2.221819140625,14.46097802734375,14.655471404960421
0.1616513305147973,-0.70868369140625,2.1260510742187497,13.943830468749999,14.122773590406831
0.1641382740611788,-0.6081272216796875,2.0781670410156248,13.091494677734374,13.269356799229529
0.1666252176075603,-0.44532150878906246,2.1212626708984375,11.870451831054687,12.06671841216687
0.1691121611539418,-0.32561142578124996,2.1691467041015624,10.596736547851561,10.821369861948487
0.1715991047003233,-0.21068974609375,2.24097275390625,9.198522778320312,9.469908677286009
0.1740860482467048,-0.16759411621093748,2.3319524169921872,7.862558251953125,8.202799042294064
0.17657299179308628,-0.1149216796875,2.398990063476562,6.770802294921874,7.184157851414513
0.1790599353394678,-0.13407529296874998,2.5378537597656248,5.8226984375,6.353148430833811
0.18154687888584928,-0.16759411621093748,2.6527754394531247,5.257666845703125,5.8913806514568465
0.18403382243223076,-0.21068974609375,2.748543505859375,5.003881469726562,5.712942441140437
0.18652076597861228,-0.316034619140625,2.806004345703125,5.080495922851562,5.812484588427872
0.18900770952499377,-0.4165910888671875,2.868253588867187,5.5449710449218745,6.25676679079499
0.19149465307137528,-0.5458779785156249,2.863465185546875,6.335057592773437,6.973547901894967
0.19398159661775677,-0.6560112548828124,2.806004345703125,7.331045483398437,7.877070460158039
0.19646854016413826,-0.7805097412109374,2.81558115234375,8.441955053710936,8.93326915582611
0.19895548371051977,-0.8571241943359375,2.7581203125,9.629479077148437,10.053295819778738
0.20144242725690126,-0.9002198242187499,2.6815058593749996,10.754753857421875,11.120503582999719
0.20392937080328274,-0.948103857421875,2.5761609863281247,11.803414184570311,12.11841956545708
0.20641631434966426,-0.9816226806640624,2.4899697265625,12.612654345703124,12.893509296175953
0.20890325789604575,-0.948103857421875,2.370259643554687,13.153743920898437,13.399179483792835
0.21139020144242723,-0.8810662109374999,2.27927998046875,13.306972827148437,13.5294833870288
0.21387714498880875,-0.8283937744140625,2.2744915771484373,13.230358374023437,13.4499788432956
0.21636408853519024,-0.7134720947265625,2.1835119140624997,12.799402075195312,13.003901729531812
0.21885103208157172,-0.63206923828125,2.1978771240234374,12.186486450195313,12.399218821162926
0.22133797562795324,-0.51714755859375,2.1787235107421874,11.286266625976562,11.506263167781825
0.22382491917433472,-0.4261678955078125,2.2601263671875,10.290278735351562,10.544175013819064
0.22631186272071624,-0.354341845703125,2.231395947265625,9.236830004882812,9.509138476023638
0.22879880626709773,-0.27293898925781246,2.365471240234375,8.145074047851562,8.485999123569249
0.2312857498134792,-0.181959326171875,2.5043349365234375,7.3549875,7.77178510998786
0.23377269335986073,-0.2154781494140625,2.5713725830078125,6.574477758789062,7.062729330388587
0.23625963690624222,-0.2442085693359375,2.6767174560546874,6.114791040039062,6.679455339189489
0.2387465804526237,-0.277727392578125,2.7533319091796873,5.923254907226562,6.537806803713218
0.24123352399900522,-0.3447650390625,2.7820623291015623,5.961562133789062,6.587788461251118
0.2437204675453867,-0.44053310546874996,2.81558115234375,6.382941625976562,6.990243947321982
0.2462074110917682,-0.49799394531249996,2.7964275390625,6.9336080078124995,7.49285826349309
0.2486943546381497,-0.6081272216796875,2.806004345703125,7.752424975585937,8.267017122756025
0.2511812981845312,-0.7422025146484375,2.748543505859375,8.667010009765624,9.122632212565064
0.2536682417309127,-0.7948749511718749,2.6862942626953124,9.595960253906249,9.99652220766496
0.2561551852772942,-0.852335791015625,2.6001030029296874,10.510545288085936,10.860873545870778
0.2586421288236757,-0.8810662109374999,2.5139117431640625,11.348515869140625,11.656965400678281
0.26112907237005717,-0.9002198242187499,2.4660277099609376,12.028469140624999,12.311610709617955
0.2636160159164387,-0.9193734375,2.2840683837890623,12.464213842773436,12.705071531392111
0.2661029594628202,-0.842758984375,2.3319524169921872,12.679691992187498,12.919861988334251
0.26858990300920166,-0.7996633544921875,2.2361843505859373,12.636596362304687,12.857820560037974
0.2710768465555832,-0.7278373046875,2.2601263671875,12.27746611328125,12.504962714879255
0.2735637901019647,-0.6512228515624999,2.2361843505859373,11.745953344726562,11.974641189977083
0.27605073364834615,-0.584185205078125,2.2601263671875,11.046846459960937,11.290804234395344
0.27853767719472766,-0.44532150878906246,2.2840683837890623,10.204087475585936,10.466072846938564
0.2810246207411092,-0.43574470214843747,2.3319524169921872,9.299079248046874,9.596913586253768
0.28351156428749064,-0.3495534423828125,2.403778466796875,8.413224633789062,8.756865150561193
0.28599850783387215,-0.3016694091796875,2.4899697265625,7.618349682617187,8.02061129579697
0.28848545138025367,-0.26336218261718747,2.6048914062499997,7.005434057617187,7.4786980961401825
0.2909723949266351,-0.28730419921875,2.6431986328124997,6.579266162109374,7.096181081910749
0.29345933847301664,-0.2920926025390625,2.7150246826171873,6.382941625976562,6.942522662282271
0.29594628201939815,-0.3591302490234375,2.7581203125,6.392518432617187,6.971405461263836
0.2984332255657796,-0.4213794921875,2.77727392578125,6.698976245117187,7.264096218243875
0.30092016911216113,-0.49320554199218747,2.7916391357421872,7.211335400390625,7.748539154433318
0.30340711265854264,-0.5698199951171875,2.829946362304687,7.8912886718749995,8.402721472429011
0.30589405620492416,-0.63206923828125,2.7198130859375,8.695740429687499,9.133060624178515
0.3083809997513056,-0.70868369140625,2.6623522460937497,9.5384994140625,9.928409899315009
0.31086794329768713,-0.7757213378906249,2.5809493896484375,10.357316381835936,10.702198184458767
0.31335488684406865,-0.842758984375,2.499546533203125,11.075576879882812,11.38535808833377
0.3158418303904501,-0.8475473876953125,2.43250888671875,11.712434521484374,11.992354167485788
0.3183287739368316,-0.8714894042968749,2.379836450195312,12.119448803710936,12.381605494331112
0.32081571748321314,-0.8188169677734375,2.27927998046875,12.301408129882812,12.537552410021114
0.3233026610295946,-0.8044517578125,2.2936451904296873,12.282254516601562,12.52045234409717
0.3257896045759761,-0.74699091796875,2.2361843505859373,12.028469140624999,12.257348234765184
0.3282765481223576,-0.6512228515624999,2.2601263671875,11.568782421875,11.805464375565128
0.3307634916687391,-0.5363011718749999,2.27927998046875,10.979808813476561,11.226706451885953
0.3332504352151206,-0.4740519287109375,2.2840683837890623,10.20887587890625,10.472002689259261
0.3357373787615021,-0.430956298828125,2.365471240234375,9.380482104492186,9.683729758340727
0.3382243223078836,-0.36391865234375,2.43250888671875,8.59997236328125,8.944778416410921
0.3407112658542651,-0.32082302246093747,2.5139117431640625,7.867346655273437,8.265459639874923
0.3431982094006466,-0.3399766357421875,2.5713725830078125,7.249642626953125,7.699666180558132
0.34568515294702806,-0.2920926025390625,2.6719290527343746,6.823474731445312,7.333780086829488
0.3481720964934096,-0.3016694091796875,2.710236279296875,6.636727001953124,7.175132780688139
0.3506590400397911,-0.36391865234375,2.729389892578125,6.641515405273437,7.189696297460395
0.35314598358617255,-0.4261678955078125,2.7964275390625,6.861781958007812,7.421972628326666
0.35563292713255407,-0.49320554199218747,2.7629087158203123,7.307103466796875,7.827558837407903
0.3581198706789356,-0.51714755859375,2.7581203125,7.876923461914062,8.361853411800329
0.36060681422531704,-0.622492431640625,2.729389892578125,8.590395556640624,9.035040776482886
0.36309375777169856,-0.699106884765625,2.6431986328124997,9.380482104492186,9.770808255284038
0.36558070131808007,-0.7565677246093749,2.528276953125,10.180145458984374,10.516650637902917
0.36806764486446153,-0.7852981445312499,2.50912333984375,10.86009873046875,11.173814816162018
0.37055458841084304,-0.852335791015625,2.4133552734375,11.49216796875,11.773728576727013
0.37304153195722456,-0.8188169677734375,2.35589443359375,11.9135474609375,12.171824551519055
0.3755284755036061,-0.7805097412109374,2.3032219970703123,12.152967626953124,12.393895641229369
0.37801541904998753,-0.737414111328125,2.3032219970703123,12.138602416992187,12.3771676799332
0.38050236259636905,-0.7230489013671875,2.2361843505859373,12.004527124023436,12.232415609150474
0.38298930614275056,-0.6847416748046875,2.2840683837890623,11.535263598632811,11.779140284120157
0.385476249689132,-0.6081272216796875,2.2744915771484373,11.022904443359375,11.271537296203162
0.38796319323551354,-0.5123591552734374,2.31758720703125,10.295067138671874,10.565137469808374
0.39045013678189505,-0.507570751953125,2.3319524169921872,9.586383447265625,9.878986675836867
0.3929370803282765,-0.39264907226562495,2.4133552734375,8.786720092773438,9.120576021202174
0.395424023874658,-0.38307226562499996,2.480392919921875,8.054094384765625,8.43608497803352
0.39791096742103954,-0.316034619140625,2.6288334228515624,7.52737001953125,7.979470061134054
0.400397910967421,-0.27293898925781246,2.6910826660156246,7.077260107421875,7.576544874498661
0.4028848545138025,-0.32082302246093747,2.6910826660156246,6.813897924804687,7.333079725240164
0.40537179806018403,-0.3399766357421875,2.7437551025390623,6.746860278320312,7.291357883874317
0.4078587416065655,-0.373495458984375,2.7820623291015623,6.9527616210937495,7.498017325976391
0.410345685152947,-0.469263525390625,2.786850732421875,7.278373046874999,7.807781981493774
0.4128326286993285,-0.507570751953125,2.7629087158203123,7.848193041992187,8.335791903866644
0.41531957224571,-0.603338818359375,2.710236279296875,8.504204296874999,8.945998498901252
0.4178065157920915,-0.6847416748046875,2.6575638427734374,9.222464794921875,9.62212937104903
0.420293459338473,-0.718260498046875,2.6048914062499997,9.988609326171874,10.34764097039984
0.42278040288485447,-0.7757213378906249,2.5426421630859375,10.692504614257812,11.018004705457598
0.425267346431236,-0.7852981445312499,2.4564509033203126,11.314997045898437,11.605171363013893
0.4277542899776175,-0.8283937744140625,2.4133552734375,11.707646118164062,11.98246625488587
0.43024123352399896,-0.8044517578125,2.31758720703125,12.018892333984374,12.266708035522443
0.43272817707038047,-0.7805097412109374,2.308010400390625,12.095506787109374,12.338451762739334
0.435215120616762,-0.7278373046875,2.250549560546875,11.93270107421875,12.164870545683328
0.43770206416314344,-0.7230489013671875,2.2601263671875,11.611878051757811,11.851864106473684
0.44018900770952496,-0.63206923828125,2.2936451904296873,11.099518896484375,11.35163598407632
0.4426759512559065,-0.5506663818359374,2.31758720703125,10.496180078124999,10.763096216178099
0.445162894802288,-0.47884033203125,2.3319524169921872,9.758765966796874,10.044939190129945
0.44764983834866945,-0.4836287353515625,2.422932080078125,9.016563452148437,9.348952513781873
0.45013678189505096,-0.3687070556640625,2.4564509033203126,8.288726147460936,8.652923036807982
0.4526237254414325,-0.373495458984375,2.518700146484375,7.651868505859374,8.064393400420451
0.45511066898781394,-0.3447650390625,2.6240450195312497,7.206546997070312,7.677160596058262
0.45759761253419545,-0.3495534423828125,2.6479870361328124,6.890512377929687,7.390073327309502
0.46008455608057697,-0.33518823242187495,2.7437551025390623,6.775590698242187,7.317730011688685
0.4625714996269584,-0.3447650390625,2.7198130859375,6.924031201171875,7.447043321305327
0.46505844317333994,-0.45489831542968745,2.77727392578125,7.1586629638671875,7.6919853332185255
0.46754538671972146,-0.488417138671875,2.767697119140625,7.68059892578125,8.17864894119804
0.4700323302661029,-0.584185205078125,2.7341782958984373,8.298302954101562,8.756645203823492
0.47251927381248443,-0.6081272216796875,2.6527754394531247,8.997409838867187,9.400022343508425
0.47500621735886595,-0.699106884765625,2.6288334228515624,9.782707983398437,10.153860895732011
0.4774931609052474,-0.7661445312499999,2.5522189697265625,10.443507641601562,10.778109805173939
0.4799801044516289,-0.7948749511718749,2.403778466796875,11.037269653320312,11.323925931652074
0.48246704799801043,-0.8092401611328125,2.418143676757812,11.554417211914062,11.832448841504027
0.4849539915443919,-0.7948749511718749,2.346317626953125,11.889605444335936,12.144947518064217
0.4874409350907734,-0.7709329345703124,2.3367408203125,12.028469140624999,12.277571629515661
0.4899278786371549,-0.7805097412109374,2.2457611572265623,11.97100830078125,12.204821931056854
0.4924148221835364,-0.6847416748046875,2.231395947265625,11.688492504882811,11.919264074236692
0.4949017657299179,-0.6512228515624999,2.2744915771484373,11.243170996093749,11.489399339579075
0.4973887092762994,-0.5506663818359374,2.2744915771484373,10.639832177734375,10.894153210275467
0.49987565282268087,-0.5410895751953124,2.29843359375,9.945513696289062,10.22197718625594
0.5023625963690624,-0.4836287353515625,2.384624853515625,9.184157568359375,9.501004298815728
0.5048495399154439,-0.3687070556640625,2.4851813232421875,8.499415893554687,8.862964607505678
0.5073364834618254,-0.3687070556640625,2.518700146484375,7.8912886718749995,8.291696582947278
0.5098234270082069,-0.354341845703125,2.6144682128906247,7.345410693359375,7.804874145939193
0.5123103705545884,-0.33039982910156246,2.6910826660156246,7.043741284179687,7.54754140371932
0.5147973141009698,-0.296881005859375,2.7437551025390623,6.828263134765624,7.364883422834912
0.5172842576473514,-0.411802685546875,2.748543505859375,6.924031201171875,7.460983911671905
0.5197712011937329,-0.43574470214843747,2.767697119140625,7.125144140624999,7.656219681633522
0.5222581447401143,-0.5123591552734374,2.7820623291015623,7.560888842773437,8.07275806647111
0.5247450882864959,-0.5315127685546874,2.73896669921875,8.106766821289062,8.573453953764439
0.5272320318328774,-0.63206923828125,2.6671406494140624,8.762778076171875,9.181472124772625
0.5297189753792588,-0.70868369140625,2.5953145996093747,9.533711010742186,9.90603533618559
0.5322059189256404,-0.7134720947265625,2.5953145996093747,10.20887587890625,10.557738726252555
0.5346928624720219,-0.7996633544921875,2.4756045166015626,10.869675537109375,11.17666880090708
0.5371798060184033,-0.7900865478515624,2.437297290039062,11.444283935546874,11.727586692518798
0.5396667495647849,-0.7565677246093749,2.427720483398437,11.832144604492187,12.102308350436562
0.5421536931111663,-0.7900865478515624,2.308010400390625,11.966219897460936,12.21235306547421
0.5446406366575478,-0.7422025146484375,2.27927998046875,11.975796704101562,12.213340595434401
0.5471275802039294,-0.718260498046875,2.2936451904296873,11.722011328125,11.965878821855359
0.5496145237503108,-0.6847416748046875,2.2553379638671873,11.262324609375,11.50631896391755
0.5521014672966923,-0.603338818359375,2.2601263671875,10.788272680664061,11.038977142731929
0.5545884108430739,-0.55545478515625,2.3223756103515623,10.122684619140625,10.400514525373008
0.5570753543894553,-0.5027823486328125,2.370259643554687,9.442731347656249,9.748645863501798
0.5595622979358368,-0.4165910888671875,2.4133552734375,8.738836059570312,9.075521334182325
0.5620492414822184,-0.3687070556640625,2.518700146484375,8.097190014648437,8.487890282874726
0.5645361850285998,-0.3495534423828125,2.6001030029296874,7.56567724609375,8.007633572222591
0.5670231285749813,-0.3112462158203125,2.710236279296875,7.1395093505859375,7.642960726288175
0.5695100721213628,-0.3591302490234375,2.6910826660156246,6.947973217773437,7.459573197307629
0.5719970156677443,-0.36391865234375,2.806004345703125,6.924031201171875,7.479859975188717
0.5744839592141258,-0.40222587890625,2.7246014892578123,7.072471704101562,7.589802035510877
0.5769709027605073,-0.4740519287109375,2.7437551025390623,7.474697583007812,7.976466714733192
0.5794578463068888,-0.5746083984375,2.7150246826171873,7.953537915039062,8.423793634980584
0.5819447898532703,-0.6177040283203125,2.7246014892578123,8.595183959960938,9.037820469971663
0.5844317333996518,-0.6751648681640625,2.6527754394531247,9.270348828125,9.666045340597533
0.5869186769460333,-0.7038952880859375,2.6048914062499997,10.007762939453125,10.365145771634673
0.5894056204924147,-0.8092401611328125,2.47081611328125,10.678139404296875,10.990107508192908
0.5918925640387963,-0.7805097412109374,2.4660277099609376,11.262324609375,11.555537362206662
0.5943795075851778,-0.8188169677734375,2.379836450195312,11.626243261718749,11.895529207944156
0.5968664511315592,-0.7996633544921875,2.31758720703125,11.899182250976562,12.149123844321789
0.5993533946779408,-0.7852981445312499,2.31758720703125,11.9518546875,12.199784182890895
0.6018403382243223,-0.718260498046875,2.2266075439453124,11.793837377929687,12.023654993173254
0.6043272817707037,-0.689530078125,2.2649147705078123,11.477802758789062,11.71943884390244
0.6068142253170853,-0.6368576416015624,2.327164013671875,10.984597216796875,11.246450818700863
0.6093011688634667,-0.5123591552734374,2.346317626953125,10.36210478515625,10.636772719631717
0.6117881124098483,-0.4836287353515625,2.365471240234375,9.682151513671874,9.978647647639045
0.6142750559562298,-0.43574470214843747,2.422932080078125,8.939948999023438,9.272710575406863
0.6167619995026112,-0.37828386230468747,2.5043349365234375,8.307879760742187,8.685370359041787
0.6192489430489928,-0.32561142578124996,2.5905261962890624,7.704540942382812,8.134912409307933
0.6217358865953743,-0.3399766357421875,2.6479870361328124,7.230489013671875,7.70761901193927
0.6242228301417557,-0.3495534423828125,2.6958710693359373,6.976703637695312,7.487609904355005
0.6267097736881373,-0.3591302490234375,2.710236279296875,6.87614716796875,7.399713176937689
0.6291967172345188,-0.37828386230468747,2.7629087158203123,7.024587670898437,7.557882983916483
0.6316836607809002,-0.4213794921875,2.7820623291015623,7.331045483398437,7.852493830567385
0.6341706043272818,-0.5123591552734374,2.77727392578125,7.809885815429687,8.304822623805203
0.6366575478736632,-0.5458779785156249,2.77727392578125,8.418013037109375,8.881113484197583
0.6391444914200447,-0.63206923828125,2.6719290527343746,9.045293872070312,9.45283331160241
0.6416314349664263,-0.699106884765625,2.6001030029296874,9.80665,10.169546218227767
0.6441183785128077,-0.7996633544921875,2.499546533203125,10.433930834960936,10.758908263430545
0.6466053220591892,-0.7948749511718749,2.5139117431640625,11.042058056640624,11.352472178633198
0.6490922656055708,-0.7613561279296874,2.427720483398437,11.535263598632811,11.812527087333667
0.6515792091519522,-0.7948749511718749,2.389413256835937,11.860875024414062,12.12524136851358
0.6540661526983337,-0.8092401611328125,2.2649147705078123,11.93270107421875,12.172676923450979
0.6565530962447153,-0.74699091796875,2.288856787109375,11.860875024414062,12.10277725020971
0.6590400397910967,-0.689530078125,2.2649147705078123,11.616666455078125,11.8554725833617
0.6615269833374782,-0.63206923828125,2.2553379638671873,11.118672509765624,11.362699469433302
0.6640139268838597,-0.5698199951171875,2.3415292236328122,10.568006127929687,10.839289988367376
0.6665008704302412,-0.5458779785156249,2.3319524169921872,9.878476049804688,10.164658081269081
0.6689878139766227,-0.430956298828125,2.422932080078125,9.169792358398437,9.4942832848148
0.6714747575230042,-0.4165910888671875,2.4564509033203126,8.451531860351562,8.811134431064156
0.6739617010693857,-0.354341845703125,2.518700146484375,7.8721350585937495,8.272842253558176
0.6764486446157671,-0.32082302246093747,2.6384102294921874,7.4028715332031245,7.865535130424322
0.6789355881621487,-0.3591302490234375,2.70065947265625,7.024587670898437,7.534412257711273
0.6814225317085302,-0.354341845703125,2.7437551025390623,6.900089184570312,7.434042033870244
0.6839094752549116,-0.4070142822265625,2.73896669921875,6.938396411132812,7.470538398494873
0.6863964188012932,-0.43574470214843747,2.8107927490234372,7.206546997070312,7.747564065201158
0.6888833623476747,-0.4740519287109375,2.77727392578125,7.6231380859375,8.127128026997594
0.6913703058940561,-0.5219359619140624,2.7341782958984373,8.197746484375,8.657435851577759
0.6938572494404377,-0.6464344482421874,2.6719290527343746,8.825027319335938,9.243278073591958
0.6963441929868192,-0.6607996582031249,2.6479870361328124,9.552864624023437,9.935074939663377
0.6988311365332006,-0.7613561279296874,2.5761609863281247,10.256759912109374,10.602706846634451
0.7013180800795822,-0.7757213378906249,2.480392919921875,10.89840595703125,11.20398790768321
0.7038050236259636,-0.7996633544921875,2.4133552734375,11.401188305664062,11.681217399635932
0.7062919671723451,-0.814028564453125,2.3367408203125,11.77947216796875,12.036567813168784
0.7087789107187267,-0.7948749511718749,2.346317626953125,11.956643090820311,12.210583384745076
0.7112658542651081,-0.7326257080078125,2.31758720703125,11.880028637695311,12.12613010497123
0.7137527978114896,-0.7038952880859375,2.29843359375,11.717222924804688,11.961253221591651
0.7162397413578712,-0.6607996582031249,2.2840683837890623,11.3772462890625,11.623052855945058
0.7187266849042526,-0.603338818359375,2.2840683837890623,10.802637890625,11.057937036695906
0.7212136284506341,-0.507570751953125,2.327164013671875,10.151415039062499,10.427106391999265
0.7237005719970157,-0.45968671875,2.4516625,9.418789331054686,9.743487740849831
0.7261875155433971,-0.4165910888671875,2.4660277099609376,8.762778076171875,9.112690075595527
0.7286744590897786,-0.36391865234375,2.5330653564453125,8.092401611328125,8.487391868210937
0.7311614026361601,-0.33518823242187495,2.5953145996093747,7.493851196289062,7.937620221087847
0.7336483461825416,-0.32561142578124996,2.6431986328124997,7.134720947265625,7.615560702171052
0.7361352897289231,-0.33039982910156246,2.73896669921875,6.9336080078124995,7.462306790296229
0.7386222332753046,-0.40222587890625,2.73896669921875,6.852205151367187,7.3902936121316705
0.7411091768216861,-0.4213794921875,2.786850732421875,7.105990527343749,7.644553555043985
0.7435961203680675,-0.4740519287109375,2.7246014892578123,7.417236743164062,7.916033060221734
0.7460830639144491,-0.5219359619140624,2.7820623291015623,7.972691528320312,8.460265844351207
0.7485700074608306,-0.612915625,2.6671406494140624,8.59997236328125,9.024900523348016
0.7510569510072121,-0.6560112548828124,2.6527754394531247,9.275137231445312,9.669319467306975
0.7535438945535936,-0.7422025146484375,2.5905261962890624,9.993397729492187,10.35034727563428
0.7560308380999751,-0.7852981445312499,2.5234885498046875,10.692504614257812,11.014279030545948
0.7585177816463566,-0.7948749511718749,2.418143676757812,11.238382592773437,11.523041626714592
0.7610047251927381,-0.8188169677734375,2.408566870117187,11.6837041015625,11.957449440721385
0.7634916687391196,-0.8188169677734375,2.3032219970703123,11.923124267578125,12.171120946511568
0.7659786122855011,-0.7757213378906249,2.2649147705078123,11.97100830078125,12.208055629341507
0.7684655558318826,-0.6943184814453125,2.2744915771484373,11.846509814453125,12.082846720542717
0.770952499378264,-0.689530078125,2.269703173828125,11.506533178710937,11.74850245855616
0.7734394429246456,-0.612915625,2.3032219970703123,10.955866796875,11.212114626689551
0.7759263864710271,-0.5506663818359374,2.3032219970703123,10.395623608398436,10.661944252309883
0.7784133300174085,-0.4644751220703125,2.384624853515625,9.643844287109374,9.945144818706199
0.7809002735637901,-0.411802685546875,2.47081611328125,8.997409838867187,9.339587652890138
0.7833872171101716,-0.38786066894531246,2.4899697265625,8.303091357421874,8.67707964855724
0.785874160656553,-0.3447650390625,2.6144682128906247,7.704540942382812,8.143356685128579
0.7883611042029346,-0.32561142578124996,2.6671406494140624,7.292738256835937,7.771981299969437
0.790848047749316,-0.28730419921875,2.7054478759765623,7.000645654296875,7.51072776031328
0.7933349912956975,-0.36391865234375,2.7437551025390623,6.904877587890625,7.438949075775898
0.7958219348420791,-0.37828386230468747,2.786850732421875,6.957550024414062,7.50447453373683
0.7983088783884605,-0.45968671875,2.7246014892578123,7.297526660156249,7.803118640027989
0.800795821934842,-0.49320554199218747,2.748543505859375,7.742848168945312,8.23100485223969
0.8032827654812236,-0.5698199951171875,2.7341782958984373,8.384494213867187,8.837429999890793
0.805769709027605,-0.6512228515624999,2.6862942626953124,9.04050546875,9.453624024610118
0.8082566525739865,-0.2442085693359375,1.0678139404296874,21.945252416992187,21.972573087424568
0.8107435961203681,0.0718260498046875,0.9193734375,18.6939265625,18.716658270726487
0.8132305396667495,0.33039982910156246,0.9576806640625,14.963760375976562,14.99801456496945
0.815717483213131,0.5219359619140624,1.0438719238281249,11.008539233398437,11.070231334302298
0.8182044267595125,0.584185205078125,1.2785036865234374,7.1586629638671875,7.295361503073712
0.820691370305894,0.5458779785156249,1.618480322265625,3.758896606445312,4.12877282239353
0.8231783138522755,0.488417138671875,1.915361328125,0.9002198242187499,2.1719935659530907
0.825665257398657,0.296881005859375,2.2840683837890623,-1.1444283935546875,2.5719298321375366
0.8281522009450385,0.12449848632812499,2.6767174560546874,-2.2601263671875,3.5054938893545424
0.83063914449142,-0.16759411621093748,2.987963671875,-2.39420166015625,3.8325208781855578
0.8331260880378015,-0.39264907226562495,3.347093920898437,-1.695094775390625,3.7723410909967994
0.835613031584183,-0.7038952880859375,3.4763808105468748,-0.19153613281249998,3.552094903954693
0.8380999751305644,-0.9145850341796874,3.6535517333984373,1.93451494140625,4.234058822440734
0.840586918676946,-1.139639990234375,3.7014357666015623,4.491522314453125,5.930697997946705
0.8430738622233275,-1.254561669921875,3.6439749267578123,7.254431030273437,8.21457532824862
0.8455608057697089,-1.3359645263671873,3.5386300537109374,10.041281762695311,10.730053276222595
0.8480477493160905,-1.3168109130859373,3.303998291015625,12.54561669921875,13.040049618447497
0.850534692862472,-1.3215993164062498,3.0837317382812497,14.724340209960937,15.10172906674865
0.8530216364088534,-1.216254443359375,2.7629087158203123,16.376339355468748,16.652250001979365
0.855508579955235,-1.0582371337890624,2.5570073730468748,17.463306909179686,17.681211517917802
0.8579955235016165,-0.9145850341796874,2.288856787109375,17.81764875488281,17.98732715911453
0.8604824670479979,-0.718260498046875,2.0733786376953125,17.563863378906248,17.700398128606878
0.8629694105943795,-0.5506663818359374,1.8052280517578123,16.749834814453123,16.855831278652605
0.8654563541407609,-0.37828386230468747,1.68551796875,15.447389111328125,15.543677166624311
0.8679432976871424,-0.27293898925781246,1.6136919189453125,13.77144794921875,13.868355198767004
0.870430241233524,-0.16280571289062498,1.6711527587890624,11.923124267578125,12.040770305236643
0.8729171847799054,-0.0718260498046875,1.7477672119140624,10.002974536132811,10.154769755095082
0.8754041283262869,-0.1005564697265625,1.838746875,8.130708837890625,8.33663768437125
0.8778910718726685,-0.076614453125,1.9823989746093749,6.358999609374999,6.661280019710277
0.8803780154190499,-0.105344873046875,2.2361843505859373,5.1523219726562495,5.617654288223787
0.8828649589654315,-0.2154781494140625,2.442085693359375,4.199429711914062,4.8626559894662575
0.885351902511813,-0.3016694091796875,2.6336218261718747,3.6056677001953124,4.475243895024656
0.8878388460581944,-0.430956298828125,2.868253588867187,3.6056677001953124,4.627465996177701
0.890325789604576,-0.5219359619140624,3.0214824951171875,3.9408559326171875,4.993207295745173
0.8928127331509574,-0.6607996582031249,3.0933085449218747,4.65432802734375,5.627431325967969
0.8952996766973389,-0.7613561279296874,3.1603461914062496,5.655104321289063,6.522856436235148
0.8977866202437205,-0.7900865478515624,3.1794998046874996,6.880935571289062,7.621071453367629
0.9002735637901019,-0.86191259765625,3.1459809814453124,8.173804467773436,8.800634587290121
0.9027605073364834,-0.8762778076171874,3.0980969482421874,9.509768994140625,10.040008656308437
0.905247450882865,-0.9097966308593749,2.96881005859375,10.773907470703124,11.212432620123211
0.9077343944292464,-0.8667010009765624,2.7820623291015623,11.79862578125,12.153131767329642
0.9102213379756279,-0.8571241943359375,2.729389892578125,12.689268798828124,13.00775821266434
0.9127082815220094,-0.7661445312499999,2.5330653564453125,13.235146777343749,13.49712961190713
0.9151952250683909,-0.6847416748046875,2.398990063476562,13.5224509765625,13.750661980406969
0.9176821686147724,-0.6560112548828124,2.2266075439453124,13.474566943359374,13.673042318092937
0.9201691121611539,-0.5698199951171875,2.1499930908203124,13.148955517578123,13.335748809896602
0.9226560557075354,-0.5363011718749999,2.0781670410156248,12.689268798828124,12.869496487673132
0.9251429992539169,-0.4644751220703125,2.0159177978515626,11.947066284179687,12.124852762211175
0.9276299428002984,-0.45489831542968745,1.9967641845703124,11.137826123046874,11.324538420323757
0.9301168863466799,-0.43574470214843747,2.0254946044921875,10.184933862304687,10.39352585111511
0.9326038298930613,-0.4165910888671875,2.1308394775390624,9.255983618164063,9.507221347695866
0.9350907734394429,-0.3687070556640625,2.2026655273437497,8.403647827148436,8.695342265890494
0.9375777169858244,-0.4213794921875,2.308010400390625,7.704540942382812,8.053845281454103
0.9400646605322058,-0.4070142822265625,2.389413256835937,7.129932543945312,7.530663610804177
0.9425516040785874,-0.4836287353515625,2.5234885498046875,6.6702458251953125,7.1480116524239525
0.9450385476249689,-0.5458779785156249,2.6815058593749996,6.4834980957031245,7.037343532774054
0.9475254911713503,-0.49320554199218747,2.8107927490234372,6.517016918945312,7.1144442584388825
0.9500124347177319,-0.5602431884765625,2.877830395507812,6.68461103515625,7.29930167254894
0.9524993782641133,-0.612915625,2.89219560546875,7.062894897460937,7.656692844579938
0.9549863218104948,-0.6512228515624999,2.868253588867187,7.52737001953125,8.081600662206997
0.9574732653568764,-0.6655880615234374,2.906560815429687,8.125920434570313,8.655731404705278
0.9599602089032578,-0.6272808349609375,2.91134921875,8.777143286132812,9.268639586516018
0.9624471524496393,-0.699106884765625,2.7820623291015623,9.423577734375,9.850504482265919
0.9649340959960209,-0.6703764648437499,2.7533319091796873,10.065223779296874,10.456527670983647
0.9674210395424023,-0.6560112548828124,2.6575638427734374,10.611101757812499,10.958488803644467
0.9699079830887838,-0.6272808349609375,2.5809493896484375,11.080365283203124,11.394265040231817
0.9723949266351654,-0.63206923828125,2.461239306640625,11.49216796875,11.769755098068003
0.9748818701815468,-0.6751648681640625,2.365471240234375,11.650185278320311,11.907061720120975
0.9773688137279283,-0.63206923828125,2.3127988037109373,11.731588134765625,11.974084933396863
0.9798557572743098,-0.6368576416015624,2.2601263671875,11.664550488281249,11.89855020349054
0.9823427008206913,-0.612915625,2.1643583007812497,11.434707128906249,11.653868007721265
0.9848296443670728,-0.565031591796875,2.2266075439453124,11.099518896484375,11.334741355138915
0.9873165879134543,-0.5793968017578125,2.1452046874999997,10.692504614257812,10.920955028342702
0.9898035314598358,-0.51714755859375,2.2649147705078123,10.184933862304687,10.446538100947347
0.9922904750062173,-0.49799394531249996,2.2936451904296873,9.624690673828125,9.906738958710038
0.9947774185525988,-0.5123591552734374,2.3223756103515623,9.054870678710937,9.3619775361687
0.9972643620989803,-0.5410895751953124,2.39420166015625,8.52335791015625,8.869758146787493
0.9997513056453617,-0.488417138671875,2.518700146484375,8.106766821289062,8.503062390927282
1.0022382491917432,-8.322244970703125,0.9911994873046874,9.026140258789061,12.317201214048554
1.0047251927381249,-7.465120776367187,2.3032219970703123,8.94473740234375,11.876076244720931
1.0072121362845063,-6.445190869140625,3.5577836669921874,8.82981572265625,11.496258332902823
1.0096990798308878,-5.272032055664062,4.6639048339843745,8.796296899414061,11.265929586104011
1.0121860233772693,-4.11802685546875,5.597643481445312,8.82981572265625,11.236431970327438
1.0146729669236507,-2.901772412109375,6.344634399414062,8.781931689453124,11.215925864240024
1.0171599104700322,-1.7477672119140624,6.909665991210937,8.815450512695312,11.336240209122199
1.0196468540164139,-0.6703764648437499,7.225700610351562,8.757989672851561,11.373765296717966
1.0221337975627953,0.37828386230468747,7.445967163085937,8.877699755859375,11.593061659001895
1.0246207411091768,1.2976572998046874,7.417236743164062,8.98304462890625,11.721535999040434
1.0271076846555582,2.0733786376953125,7.264007836914062,8.997409838867187,11.748110173068017
1.0295946282019397,2.6910826660156246,6.9336080078124995,9.074024291992187,11.732636650514483
1.0320815717483212,3.1699229980468746,6.49307490234375,9.184157568359375,11.685768427512397
1.0345685152947028,3.4524387939453125,5.908889697265625,9.222464794921875,11.484257397584042
1.0370554588410843,3.6391865234374996,5.329492895507812,9.351751684570312,11.362325142570997
1.0395424023874658,3.6248213134765623,4.6255976074218745,9.452308154296874,11.130211688202884
1.0420293459338472,3.4763808105468748,3.9839515624999997,9.504980590820312,10.876660775447379
1.0445162894802287,3.1603461914062496,3.294421484375,9.557653027343749,10.59196546243145
1.0470032330266101,2.825157958984375,2.6431986328124997,9.610325463867188,10.359844208634062
1.0494901765729918,2.408566870117187,2.0302830078125,9.639055883789062,10.140741678518728
1.0519771201193733,1.867477294921875,1.4987702392578124,9.739612353515625,10.029647674464334
1.0544640636657547,1.426944189453125,1.3215993164062498,9.94072529296875,10.129205981872822
1.0569510072121362,0.6560112548828124,0.6464344482421874,9.758765966796874,9.802129434827926
1.0594379507585177,0.1388636962890625,0.3687070556640625,9.7683427734375,9.776285008039206
1.0619248943048991,-0.4261678955078125,0.19632453613281248,9.777919580078125,9.789171247512451
1.0644118378512808,-1.0438719238281249,0.0718260498046875,9.730035546875,9.78613403332686
1.0668987813976623,-1.4987702392578124,0.1149216796875,9.710881933593749,9.826532814311697
1.0693857249440437,-1.93451494140625,0.1867477294921875,9.739612353515625,9.931629854648666
1.0718726684904252,-2.3127988037109373,0.32082302246093747,9.610325463867188,9.889910072373853
1.0743596120368066,-2.5713725830078125,0.59376201171875,9.572018237304688,9.929151193455466
1.076846555583188,-2.7341782958984373,0.9002198242187499,9.519345800781249,9.945052597172632
1.0793334991295698,-2.901772412109375,1.20667763671875,9.524134204101562,10.029231595111039
1.0818204426759512,-2.882618798828125,1.5418658691406248,9.423577734375,9.974500429273956
1.0843073862223327,-2.8107927490234372,1.89620771484375,9.409212524414063,10.001471886946748
1.0867943297687142,-2.6910826660156246,2.346317626953125,9.356540087890625,10.014588096281594
1.0892812733150956,-2.518700146484375,2.6431986328124997,9.34696328125,10.034743246413335
1.0917682168614773,-2.2361843505859373,3.0166940917968748,9.289502441406249,10.019771419657252
1.0942551604078588,-1.93451494140625,3.35188232421875,9.303867651367186,10.076676855396865
1.0967421039542402,-1.6136919189453125,3.5817256835937497,9.255983618164063,10.055147598195962
1.0992290475006217,-1.2401964599609374,3.77326181640625,9.212887988281249,10.032591742868139
1.1017159910470031,-0.9193734375,3.88818349609375,9.217676391601563,10.04633149349379
1.1042029345933846,-0.5123591552734374,4.046200805664062,9.227253198242186,10.088431714008857
1.1066898781397663,-0.19153613281249998,4.074931225585937,9.2320416015625,10.093182982409898
1.1091768216861477,0.1292868896484375,4.089296435546875,9.246406811523437,10.111137392093847
1.1116637652325292,0.4165910888671875,3.9791631591796874,9.255983618164063,10.083675933032453
1.1141507087789106,0.63206923828125,3.825934252929687,9.255983618164063,10.03546297733411
1.116637652325292,0.833182177734375,3.7014357666015623,9.332598071289063,10.07433402443059
1.1191245958716736,0.9528922607421875,3.5194764404296874,9.351751684570312,10.037428836369683
1.1216115394180552,1.0390835205078124,3.284844677734375,9.370905297851563,9.984175740677507
1.1240984829644367,1.0726023437499999,2.978386865234375,9.414000927734374,9.932002697049688
1.1265854265108182,1.0295067138671874,2.7629087158203123,9.428366137695312,9.878645487732266
1.1290723700571996,0.9433154541015625,2.461239306640625,9.442731347656249,9.803709414018229
1.131559313603581,0.7565677246093749,2.1739351074218747,9.452308154296874,9.728541412616238
1.1340462571499625,0.6272808349609375,1.9584569580078124,9.485826977539062,9.706180935367234
1.1365332006963442,0.430956298828125,1.7812860351562498,9.605537060546874,9.778805933859298
1.1390201442427257,0.1388636962890625,1.5083470458984374,9.576806640625,9.695855783216698
1.1415070877891071,-0.0718260498046875,1.4221557861328125,9.543287817382812,9.648939238427651
1.1439940313354886,-0.3495534423828125,1.3407529296874998,9.586383447265625,9.685997812592962
1.14648097488187,-0.622492431640625,1.24498486328125,9.586383447265625,9.686910329679822
1.1489679184282515,-0.8858546142578124,1.254561669921875,9.586383447265625,9.708625596820973
1.1514548619746332,-1.1827356201171875,1.24498486328125,9.586383447265625,9.738973172511658
1.1539418055210147,-1.3646949462890625,1.2832920898437499,9.600748657226562,9.781799714956348
1.1564287490673961,-1.5370774658203123,1.37906015625,9.543287817382812,9.764156718114272
1.1589156926137776,-1.68551796875,1.5418658691406248,9.586383447265625,9.854799276464654
1.161402636160159,-1.8770541015625,1.66636435546875,9.481038574218749,9.807660001814565
1.1638895797065405,-1.93451494140625,1.9201497314453124,9.471461767578125,9.855856688506975
1.1663765232529222,-1.9393033447265624,2.1021090576171875,9.471461767578125,9.8938540502515
1.1688634667993036,-1.9297265380859374,2.35589443359375,9.409212524414063,9.889760534189977
1.171350410345685,-1.9201497314453124,2.5857377929687497,9.409212524414063,9.945164415671913
1.1738373538920666,-1.7956512451171873,2.81558115234375,9.404424121093749,9.979732144147667
1.176324297438448,-1.6615759521484375,3.0023288818359375,9.337386474609374,9.947944487967467
1.1788112409848295,-1.4796166259765624,3.23696064453125,9.370905297851563,10.024023427517163
1.1812981845312112,-1.3263877197265623,3.356670727539062,9.332598071289063,10.006194557192428
1.1837851280775926,-0.9433154541015625,3.4572271972656248,9.442731347656249,10.099873229079163
1.186272071623974,-0.8954314208984374,3.5960908935546874,9.294290844726563,10.005873747484882
1.1887590151703555,-0.603338818359375,3.73495458984375,9.313444458007812,10.052569382517616
1.191245958716737,-0.4261678955078125,3.7924154296875,9.275137231445312,10.029566517484012
1.1937329022631185,-0.1771709228515625,3.725377783203125,9.318232861328125,10.03689657321539
1.1962198458095001,0.023942016601562498,3.6583401367187496,9.289502441406249,9.983931158866179
1.1987067893558816,0.2537853759765625,3.6343981201171873,9.34696328125,10.031898090272183
1.201193732902263,0.411802685546875,3.5051112304687497,9.313444458007812,9.95970049058596
1.2036806764486445,0.5698199951171875,3.404554760742187,9.380482104492186,9.99545559033833
1.206167619995026,0.6272808349609375,3.1699229980468746,9.366116894531249,9.907877610340142
1.2086545635414074,0.718260498046875,3.0166940917968748,9.361328491210937,9.861582657306807
1.2111415070877891,0.6943184814453125,2.825157958984375,9.356540087890625,9.798389564780203
1.2136284506341706,0.7134720947265625,2.6240450195312497,9.356540087890625,9.743690117752339
1.216115394180552,0.689530078125,2.370259643554687,9.457096557617186,9.77395814430356
1.2186023377269335,0.5746083984375,2.1835119140624997,9.466673364257812,9.73220446126961
1.221089281273315,0.4213794921875,1.9823989746093749,9.481038574218749,9.69523381960396
1.2235762248196966,0.26336218261718747,1.7764976318359373,9.504980590820312,9.673156646463575
1.226063168366078,0.11013327636718749,1.6424223388671875,9.519345800781249,9.660622389506017
1.2285501119124596,-0.0909796630859375,1.5179238525390624,9.533711010742186,9.654222690488814
1.231037055458841,-0.3112462158203125,1.4125789794921875,9.519345800781249,9.628613506368259
1.2335239990052225,-0.5458779785156249,1.3311761230468748,9.567229833984374,9.674807457219968
1.236010942551604,-0.7900865478515624,1.3072341064453123,9.552864624023437,9.674209026430447
1.2384978860979856,-0.9864110839843749,1.3263877197265623,9.576806640625,9.718412249002805
1.240984829644367,-1.20667763671875,1.3215993164062498,9.548076220703125,9.714342756380335
1.2434717731907485,-1.350329736328125,1.446097802734375,9.552864624023437,9.755604121570515
1.24595871673713,-1.5370774658203123,1.5227122558593749,9.5001921875,9.74345479537484
1.2484456602835114,-1.6711527587890624,1.6424223388671875,9.514557397460937,9.798831825886028
1.250932603829893,-1.7429788085937499,1.8195932617187498,9.5001921875,9.82865943884186
1.2534195473762746,-1.7812860351562498,2.020706201171875,9.476250170898437,9.851677562321546
1.255906490922656,-1.8435352783203125,2.2266075439453124,9.4618849609375,9.893617664493659
1.2583934344690375,-1.8339584716796873,2.4516625,9.4618849609375,9.944914263268798
1.260880378015419,-1.7286135986328124,2.6623522460937497,9.423577734375,9.943844416093153
1.2633673215618004,-1.637633935546875,2.868253588867187,9.428366137695312,9.990135713960239
1.2658542651081819,-1.5370774658203123,3.0885201416015624,9.3852705078125,9.999243286660557
1.2683412086545636,-1.407790576171875,3.2321722412109373,9.318232861328125,9.96284474239904
1.270828152200945,-1.2401964599609374,3.39018955078125,9.327809667968749,10.001975087520329
1.2733150957473265,-1.0486603271484374,3.5146880371093747,9.327809667968749,10.023011208303924
1.275802039293708,-0.8379705810546875,3.6296097167968746,9.327809667968749,10.044117412337965
1.2782889828400894,-0.6272808349609375,3.6822821533203123,9.337386474609374,10.056812083298993
1.2807759263864709,-0.4070142822265625,3.763685009765625,9.3086560546875,10.048983183543553
1.2832628699328525,-0.22505495605468748,3.744531396484375,9.303867651367186,10.031655814802399
1.285749813479234,0.0383072265625,3.706224169921875,9.299079248046874,10.010516465336641
1.2882367570256155,0.201112939453125,3.6296097167968746,9.351751684570312,10.03343274660001
1.290723700571997,0.3591302490234375,3.5338416503906247,9.313444458007812,9.967811144789792
1.2932106441183784,0.507570751953125,3.423708374023437,9.356540087890625,9.976184115928334
1.2956975876647598,0.5506663818359374,3.227383837890625,9.342174877929686,9.899266202652722
1.2981845312111415,0.6751648681640625,3.0406361083984375,9.394847314453125,9.897700319002718
1.300671474757523,0.6847416748046875,2.81558115234375,9.351751684570312,9.79038446418277
1.3031584183039044,0.679953271484375,2.5905261962890624,9.428366137695312,9.801390230549021
1.305645361850286,0.612915625,2.389413256835937,9.394847314453125,9.713295904954176
1.3081323053966674,0.5458779785156249,2.212242333984375,9.485826977539062,9.755660529124043
1.3106192489430488,0.43574470214843747,2.0063409912109376,9.5001921875,9.719512807641118
1.3131061924894305,0.26336218261718747,1.8435352783203125,9.5001921875,9.680993418088892
1.315593136035812,0.1197100830078125,1.6711527587890624,9.543287817382812,9.689242716156368
1.3180800795821934,-0.05746083984375,1.5610194824218748,9.572018237304688,9.698639941141735
1.3205670231285749,-0.26815058593749996,1.4221557861328125,9.5384994140625,9.647663079152396
1.3230539666749563,-0.49799394531249996,1.3311761230468748,9.5384994140625,9.643806246094364
1.3255409102213378,-0.699106884765625,1.3215993164062498,9.543287817382812,9.65969552081531
1.3280278537677195,-0.8954314208984374,1.3263877197265623,9.557653027343749,9.690708601731183
1.330514797314101,-1.0965443603515623,1.3024457031249999,9.581595043945311,9.731687311559334
1.3330017408604824,-1.2832920898437499,1.407790576171875,9.533711010742186,9.722158121042913
1.3354886844068639,-1.465251416015625,1.4796166259765624,9.5001921875,9.725732808968077
1.3379756279532453,-1.5562310791015623,1.6711527587890624,9.524134204101562,9.794066522773225
1.3404625714996268,-1.6998831787109374,1.7956512451171873,9.5384994140625,9.853777818046536
1.3429495150460085,-1.7669208251953124,1.9632453613281249,9.490615380859374,9.851300516109019
1.34543645859239,-1.8291700683593748,2.1691467041015624,9.4618849609375,9.878174303833262
1.3479234021387714,-1.8195932617187498,2.35589443359375,9.409212524414063,9.86886206965731
1.3504103456851528,-1.7669208251953124,2.5378537597656248,9.409212524414063,9.904342039633722
1.3528972892315343,-1.68551796875,2.748543505859375,9.418789331054686,9.955353067037374
1.3553842327779158,-1.5897499023437498,2.9544448486328125,9.399635717773437,9.98044090922125
1.3578711763242974,-1.4796166259765624,3.1651345947265623,9.370905297851563,10.001060366976276
1.360358119870679,-1.2737152832031249,3.318363500976562,9.34696328125,9.999980476396662
1.3628450634170604,-1.158793603515625,3.4715924072265625,9.3086560546875,10.002291437562299
1.3653320069634418,-0.9002198242187499,3.5673604736328124,9.337386474609374,10.036096983238664
1.3678189505098233,-0.737414111328125,3.6679169433593746,9.303867651367186,10.027928377742104
1.370305894056205,-0.4836287353515625,3.7301661865234372,9.34696328125,10.07540367001622
1.3727928376025864,-0.2346317626953125,3.73495458984375,9.323021264648437,10.046077013110507
1.3752797811489679,-0.086191259765625,3.7014357666015623,9.289502441406249,10.000145562762071
1.3777667246953493,0.1580173095703125,3.6439749267578123,9.303867651367186,9.993271536945256
1.3802536682417308,0.33039982910156246,3.5625720703124997,9.327809667968749,9.990451291362783
1.3827406117881123,0.4213794921875,3.4332851806640625,9.294290844726563,9.917098875909812
1.385227555334494,0.565031591796875,3.27526787109375,9.342174877929686,9.915789014343137
1.3877144988808754,0.63206923828125,3.1220389648437497,9.361328491210937,9.888433138791086
1.3902014424272569,0.7038952880859375,2.91134921875,9.3852705078125,9.851635669010548
1.3926883859736383,0.6703764648437499,2.7341782958984373,9.394847314453125,9.807562980693296
1.3951753295200198,0.6847416748046875,2.4851813232421875,9.418789331054686,9.76517228897656
1.3976622730664012,0.63206923828125,2.327164013671875,9.433154541015625,9.736509049099402
1.400149216612783,-7.714117749023437,-3.1076737548828124,9.433154541015625,12.575756573950912
1.4026361601591644,-7.551312036132812,-1.93451494140625,9.3086560546875,12.141488338339686
1.4051231037055458,-7.201758593749999,-0.7900865478515624,9.255983618164063,11.754267154334611
1.4076100472519273,-6.7085530517578125,0.3112462158203125,9.145850341796875,11.34672361211189
1.4100969907983087,-6.066907006835937,1.407790576171875,9.131485131835937,11.0532011493908
1.4125839343446902,-5.4013189453125,2.370259643554687,9.016563452148437,10.774543777509777
1.4150708778910719,-4.630386010742187,3.2609026611328122,9.026140258789061,10.65575753971498
1.4175578214374533,-3.806780639648437,4.07971962890625,9.04050546875,10.62386136107695
1.4200447649838348,-3.0214824951171875,4.726154077148437,9.026140258789061,10.627186683246844
1.4225317085302163,-2.2457611572265623,5.233724829101562,9.026140258789061,10.672700067620866
1.4250186520765977,-1.5322890624999999,5.635950708007812,9.054870678710937,10.775088545451956
1.4275055956229792,-0.833182177734375,5.889736083984375,9.107543115234375,10.877983511484786
1.4299925391693609,-0.22505495605468748,6.062118603515625,9.088389501953124,10.926973754683717
1.4324794827157423,0.28730419921875,6.086060620117187,9.145850341796875,10.989506633565309
1.4349664262621238,0.7326257080078125,6.081272216796875,9.227253198242186,11.075234254285107
1.4374533698085052,1.1109095703125,5.980715747070312,9.2320416015625,11.055933839058888
1.4399403133548867,1.3168109130859373,5.679046337890624,9.323021264648437,10.99564840242803
1.4424272569012682,1.5083470458984374,5.444414575195312,9.332598071289063,10.909360551274213
1.4449142004476498,1.6519991455078125,5.1523219726562495,9.409212524414063,10.853976378095973
1.4474011439940313,1.6998831787109374,4.821922143554687,9.423577734375,10.721210439851262
1.4498880875404128,1.6615759521484375,4.4196962646484375,9.423577734375,10.540321011824716
1.4523750310867942,1.5753846923828123,4.070142822265625,9.504980590820312,10.459089614039327
1.4548619746331757,1.446097802734375,3.687070556640625,9.519345800781249,10.310365300006154
1.4573489181795571,1.2928688964843749,3.347093920898437,9.495403784179686,10.15072611803835
1.4598358617259388,1.16837041015625,3.0214824951171875,9.548076220703125,10.082668565413858
1.4623228052723203,0.9864110839843749,2.7437551025390623,9.562441430664062,9.997073822083987
1.4648097488187017,0.7038952880859375,2.446874096679687,9.514557397460937,9.849338246357988
1.4672966923650832,0.5315127685546874,2.2074539306640624,9.519345800781249,9.786383558495574
1.4697836359114647,0.33518823242187495,1.944091748046875,9.519345800781249,9.721614493016562
1.4722705794578461,0.1388636962890625,1.8148048583984373,9.5001921875,9.672975312676533
1.4747575230042278,-0.009576806640625,1.6328455322265625,9.528922607421874,9.667814763718498
1.4772444665506093,-0.181959326171875,1.5131354492187499,9.495403784179686,9.616932000834634
1.4797314100969907,-0.3064578125,1.426944189453125,9.495403784179686,9.606913090856512
1.4822183536433722,-0.45010991210937495,1.3455413330078123,9.442731347656249,9.54873058138209
1.4847052971897536,-0.5746083984375,1.2880804931640624,9.452308154296874,9.55695849170707
1.487192240736135,-0.689530078125,1.24498486328125,9.519345800781249,9.625143298324971
1.4896791842825168,-0.7852981445312499,1.2306196533203124,9.452308154296874,9.564373860882354
1.4921661278288982,-0.9050082275390624,1.2785036865234374,9.414000927734374,9.543428369079482
1.4946530713752797,-0.9145850341796874,1.2785036865234374,9.433154541015625,9.563233870186549
1.4971400149216612,-1.024718310546875,1.35990654296875,9.476250170898437,9.628016967321564
1.4996269584680426,-1.0582371337890624,1.446097802734375,9.495403784179686,9.66300976461357
1.5021139020144243,-1.139639990234375,1.4796166259765624,9.457096557617186,9.639746882947835
1.5046008455608058,-1.20667763671875,1.62805712890625,9.423577734375,9.639007119498764
1.5070877891071872,-1.2641384765625,1.656787548828125,9.4618849609375,9.6886664760375
1.5095747326535687,-1.3120225097656248,1.7860744384765623,9.437942944335937,9.694649657746872
1.5120616761999501,-1.3215993164062498,1.915361328125,9.447519750976562,9.729895334251776
1.5145486197463316,-1.3934253662109375,2.0350714111328125,9.447519750976562,9.76415789224562
1.5170355632927133,-1.3934253662109375,2.1787235107421874,9.495403784179686,9.841298868141072
1.5195225068390947,-1.4221557861328125,2.3319524169921872,9.423577734375,9.811439571793478
1.5220094503854762,-1.4221557861328125,2.480392919921875,9.418789331054686,9.843194023284271
1.5244963939318577,-1.39821376953125,2.6144682128906247,9.380482104492186,9.837880376088156
1.5269833374782391,-1.3455413330078123,2.77727392578125,9.423577734375,9.916024871563458
1.5294702810246206,-1.3359645263671873,2.8730419921875,9.423577734375,9.9419811315649
1.5319572245710023,-1.2689268798828124,3.0502129150390624,9.409212524414063,9.972324432305172
1.5344441681173837,-1.16837041015625,3.19865341796875,9.409212524414063,10.006485568530158
1.5369311116637652,-1.0582371337890624,3.294421484375,9.394847314453125,10.011804772863321
1.5394180552101466,-0.9864110839843749,3.385401147460937,9.394847314453125,10.03479465747676
1.541904998756528,-0.8475473876953125,3.414131567382812,9.370905297851563,10.009420414544064
1.5443919423029095,-0.7038952880859375,3.5529952636718747,9.34696328125,10.024218997074042
1.5468788858492912,-0.55545478515625,3.5769372802734374,9.366116894531249,10.04127262887462
1.5493658293956727,-0.430956298828125,3.5721488769531247,9.356540087890625,10.024510628799863
1.5518527729420541,-0.26336218261718747,3.5673604736328124,9.332598071289063,9.9946389203562
1.5543397164884356,-0.12449848632812499,3.5625720703124997,9.327809667968749,9.985762506244576
1.556826660034817,0.0143652099609375,3.4763808105468748,9.313444458007812,9.941110479800141
1.5593136035811985,0.16759411621093748,3.342305517578125,9.399635717773437,9.977587162609197
1.5618005471275802,0.28730419921875,3.294421484375,9.332598071289063,9.901168788573834
1.5642874906739617,0.3447650390625,3.1507693847656246,9.342174877929686,9.865213738077683
1.5667744342203431,0.4165910888671875,3.0214824951171875,9.3852705078125,9.86844501978089
1.5692613777667246,0.45489831542968745,2.8730419921875,9.361328491210937,9.802845193443133
1.571748321313106,0.5123591552734374,2.7054478759765623,9.404424121093749,9.799242479040332
1.5742352648594875,0.5027823486328125,2.5570073730468748,9.437942944335937,9.791110448588213
1.5767222084058692,0.44532150878906246,2.35589443359375,9.423577734375,9.723804149829245
1.5792091519522506,0.3591302490234375,2.1356278808593747,9.437942944335937,9.683214755534859
1.581696095498632,0.2825157958984375,2.001552587890625,9.442731347656249,9.656666259172146
1.5841830390450136,0.16280571289062498,1.8243816650390623,9.466673364257812,9.642239301398241
1.586669982591395,0.0526724365234375,1.7238251953125,9.519345800781249,9.6743109400316
1.5891569261377765,-0.1005564697265625,1.5658078857421873,9.495403784179686,9.624165364501495
1.5916438696841582,-0.32561142578124996,1.4700398193359374,9.504980590820312,9.623497072421406
1.5941308132305396,-0.469263525390625,1.426944189453125,9.533711010742186,9.651322376359774
1.596617756776921,-0.6751648681640625,1.3168109130859373,9.5001921875,9.614753776330481
1.5991047003233025,-0.8810662109374999,1.35990654296875,9.524134204101562,9.660991450746774
1.601591643869684,-1.0438719238281249,1.3934253662109375,9.471461767578125,9.630155287390275
1.6040785874160655,-1.1875240234375,1.4413093994140624,9.519345800781249,9.700800511603777
1.6065655309624471,-1.3168109130859373,1.5322890624999999,9.5384994140625,9.75012163123876
1.6090524745088286,-1.484405029296875,1.6519991455078125,9.528922607421874,9.784320391626395
1.61153941805521,-1.5753846923828123,1.8339584716796873,9.509768994140625,9.812285509847245
1.6140263616015915,-1.6998831787109374,1.9536685546875,9.533711010742186,9.879173511948554
1.616513305147973,-1.7190367919921874,2.1308394775390624,9.490615380859374,9.877618370774721
1.6190002486943544,-1.7334020019531249,2.3415292236328122,9.423577734375,9.863633150178988
1.6214871922407361,-1.7669208251953124,2.5713725830078125,9.466673364257812,9.967540857638932
1.6239741357871176,-1.70467158203125,2.729389892578125,9.423577734375,9.95787586305939
1.626461079333499,-1.5945383056640625,2.877830395507812,9.327809667968749,9.891030957154564
1.6289480228798805,-1.4891934326171874,3.1172505615234374,9.375693701171874,9.991925766400705
1.631434966426262,-1.3168109130859373,3.284844677734375,9.356540087890625,10.003451302124
1.6339219099726436,-1.1827356201171875,3.394977954101562,9.337386474609374,10.005574697744638
1.636408853519025,-1.01514150390625,3.4811692138671875,9.366116894531249,10.04356495725265
1.6388957970654066,-0.7900865478515624,3.6200329101562496,9.299079248046874,10.010082411507227
1.641382740611788,-0.612915625,3.6631285400390623,9.294290844726563,10.008896970724889
1.6438696841581695,-0.39264907226562495,3.749319799804687,9.323021264648437,10.056356087383017
1.646356627704551,-8.12113203125,-0.3447650390625,9.169792358398437,12.253845939022446
1.6488435712509326,-7.436390356445312,0.9816226806640624,9.050082275390624,11.754466121945583
1.651330514797314,-6.655880615234374,2.212242333984375,8.968679418945312,11.385603779700862
1.6538174583436955,-5.702988354492187,3.289633081054687,8.9255837890625,11.091068837358199
1.656304401890077,-4.7022120605468745,4.209006518554688,8.844180932617187,10.864900851110319
1.6587913454364585,-3.5913024902343746,5.0182466796875,8.815450512695312,10.760688688756789
1.66127828898284,-2.528276953125,5.659892724609374,8.820238916015624,10.78068571758706
1.6637652325292216,-1.4700398193359374,6.133944653320312,8.844180932617187,10.863048856067044
1.666252176075603,-0.5123591552734374,6.4739212890625,8.8872765625,11.007172818636537
1.6687391196219845,0.354341845703125,6.56968935546875,8.954314208984375,11.111530917213667
1.671226063168366,1.1252747802734375,6.593631372070312,9.0021982421875,11.215248155681307
1.6737130067147474,1.7621324218749999,6.402095239257812,9.121908325195312,11.282780934593127
1.676199950261129,2.250549560546875,6.066907006835937,9.150638745117186,11.207431614679278
1.6786868938075106,2.6336218261718747,5.736507177734374,9.265560424804686,11.211337498674887
1.681173837353892,2.85388837890625,5.272032055664062,9.332598071289063,11.092176866397052
1.6836607809002735,2.91134921875,4.745307690429687,9.404424121093749,10.928727849103815
1.686147724446655,2.7916391357421872,4.185064501953125,9.504980590820312,10.754193134846815
1.6886346679930364,2.6623522460937497,3.67749375,9.567229833984374,10.5898048357772
1.6911216115394179,2.3367408203125,3.0933085449218747,9.576806640625,10.33170561172358
1.6936085550857995,1.9536685546875,2.5857377929687497,9.658209497070311,10.1874369418839
1.696095498632181,1.5753846923828123,2.1835119140624997,9.643844287109374,10.012656682512343
1.6985824421785625,1.1013327636718748,1.7573440185546874,9.682151513671874,9.901780132359313
1.701069385724944,0.5793968017578125,1.350329736328125,9.715670336914062,9.826155969975796
1.7035563292713254,0.11013327636718749,1.1061211669921875,9.696516723632811,9.760024075089278
1.7060432728177068,-0.38786066894531246,0.9624690673828125,9.682151513671874,9.737599321079195
1.7085302163640885,-0.8810662109374999,0.7948749511718749,9.677363110351562,9.749844133402826
1.71101715991047,-1.2880804931640624,0.8044517578125,9.624690673828125,9.743765419712828
1.7135041034568514,-1.5562310791015623,0.9050082275390624,9.639055883789062,9.805727581076457
1.715991047003233,-1.8626888916015625,1.0534487304687499,9.634267480468749,9.8690665222117
1.7184779905496144,-2.0973206542968748,1.1827356201171875,9.572018237304688,9.870215327404352
1.7209649340959958,-2.2026655273437497,1.465251416015625,9.5384994140625,9.898568998070123
1.7234518776423775,-2.308010400390625,1.6615759521484375,9.4618849609375,9.880031055977735
1.725938821188759,-2.2553379638671873,1.944091748046875,9.414000927734374,9.873674874304308
1.7284257647351404,-2.1978771240234374,2.212242333984375,9.409212524414063,9.912515338004205
1.7309127082815219,-2.0446482177734375,2.499546533203125,9.323021264648437,9.866460596747894
1.7333996518279033,-1.9201497314453124,2.70065947265625,9.318232861328125,9.889893843533043
1.7358865953742848,-1.6711527587890624,2.96881005859375,9.279925634765624,9.88552499840023
1.7383735389206665,-1.3934253662109375,3.19865341796875,9.275137231445312,9.909651285571368
1.740860482467048,-1.1061211669921875,3.380612744140625,9.284714038085937,9.942734097366992
1.7433474260134294,-0.8379705810546875,3.4524387939453125,9.222464794921875,9.88308581437119
1.7458343695598109,-0.507570751953125,3.5338416503906247,9.289502441406249,9.951910393847328
1.7483213131061923,-0.258573779296875,3.5482068603515624,9.251195214843749,9.911672171048316
1.7508082566525738,0.0047884033203125,3.5529952636718747,9.260772021484375,9.918956432326382
1.7532952001989555,0.22026655273437498,3.4859576171874997,9.3086560546875,9.942408933832448
1.755782143745337,0.4165910888671875,3.385401147460937,9.337386474609374,9.94088905685862
1.7582690872917184,0.51714755859375,3.2321722412109373,9.375693701171874,9.930660168005346
1.7607560308380998,0.5793968017578125,3.0597897216796874,9.327809667968749,9.833923275917659
1.7632429743844813,0.679953271484375,2.925714428710937,9.452308154296874,9.918077979808228
1.765729917930863,0.6655880615234374,2.6719290527343746,9.433154541015625,9.826831479432842
1.7682168614772444,0.5746083984375,2.43250888671875,9.433154541015625,9.758671983943527
1.770703805023626,0.5363011718749999,2.2649147705078123,9.495403784179686,9.776510159010364
1.7731907485700074,0.354341845703125,2.1212626708984375,9.519345800781249,9.75926523552952
1.7756776921163888,0.181959326171875,1.9393033447265624,9.457096557617186,9.655603655874831
1.7781646356627703,-0.0143652099609375,1.7956512451171873,9.548076220703125,9.71546855636436
1.780651579209152,-0.22505495605468748,1.6472107421875,9.557653027343749,9.701169226104438
1.7831385227555334,-0.44053310546874996,1.5945383056640625,9.567229833984374,9.709197110035651
1.7856254663019149,-0.6607996582031249,1.5179238525390624,9.557653027343749,9.699973216534236
1.7881124098482963,-0.9193734375,1.5083470458984374,9.567229833984374,9.728938535355837
1.7905993533946778,-1.1109095703125,1.4939818359375,9.5384994140625,9.718491285770325
1.7930862969410593,-1.2641384765625,1.5849614990234373,9.548076220703125,9.760937893341442
1.795573240487441,-1.446097802734375,1.7286135986328124,9.562441430664062,9.824438403457576
1.7980601840338224,-1.6041151123046875,1.8291700683593748,9.519345800781249,9.82532406118789
1.8005471275802039,-1.68551796875,1.9584569580078124,9.481038574218749,9.82683147943284
1.8030340711265853,-1.7764976318359373,2.212242333984375,9.495403784179686,9.910229715037145
1.8055210146729668,-1.7573440185546874,2.375048046875,9.485826977539062,9.935291876554134
1.8080079582193482,-1.7286135986328124,2.5617957763671875,9.404424121093749,9.899196716027062
1.81049490176573,-1.66636435546875,2.70065947265625,9.356540087890625,9.880039178501724
1.8129818453121114,-1.5658078857421873,2.901772412109375,9.3852705078125,9.947629867035996
1.8154687888584928,-1.4413093994140624,3.1411925781249996,9.404424121093749,10.019364083968446
1.8179557324048743,-1.2737152832031249,3.2800562744140622,9.351751684570312,9.991815618587642
1.8204426759512558,-1.0726023437499999,3.39018955078125,9.337386474609374,9.99152876962592
1.8229296194976372,-0.8906430175781249,3.5338416503906247,9.279925634765624,9.969869687291624
1.825416563044019,-0.679953271484375,3.5577836669921874,9.279925634765624,9.961786027580539
1.8279035065904004,-0.4644751220703125,3.6200329101562496,9.2320416015625,9.927283996270946
1.8303904501367818,-0.26336218261718747,3.5721488769531247,9.275137231445312,9.942724873016116
1.8328773936831633,-0.033518823242187495,3.6296097167968746,9.299079248046874,9.982387743883416
1.8353643372295447,0.1388636962890625,3.5194764404296874,9.313444458007812,9.957220757484645
1.8378512807759262,0.2825157958984375,3.423708374023437,9.3086560546875,9.922331971354344
1.8403382243223079,0.4213794921875,3.284844677734375,9.332598071289063,9.902785062471283
1.8428251678686893,0.5746083984375,3.1268273681640624,9.370905297851563,9.89550859244522
1.8453121114150708,0.5985504150390625,3.0071172851562498,9.404424121093749,9.891623224498538
1.8477990549614522,0.63206923828125,2.7533319091796873,9.351751684570312,9.769114990312692
1.8502859985078337,0.612915625,2.5905261962890624,9.418789331054686,9.787751733662772
1.8527729420542152,0.5793968017578125,2.4133552734375,9.423577734375,9.744937231481998
1.8552598856005968,0.488417138671875,2.1356278808593747,9.418789331054686,9.670214589637704
1.8577468291469783,0.38307226562499996,2.0063409912109376,9.437942944335937,9.656444250045917
1.8602337726933598,0.201112939453125,1.8291700683593748,9.519345800781249,9.69557909710652
1.8627207162397412,0.0430956298828125,1.6519991455078125,9.543287817382812,9.68531366427958
1.8652076597861227,-0.1484405029296875,1.5610194824218748,9.552864624023437,9.68070446467245
1.8676946033325041,-0.3447650390625,1.4604630126953124,9.548076220703125,9.665276750304013
1.8701815468788858,-0.565031591796875,1.4030021728515625,9.524134204101562,9.643485269055581
1.8726684904252673,-0.7565677246093749,1.3311761230468748,9.543287817382812,9.665338429558373
1.8751554339716487,-0.9864110839843749,1.3455413330078123,9.519345800781249,9.664441669351172
1.8776423775180302,-1.20667763671875,1.3934253662109375,9.576806640625,9.752585841820432
1.8801293210644117,-1.3359645263671873,1.4413093994140624,9.557653027343749,9.757607564953817
1.8826162646107931,-1.5083470458984374,1.618480322265625,9.490615380859374,9.745068992666809
1.8851032081571748,-1.6232687255859375,1.70467158203125,9.509768994140625,9.796765429465417
1.8875901517035563,-1.7238251953125,1.867477294921875,9.509768994140625,9.843513146888224
1.8900770952499377,-1.8100164550781248,2.0254946044921875,9.452308154296874,9.834882683808065
1.8925640387963192,-1.8195932617187498,2.2553379638671873,9.433154541015625,9.868225451621816
1.8950509823427006,-1.8052280517578123,2.437297290039062,9.447519750976562,9.922444045898033
1.897537925889082,-1.7573440185546874,2.6719290527343746,9.390058911132812,9.919711145841934
1.9000248694354638,-1.656787548828125,2.901772412109375,9.418789331054686,9.993939192151439
1.9025118129818452,-1.5610194824218748,3.0358477050781247,9.366116894531249,9.968816318648491
1.9049987565282267,-1.3838485595703125,3.23696064453125,9.370905297851563,10.010335516423586
1.9074857000746082,-1.24498486328125,3.399766357421875,9.370905297851563,10.046007400761733
1.9099726436209896,-1.0295067138671874,3.5003228271484375,9.303867651367186,9.993702879429167
1.9124595871673713,-0.82360537109375,3.5817256835937497,9.294290844726563,9.994544861382012
1.9149465307137528,-0.6177040283203125,3.6822821533203123,9.313444458007812,10.033992614889689
1.9174334742601342,-0.38307226562499996,3.69664736328125,9.318232861328125,10.032019225812947
1.9199204178065157,-0.2059013427734375,3.7110125732421873,9.323021264648437,10.036569891292764
1.9224073613528971,0.033518823242187495,3.687070556640625,9.332598071289063,10.034590154131163
1.9248943048992786,0.229843359375,3.5817256835937497,9.356540087890625,10.021298781029742
1.9273812484456603,0.3495534423828125,3.5003228271484375,9.332598071289063,9.973556750907193
1.9298681919920417,0.488417138671875,3.356670727539062,9.361328491210937,9.95692024648303
1.9323551355384232,0.5793968017578125,3.1507693847656246,9.356540087890625,9.889787196202345
1.9348420790848047,0.612915625,3.0214824951171875,9.375693701171874,9.869582281427249
1.9373290226311861,0.6703764648437499,2.834734765625,9.370905297851563,9.813204975815083
1.9398159661775676,0.6607996582031249,2.6288334228515624,9.447519750976562,9.828685100178715
1.9423029097239493,0.6272808349609375,2.418143676757812,9.457096557617186,9.781491470499166
1.9447898532703307,0.507570751953125,2.1787235107421874,9.442731347656249,9.704104261007762
1.9472767968167122,0.39264907226562495,1.9680337646484374,9.476250170898437,9.686415616429022
1.9497637403630936,0.258573779296875,1.8100164550781248,9.481038574218749,9.655729512202448
1.952250683909475,0.076614453125,1.6232687255859375,9.5001921875,9.638180467771345
1.9547376274558566,-0.1149216796875,1.5418658691406248,9.572018237304688,9.696086348943913
1.9572245710022382,-0.316034619140625,1.407790576171875,9.552864624023437,9.661209795453784
1.9597115145486197,-0.5363011718749999,1.3263877197265623,9.528922607421874,9.635729831633494
1.9621984580950012,-0.7517793212890624,1.3407529296874998,9.595960253906249,9.718294282482494
1.9646854016413826,-0.9576806640625,1.2689268798828124,9.562441430664062,9.693689379987832
1.967172345187764,-1.1540052001953125,1.37906015625,9.562441430664062,9.730047329356351
1.9696592887341455,-1.3311761230468748,1.426944189453125,9.528922607421874,9.726693459167912
1.9721462322805272,-1.446097802734375,1.5227122558593749,9.485826977539062,9.71549097663239
1.9746331758269087,-1.6472107421875,1.599326708984375,9.514557397460937,9.787642802065639
1.9771201193732901,-1.7286135986328124,1.8052280517578123,9.519345800781249,9.84199663518959
1.9796070629196716,-1.7908628417968748,1.9871873779296874,9.466673364257812,9.837378104895642
1.982094006466053,-1.8052280517578123,2.1835119140624997,9.428366137695312,9.84482913128236
1.9845809500124345,-1.8004396484374998,2.4133552734375,9.428366137695312,9.897472133324445
1.9870678935588162,-1.8148048583984373,2.5713725830078125,9.366116894531249,9.880770178317809
1.9895548371051976,-1.70467158203125,2.7820623291015623,9.390058911132812,9.94077373045658
1.992041780651579,-1.5849614990234373,2.959233251953125,9.409212524414063,9.99011735278631
1.9945287241979606,-1.4317325927734375,3.1842882080078123,9.356540087890625,9.986710771078316
1.997015667744342,-1.3024457031249999,3.337517114257812,9.327809667968749,9.992167857847658
1.9995026112907235,-1.1061211669921875,3.438073583984375,9.299079248046874,9.975807178690623
2.001989554837105,-0.4261678955078125,2.446874096679687,9.0021982421875,9.33854298655884
2.0044764983834864,-0.39264907226562495,2.499546533203125,8.317456567382813,8.69379030779431
2.006963441929868,-0.38786066894531246,2.5570073730468748,7.752424975585937,8.172442450480725
2.0094503854762498,-0.36391865234375,2.6001030029296874,7.287949853515625,7.746430499186453
2.011937329022631,-0.3399766357421875,2.748543505859375,7.072471704101562,7.5953888328228185
2.0144242725690127,-0.3495534423828125,2.7724855224609373,6.9144543945312495,7.457784064679648
2.016911216115394,-0.43574470214843747,2.7964275390625,7.053318090820312,7.5999458232918125
2.0193981596617756,-0.4165910888671875,2.7820623291015623,7.335833886718749,7.856709091716497
2.021885103208157,-0.5027823486328125,2.806004345703125,7.742848168945312,8.250948324013509
2.0243720467545385,-0.5793968017578125,2.7437551025390623,8.317456567382813,8.777469821474513
2.02685899030092,-0.612915625,2.710236279296875,9.0021982421875,9.421285445449035
2.0293459338473014,-0.689530078125,2.6479870361328124,9.701305126953125,10.079811914833208
2.031832877393683,-0.7805097412109374,2.5474305664062498,10.309432348632813,10.648145063710519
2.0343198209400644,-0.7613561279296874,2.5234885498046875,11.018116040039061,11.329013138234835
2.036806764486446,-0.7613561279296874,2.446874096679687,11.425130322265625,11.708990514954376
2.0392937080328277,-0.7565677246093749,2.39420166015625,11.769895361328125,12.034742752881295
2.041780651579209,-0.7757213378906249,2.29843359375,11.903970654296874,12.148623704654717
2.0442675951255906,-0.7661445312499999,2.3367408203125,11.841721411132811,12.09436650192809
2.046754538671972,-0.679953271484375,2.2840683837890623,11.640608471679688,11.88204824195593
2.0492414822183536,-0.6751648681640625,2.2649147705078123,11.267113012695312,11.512320450617915
2.0517284257647352,-0.5889736083984375,2.308010400390625,10.678139404296875,10.94058787530628
2.0542153693111165,-0.5410895751953124,2.365471240234375,10.002974536132811,10.293091454333942
2.056702312857498,-0.469263525390625,2.422932080078125,9.361328491210937,9.681181706862617
2.0591892564038794,-0.430956298828125,2.4947581298828125,8.705317236328124,9.065985310115362
2.061676199950261,-0.38307226562499996,2.5330653564453125,8.044517578125,8.442596018137822
2.0641631434966423,-0.354341845703125,2.5857377929687497,7.48906279296875,7.9308044733578
2.066650087043024,-0.33518823242187495,2.6719290527343746,7.163451367187499,7.652881255060774
2.0691370305894057,-0.354341845703125,2.7150246826171873,6.967126831054687,7.4858381929373135
2.071623974135787,-0.37828386230468747,2.7533319091796873,6.909665991210937,7.447645224679021
2.0741109176821686,-0.411802685546875,2.77727392578125,7.125144140624999,7.658362157493649
2.07659786122855,-0.4644751220703125,2.7820623291015623,7.4794859863281244,7.993642383901537
2.0790848047749315,-0.5027823486328125,2.7629087158203123,7.991845141601562,8.470893897894902
2.081571748321313,-0.5889736083984375,2.6958710693359373,8.623914379882812,9.054640244947445
2.0840586918676944,-0.6655880615234374,2.6671406494140624,9.313444458007812,9.71065880276904
2.086545635414076,-0.7517793212890624,2.6240450195312497,10.041281762695311,10.405677481561787
2.0890325789604574,-0.7565677246093749,2.5474305664062498,10.70686982421875,11.031720565956496
2.091519522506839,-0.8092401611328125,2.4564509033203126,11.200075366210937,11.494812259781302
2.0940064660532203,-0.82360537109375,2.3415292236328122,11.674127294921874,11.935088311799829
2.096493409599602,-0.7709329345703124,2.3319524169921872,11.903970654296874,12.154705138467245
2.0989803531459836,-0.7661445312499999,2.2553379638671873,11.93270107421875,12.168109208118004
2.101467296692365,-0.7422025146484375,2.2457611572265623,11.808202587890625,12.042755336912101
2.1039542402387466,-0.7038952880859375,2.231395947265625,11.477802758789062,11.713861558842535
2.106441183785128,-0.603338818359375,2.308010400390625,10.960655200195312,11.217258673830212
2.1089281273315095,-0.5793968017578125,2.3127988037109373,10.338162768554687,10.60954044195432
2.111415070877891,-0.469263525390625,2.427720483398437,9.701305126953125,10.011461240399493
2.1139020144242724,-0.45968671875,2.422932080078125,8.997409838867187,9.32927090144835
2.116388957970654,-0.38307226562499996,2.4660277099609376,8.298302954101562,8.66544107042665
2.1188759015170353,-0.3399766357421875,2.5857377929687497,7.766790185546874,8.192963678251278
2.121362845063417,-0.3495534423828125,2.5905261962890624,7.283161450195312,7.738052357819288
2.1238497886097982,-0.33039982910156246,2.6767174560546874,6.986280444335937,7.488797956516717
2.12633673215618,-0.38307226562499996,2.7820623291015623,6.919242797851562,7.467431690970986
2.1288236757025616,-0.38786066894531246,2.7724855224609373,7.034164477539062,7.570771543762405
2.131310619248943,-0.45489831542968745,2.7629087158203123,7.297526660156249,7.816296591418972
2.1337975627953245,-0.488417138671875,2.786850732421875,7.785943798828124,8.284081671776232
2.1362845063417057,-0.565031591796875,2.767697119140625,8.365340600585936,8.829401531635046
2.1387714498880874,-0.6607996582031249,2.7198130859375,9.030928662109375,9.454719028655841
2.141258393434469,-0.70868369140625,2.5905261962890624,9.701305126953125,10.066199864614852
2.1437453369808503,-0.7422025146484375,2.518700146484375,10.433930834960936,10.759257765728986
2.146232280527232,-0.7757213378906249,2.5043349365234375,11.080365283203124,11.386304575127248
2.1487192240736133,-0.8092401611328125,2.403778466796875,11.477802758789062,11.754700197176124
2.151206167619995,-0.842758984375,2.370259643554687,11.85608662109375,12.120031495441214
2.153693111166376,-0.8188169677734375,2.3511060302734372,11.985373510742187,12.241214767509895
2.156180054712758,-0.7613561279296874,2.27927998046875,11.9135474609375,12.15349305701501
2.1586669982591395,-0.7134720947265625,2.2601263671875,11.635820068359374,11.874743040960695
2.161153941805521,-0.679953271484375,2.2601263671875,11.214440576171874,11.46011278668533
2.1636408853519025,-0.6177040283203125,2.2840683837890623,10.601524951171875,10.862359685572365
2.1661278288982837,-0.5219359619140624,2.375048046875,10.012551342773437,10.303613675064591
2.1686147724446654,-0.44532150878906246,2.39420166015625,9.246406811523437,9.56172326308768
2.171101715991047,-0.4165910888671875,2.461239306640625,8.566453540039062,8.922744718612325
2.1735886595374283,-0.37828386230468747,2.5474305664062498,7.9295958984374995,8.337325247563383
2.17607560308381,-0.3495534423828125,2.5665841796874997,7.4220251464843745,7.861043139148279
2.178562546630191,-0.3112462158203125,2.6910826660156246,7.029376074218749,7.533321187563373
2.181049490176573,-0.3447650390625,2.786850732421875,6.880935571289062,7.431868827770795
2.1835364337229546,-0.3399766357421875,2.7964275390625,6.957550024414062,7.506203663390825
2.186023377269336,-0.4070142822265625,2.73896669921875,7.129932543945312,7.6487605065511195
2.1885103208157175,-0.45489831542968745,2.8107927490234372,7.551312036132812,8.070303700753012
2.1909972643620987,-0.55545478515625,2.7437551025390623,8.068459594726562,8.540302237789787
2.1934842079084804,-0.6272808349609375,2.6862942626953124,8.75320126953125,9.177591763454208
2.1959711514548617,-0.6655880615234374,2.6862942626953124,9.418789331054686,9.816963725929819
2.1984580950012433,-0.70868369140625,2.6001030029296874,10.165780249023436,10.516931884905606
2.200945038547625,-0.8092401611328125,2.518700146484375,10.773907470703124,11.093953409563394
2.2034319820940063,-0.7852981445312499,2.43250888671875,11.324573852539062,11.609468790663135
2.205918925640388,-0.8188169677734375,2.384624853515625,11.755530151367187,12.022869293909052
2.208405869186769,-0.8283937744140625,2.3032219970703123,11.880028637695311,12.129556803351772
2.210892812733151,-0.7613561279296874,2.308010400390625,11.975796704101562,12.219913332745744
2.2133797562795325,-0.737414111328125,2.250549560546875,11.789048974609374,12.024576026696407
2.2158666998259138,-0.6607996582031249,2.2840683837890623,11.429918725585937,11.67461633817601
2.2183536433722955,-0.612915625,2.2936451904296873,10.884040747070312,11.139964847648185
2.2208405869186767,-0.5506663818359374,2.384624853515625,10.275913525390624,10.563336023122368
2.2233275304650584,-0.49799394531249996,2.370259643554687,9.528922607421874,9.831912062547529
2.2258144740114396,-0.39264907226562495,2.4851813232421875,8.86812294921875,9.218129102252966
2.2283014175578213,-0.373495458984375,2.4947581298828125,8.169016064453125,8.549628088156323
2.230788361104203,-0.33039982910156246,2.5857377929687497,7.651868505859374,8.083705561932586
2.233275304650584,-0.32082302246093747,2.7150246826171873,7.163451367187499,7.66741950913226
2.235762248196966,-0.3591302490234375,2.7581203125,6.938396411132812,7.475128557557349
2.238249191743347,-0.38307226562499996,2.7246014892578123,6.947973217773437,7.472919742032154
2.240736135289729,-0.40222587890625,2.7916391357421872,7.058106494140625,7.600782986278411
2.2432230788361105,-0.45489831542968745,2.8012159423828122,7.3549875,7.883500767958144
2.2457100223824917,-0.565031591796875,2.7581203125,7.862558251953125,8.351425664119258
2.2481969659288734,-0.5698199951171875,2.786850732421875,8.494627490234375,8.958232416580922
2.2506839094752547,-0.6512228515624999,2.6862942626953124,9.208099584960937,9.614019244558683
2.2531708530216363,-0.718260498046875,2.6527754394531247,9.926360083007811,10.299793210193645
2.2556577965680176,-0.7805097412109374,2.518700146484375,10.572794531249999,10.896652242044592
2.2581447401143993,-0.82360537109375,2.408566870117187,11.137826123046874,11.425002885003835
2.260631683660781,-0.7805097412109374,2.4133552734375,11.631031665039062,11.904384768861224
2.263118627207162,-0.7948749511718749,2.327164013671875,11.899182250976562,12.150640179697756
2.265605570753544,-0.7900865478515624,2.2840683837890623,11.961431494140625,12.20315731783951
2.268092514299925,-0.7278373046875,2.2601263671875,11.8369330078125,12.072733798489553
2.2705794578463068,-0.6464344482421874,2.2936451904296873,11.554417211914062,11.797594791415381
2.2730664013926885,-0.6272808349609375,2.29843359375,11.075576879882812,11.32893116992872
2.2755533449390697,-0.5363011718749999,2.3319524169921872,10.472238061523436,10.742131587319639
2.2780402884854514,-0.507570751953125,2.3367408203125,9.7683427734375,10.056764204699324
2.2805272320318326,-0.4644751220703125,2.403778466796875,9.04050546875,9.36614259911503
2.2830141755782143,-0.38307226562499996,2.5234885498046875,8.422801440429687,8.801041013800063
2.2855011191245955,-0.38307226562499996,2.5474305664062498,7.747636572265624,8.164681212837387
2.287988062670977,-0.3495534423828125,2.6240450195312497,7.335833886718749,7.798862653434765
2.290475006217359,-0.3495534423828125,2.7054478759765623,6.995857250976562,7.508905013032799
2.29296194976374,-0.3399766357421875,2.7581203125,6.928819604492187,7.465343453764933
2.295448893310122,-0.373495458984375,2.7581203125,6.9144543945312495,7.453616980376679
2.297935836856503,-0.469263525390625,2.6910826660156246,7.196970190429687,7.697955189108685
2.3004227804028847,-0.5267243652343749,2.77727392578125,7.68059892578125,8.184270821183036
2.3029097239492664,-0.5698199951171875,2.73896669921875,8.2743609375,8.73451099548741
2.3053966674956476,-0.63206923828125,2.7198130859375,8.963891015625,9.388729247583024
2.3078836110420293,-0.689530078125,2.6001030029296874,9.686939916992188,10.053496521603797
2.3103705545884106,-0.689530078125,2.5617957763671875,10.352527978515624,10.687052206965241
2.3128574981347922,-0.7900865478515624,2.480392919921875,10.998962426757812,11.302820898144173
2.315344441681174,-0.7900865478515624,2.403778466796875,11.458649145507811,11.734693345391657
2.317831385227555,-0.7996633544921875,2.35589443359375,11.812990991210937,12.072135528612428
2.320318328773937,-0.8044517578125,2.3127988037109373,11.980585107421874,12.228270542201507
2.322805272320318,-0.7948749511718749,2.2553379638671873,11.870451831054687,12.108922420787518
2.3252922158666998,-0.7326257080078125,2.269703173828125,11.635820068359374,11.877735541278657
2.327779159413081,-0.6703764648437499,2.2601263671875,11.257536206054686,11.501725837060484
2.3302661029594627,-0.5746083984375,2.2936451904296873,10.702081420898438,10.960179278217836
2.3327530465058444,-0.47884033203125,2.3319524169921872,10.012551342773437,10.291670152621958
2.3352399900522256,-0.45489831542968745,2.403778466796875,9.299079248046874,9.615506136250609
2.3377269335986073,-0.430956298828125,2.437297290039062,8.614337573242187,8.962865235922242
2.3402138771449885,-0.33518823242187495,2.528276953125,7.963114721679687,8.361562747087945
2.34270082069137,-0.33039982910156246,2.6001030029296874,7.436390356445312,7.884770206312113
2.345187764237752,-0.36391865234375,2.6431986328124997,7.072471704101562,7.559020558468062
2.347674707784133,-0.33518823242187495,2.710236279296875,6.909665991210937,7.429752078694691
2.350161651330515,-0.40222587890625,2.73896669921875,6.928819604492187,7.461384948431921
2.352648594876896,-0.45010991210937495,2.7533319091796873,7.105990527343749,7.634038047441555
2.3551355384232777,-0.5027823486328125,2.7629087158203123,7.517793212890624,8.025189683355585
2.357622481969659,-0.51714755859375,2.77727392578125,8.106766821289062,8.584891400066574
2.3601094255160406,-0.5698199951171875,2.6862942626953124,8.700528833007812,9.123599819513425
2.3625963690624223,-0.6464344482421874,2.6719290527343746,9.428366137695312,9.820955675755787
2.3650833126088036,-0.7565677246093749,2.6144682128906247,10.127473022460936,10.486827383856863
2.3675702561551852,-0.7948749511718749,2.5474305664062498,10.769119067382812,11.094825558165816
2.3700571997015665,-0.8092401611328125,2.4660277099609376,11.334150659179686,11.627516221002178
2.372544143247948,-0.7996633544921875,2.389413256835937,11.717222924804688,11.985076981898345
2.37503108679433,-0.7565677246093749,2.3415292236328122,11.937489477539062,12.188470324589666
2.377518030340711,-0.7517793212890624,2.3367408203125,11.956643090820311,12.206016705317655
2.3800049738870928,-0.7230489013671875,2.27927998046875,11.774683764648437,12.015036192230525
2.382491917433474,-0.6512228515624999,2.29843359375,11.401188305664062,11.648776028771723
2.3849788609798557,-0.6081272216796875,2.31758720703125,10.893617553710937,11.154009708910149
2.387465804526237,-0.5506663818359374,2.27927998046875,10.261548315429687,10.526049806235374
2.3899527480726186,-0.47884033203125,2.365471240234375,9.572018237304688,9.871589304020366
2.3924396916190003,-0.39264907226562495,2.442085693359375,8.839392529296875,9.178933277600997
2.3949266351653815,-0.38307226562499996,2.4947581298828125,8.17859287109375,8.559202289840623
2.397413578711763,-0.33518823242187495,2.5857377929687497,7.589619262695312,8.025005397992997
2.3999005222581444,-0.2825157958984375,2.6575638427734374,7.211335400390625,7.69063189928343
2.402387465804526,-0.33039982910156246,2.748543505859375,6.9336080078124995,7.4658271783288495
2.404874409350908,-0.3399766357421875,2.7341782958984373,6.871358764648437,7.403167318055398
2.407361352897289,-0.4165910888671875,2.7246014892578123,7.019799267578125,7.541523928734816
2.4098482964436707,-0.4213794921875,2.806004345703125,7.388506323242187,7.914622337997613
2.412335239990052,-0.5267243652343749,2.7437551025390623,7.8338278320312495,8.317120242099913
2.4148221835364336,-0.603338818359375,2.7246014892578123,8.465897070312499,8.913971292871148
2.417309127082815,-0.6560112548828124,2.6815058593749996,9.17458076171875,9.580905833672261
2.4197960706291965,-0.679953271484375,2.5857377929687497,9.897629663085937,10.252387494285799
2.4222830141755782,-0.7805097412109374,2.5761609863281247,10.59194814453125,10.928639731459869
2.4247699577219595,-0.7996633544921875,2.446874096679687,11.123460913085937,11.417444416789177
2.427256901268341,-0.82360537109375,2.43250888671875,11.559205615234374,11.841058219032877
2.4297438448147224,-0.8283937744140625,2.3319524169921872,11.865663427734374,12.120982093084567
2.432230788361104,-0.7805097412109374,2.327164013671875,11.9518546875,12.2012998600055
2.4347177319074857,-0.7709329345703124,2.2553379638671873,11.860875024414062,12.097985091147827
2.437204675453867,-0.6607996582031249,2.2840683837890623,11.554417211914062,11.796532612470585
2.4396916190002487,-0.612915625,2.3032219970703123,11.128249316406249,11.380616414731403
2.44217856254663,-0.5363011718749999,2.3415292236328122,10.51533369140625,10.78622365305413
2.4446655060930116,-0.4836287353515625,2.403778466796875,9.80665,10.108532628111465
2.4471524496393933,-0.4213794921875,2.4756045166015626,9.088389501953124,9.428944911190541
2.4496393931857745,-0.37828386230468747,2.4899697265625,8.379705810546875,8.750000993770854
2.452126336732156,-0.3591302490234375,2.5522189697265625,7.805097412109374,8.219631489167394
2.4546132802785374,-0.36391865234375,2.6479870361328124,7.287949853515625,7.762633908436591
2.457100223824919,-0.32561142578124996,2.6719290527343746,6.995857250976562,7.495815255159819
2.4595871673713003,-0.38307226562499996,2.7533319091796873,6.866570361328125,7.407926126107629
2.462074110917682,-0.40222587890625,2.767697119140625,6.9910688476562495,7.529739479798149
2.4645610544640637,-0.47884033203125,2.7533319091796873,7.240065820312499,7.760713739608243
2.467047998010445,-0.5363011718749999,2.7533319091796873,7.671022119140624,8.167804839821178
2.4695349415568266,-0.5458779785156249,2.7246014892578123,8.212111694335936,8.669499092966285
2.472021885103208,-0.63206923828125,2.710236279296875,8.935160595703124,9.358524834748488
2.4745088286495895,-0.718260498046875,2.6192566162109374,9.634267480468749,10.009770888978277
2.4769957721959712,-0.7517793212890624,2.5617957763671875,10.352527978515624,10.691249005316422
2.4794827157423525,-0.7900865478515624,2.5234885498046875,10.979808813476561,11.293734227198236
2.481969659288734,-0.7613561279296874,2.47081611328125,11.496956372070311,11.784082537069846
2.4844566028351154,-0.833182177734375,2.327164013671875,11.79862578125,12.054768982182974
2.486943546381497,-0.7852981445312499,2.3223756103515623,11.985373510742187,12.23353178127071
2.4894304899278783,-0.7661445312499999,2.2074539306640624,11.889605444335936,12.117035442745525
2.49191743347426,-0.70868369140625,2.3127988037109373,11.674127294921874,11.922102120807045
2.4944043770206417,-0.6512228515624999,2.24097275390625,11.286266625976562,11.525010387794874
2.496891320567023,-0.5746083984375,2.3319524169921872,10.697293017578124,10.963587678793667
2.4993782641134046,-0.51714755859375,2.370259643554687,10.050858569335936,10.339503390202893
2.501865207659786,-0.45968671875,2.3511060302734372,9.34696328125,9.649079439305028
2.5043521512061675,-0.4070142822265625,2.4756045166015626,8.623914379882812,8.981435162606475
2.506839094752549,-0.38307226562499996,2.5474305664062498,7.996633544921875,8.401326972753871
2.5093260382989304,-0.023942016601562498,1.0582371337890624,19.962853442382812,19.99089684365222
2.511812981845312,0.40222587890625,1.0773907470703123,15.753846923828124,15.795766818326468
2.5142999253916933,0.718260498046875,1.120486376953125,11.238382592773437,11.316917918123515
2.516786868938075,0.9241618408203125,1.37906015625,6.785167504882812,6.985297423295755
2.5192738124844563,0.9816226806640624,1.6615759521484375,2.7916391357421872,3.3937688189031783
2.521760756030838,0.8667010009765624,1.9919757812499999,-0.4070142822265625,2.2101580857750256
2.5242476995772196,0.699106884765625,2.2936451904296873,-2.786850732421875,3.6764243091226936
2.526734643123601,0.45489831542968745,2.7054478759765623,-3.902548706054687,4.770352931402033
2.5292215866699825,0.06703764648437499,3.0406361083984375,-4.0222587890625,5.042670696757134
2.5317085302163638,-0.27293898925781246,3.299209887695312,-2.916137622070312,4.411704909190719
2.5341954737627455,-0.6607996582031249,3.4428619873046875,-1.0726023437499999,3.666119288802117
2.536682417309127,-1.024718310546875,3.5242648437499997,1.62805712890625,4.0151040235397035
2.5391693608555084,-1.3120225097656248,3.5051112304687497,4.797980126953124,6.085048981128004
2.54165630440189,-1.5466542724609373,3.5338416503906247,8.21690009765625,9.077313669991828
2.5441432479482713,-1.656787548828125,3.35188232421875,11.506533178710937,12.098775388035667
2.546630191494653,-1.7238251953125,3.1268273681640624,14.465766430664061,14.899900037276131
2.549117135041034,-1.695094775390625,2.858676782226562,16.831237670898435,17.15622163464521
2.551604078587416,-1.5418658691406248,2.6384102294921874,18.468871606445312,18.71998336839196
2.5540910221337976,-1.3311761230468748,2.4133552734375,19.32599580078125,19.521537522393395
2.556577965680179,-1.0630255371093749,2.1212626708984375,19.393033447265623,19.537643790853007
2.5590649092265605,-0.7996633544921875,1.944091748046875,18.535909252929688,18.654728248843135
2.5615518527729417,-0.5267243652343749,1.8339584716796873,17.06586943359375,17.172208412351825
2.5640387963193234,-0.2442085693359375,1.7812860351562498,15.002067602539062,15.109422560625271
2.566525739865705,-0.0143652099609375,1.7669208251953124,12.607865942382812,12.731083975171263
2.5690126834120863,0.2059013427734375,1.8914193115234375,10.117896215820313,10.295226379690282
2.571499626958468,0.27293898925781246,1.9967641845703124,7.6614453125,7.9220772009030584
2.5739865705048492,0.32561142578124996,2.1116858642578125,5.444414575195312,5.8486656646199835
2.576473514051231,0.277727392578125,2.2361843505859373,3.6822821533203123,4.3170423684572485
2.5789604575976126,0.1771709228515625,2.480392919921875,2.4947581298828125,3.5224361881684993
2.581447401143994,0.05746083984375,2.6815058593749996,1.9680337646484374,3.326699914445892
2.5839343446903755,-0.17238251953125,2.786850732421875,2.0350714111328125,3.455107579548049
2.5864212882367568,-0.39743747558593745,2.9448680419921875,2.6862942626953124,4.005793454178183
2.5889082317831384,-0.6512228515624999,2.9975404785156248,3.873818286132812,4.941235496989981
2.5913951753295197,-0.8092401611328125,3.0645781249999997,5.506663818359375,6.353727656348438
2.5938821188759014,-1.024718310546875,3.0166940917968748,7.340622290039062,8.002201351157726
2.596369062422283,-1.2018892333984375,2.9640216552734375,9.2320416015625,9.770391713502057
2.5988560059686643,-1.2210428466796874,2.896984008789062,11.176133349609374,11.609884522632342
2.601342949515046,-1.2689268798828124,2.7533319091796873,12.741941235351561,13.097636369732848
2.603829893061427,-1.22583125,2.6910826660156246,13.991714501953124,14.300792386192162
2.606316836607809,-1.1252747802734375,2.5665841796874997,14.84883869628906,15.110976418185325
2.6088037801541906,-1.0342951171875,2.35589443359375,15.16966171875,15.386313451668178
2.611290723700572,-0.86191259765625,2.2840683837890623,15.069105249023437,15.265575479292258
2.6137776672469535,-0.6703764648437499,2.1930887207031247,14.398728784179687,14.58020690325951
2.6162646107933347,-0.5027823486328125,2.1595698974609374,13.378798876953125,13.561297564100506
2.6187515543397164,-0.36391865234375,2.2074539306640624,12.119448803710936,12.324217173812638
2.6212384978860976,-0.1867477294921875,2.1595698974609374,10.601524951171875,10.820857089288712
2.6237254414324793,-0.086191259765625,2.2074539306640624,9.093177905273437,9.357679531070575
2.626212384978861,-0.01915361328125,2.3032219970703123,7.738059765625,8.073584542511133
2.6286993285252422,0.0143652099609375,2.389413256835937,6.4739212890625,6.900808570608027
2.631186272071624,-0.028730419921875,2.4516625,5.607220288085937,6.119836093398064
2.633673215618005,-0.076614453125,2.5905261962890624,5.0757075195312495,5.6990790985837
2.636160159164387,-0.201112939453125,2.710236279296875,4.908113403320312,5.610294491725452
2.6386471027107685,-0.32082302246093747,2.7198130859375,5.157110375976562,5.8391864214274705
2.6411340462571498,-0.4644751220703125,2.8012159423828122,5.746083984375,6.409370409827531
2.6436209898035314,-0.6655880615234374,2.7964275390625,6.58884296875,7.188592777151588
2.6461079333499127,-0.7613561279296874,2.7916391357421872,7.704540942382812,8.229997773425975
2.6485948768962944,-0.8762778076171874,2.7581203125,8.8872765625,9.346591632927444
2.6510818204426756,-0.9864110839843749,2.6767174560546874,10.084377392578125,10.480099740083388
2.6535687639890573,-1.0199299072265624,2.70065947265625,11.233594189453123,11.59859720036083
2.656055707535439,-1.0199299072265624,2.5953145996093747,12.095506787109374,12.412783705664483
2.65854265108182,-1.0007762939453124,2.4756045166015626,12.703634008789061,12.98123599440373
2.661029594628202,-0.9433154541015625,2.43250888671875,13.091494677734374,13.348939149874793
2.663516538174583,-0.8283937744140625,2.365471240234375,13.081917871093749,13.31984480464791
2.666003481720965,-0.737414111328125,2.3223756103515623,12.804190478515624,13.03397490626907
2.6684904252673465,-0.5793968017578125,2.327164013671875,12.220005273437499,12.453108924411481
2.6709773688137277,-0.49320554199218747,2.2840683837890623,11.449072338867186,11.685096384244774
2.6734643123601094,-0.38786066894531246,2.3319524169921872,10.491391674804687,10.754428727170565
2.6759512559064906,-0.296881005859375,2.375048046875,9.466673364257812,9.764573525871631
2.6784381994528723,-0.17238251953125,2.437297290039062,8.504204296874999,8.848255451559867
2.6809251429992536,-0.2154781494140625,2.442085693359375,7.556100439453124,7.943857200232715
2.6834120865456352,-0.17238251953125,2.528276953125,6.900089184570312,7.350723150804087
2.685899030092017,-0.19153613281249998,2.6192566162109374,6.5026517089843745,7.012964463056614
2.688385973638398,-0.26815058593749996,2.6384102294921874,6.263231542968749,6.801557368475719
2.69087291718478,-0.3495534423828125,2.7054478759765623,6.344634399414062,6.906230627551907
2.693359860731161,-0.44053310546874996,2.729389892578125,6.72291826171875,7.269199994254734
2.6958468042775428,-0.5458779785156249,2.710236279296875,7.311891870117187,7.817104718329613
2.6983337478239244,-0.6416460449218749,2.6862942626953124,8.044517578125,8.505418836101827
2.7008206913703057,-0.7709329345703124,2.6719290527343746,8.877699755859375,9.303069139140954
2.7033076349166874,-0.8475473876953125,2.6336218261718747,9.811438403320311,10.194048461716603
2.7057945784630686,-0.8858546142578124,2.5474305664062498,10.639832177734375,10.976345915586595
2.7082815220094503,-0.8762778076171874,2.5474305664062498,11.343727465820312,11.659220304359522
2.7107684655558315,-0.948103857421875,2.4516625,11.908759057617187,12.195412753603048
2.713255409102213,-0.8571241943359375,2.442085693359375,12.16254443359375,12.434867571364355
2.715742352648595,-0.8283937744140625,2.39420166015625,12.282254516601562,12.540821896732382
2.718229296194976,-0.7709329345703124,2.327164013671875,12.105083593749999,12.350833119583875
2.720716239741358,-0.6655880615234374,2.346317626953125,11.669338891601562,11.92147994341467
2.723203183287739,-0.5793968017578125,2.3367408203125,11.118672509765624,11.376332304157598
2.7256901268341207,-0.4740519287109375,2.403778466796875,10.381258398437499,10.666461554033747
2.7281770703805024,-0.44532150878906246,2.4133552734375,9.581595043945311,9.890882595005165
2.7306640139268836,-0.32082302246093747,2.418143676757812,8.786720092773438,9.119034830613007
2.7331509574732653,-0.28730419921875,2.518700146484375,8.049305981445311,8.439059243406247
2.7356379010196465,-0.2346317626953125,2.6192566162109374,7.455543969726562,7.905737990229399
2.7381248445660282,-0.26815058593749996,2.6288334228515624,7.0102224609374995,7.49172135451344
2.74061178811241,-0.277727392578125,2.6767174560546874,6.789955908203124,7.3037969631883
2.743098731658791,-0.37828386230468747,2.6336218261718747,6.7277066650390625,7.2347148924183635
2.745585675205173,-0.43574470214843747,2.6958710693359373,6.9527616210937495,7.469838581099802
2.748072618751554,-0.4644751220703125,2.70065947265625,7.431601953125,7.9207326880763675
2.7505595622979357,-0.5506663818359374,2.6815058593749996,8.034940771484374,8.488461600267074
2.753046505844317,-0.6416460449218749,2.6527754394531247,8.757989672851561,9.173402328956481
2.7555334493906987,-0.74699091796875,2.5809493896484375,9.481038574218749,9.8544095525444
2.7580203929370803,-0.7996633544921875,2.5665841796874997,10.266336718749999,10.61246839593383
2.7605073364834616,-0.8475473876953125,2.47081611328125,10.888829150390624,11.197761790038044
2.7629942800298433,-0.8714894042968749,2.461239306640625,11.477802758789062,11.771030068605736
2.7654812235762245,-0.852335791015625,2.403778466796875,11.81777939453125,12.089852647401868
2.767968167122606,-0.8188169677734375,2.3415292236328122,11.97100830078125,12.225312268781266
2.770455110668988,-0.7805097412109374,2.3032219970703123,11.937489477539062,12.18267959236676
2.772942054215369,-0.679953271484375,2.370259643554687,11.707646118164062,11.96450771479664
2.775428997761751,-0.6607996582031249,2.3415292236328122,11.252747802734374,11.51276458568276
2.777915941308132,-0.5267243652343749,2.360682836914062,10.644620581054687,10.915961218694632
2.7804028848545137,-0.469263525390625,2.418143676757812,9.955090502929687,10.255313452997266
2.782889828400895,-0.411802685546875,2.4564509033203126,9.203311181640624,9.534394013169276
2.7853767719472766,-0.3687070556640625,2.5139117431640625,8.537723120117187,8.907772629625107
2.7878637154936583,-0.2920926025390625,2.5474305664062498,7.8529814453124995,8.260994986049884
2.7903506590400395,-0.2825157958984375,2.6288334228515624,7.3549875,7.815780285114842
2.792837602586421,-0.27293898925781246,2.70065947265625,6.995857250976562,7.504003994878091
2.7953245461328025,-0.3495534423828125,2.6671406494140624,6.87614716796875,7.383578179203035
2.797811489679184,-0.4165910888671875,2.748543505859375,6.976703637695312,7.510155337085665
2.800298433225566,-0.4740519287109375,2.7246014892578123,7.249642626953125,7.759220110611391
2.802785376771947,-0.49799394531249996,2.73896669921875,7.68059892578125,8.169549339327675
2.8052723203183287,-0.584185205078125,2.6671406494140624,8.283937744140625,8.72230108092966
2.80775926386471,-0.6703764648437499,2.710236279296875,9.011775048828124,9.434345490012252
2.8102462074110917,-0.737414111328125,2.5857377929687497,9.696516723632811,10.0624180035051
2.812733150957473,-0.7900865478515624,2.5378537597656248,10.409988818359375,10.743966011553635
2.8152200945038546,-0.82360537109375,2.4660277099609376,11.051634863281249,11.353336585554187
2.8177070380502363,-0.8092401611328125,2.398990063476562,11.473014355468749,11.74904597675239
2.8201939815966175,-0.8379705810546875,2.403778466796875,11.81777939453125,12.088848391387696
2.822680925142999,-0.8188169677734375,2.29843359375,11.927912670898436,12.174906935832064
2.8251678686893804,-0.7517793212890624,2.3032219970703123,11.851298217773437,12.09641571550458
2.827654812235762,-0.7326257080078125,2.360682836914062,11.511321582031249,11.773703259785044
2.8301417557821438,-0.6368576416015624,2.35589443359375,11.075576879882812,11.34126225162345
2.832628699328525,-0.5746083984375,2.375048046875,10.496180078124999,10.776865233867767
2.8351156428749067,-0.5027823486328125,2.418143676757812,9.773131176757811,10.08039195317603
2.837602586421288,-0.4070142822265625,2.427720483398437,9.054870678710937,9.38350522883788
2.8400895299676696,-0.39743747558593745,2.4660277099609376,8.37012900390625,8.734890311579644
2.842576473514051,-0.33039982910156246,2.6096798095703124,7.824251025390624,8.2546045855556
2.8450634170604325,-0.3112462158203125,2.6336218261718747,7.311891870117187,7.777956084373141
2.847550360606814,-0.32082302246093747,2.6862942626953124,7.038952880859375,7.540952322915801
2.8500373041531954,-0.33039982910156246,2.710236279296875,6.962338427734375,7.478549399381813
2.852524247699577,-0.36391865234375,2.7581203125,7.086836914062499,7.613338419528431
2.8550111912459584,-0.4070142822265625,2.7820623291015623,7.287949853515625,7.811513585490383
2.85749813479234,-0.49799394531249996,2.786850732421875,7.742848168945312,8.244163556220123
2.8599850783387217,-0.5746083984375,2.7198130859375,8.418013037109375,8.865128398784487
2.862472021885103,-0.6081272216796875,2.6862942626953124,9.054870678710937,9.464495686074176
2.8649589654314846,-0.7230489013671875,2.6048914062499997,9.7683427734375,10.135520681814626
2.867445908977866,-0.7565677246093749,2.518700146484375,10.443507641601562,10.7695448840706
2.8699328525242476,-0.8283937744140625,2.4947581298828125,11.037269653320312,11.345985006697736
2.8724197960706292,-0.82360537109375,2.437297290039062,11.559205615234374,11.842042828101581
2.8749067396170105,-0.8188169677734375,2.379836450195312,11.841721411132811,12.106215293611509
2.877393683163392,-0.7852981445312499,2.31758720703125,11.899182250976562,12.148186773340075
2.8798806267097734,-0.7422025146484375,2.3511060302734372,11.8369330078125,12.090969653827589
2.882367570256155,-0.70868369140625,2.3127988037109373,11.563994018554688,11.814280703541817
2.8848545138025363,-0.6368576416015624,2.3127988037109373,11.128249316406249,11.38387275096701
2.887341457348918,-0.5506663818359374,2.3415292236328122,10.486603271484375,10.758942361715558
2.8898284008952997,-0.507570751953125,2.403778466796875,9.830592016601562,10.132932368398842
2.892315344441681,-0.430956298828125,2.4947581298828125,9.069235888671875,9.415974780259873
2.8948022879880626,-0.36391865234375,2.5474305664062498,8.456320263671875,8.839185012090885
2.897289231534444,-0.33518823242187495,2.5617957763671875,7.790732202148437,8.207963023586272
2.8997761750808255,-0.33039982910156246,2.6527754394531247,7.321468676757812,7.794246927316445
2.902263118627207,-0.3447650390625,2.7341782958984373,7.000645654296875,7.523538626400982
2.9047500621735884,-0.3687070556640625,2.748543505859375,6.919242797851562,7.4542844855907475
2.90723700571997,-0.4165910888671875,2.729389892578125,6.9910688476562495,7.516525856650855
2.9097239492663514,-0.45010991210937495,2.7437551025390623,7.259219433593749,7.773484275455466
2.912210892812733,-0.5027823486328125,2.7533319091796873,7.666233715820312,8.161174307523636
2.9146978363591143,-0.5458779785156249,2.7724855224609373,8.317456567382813,8.784346446377402
2.917184779905496,-0.63206923828125,2.6767174560546874,8.930372192382812,9.344296407756634
2.9196717234518776,-0.689530078125,2.6336218261718747,9.677363110351562,10.05299818071809
2.922158666998259,-0.7278373046875,2.5809493896484375,10.371681591796875,10.712741289494467
2.9246456105446406,-0.814028564453125,2.518700146484375,10.979808813476561,11.294365609105435
2.927132554091022,-0.8044517578125,2.418143676757812,11.458649145507811,11.73862009402887
2.9296194976374035,-0.8475473876953125,2.3415292236328122,11.789048974609374,12.049181358302063
2.932106441183785,-0.8092401611328125,2.3511060302734372,11.899182250976562,12.15619625729751
2.9345933847301664,-0.7565677246093749,2.29843359375,11.865663427734374,12.109878623961192
2.937080328276548,-0.7134720947265625,2.3367408203125,11.678915698242188,11.931742202122708
2.9395672718229293,-0.622492431640625,2.29843359375,11.200075366210937,11.450414054571715
2.942054215369311,-0.6272808349609375,2.2601263671875,10.635043774414061,10.890629390685772
2.9445411589156922,-0.49320554199218747,2.384624853515625,10.012551342773437,10.304410307743494
2.947028102462074,-0.44053310546874996,2.370259643554687,9.217676391601563,9.527736260789691
2.9495150460084556,-0.39743747558593745,2.518700146484375,8.547299926757812,8.91953715238939
2.952001989554837,-0.39743747558593745,2.5809493896484375,7.958326318359375,8.375811249569693
2.9544889331012185,-0.32561142578124996,2.6384102294921874,7.378929516601562,7.843202926780747
2.9569758766475998,-0.296881005859375,2.73896669921875,7.096413720703125,7.61243486714027
2.9594628201939814,-0.354341845703125,2.7054478759765623,6.861781958007812,7.3843793234424195
2.961949763740363,-0.3447650390625,2.7629087158203123,6.943184814453125,7.480664600940754
2.9644367072867444,-0.4261678955078125,2.7964275390625,7.149086157226562,7.688371670245733
2.966923650833126,-0.4740519287109375,2.7341782958984373,7.56567724609375,8.058531403235786
2.9694105943795073,-0.5363011718749999,2.729389892578125,8.173804467773436,8.634133865655265
2.971897537925889,-0.612915625,2.70065947265625,8.79150849609375,9.217366694859528
2.97438448147227,-0.6703764648437499,2.6862942626953124,9.514557397460937,9.909207028818441
2.976871425018652,-0.718260498046875,2.6001030029296874,10.261548315429687,10.610174720465086
2.9793583685650336,-0.7805097412109374,2.5043349365234375,10.864887133789061,11.17705960261428
2.981845312111415,-0.8092401611328125,2.422932080078125,11.396399902343749,11.67918662566887
2.9843322556577965,-0.8475473876953125,2.375048046875,11.745953344726562,12.013601032823049
2.9868191992041777,-0.7805097412109374,2.3367408203125,11.903970654296874,12.156235867068434
2.9893061427505594,-0.7517793212890624,2.29843359375,11.899182250976562,12.142425926261689
2.991793086296941,-0.7230489013671875,2.269703173828125,11.702857714843748,11.94283177914399
2.9942800298433223,-0.6272808349609375,2.31758720703125,11.3389390625,11.59035076135285
2.996766973389704,-0.59376201171875,2.3319524169921872,10.764330664062498,11.030021307638176
2.9992539169360852,-0.5123591552734374,2.35589443359375,10.160991845703125,10.443108051469922
3.001740860482467,0.9528922607421875,3.9456443359374997,9.3852705078125,10.225429838941398
3.0042278040288486,0.948103857421875,3.7397429931640622,9.428366137695312,10.187181484876842
3.00671474757523,0.8667010009765624,3.4955344238281247,9.4618849609375,10.124090010824501
3.0092016911216115,0.8571241943359375,3.2225954345703123,9.437942944335937,10.009722785370728
3.0116886346679927,0.7757213378906249,2.9927520751953125,9.471461767578125,9.963277402157324
3.0141755782143744,0.6751648681640625,2.7198130859375,9.437942944335937,9.845201767469286
3.0166625217607557,0.5793968017578125,2.5330653564453125,9.490615380859374,9.839913671436102
3.0191494653071373,0.45489831542968745,2.31758720703125,9.437942944335937,9.728972708365266
3.021636408853519,0.3591302490234375,2.04943662109375,9.490615380859374,9.716014888165226
3.0241233523999003,0.2154781494140625,1.93451494140625,9.433154541015625,9.631883693550428
3.026610295946282,0.105344873046875,1.7860744384765623,9.466673364257812,9.634265100546328
3.029097239492663,0.01915361328125,1.6328455322265625,9.471461767578125,9.61119864573135
3.031584183039045,-0.1388636962890625,1.4987702392578124,9.437942944335937,9.557215199877655
3.0340711265854265,-0.2537853759765625,1.369483349609375,9.476250170898437,9.578058726243514
3.036558070131808,-0.40222587890625,1.3311761230468748,9.466673364257812,9.568266306587644
3.0390450136781895,-0.5506663818359374,1.3168109130859373,9.490615380859374,9.597343630000491
3.0415319572245707,-0.6655880615234374,1.3072341064453123,9.428366137695312,9.541800485397712
3.0440189007709524,-0.7757213378906249,1.3120225097656248,9.495403784179686,9.616955842926826
3.0465058443173336,-0.9433154541015625,1.2928688964843749,9.4618849609375,9.596281625893376
3.0489927878637153,-1.0582371337890624,1.3359645263671873,9.495403784179686,9.647142585846625
3.051479731410097,-1.16837041015625,1.3838485595703125,9.504980590820312,9.675989989816255
3.0539666749564782,-1.3072341064453123,1.4604630126953124,9.504980590820312,9.704971367931787
3.05645361850286,-1.426944189453125,1.5753846923828123,9.490615380859374,9.725728093886476
3.058940562049241,-1.4796166259765624,1.7381904052734374,9.447519750976562,9.719372443215825
3.061427505595623,-1.5227122558593749,1.8770541015625,9.514557397460937,9.816760523916003
3.0639144491420045,-1.62805712890625,2.0302830078125,9.476250170898437,9.827102136858418
3.0664013926883857,-1.608903515625,2.1739351074218747,9.442731347656249,9.82241007481778
3.0688883362347674,-1.6232687255859375,2.389413256835937,9.423577734375,9.856374302106072
3.0713752797811487,-1.618480322265625,2.5043349365234375,9.370905297851563,9.833871980514866
3.0738622233275303,-1.5801730957031248,2.73896669921875,9.437942944335937,9.953574865964175
3.0763491668739116,-1.5418658691406248,2.85388837890625,9.370905297851563,9.916445700904099
3.0788361104202933,-1.426944189453125,3.0693665283203124,9.351751684570312,9.945473350969817
3.081323053966675,-1.3455413330078123,3.2130186279296873,9.375693701171874,10.001879951311631
3.083809997513056,-1.1827356201171875,3.3327287109375,9.3852705078125,10.029419061571623
3.086296941059438,-1.0438719238281249,3.4524387939453125,9.34696328125,10.018718720491705
3.088783884605819,-0.9002198242187499,3.5721488769531247,9.34696328125,10.046709208097429
3.091270828152201,-0.7134720947265625,3.67749375,9.34696328125,10.069693406071424
3.0937577716985825,-0.5793968017578125,3.6439749267578123,9.318232861328125,10.022161322721868
3.0962447152449637,-0.3495534423828125,3.706224169921875,9.289502441406249,10.007654111513219
3.0987316587913454,-0.201112939453125,3.7014357666015623,9.303867651367186,10.01513986037387
3.1012186023377266,0.009576806640625,3.6727053466796873,9.351751684570312,10.047094895969613
3.1037055458841083,0.1484405029296875,3.5242648437499997,9.318232861328125,9.96353054543105
3.1061924894304895,0.277727392578125,3.5003228271484375,9.303867651367186,9.94441278673615
3.108679432976871,0.3687070556640625,3.337517114257812,9.327809667968749,9.913778219362763
3.111166376523253,0.47884033203125,3.1699229980468746,9.3086560546875,9.84524135923526
3.113653320069634,0.51714755859375,3.0071172851562498,9.351751684570312,9.836943404020815
3.116140263616016,0.5410895751953124,2.858676782226562,9.370905297851563,9.812169840301825
3.118627207162397,0.5746083984375,2.6527754394531247,9.390058911132812,9.774487132236931
3.1211141507087787,0.59376201171875,2.5234885498046875,9.452308154296874,9.80136098872717
3.1236010942551604,0.4836287353515625,2.2649147705078123,9.4618849609375,9.741201295802147
3.1260880378015417,-7.671022119140624,-2.6384102294921874,9.3852705078125,12.405204206148676
3.1285749813479233,-7.4603323730468745,-1.4891934326171874,9.270348828125,11.99223180192911
3.1310619248943046,-7.062894897460937,-0.38786066894531246,9.198522778320312,11.603781346370331
3.1335488684406863,-6.488286499023437,0.7613561279296874,9.112331518554686,11.212141211695073
3.136035811987068,-13.80975517578125,-2.442085693359375,8.963891015625,16.644051871125917
3.138522755533449,-12.58392392578125,-0.12449848632812499,8.796296899414061,15.354005353183554
3.141009699079831,-11.18571015625,1.9967641845703124,8.695740429687499,14.308147347889554
3.143496642626212,-9.610325463867188,3.9360675292968748,8.628702783203124,13.502055207911743
3.1459835861725938,-7.924807495117187,5.597643481445312,8.52335791015625,12.914480881733335
3.148470529718975,-6.157886669921875,7.058106494140625,8.537723120117187,12.673955641314796
3.1509574732653567,-4.438849877929687,8.283937744140625,8.532934716796875,12.694013851761445
3.1534444168117384,-2.73896669921875,9.217676391601563,8.585607153320312,12.891087883916661
3.1559313603581196,-1.2785036865234374,9.792284790039062,8.647856396484375,13.126645928793087
3.1584183039045013,0.17238251953125,10.137049829101562,8.695740429687499,13.356848303070215
3.1609052474508825,1.37906015625,10.204087475585936,8.781931689453124,13.533201111421755
3.163392190997264,2.437297290039062,10.098742602539062,8.8872765625,13.671455845327191
3.165879134543646,3.361459130859375,9.777919580078125,8.963891015625,13.684241336037436
3.168366078090027,3.9839515624999997,9.270348828125,9.09796630859375,13.586177843667869
3.170853021636409,4.453215087890625,8.652644799804687,9.193734375,13.387461985330171
3.17333996518279,4.707000463867187,7.948749511718749,9.327809667968749,13.128080795331291
3.1758269087291717,4.821922143554687,7.067683300781249,9.399635717773437,12.710477254040752
3.178313852275553,4.707000463867187,6.234501123046875,9.485826977539062,12.28844054662456
3.1808007958219346,4.525041137695312,5.315127685546875,9.533711010742186,11.816015624898629
3.1832877393683163,4.209006518554688,4.491522314453125,9.586383447265625,11.392464885724888
3.1857746829146976,3.81156904296875,3.6727053466796873,9.667786303710937,11.021928830611639
3.1882616264610792,3.294421484375,2.877830395507812,9.720458740234374,10.659382666112473
3.1907485700074605,2.7581203125,2.1930887207031247,9.734823950195311,10.352954319246106
3.193235513553842,2.1643583007812497,1.5753846923828123,9.739612353515625,10.10080851119894
3.195722457100224,1.5514426757812498,1.0007762939453124,9.777919580078125,9.950690372091444
3.198209400646605,1.0103531005859374,0.5267243652343749,9.725247143554688,9.791766130173544
3.2006963441929868,0.469263525390625,0.21068974609375,9.730035546875,9.743623051453815
3.203183287739368,-0.1005564697265625,-0.0526724365234375,9.662997900390625,9.663664647126721
3.2056702312857497,-0.5506663818359374,-0.2346317626953125,9.667786303710937,9.686298443800426
3.208157174832131,-1.005564697265625,-0.3016694091796875,9.648632690429688,9.705579714146403
3.2106441183785126,-1.3215993164062498,-0.28730419921875,9.586383447265625,9.681317888284763
3.2131310619248943,-1.6136919189453125,-0.26815058593749996,9.576806640625,9.71550985681797
3.2156180054712755,-1.8531120849609375,-0.1388636962890625,9.524134204101562,9.70373329514536
3.218104949017657,-2.04943662109375,0.062249243164062495,9.5001921875,9.718936003060762
