Time (s),Acceleration x (m/s^2),Acceleration y (m/s^2),Acceleration z (m/s^2),Absolute acceleration (m/s^2)
0.0,1.158793603515625,3.749319799804687,0.469263525390625,3.952266417262154
0.002486943546381497,1.3072341064453123,3.27526787109375,5.53539423828125,6.56329414316242
0.004973887092762994,1.2497732666015624,2.748543505859375,10.673351000976561,11.092197537528849
0.007460830639144491,1.0726023437499999,2.1787235107421874,15.389928271484374,15.580346726742405
0.009947774185525988,0.7996633544921875,1.7717092285156248,19.412187060546874,19.509265018052027
0.012434717731907486,0.4740519287109375,1.39821376953125,22.438457958984372,22.48697673217835
0.014921661278288981,0.06703764648437499,1.0869675537109373,24.286781640624998,24.311185799303704
0.01740860482467048,-0.39264907226562495,0.967257470703125,24.84223642578125,24.864160370762466
0.019895548371051976,-0.8092401611328125,0.9959878906249999,24.123975927734374,24.158085107859222
0.022382491917433474,-1.197100830078125,1.0390835205078124,22.290017456054684,22.346311175475634
0.02486943546381497,-1.5179238525390624,1.24498486328125,19.54147395019531,19.639839212123615
0.027356379010196465,-1.7094599853515624,1.6041151123046875,16.103400366210938,16.273135594885364
0.029843322556577963,-1.8004396484374998,2.0350714111328125,12.349292163085936,12.644687244267118
0.032330266102959464,-1.7717092285156248,2.39420166015625,8.532934716796875,9.037816664494791
0.03481720964934096,-1.7094599853515624,2.806004345703125,5.008669873046875,5.990216000011217
0.03730415319572245,-1.4891934326171874,3.1459809814453124,2.0542250244140625,4.041625151630805
0.03979109674210395,-1.1827356201171875,3.4907460205078125,-0.201112939453125,3.691153985029694
0.04227804028848545,-0.9002198242187499,3.69664736328125,-1.5418658691406248,4.105234197800587
0.04476498383486695,-0.5458779785156249,3.7924154296875,-1.8818425048828125,4.2686916932408865
0.04725192738124844,-0.24899697265624998,3.782838623046875,-1.3646949462890625,4.029176074191107
0.04973887092762994,0.0909796630859375,3.706224169921875,0.0909796630859375,3.7084568483270166
0.05222581447401144,0.28730419921875,3.5003228271484375,2.1787235107421874,4.132994039846407
0.05471275802039293,0.45010991210937495,3.284844677734375,4.821922143554687,5.851814816646369
0.05719970156677443,0.5315127685546874,2.9831752685546875,7.6614453125,8.238906771075955
0.059686645113155926,0.5793968017578125,2.7150246826171873,10.481814868164061,10.843223810821803
0.062173588659537427,0.51714755859375,2.4133552734375,13.163320727539062,13.392712117015268
0.06466053220591893,0.3447650390625,2.059013427734375,15.3611978515625,15.50241267231003
0.06714747575230041,0.19153613281249998,1.8770541015625,16.8934869140625,16.9985269451787
0.06963441929868192,-0.09576806640624999,1.7238251953125,17.870321191406248,17.95352679310003
0.07212136284506342,-0.33039982910156246,1.5849614990234373,18.071434130859373,18.143814332891694
0.0746083063914449,-0.6416460449218749,1.5370774658203123,17.49203732910156,17.57116065334271
0.0770952499378264,-0.8714894042968749,1.6519991455078125,16.366762548828124,16.472993391860605
0.0795821934842079,-1.0486603271484374,1.8339584716796873,14.738705419921875,14.889342820044652
0.0820691370305894,-1.1923124267578125,1.9919757812499999,12.703634008789061,12.914019260685253
0.0845560805769709,-1.2785036865234374,2.2026655273437497,10.529698901367187,10.833322023057187
0.0870430241233524,-1.2976572998046874,2.4133552734375,8.40843623046875,8.84364166989055
0.0895299676697339,-1.254561669921875,2.6767174560546874,6.426037255859375,7.073379400037702
0.09201691121611538,-1.1061211669921875,2.935291235351562,4.797980126953124,5.732368792308899
0.09450385476249688,-0.9816226806640624,3.1220389648437497,3.6439749267578123,4.897883589065417
0.09699079830887838,-0.7709329345703124,3.2609026611328122,3.0693665283203124,4.5440988809841425
0.09947774185525989,-0.565031591796875,3.289633081054687,2.978386865234375,4.473447756115914
0.10196468540164137,-0.3112462158203125,3.337517114257812,3.5290532470703124,4.867248865168472
0.10445162894802287,-0.16759411621093748,3.2800562744140622,4.472368701171875,5.548778131294617
0.10693857249440437,0.0143652099609375,3.1794998046874996,5.865794067382812,6.672103521994279
0.10942551604078586,0.105344873046875,3.0550013183593747,7.4220251464843745,8.026866628548227
0.11191245958716736,0.1867477294921875,2.887407202148437,9.179369165039063,9.624594190591054
0.11439940313354886,0.2154781494140625,2.6240450195312497,10.749965454101561,11.067691735939281
0.11688634667993036,0.1867477294921875,2.47081611328125,12.27746611328125,12.525014217272975
0.11937329022631185,0.08140285644531249,2.250549560546875,13.441048120117186,13.628403219629986
0.12186023377269335,-0.0047884033203125,2.1452046874999997,14.288595507812499,14.448733081691206
0.12434717731907485,-0.22026655273437498,2.0159177978515626,14.623783740234375,14.763722186599539
0.12683412086545634,-0.354341845703125,1.944091748046875,14.561534497070312,14.69501064231697
0.12932106441183785,-0.5123591552734374,1.9488801513671874,14.044386938476562,14.188215188177706
0.13180800795821934,-0.6943184814453125,1.9680337646484374,13.1393787109375,13.304078621306717
0.13429495150460083,-0.82360537109375,2.0254946044921875,12.033257543945313,12.23030013200977
0.13678189505098234,-0.948103857421875,2.1835119140624997,10.711658227539061,10.97297804549505
0.13926883859736383,-1.0295067138671874,2.3319524169921872,9.323021264648437,9.665226932157376
0.14175578214374532,-0.9959878906249999,2.4899697265625,7.996633544921875,8.434339877503108
0.14424272569012683,-1.0007762939453124,2.710236279296875,6.919242797851562,7.498190100001507
0.14672966923650832,-0.9337386474609375,2.8012159423828122,6.019022973632812,6.704275962006739
0.1492166127828898,-0.8188169677734375,2.9496564453125,5.473144995117187,6.27106454357341
0.15170355632927132,-0.679953271484375,3.0262708984374997,5.295974072265625,6.137425631015154
0.1541904998756528,-0.5458779785156249,3.0789433349609374,5.5258174316406246,6.349215157415291
0.15667744342203432,-0.4165910888671875,3.1076737548828124,6.038176586914062,6.803731387765698
0.1591643869684158,-0.277727392578125,3.0741549316406247,6.83783994140625,7.502240739446398
0.1616513305147973,-0.15322890625,2.9975404785156248,7.838616235351562,8.39360664453412
0.1641382740611788,-0.0526724365234375,2.85388837890625,8.911218579101561,9.357204167343486
0.1666252176075603,0.0383072265625,2.77727392578125,10.084377392578125,10.459894134185683
0.1691121611539418,0.023942016601562498,2.6048914062499997,11.18571015625,11.485040015522298
0.1715991047003233,0.023942016601562498,2.50912333984375,12.004527124023436,12.26396936664969
0.1740860482467048,-0.05746083984375,2.389413256835937,12.646173168945312,12.870054128829885
0.17657299179308628,-0.15322890625,2.2601263671875,13.02445703125,13.219989835557525
0.1790599353394678,-0.2537853759765625,2.1308394775390624,13.067552661132812,13.242575899256826
0.18154687888584928,-0.4070142822265625,2.068590234375,12.794613671875,12.967145607118734
0.18403382243223076,-0.55545478515625,2.1356278808593747,12.243947290039062,12.441209012998366
0.18652076597861228,-0.622492431640625,2.1116858642578125,11.468225952148437,11.677624780163432
0.18900770952499377,-0.6847416748046875,2.221819140625,10.572794531249999,10.825402332241136
0.19149465307137528,-0.7996633544921875,2.2744915771484373,9.576806640625,9.87562650402272
0.19398159661775677,-0.814028564453125,2.43250888671875,8.59997236328125,8.974367199803705
0.19646854016413826,-0.86191259765625,2.5474305664062498,7.738059765625,8.192061080890683
0.19895548371051977,-0.8714894042968749,2.6431986328124997,6.995857250976562,7.529144139299295
0.20144242725690126,-0.7948749511718749,2.77727392578125,6.536170532226562,7.146089970968162
0.20392937080328274,-0.737414111328125,2.834734765625,6.272808349609375,6.9229780697296714
0.20641631434966426,-0.6560112548828124,2.89219560546875,6.349422802734375,7.007875292462681
0.20890325789604575,-0.51714755859375,2.940079638671875,6.698976245117187,7.334016131134209
0.21139020144242723,-0.4644751220703125,2.940079638671875,7.244854223632812,7.832478416340856
0.21387714498880875,-0.3495534423828125,2.896984008789062,7.953537915039062,8.471922410068752
0.21636408853519024,-0.229843359375,2.89219560546875,8.877699755859375,9.339763184649122
0.21885103208157172,-0.1388636962890625,2.806004345703125,9.835380419921874,10.228765884447373
0.22133797562795324,-0.1292868896484375,2.6767174560546874,10.649408984374999,10.981413531775852
0.22382491917433472,-0.06703764648437499,2.6240450195312497,11.420341918945311,11.718119126216134
0.22631186272071624,-0.1149216796875,2.5043349365234375,12.038045947265624,12.296318583024448
0.22879880626709773,-0.143652099609375,2.389413256835937,12.401964599609375,12.63086131535097
0.2312857498134792,-0.19153613281249998,2.2936451904296873,12.483367456054687,12.693776325138208
0.23377269335986073,-0.32082302246093747,2.269703173828125,12.344503759765624,12.555526790377776
0.23625963690624222,-0.3399766357421875,2.231395947265625,12.014103930664062,12.224295695176949
0.2387465804526237,-0.5027823486328125,2.2026655273437497,11.420341918945311,11.64168093795156
0.24123352399900522,-0.5793968017578125,2.1978771240234374,10.649408984374999,10.889273447878866
0.2437204675453867,-0.63206923828125,2.2457611572265623,9.849745629882811,10.122274629285878
0.2462074110917682,-0.718260498046875,2.360682836914062,8.939948999023438,9.274233645142619
0.2486943546381497,-0.7757213378906249,2.4133552734375,8.145074047851562,8.530431320564773
0.2511812981845312,-0.8044517578125,2.5665841796874997,7.493851196289062,7.961928330134151
0.2536682417309127,-0.7996633544921875,2.6240450195312497,6.981492041015625,7.501086912162061
0.2561551852772942,-0.7565677246093749,2.7054478759765623,6.7085530517578125,7.2729998611161655
0.2586421288236757,-0.6847416748046875,2.8012159423828122,6.622361791992187,7.222974291876715
0.26112907237005717,-0.6560112548828124,2.868253588867187,6.770802294921874,7.382478793298477
0.2636160159164387,-0.5363011718749999,2.849099975585937,7.187393383789062,7.750071823613835
0.2661029594628202,-0.45010991210937495,2.89219560546875,7.762001782226562,8.295544950186226
0.26858990300920166,-0.38307226562499996,2.925714428710937,8.532934716796875,9.028705563931954
0.2710768465555832,-0.32082302246093747,2.834734765625,9.337386474609374,9.763474523928563
0.2735637901019647,-0.2442085693359375,2.767697119140625,10.156203442382813,10.529399485806628
0.27605073364834615,-0.1867477294921875,2.6192566162109374,10.874463940429687,11.187016846672789
0.27853767719472766,-0.19632453613281248,2.5713725830078125,11.568782421875,11.852730782769683
0.2810246207411092,-0.12449848632812499,2.461239306640625,12.057199560546874,12.306472282522826
0.28351156428749064,-0.19632453613281248,2.398990063476562,12.282254516601562,12.515888808180044
0.28599850783387215,-0.19153613281249998,2.346317626953125,12.306196533203124,12.52934019055051
0.28848545138025367,-0.2920926025390625,2.288856787109375,12.071564770507813,12.290112265106451
0.2909723949266351,-0.38786066894531246,2.2744915771484373,11.688492504882811,11.914050733051942
0.29345933847301664,-0.45968671875,2.2601263671875,11.080365283203124,11.317861011881368
0.29594628201939815,-0.5506663818359374,2.2601263671875,10.328585961914062,10.587308091880045
0.2984332255657796,-0.5985504150390625,2.3032219970703123,9.552864624023437,9.844811663615024
0.30092016911216113,-0.6607996582031249,2.3511060302734372,8.781931689453124,9.115189518166394
0.30340711265854264,-0.679953271484375,2.4947581298828125,8.030152368164062,8.436201848814997
0.30589405620492416,-0.7326257080078125,2.6048914062499997,7.326257080078125,7.810009120979559
0.3083809997513056,-0.7565677246093749,2.5713725830078125,6.943184814453125,7.442591420346635
0.31086794329768713,-0.6943184814453125,2.710236279296875,6.694187841796874,7.2553159617314105
0.31335488684406865,-0.699106884765625,2.748543505859375,6.68461103515625,7.261354317980989
0.3158418303904501,-0.6512228515624999,2.7964275390625,6.890512377929687,7.464801337880773
0.3183287739368316,-0.5506663818359374,2.844311572265625,7.359775903320312,7.909465413749702
0.32081571748321314,-0.45968671875,2.868253588867187,7.996633544921875,8.507898599608156
0.3233026610295946,-0.4070142822265625,2.834734765625,8.686163623046875,9.146082237970651
0.3257896045759761,-0.316034619140625,2.806004345703125,9.490615380859374,9.90178360579571
0.3282765481223576,-0.27293898925781246,2.786850732421875,10.261548315429687,10.636747930009212
0.3307634916687391,-0.2059013427734375,2.7054478759765623,11.008539233398437,11.337979521319248
0.3332504352151206,-0.19632453613281248,2.6384102294921874,11.635820068359374,11.932814442779689
0.3357373787615021,-0.201112939453125,2.5043349365234375,12.018892333984374,12.278677161022504
0.3382243223078836,-0.22505495605468748,2.427720483398437,12.263100903320312,12.50312441927107
0.3407112658542651,-0.258573779296875,2.308010400390625,12.224793676757812,12.443446180497949
0.3431982094006466,-0.3112462158203125,2.27927998046875,12.042834350585936,12.260581170233355
0.34568515294702806,-0.3591302490234375,2.2840683837890623,11.583147631835937,11.81165746110574
0.3481720964934096,-0.411802685546875,2.2601263671875,10.998962426757812,11.23632177862088
0.3506590400397911,-0.49320554199218747,2.2361843505859373,10.304643945312499,10.55601529916108
0.35314598358617255,-0.59376201171875,2.29843359375,9.509768994140625,9.801584394033306
0.35563292713255407,-0.622492431640625,2.3511060302734372,8.71489404296875,9.047904429933496
0.3581198706789356,-0.6703764648437499,2.4851813232421875,7.991845141601562,8.396137182142077
0.36060681422531704,-0.7326257080078125,2.528276953125,7.37414111328125,7.829871131654838
0.36309375777169856,-0.7230489013671875,2.6240450195312497,6.943184814453125,7.457628801834234
0.36558070131808007,-0.6943184814453125,2.6815058593749996,6.751648681640624,7.297760735173397
0.36806764486446153,-0.6847416748046875,2.73896669921875,6.6893994384765625,7.2607764452663135
0.37055458841084304,-0.6177040283203125,2.77727392578125,6.938396411132812,7.499076842081845
0.37304153195722456,-0.565031591796875,2.849099975585937,7.364564306640625,7.9166557836789515
0.3755284755036061,-0.469263525390625,2.8107927490234372,7.991845141601562,8.484712894468808
0.37801541904998753,-0.430956298828125,2.834734765625,8.667010009765624,9.128992662518696
0.38050236259636905,-0.37828386230468747,2.81558115234375,9.476250170898437,9.892922379528011
0.38298930614275056,-0.277727392578125,2.786850732421875,10.290278735351562,10.664591223324836
0.385476249689132,-0.2537853759765625,2.6910826660156246,10.93671318359375,11.265790171691581
0.38796319323551354,-0.22026655273437498,2.6001030029296874,11.554417211914062,11.845404597862979
0.39045013678189505,-0.21068974609375,2.518700146484375,12.028469140624999,12.291147646333819
0.3929370803282765,-0.24899697265624998,2.418143676757812,12.234370483398436,12.47354157642835
0.395424023874658,-0.21068974609375,2.422932080078125,12.291831323242187,12.530127984694271
0.39791096742103954,-0.277727392578125,2.3319524169921872,12.08592998046875,12.3119794538692
0.400397910967421,-0.3064578125,2.3319524169921872,11.659762084960937,11.894619386254048
0.4028848545138025,-0.43574470214843747,2.2457611572265623,11.051634863281249,11.285918206865206
0.40537179806018403,-0.49799394531249996,2.3032219970703123,10.395623608398436,10.659353626972294
0.4078587416065655,-0.5746083984375,2.3032219970703123,9.567229833984374,9.857326872718797
0.410345685152947,-0.6272808349609375,2.346317626953125,8.825027319335938,9.15313033008303
0.4128326286993285,-0.6943184814453125,2.4564509033203126,8.0828248046875,8.476336827744118
0.41531957224571,-0.70868369140625,2.518700146484375,7.4794859863281244,7.923938012254033
0.4178065157920915,-0.718260498046875,2.5378537597656248,7.0102224609374995,7.489981228337203
0.420293459338473,-0.7134720947265625,2.6910826660156246,6.742071875,7.294278683526513
0.42278040288485447,-0.699106884765625,2.767697119140625,6.679822631835937,7.264222475421137
0.425267346431236,-0.6368576416015624,2.7581203125,6.833051538085937,7.396175270775429
0.4277542899776175,-0.584185205078125,2.8012159423828122,7.264007836914062,7.80729741744483
0.43024123352399896,-0.5458779785156249,2.882618798828125,7.867346655273437,8.396583668434904
0.43272817707038047,-0.430956298828125,2.825157958984375,8.532934716796875,8.998789680053077
0.435215120616762,-0.3399766357421875,2.834734765625,9.294290844726563,9.722918677571133
0.43770206416314344,-0.296881005859375,2.7581203125,10.1131078125,10.486673238788061
0.44018900770952496,-0.2825157958984375,2.7246014892578123,10.812214697265624,11.153800030033029
0.4426759512559065,-0.22026655273437498,2.6288334228515624,11.463437548828125,11.76306435225267
0.445162894802288,-0.19153613281249998,2.5522189697265625,11.942277880859374,12.21345605237387
0.44764983834866945,-0.201112939453125,2.50912333984375,12.23915888671875,12.4953253900533
0.45013678189505096,-0.258573779296875,2.389413256835937,12.272677709960936,12.505789630561328
0.4526237254414325,-0.3016694091796875,2.3319524169921872,12.114660400390624,12.340745647015956
0.45511066898781394,-0.3399766357421875,2.308010400390625,11.765106958007811,11.994175163575262
0.45759761253419545,-0.37828386230468747,2.3415292236328122,11.204863769531249,11.453158074494592
0.46008455608057697,-0.4644751220703125,2.29843359375,10.539275708007812,10.796984142495734
0.4625714996269584,-0.5602431884765625,2.3032219970703123,9.763554370117188,10.047173629248046
0.46505844317333994,-0.6177040283203125,2.3127988037109373,8.973467822265624,9.287288158030117
0.46754538671972146,-0.6560112548828124,2.418143676757812,8.250418920898436,8.622481196169442
0.4700323302661029,-0.6751648681640625,2.461239306640625,7.6279264892578125,8.043556989869398
0.47251927381248443,-0.689530078125,2.5857377929687497,7.096413720703125,7.58423228534105
0.47500621735886595,-0.699106884765625,2.6001030029296874,6.789955908203124,7.304299233842572
0.4774931609052474,-0.718260498046875,2.710236279296875,6.679822631835937,7.2443984722997605
0.4799801044516289,-0.6655880615234374,2.7533319091796873,6.828263134765624,7.3924976501415856
0.48246704799801043,-0.622492431640625,2.7916391357421872,7.187393383789062,7.735591092152689
0.4849539915443919,-0.5410895751953124,2.81558115234375,7.685387329101562,8.202771089828927
0.4874409350907734,-0.45489831542968745,2.858676782226562,8.327033374023436,8.815806839689838
0.4899278786371549,-0.430956298828125,2.839523168945312,9.102754711914063,9.545090806469602
0.4924148221835364,-0.3064578125,2.767697119140625,9.907206469726562,10.291103136590044
0.4949017657299179,-0.3112462158203125,2.7341782958984373,10.678139404296875,11.027024362819834
0.4973887092762994,-0.26336218261718747,2.6575638427734374,11.343727465820312,11.653847349114185
0.49987565282268087,-0.24899697265624998,2.6048914062499997,11.85608662109375,12.141426962990193
0.5023625963690624,-0.22026655273437498,2.499546533203125,12.210428466796873,12.4655851675188
0.5048495399154439,-0.2346317626953125,2.403778466796875,12.253524096679687,12.48927763200945
0.5073364834618254,-0.27293898925781246,2.3367408203125,12.215216870117187,12.439709664504528
0.5098234270082069,-0.3112462158203125,2.3415292236328122,11.923124267578125,12.154856050653143
0.5123103705545884,-0.39264907226562495,2.27927998046875,11.353304272460937,11.586492498871108
0.5147973141009698,-0.45489831542968745,2.29843359375,10.735600244140624,10.98830478573704
0.5172842576473514,-0.4740519287109375,2.346317626953125,10.022128149414062,10.304027575707629
0.5197712011937329,-0.565031591796875,2.3367408203125,9.17458076171875,9.484331843326816
0.5222581447401143,-0.63206923828125,2.398990063476562,8.418013037109375,8.775967658303221
0.5247450882864959,-0.6703764648437499,2.480392919921875,7.771578588867187,8.185303134567093
0.5272320318328774,-0.7230489013671875,2.5665841796874997,7.206546997070312,7.6840401929046145
0.5297189753792588,-0.7038952880859375,2.6192566162109374,6.885723974609375,7.400619464116817
0.5322059189256404,-0.699106884765625,2.729389892578125,6.679822631835937,7.249713788476198
0.5346928624720219,-0.6464344482421874,2.7150246826171873,6.6893994384765625,7.248261955157615
0.5371798060184033,-0.6368576416015624,2.7820623291015623,7.043741284179687,7.59998353531964
0.5396667495647849,-0.5506663818359374,2.825157958984375,7.484274389648437,8.018672838870813
0.5421536931111663,-0.44053310546874996,2.825157958984375,8.192958081054687,8.677565846949593
0.5446406366575478,-0.4213794921875,2.7724855224609373,8.930372192382812,9.360330343699195
0.5471275802039294,-0.33518823242187495,2.7724855224609373,9.715670336914062,10.109069057979642
0.5496145237503108,-0.296881005859375,2.7581203125,10.496180078124999,10.856572305396085
0.5521014672966923,-0.2920926025390625,2.6384102294921874,11.190498559570312,11.501034068260656
0.5545884108430739,-0.229843359375,2.5426421630859375,11.717222924804688,11.992129511013447
0.5570753543894553,-0.201112939453125,2.5378537597656248,12.100295190429687,12.365204883701193
0.5595622979358368,-0.2154781494140625,2.4660277099609376,12.287042919921875,12.533919866313665
0.5620492414822184,-0.3016694091796875,2.389413256835937,12.263100903320312,12.497357477058644
0.5645361850285998,-0.32082302246093747,2.3415292236328122,11.966219897460936,12.197381077561587
0.5670231285749813,-0.38307226562499996,2.288856787109375,11.540052001953125,11.771083635773303
0.5695100721213628,-0.43574470214843747,2.35589443359375,10.922347973632812,11.182030105701257
0.5719970156677443,-0.5123591552734374,2.3319524169921872,10.20887587890625,10.484353136461117
0.5744839592141258,-0.5315127685546874,2.3367408203125,9.409212524414063,9.70959030103958
0.5769709027605073,-0.612915625,2.35589443359375,8.643067993164061,8.97933897790167
0.5794578463068888,-0.6703764648437499,2.427720483398437,7.900865478515625,8.292581423159417
0.5819447898532703,-0.699106884765625,2.5426421630859375,7.3549875,7.813425671943471
0.5844317333996518,-0.7038952880859375,2.6192566162109374,6.943184814453125,7.454112231903061
0.5869186769460333,-0.7134720947265625,2.6575638427734374,6.698976245117187,7.242097123141514
0.5894056204924147,-0.6655880615234374,2.7246014892578123,6.6702458251953125,7.235927038841941
0.5918925640387963,-0.63206923828125,2.8107927490234372,6.947973217773437,7.521595524544053
0.5943795075851778,-0.55545478515625,2.806004345703125,7.388506323242187,7.922891902269498
0.5968664511315592,-0.5267243652343749,2.825157958984375,7.996633544921875,8.49735865442398
0.5993533946779408,-0.4213794921875,2.7629087158203123,8.695740429687499,9.133845130551196
0.6018403382243223,-0.3687070556640625,2.8012159423828122,9.514557397460937,9.925198140003792
0.6043272817707037,-0.3399766357421875,2.7437551025390623,10.24718310546875,10.613601545779071
0.6068142253170853,-0.27293898925781246,2.6862942626953124,10.965443603515624,11.292990125716418
0.6093011688634667,-0.26336218261718747,2.5953145996093747,11.602301245117188,11.891947346529344
0.6117881124098483,-0.239420166015625,2.5713725830078125,11.999738720703125,12.274486072405683
0.6142750559562298,-0.2346317626953125,2.499546533203125,12.272677709960936,12.526827336092937
0.6167619995026112,-0.26336218261718747,2.389413256835937,12.310984936523436,12.543484581984512
0.6192489430489928,-0.3064578125,2.375048046875,12.081141577148436,12.316198740801143
0.6217358865953743,-0.3687070556640625,2.29843359375,11.726799731445311,11.95560846712541
0.6242228301417557,-0.36391865234375,2.308010400390625,11.1474029296875,11.389641823632578
0.6267097736881373,-0.49320554199218747,2.2649147705078123,10.424354028320312,10.67896284908203
0.6291967172345188,-0.565031591796875,2.3032219970703123,9.720458740234374,10.005568968735156
0.6316836607809002,-0.5746083984375,2.384624853515625,8.911218579101561,9.242641779712343
0.6341706043272818,-0.6560112548828124,2.422932080078125,8.169016064453125,8.545979996027246
0.6366575478736632,-0.6751648681640625,2.5139117431640625,7.536946826171874,7.973779988948997
0.6391444914200447,-0.70868369140625,2.5857377929687497,7.029376074218749,7.5233237668766515
0.6416314349664263,-0.689530078125,2.6527754394531247,6.785167504882812,7.317866309937783
0.6441183785128077,-0.689530078125,2.7246014892578123,6.698976245117187,7.264653311517992
0.6466053220591892,-0.6560112548828124,2.7533319091796873,6.818686328125,7.382795582297994
0.6490922656055708,-0.565031591796875,2.8203695556640622,7.220912207031249,7.772729136660953
0.6515792091519522,-0.49320554199218747,2.806004345703125,7.790732202148437,8.295325210041453
0.6540661526983337,-0.45489831542968745,2.8012159423828122,8.461108666992187,8.924354492504806
0.6565530962447153,-0.45010991210937495,2.825157958984375,9.193734375,9.62854444785132
0.6590400397910967,-0.3591302490234375,2.7820623291015623,9.969455712890625,10.356586916067338
0.6615269833374782,-0.3016694091796875,2.6815058593749996,10.711658227539061,11.046316132082339
0.6640139268838597,-0.24899697265624998,2.6575638427734374,11.372457885742186,11.681500050669364
0.6665008704302412,-0.2537853759765625,2.518700146484375,11.903970654296874,12.170159193014738
0.6689878139766227,-0.22505495605468748,2.5139117431640625,12.205640063476562,12.463869838248756
0.6714747575230042,-0.258573779296875,2.47081611328125,12.291831323242187,12.540371204395344
0.6739617010693857,-0.3064578125,2.360682836914062,12.23915888671875,12.468510340120405
0.6764486446157671,-0.316034619140625,2.375048046875,11.9135474609375,12.152092174167805
0.6789355881621487,-0.3687070556640625,2.327164013671875,11.382034692382812,11.623353688932971
0.6814225317085302,-0.4213794921875,2.327164013671875,10.716446630859375,10.974310065558692
0.6839094752549116,-0.49799394531249996,2.3415292236328122,9.955090502929687,10.238876110013992
0.6863964188012932,-0.5698199951171875,2.384624853515625,9.1554271484375,9.47802599643967
0.6888833623476747,-0.59376201171875,2.418143676757812,8.398859423828124,8.760183319384964
0.6913703058940561,-0.6416460449218749,2.499546533203125,7.728482958984374,8.147937859723987
0.6938572494404377,-0.7134720947265625,2.518700146484375,7.182604980468749,7.644783003022937
0.6963441929868192,-0.7038952880859375,2.6096798095703124,6.833051538085937,7.34823044053513
0.6988311365332006,-0.679953271484375,2.710236279296875,6.718129858398437,7.276055657794537
0.7013180800795822,-0.6464344482421874,2.7820623291015623,6.789955908203124,7.366223559886212
0.7038050236259636,-0.6272808349609375,2.829946362304687,7.048529687499999,7.621276035874811
0.7062919671723451,-0.5793968017578125,2.825157958984375,7.570465649414062,8.10118314174283
0.7087789107187267,-0.5219359619140624,2.839523168945312,8.149862451171874,8.646130171836276
0.7112658542651081,-0.38786066894531246,2.89219560546875,8.98304462890625,9.445121604496624
0.7137527978114896,-0.373495458984375,2.7916391357421872,9.696516723632811,10.0972859964339
0.7162397413578712,-0.3112462158203125,2.748543505859375,10.496180078124999,10.854545676484681
0.7187266849042526,-0.239420166015625,2.6815058593749996,11.142614526367186,11.463230529522052
0.7212136284506341,-0.26336218261718747,2.6144682128906247,11.717222924804688,12.00825202704444
0.7237005719970157,-0.22026655273437498,2.5617957763671875,12.143390820312499,12.412624846055573
0.7261875155433971,-0.258573779296875,2.437297290039062,12.334926953124999,12.576076551067157
0.7286744590897786,-0.2154781494140625,2.408566870117187,12.27746611328125,12.513344851136742
0.7311614026361601,-0.32082302246093747,2.3367408203125,12.00931552734375,12.238747669118576
0.7336483461825416,-0.37828386230468747,2.308010400390625,11.554417211914062,11.788747507507631
0.7361352897289231,-0.430956298828125,2.3032219970703123,10.927136376953124,11.175547606261647
0.7386222332753046,-0.507570751953125,2.27927998046875,10.204087475585936,10.467862556750239
0.7411091768216861,-0.5410895751953124,2.370259643554687,9.433154541015625,9.74142255016857
0.7435961203680675,-0.6751648681640625,2.360682836914062,8.63827958984375,8.980453514606861
0.7460830639144491,-0.6703764648437499,2.4133552734375,7.953537915039062,8.33861221345668
0.7485700074608306,-0.6655880615234374,2.5761609863281247,7.41244833984375,7.875531936699513
0.7510569510072121,-0.689530078125,2.6001030029296874,6.947973217773437,7.450524759329373
0.7535438945535936,-0.6943184814453125,2.6336218261718747,6.7085530517578125,7.24035400551758
0.7560308380999751,-0.6847416748046875,2.7198130859375,6.68461103515625,7.249157128589772
0.7585177816463566,-0.6081272216796875,2.7820623291015623,6.981492041015625,7.539954949435598
0.7610047251927381,-0.6177040283203125,2.7916391357421872,7.378929516601562,7.91349531760677
0.7634916687391196,-0.5267243652343749,2.8203695556640622,7.972691528320312,8.473236288054212
0.7659786122855011,-0.45010991210937495,2.806004345703125,8.643067993164061,9.09829015010738
0.7684655558318826,-0.3687070556640625,2.825157958984375,9.452308154296874,9.872365057568343
0.770952499378264,-0.32082302246093747,2.73896669921875,10.213664282226562,10.579404712043152
0.7734394429246456,-0.258573779296875,2.70065947265625,10.984597216796875,11.314671802657355
0.7759263864710271,-0.258573779296875,2.5713725830078125,11.563994018554688,11.84925208699489
0.7784133300174085,1.2210428466796874,3.6152445068359373,1.8291700683593748,4.231642898049987
0.7809002735637901,1.2737152832031249,3.0933085449218747,6.967126831054687,7.72863278056048
0.7833872171101716,1.2018892333984375,2.5522189697265625,12.033257543945313,12.359516435431766
0.785874160656553,0.9911994873046874,2.059013427734375,16.563087084960937,16.719984046141413
0.7883611042029346,0.7326257080078125,1.5945383056640625,20.379444531249998,20.454854001888144
0.790848047749316,0.3399766357421875,1.3311761230468748,23.113622827148436,23.15442018663171
0.7933349912956975,-0.08140285644531249,1.0295067138671874,24.569297436523435,24.59099198941133
0.7958219348420791,-0.51714755859375,0.9433154541015625,24.77041037597656,24.793759614822307
0.7983088783884605,-0.948103857421875,0.9959878906249999,23.745692065429687,23.78547423258448
0.800795821934842,-1.2976572998046874,1.1444283935546875,21.638794604492187,21.70785716626841
0.8032827654812236,-1.5322890624999999,1.4030021728515625,18.646042529296874,18.761429233201586
0.805769709027605,-1.7286135986328124,1.7621324218749999,15.088258862304686,15.288844663398121
0.8082566525739865,-1.8100164550781248,2.1164742675781247,11.243170996093749,11.582940772548984
0.8107435961203681,-1.7717092285156248,2.5857377929687497,7.517793212890624,8.145072640325479
0.8132305396667495,-1.637633935546875,2.91134921875,4.122815258789062,5.306166680238654
0.815717483213131,-1.426944189453125,3.246537451171875,1.350329736328125,3.794675946439642
0.8182044267595125,-1.139639990234375,3.5242648437499997,-0.6560112548828124,3.7615917857692294
0.820691370305894,-0.8188169677734375,3.67749375,-1.7812860351562498,4.167421438617101
0.8231783138522755,-0.430956298828125,3.835511059570312,-1.8291700683593748,4.271151081215421
0.825665257398657,-0.181959326171875,3.821145849609375,-0.967257470703125,3.945865154183412
0.8281522009450385,0.1197100830078125,3.6727053466796873,0.584185205078125,3.7208019863109443
0.83063914449142,0.39264907226562495,3.5146880371093747,2.896984008789062,4.571621335951869
0.8331260880378015,0.49320554199218747,3.2034418212890623,5.5449710449218745,6.4227716056277115
0.835613031584183,0.5985504150390625,2.935291235351562,8.432378247070313,8.948698237025301
0.8380999751305644,0.5602431884765625,2.5713725830078125,11.252747802734374,11.556390548212791
0.840586918676946,0.43574470214843747,2.29843359375,13.781024755859374,13.978172761557138
0.8430738622233275,0.3064578125,2.0781670410156248,15.86398020019531,16.002454887716283
0.8455608057697089,0.1005564697265625,1.8339584716796873,17.266982373046876,17.36439447693357
0.8480477493160905,-0.17238251953125,1.6711527587890624,18.013973291015624,18.092144732056298
0.850534692862472,-0.44053310546874996,1.5753846923828123,18.013973291015624,18.0880938762334
0.8530216364088534,-0.6751648681640625,1.5610194824218748,17.28134758300781,17.36483814230451
0.855508579955235,-0.9528922607421875,1.695094775390625,15.935806249999999,16.054011050067146
0.8579955235016165,-1.1252747802734375,1.8243816650390623,14.207192651367187,14.367982976879945
0.8604824670479979,-1.24498486328125,2.0638018310546875,12.172121240234373,12.408456825674532
0.8629694105943795,-1.2976572998046874,2.288856787109375,9.983820922851562,10.324701452303676
0.8654563541407609,-1.2976572998046874,2.5570073730468748,7.843404638671874,8.351119535696514
0.8679432976871424,-1.2210428466796874,2.786850732421875,5.942408520507812,6.676054348403091
0.870430241233524,-1.0965443603515623,2.9640216552734375,4.4196962646484375,5.433373627765355
0.8729171847799054,-0.9002198242187499,3.1411925781249996,3.418919970703125,4.729323451706033
0.8754041283262869,-0.7422025146484375,3.27526787109375,2.9640216552734375,4.479248661672997
0.8778910718726685,-0.507570751953125,3.3327287109375,3.1220389648437497,4.594761803069667
0.8803780154190499,-0.3064578125,3.35188232421875,3.7110125732421873,5.010054473258148
0.8828649589654315,-0.1292868896484375,3.265691064453125,4.80755693359375,5.813265596721802
0.885351902511813,0.062249243164062495,3.1411925781249996,6.282385156249999,7.024195970544416
0.8878388460581944,0.1197100830078125,2.9927520751953125,7.924807495117187,8.471922410068752
0.890325789604576,0.2059013427734375,2.7820623291015623,9.6151138671875,10.011627282562175
0.8928127331509574,0.17238251953125,2.5426421630859375,11.247959399414063,11.533054042768091
0.8952996766973389,0.1580173095703125,2.427720483398437,12.650961572265624,12.882764645780721
0.8977866202437205,0.062249243164062495,2.212242333984375,13.766659545898436,13.943414437117749
0.9002735637901019,-0.09576806640624999,2.0973206542968748,14.417882397460936,14.569943660718025
0.9027605073364834,-0.229843359375,1.9871873779296874,14.65251416015625,14.788438486142857
0.905247450882865,-0.39743747558593745,1.905784521484375,14.465766430664061,14.596176540993769
0.9077343944292464,-0.5506663818359374,1.9728221679687499,13.852850805664062,14.003454438619803
0.9102213379756279,-0.7134720947265625,2.0063409912109376,12.904746948242186,13.07925611038842
0.9127082815220094,-0.8475473876953125,2.0829554443359375,11.731588134765625,11.945174763110478
0.9151952250683909,-0.9337386474609375,2.27927998046875,10.309432348632813,10.599593409285305
0.9176821686147724,-1.0199299072265624,2.370259643554687,8.959102612304687,9.323299169892804
0.9201691121611539,-1.0007762939453124,2.5905261962890624,7.71890615234375,8.203285399940256
0.9226560557075354,-0.93852705078125,2.73896669921875,6.636727001953124,7.240781511890213
0.9251429992539169,-0.93852705078125,2.85388837890625,5.851428857421874,6.577593144743277
0.9276299428002984,-0.833182177734375,2.9640216552734375,5.353434912109375,6.175668568860831
0.9301168863466799,-0.6560112548828124,3.0454245117187497,5.305550878906249,6.152546737065325
0.9326038298930613,-0.5123591552734374,3.1124621582031247,5.597643481445312,6.4252272438884335
0.9350907734394429,-0.40222587890625,3.0837317382812497,6.1818286865234375,6.919985043399233
0.9375777169858244,-0.2154781494140625,3.0406361083984375,7.096413720703125,7.723405108626302
0.9400646605322058,-0.1005564697265625,2.9544448486328125,8.149862451171874,8.669435618322456
0.9425516040785874,-0.0143652099609375,2.877830395507812,9.294290844726563,9.729643182097371
0.9450385476249689,-0.023942016601562498,2.7246014892578123,10.395623608398436,10.746767732807655
0.9475254911713503,-0.0047884033203125,2.5905261962890624,11.449072338867186,11.738488246920042
0.9500124347177319,-0.01915361328125,2.442085693359375,12.243947290039062,12.485126937114703
0.9524993782641133,-0.0718260498046875,2.3127988037109373,12.847286108398437,13.054001594872155
0.9549863218104948,-0.1484405029296875,2.24097275390625,13.096283081054686,13.287461157263241
0.9574732653568764,-0.258573779296875,2.1404162841796874,13.043610644531249,13.220590792965735
0.9599602089032578,-0.4213794921875,2.1021090576171875,12.684480395507812,12.86438751245369
0.9624471524496393,-0.5315127685546874,2.1356278808593747,12.081141577148436,12.279959042103732
0.9649340959960209,-0.6512228515624999,2.1499930908203124,11.243170996093749,11.465402545936884
0.9674210395424023,-0.7230489013671875,2.231395947265625,10.290278735351562,10.554229675275703
0.9699079830887838,-0.7948749511718749,2.3223756103515623,9.294290844726563,9.612965045703863
0.9723949266351654,-0.8906430175781249,2.437297290039062,8.327033374023436,8.721992196562237
0.9748818701815468,-0.8714894042968749,2.5905261962890624,7.556100439453124,8.035233263979665
0.9773688137279283,-0.8714894042968749,2.70065947265625,6.83783994140625,7.4033175288744895
0.9798557572743098,-0.7996633544921875,2.7724855224609373,6.45476767578125,7.070372210929469
0.9823427008206913,-0.7038952880859375,2.901772412109375,6.301538769531249,6.973173063403349
0.9848296443670728,-0.6703764648437499,2.89219560546875,6.440402465820312,7.091754645125105
0.9873165879134543,-0.5315127685546874,3.0119056884765625,6.880935571289062,7.53003028119046
0.9898035314598358,-0.4070142822265625,2.9735984619140625,7.407659936523437,7.992582447107349
0.9922904750062173,-0.32561142578124996,2.93050283203125,8.221688500976562,8.734416492029258
0.9947774185525988,-0.229843359375,2.8730419921875,9.107543115234375,9.552724211164822
0.9972643620989803,-0.1484405029296875,2.7724855224609373,10.031704956054687,10.408833502391019
0.9997513056453617,-0.076614453125,2.6958710693359373,10.855310327148437,11.18531863183189
1.0022382491917432,-7.206546997070312,2.0829554443359375,9.80665,12.346797448187601
1.0047251927381249,-6.68461103515625,3.0789433349609374,9.629479077148437,12.119850826164182
1.0072121362845063,-6.038176586914062,3.902548706054687,9.572018237304688,11.971340611359274
1.0096990798308878,-5.2816088623046875,4.73094248046875,9.452308154296874,11.816231987045041
1.0121860233772693,-4.4005426513671875,5.406107348632812,9.442731347656249,11.736947967655537
1.0146729669236507,-3.5386300537109374,5.932831713867187,9.299079248046874,11.584181872862258
1.0171599104700322,-2.6192566162109374,6.291961962890625,9.251195214843749,11.49060065737101
1.0196468540164139,-1.656787548828125,6.536170532226562,9.2320416015625,11.432281589485077
1.0221337975627953,-0.7852981445312499,6.636727001953124,9.179369165039063,11.354455369692017
1.0246207411091768,0.086191259765625,6.641515405273437,9.169792358398437,11.322643141417412
1.0271076846555582,0.8283937744140625,6.469132885742187,9.121908325195312,11.213613513589033
1.0295946282019397,1.4796166259765624,6.2392895263671875,9.169792358398437,11.189418709202187
1.0320815717483212,2.0254946044921875,5.798756420898437,9.131485131835937,11.005099960231101
1.0345685152947028,2.4947581298828125,5.487510205078125,9.121908325195312,10.933700099724726
1.0370554588410843,2.877830395507812,4.975151049804687,9.169792358398437,10.822159102962019
1.0395424023874658,3.0980969482421874,4.467580297851562,9.260772021484375,10.73868599281899
1.0420293459338472,3.1938650146484373,3.88818349609375,9.265560424804686,10.543687903992506
1.0445162894802287,3.1842882080078123,3.342305517578125,9.299079248046874,10.381886746923547
1.0470032330266101,3.0645781249999997,2.839523168945312,9.366116894531249,10.255665585091464
1.0494901765729918,2.877830395507812,2.327164013671875,9.399635717773437,10.102017212353195
1.0519771201193733,2.5713725830078125,1.8052280517578123,9.442731347656249,9.951682299164677
1.0544640636657547,2.2266075439453124,1.4125789794921875,9.447519750976562,9.808607952872295
1.0569510072121362,1.8052280517578123,1.0199299072265624,9.533711010742186,9.756574756073736
1.0594379507585177,1.3742717529296875,0.7805097412109374,9.572018237304688,9.701615919130129
1.0619248943048991,0.8954314208984374,0.49799394531249996,9.591171850585937,9.645743769485698
1.0644118378512808,0.39264907226562495,0.354341845703125,9.619902270507811,9.634430503755201
1.0668987813976623,-0.09576806640624999,0.3112462158203125,9.6917283203125,9.69719771708059
1.0693857249440437,-0.55545478515625,0.296881005859375,9.696516723632811,9.716949362926815
1.0718726684904252,-1.005564697265625,0.3495534423828125,9.677363110351562,9.735743666462355
1.0743596120368066,-1.4221557861328125,0.4644751220703125,9.696516723632811,9.811253782812065
1.076846555583188,-1.7621324218749999,0.6607996582031249,9.744400756835937,9.924470412587727
1.0793334991295698,-2.0973206542968748,0.8571241943359375,9.706093530273437,9.967029017208295
1.0818204426759512,-2.403778466796875,1.120486376953125,9.677363110351562,10.034191417745983
1.0843073862223327,-2.5522189697265625,1.3646949462890625,9.696516723632811,10.119221834585396
1.0867943297687142,-2.6144682128906247,1.7764976318359373,9.672574707031249,10.175956433438325
1.0892812733150956,-2.6862942626953124,2.1308394775390624,9.677363110351562,10.266840337436925
1.0917682168614773,-2.70065947265625,2.4133552734375,9.629479077148437,10.288085952222406
1.0942551604078588,-2.6001030029296874,2.77727392578125,9.639055883789062,10.362682298298878
1.0967421039542402,-2.4899697265625,3.0741549316406247,9.586383447265625,10.370589442309269
1.0992290475006217,-2.29843359375,3.308786694335937,9.5384994140625,10.354411496824131
1.1017159910470031,-2.0446482177734375,3.5817256835937497,9.567229833984374,10.418312334694132
1.1042029345933846,-1.7764976318359373,3.744531396484375,9.533711010742186,10.395629122449623
1.1066898781397663,-1.5035586425781249,3.9169139160156248,9.504980590820312,10.389781482255488
1.1091768216861477,-1.1875240234375,4.089296435546875,9.4618849609375,10.375925291656296
1.1116637652325292,-0.8714894042968749,4.122815258789062,9.452308154296874,10.349068986323978
1.1141507087789106,-0.5267243652343749,4.108450048828125,9.428366137695312,10.298101202993054
1.116637652325292,-0.2442085693359375,4.089296435546875,9.404424121093749,10.257932355622327
1.1191245958716736,0.09576806640624999,4.0222587890625,9.418789331054686,10.242135019200015
1.1216115394180552,0.3687070556640625,3.9360675292968748,9.370905297851563,10.1706655922503
1.1240984829644367,0.6368576416015624,3.758896606445312,9.3852705078125,10.13006386250489
1.1265854265108182,0.7852981445312499,3.5338416503906247,9.3086560546875,9.987782913655563
1.1290723700571996,0.9624690673828125,3.394977954101562,9.399635717773437,10.040187928587121
1.131559313603581,1.0869675537109373,3.1459809814453124,9.337386474609374,9.91289468191073
1.1340462571499625,1.149216796875,2.868253588867187,9.342174877929686,9.839909011067617
1.1365332006963442,1.1635820068359375,2.6001030029296874,9.375693701171874,9.798882134747325
1.1390201442427257,1.197100830078125,2.437297290039062,9.404424121093749,9.788598547637728
1.1415070877891071,1.1013327636718748,2.1739351074218747,9.380482104492186,9.691871450876588
1.1439940313354886,0.97683427734375,1.9009961181640624,9.423577734375,9.662908918254212
1.14648097488187,0.8714894042968749,1.7908628417968748,9.447519750976562,9.655170270120706
1.1489679184282515,0.6464344482421874,1.5705962890624998,9.504980590820312,9.655532415717008
1.1514548619746332,0.4165910888671875,1.4413093994140624,9.476250170898437,9.594281537541804
1.1539418055210147,0.19632453613281248,1.3551181396484375,9.495403784179686,9.593621918780514
1.1564287490673961,-0.062249243164062495,1.3120225097656248,9.533711010742186,9.623768683356483
1.1589156926137776,-0.27293898925781246,1.2785036865234374,9.581595043945311,9.670368708300034
1.161402636160159,-0.5793968017578125,1.2641384765625,9.586383447265625,9.686717418187717
1.1638895797065405,-0.8379705810546875,1.3407529296874998,9.629479077148437,9.758415876074265
1.1663765232529222,-1.0869675537109373,1.4221557861328125,9.610325463867188,9.775601314717445
1.1688634667993036,-1.2785036865234374,1.5275006591796874,9.639055883789062,9.842724636555516
1.171350410345685,-1.4939818359375,1.62805712890625,9.572018237304688,9.823751059365623
1.1738373538920666,-1.637633935546875,1.8148048583984373,9.6151138671875,9.920976577933377
1.176324297438448,-1.7669208251953124,2.0302830078125,9.629479077148437,9.99854617389751
1.1788112409848295,-1.8531120849609375,2.269703173828125,9.586383447265625,10.024186974249936
1.1812981845312112,-1.8818425048828125,2.4516625,9.591171850585937,10.076832721374407
1.1837851280775926,-1.9201497314453124,2.6384102294921874,9.567229833984374,10.10841581191332
1.186272071623974,-1.867477294921875,2.868253588867187,9.581595043945311,10.174542431149204
1.1887590151703555,-1.7669208251953124,3.1028853515624997,9.600748657226562,10.243255414500199
1.191245958716737,-1.6232687255859375,3.265691064453125,9.548076220703125,10.22083651176707
1.1937329022631185,-1.4891934326171874,3.394977954101562,9.557653027343749,10.25145373982046
1.1962198458095001,-1.2928688964843749,3.5529952636718747,9.528922607421874,10.251617013203683
1.1987067893558816,-1.13006318359375,3.6583401367187496,9.476250170898437,10.220558333882453
1.201193732902263,-0.9002198242187499,3.7158009765625,9.514557397460937,10.253993129455369
1.2036806764486445,-0.6751648681640625,3.758896606445312,9.471461767578125,10.212430627027203
1.206167619995026,-0.44532150878906246,3.706224169921875,9.433154541015625,10.144891001809086
1.2086545635414074,-0.229843359375,3.725377783203125,9.437942944335937,10.149188865026245
1.2111415070877891,0.023942016601562498,3.6487633300781246,9.404424121093749,10.087479373386183
1.2136284506341706,0.229843359375,3.5386300537109374,9.452308154296874,10.095586167759762
1.216115394180552,0.40222587890625,3.385401147460937,9.3852705078125,9.985290636316343
1.2186023377269335,0.612915625,3.2800562744140622,9.399635717773437,9.97434641234875
1.221089281273315,0.737414111328125,3.0454245117187497,9.361328491210937,9.871821571955243
1.2235762248196966,0.8283937744140625,2.91134921875,9.414000927734374,9.888660373700164
1.226063168366078,0.8475473876953125,2.6671406494140624,9.394847314453125,9.802812447457777
1.2285501119124596,0.8667010009765624,2.518700146484375,9.380482104492186,9.751331476557052
1.231037055458841,0.833182177734375,2.31758720703125,9.375693701171874,9.693762705043024
1.2335239990052225,0.8092401611328125,2.1308394775390624,9.428366137695312,9.699970852732951
1.236010942551604,0.699106884765625,1.9680337646484374,9.437942944335937,9.66626475716776
1.2384978860979856,0.5889736083984375,1.8195932617187498,9.452308154296874,9.643854986117809
1.240984829644367,0.44053310546874996,1.6807295654296874,9.495403784179686,9.653062431878151
1.2434717731907485,0.258573779296875,1.5897499023437498,9.481038574218749,9.616873587458956
1.24595871673713,0.047884033203124995,1.465251416015625,9.533711010742186,9.645771105988281
1.2484456602835114,-0.1867477294921875,1.4413093994140624,9.567229833984374,9.67698993466411
1.250932603829893,-0.38786066894531246,1.407790576171875,9.557653027343749,9.66855943747393
1.2534195473762746,-0.6607996582031249,1.4317325927734375,9.557653027343749,9.68685943929116
1.255906490922656,-0.8475473876953125,1.5131354492187499,9.581595043945311,9.737293209523319
1.2583934344690375,-1.0630255371093749,1.6424223388671875,9.605537060546874,9.802750463686001
1.260880378015419,-1.2785036865234374,1.7190367919921874,9.6151138671875,9.850892033093153
1.2633673215618004,-1.426944189453125,1.8195932617187498,9.619902270507811,9.893917780739217
1.2658542651081819,-1.5705962890624998,2.059013427734375,9.672574707031249,10.013241755890448
1.2683412086545636,-1.66636435546875,2.2170307373046874,9.634267480468749,10.02552269662526
1.270828152200945,-1.7429788085937499,2.375048046875,9.6151138671875,10.056303646527038
1.2733150957473265,-1.7669208251953124,2.5905261962890624,9.591171850585937,10.090758774425282
1.275802039293708,-1.7812860351562498,2.7437551025390623,9.581595043945311,10.124630145734173
1.2782889828400894,-1.7238251953125,2.959233251953125,9.581595043945311,10.175244386726865
1.2807759263864709,-1.599326708984375,3.0980969482421874,9.576806640625,10.19172586241886
1.2832628699328525,-1.484405029296875,3.2561142578125,9.543287817382812,10.192157804721182
1.285749813479234,-1.3455413330078123,3.385401147460937,9.509768994140625,10.183669708409669
1.2882367570256155,-1.20667763671875,3.4859576171874997,9.514557397460937,10.204644721760937
1.290723700571997,-1.0438719238281249,3.5529952636718747,9.471461767578125,10.169662332237268
1.2932106441183784,-0.8044517578125,3.6152445068359373,9.442731347656249,10.143091776123542
1.2956975876647598,-0.59376201171875,3.6439749267578123,9.447519750976562,10.14330991533297
1.2981845312111415,-0.36391865234375,3.6679169433593746,9.423577734375,10.11878791183582
1.300671474757523,-0.1149216796875,3.5865140869140624,9.437942944335937,10.09708162335215
1.3031584183039044,0.086191259765625,3.5003228271484375,9.423577734375,10.053034673337434
1.305645361850286,0.258573779296875,3.385401147460937,9.361328491210937,9.95802552963826
1.3081323053966674,0.430956298828125,3.2513258544921873,9.356540087890625,9.914720649614557
1.3106192489430488,0.584185205078125,3.0933085449218747,9.394847314453125,9.90822820537587
1.3131061924894305,0.7038952880859375,2.935291235351562,9.390058911132812,9.863296080290098
1.315593136035812,0.7948749511718749,2.7964275390625,9.3852705078125,9.825229548160324
1.3180800795821934,0.8092401611328125,2.6096798095703124,9.366116894531249,9.756507778344304
1.3205670231285749,0.8044517578125,2.408566870117187,9.380482104492186,9.718116150323162
1.3230539666749563,0.8092401611328125,2.2170307373046874,9.452308154296874,9.742495797911909
1.3255409102213378,0.74699091796875,2.0446482177734375,9.399635717773437,9.648405743583448
1.3280278537677195,0.6081272216796875,1.924938134765625,9.471461767578125,9.684203299968303
1.330514797314101,0.47884033203125,1.7477672119140624,9.495403784179686,9.666781848952398
1.3330017408604824,0.33039982910156246,1.6615759521484375,9.476250170898437,9.626490325829087
1.3354886844068639,0.15322890625,1.62805712890625,9.5001921875,9.639901488714967
1.3379756279532453,-0.0718260498046875,1.4508862060546874,9.509768994140625,9.62007983783236
1.3404625714996268,-0.2920926025390625,1.4508862060546874,9.548076220703125,9.6620985498873
1.3429495150460085,-0.5123591552734374,1.4987702392578124,9.548076220703125,9.678563098437387
1.34543645859239,-0.689530078125,1.5227122558593749,9.586383447265625,9.731025225575761
1.3479234021387714,-0.948103857421875,1.5610194824218748,9.548076220703125,9.721185229451981
1.3504103456851528,-1.1348515869140625,1.6615759521484375,9.6151138671875,9.82339744935838
1.3528972892315343,-1.2976572998046874,1.8243816650390623,9.629479077148437,9.886311254694878
1.3553842327779158,-1.5131354492187499,1.9536685546875,9.610325463867188,9.922940855951488
1.3578711763242974,-1.608903515625,2.1212626708984375,9.6151138671875,9.976910369474059
1.360358119870679,-1.656787548828125,2.3223756103515623,9.591171850585937,10.006445469045428
1.3628450634170604,-1.7525556152343749,2.4899697265625,9.552864624023437,10.026396309173387
1.3653320069634418,-1.7573440185546874,2.6431986328124997,9.567229833984374,10.08001208869972
1.3678189505098233,-1.7334020019531249,2.85388837890625,9.634267480468749,10.196493086588589
1.370305894056205,-1.6615759521484375,2.9831752685546875,9.543287817382812,10.135803455724737
1.3727928376025864,-1.5801730957031248,3.1699229980468746,9.576806640625,10.210807228512817
1.3752797811489679,-1.455674609375,3.308786694335937,9.514557397460937,10.178106917623348
1.3777667246953493,-1.2928688964843749,3.4332851806640625,9.466673364257812,10.152677563126513
1.3802536682417308,-1.1061211669921875,3.5482068603515624,9.528922607421874,10.228081052580183
1.3827406117881123,-0.9193734375,3.5769372802734374,9.485826977539062,10.179422442967889
1.385227555334494,-0.7565677246093749,3.6104561035156246,9.442731347656249,10.13770009920119
1.3877144988808754,-0.47884033203125,3.6439749267578123,9.466673364257812,10.155084732091984
1.3902014424272569,-0.258573779296875,3.6008792968749996,9.447519750976562,10.113793628263092
1.3926883859736383,-0.0430956298828125,3.5434184570312497,9.428366137695312,10.072326425478094
1.3951753295200198,0.19153613281249998,3.5051112304687497,9.423577734375,10.056157722705983
1.3976622730664012,0.3495534423828125,3.3710359375,9.375693701171874,9.969438463584202
1.400149216612783,0.49799394531249996,3.2225954345703123,9.428366137695312,9.976332358683774
1.4026361601591644,0.63206923828125,3.0454245117187497,9.414000927734374,9.914511356892103
1.4051231037055458,0.7565677246093749,2.89219560546875,9.370905297851563,9.836211478181822
1.4076100472519273,0.7900865478515624,2.7198130859375,9.337386474609374,9.757479497890372
1.4100969907983087,0.8044517578125,2.50912333984375,9.399635717773437,9.761966717421158
1.4125839343446902,0.8092401611328125,2.3223756103515623,9.423577734375,9.739205071757874
1.4150708778910719,0.7661445312499999,2.1547814941406247,9.399635717773437,9.673841654539181
1.4175578214374533,0.679953271484375,1.9871873779296874,9.457096557617186,9.687513892970694
1.4200447649838348,0.5410895751953124,1.8339584716796873,9.481038574218749,9.671932281093298
1.4225317085302163,0.45010991210937495,1.6998831787109374,9.481038574218749,9.642732714332976
1.4250186520765977,0.2059013427734375,1.6136919189453125,9.442731347656249,9.581835537945498
1.4275055956229792,0.028730419921875,1.5083470458984374,9.543287817382812,9.661794792547946
1.4299925391693609,-0.19153613281249998,1.4700398193359374,9.509768994140625,9.624625160624408
1.4324794827157423,-0.40222587890625,1.465251416015625,9.514557397460937,9.635120644775359
1.4349664262621238,-0.5985504150390625,1.5083470458984374,9.552864624023437,9.689715988362735
1.4374533698085052,-0.7900865478515624,1.5658078857421873,9.600748657226562,9.759629391907566
1.4399403133548867,-1.0486603271484374,1.5849614990234373,9.591171850585937,9.777646388706934
1.4424272569012682,-1.2641384765625,1.7238251953125,9.610325463867188,9.845200603003171
1.4449142004476498,-1.388636962890625,1.848323681640625,9.639055883789062,9.912417030050149
1.4474011439940313,-1.5370774658203123,1.9967641845703124,9.634267480468749,9.958352485724383
1.4498880875404128,-1.6472107421875,2.1978771240234374,9.6151138671875,9.999719084077551
1.4523750310867942,-1.70467158203125,2.35589443359375,9.639055883789062,10.068144919280387
1.4548619746331757,-1.7669208251953124,2.5809493896484375,9.586383447265625,10.083752106852087
1.4573489181795571,-1.7573440185546874,2.7437551025390623,9.610325463867188,10.147650249378579
1.4598358617259388,-1.68551796875,2.959233251953125,9.639055883789062,10.222985405117857
1.4623228052723203,-1.6328455322265625,3.1124621582031247,9.591171850585937,10.214900033080635
1.4648097488187017,-1.5466542724609373,3.21780703125,9.562441430664062,10.207189017734715
1.4672966923650832,-1.39821376953125,3.380612744140625,9.543287817382812,10.22046411062433
1.4697836359114647,-1.2210428466796874,3.4620156005859375,9.519345800781249,10.202668382682035
1.4722705794578461,-1.0103531005859374,3.5338416503906247,9.514557397460937,10.199786893238397
1.4747575230042278,-0.8092401611328125,3.6296097167968746,9.452308154296874,10.157512775204554
1.4772444665506093,-0.59376201171875,3.6343981201171873,9.495403784179686,10.18450273929393
1.4797314100969907,-0.38307226562499996,3.6583401367187496,9.457096557617186,10.147259345099704
1.4822183536433722,-0.13407529296874998,3.6008792968749996,9.452308154296874,10.11585079657835
1.4847052971897536,0.01915361328125,3.5146880371093747,9.366116894531249,10.003876475703064
1.487192240736135,0.22026655273437498,3.4093431640625,9.361328491210937,9.96527015614483
1.4896791842825168,0.39743747558593745,3.2513258544921873,9.3852705078125,9.940441582943112
1.4921661278288982,0.584185205078125,3.1411925781249996,9.3852705078125,9.914215333122176
1.4946530713752797,0.6416460449218749,3.0214824951171875,9.437942944335937,9.930550495103681
1.4971400149216612,0.737414111328125,2.8107927490234372,9.366116894531249,9.806552968886278
1.4996269584680426,0.7757213378906249,2.5953145996093747,9.375693701171874,9.759151287033026
1.5021139020144243,0.814028564453125,2.408566870117187,9.404424121093749,9.742023912975252
1.5046008455608058,0.842758984375,2.2266075439453124,9.390058911132812,9.68716832800193
1.5070877891071872,0.718260498046875,2.1068974609374997,9.457096557617186,9.715533456998347
1.5095747326535687,0.6512228515624999,1.89620771484375,9.442731347656249,9.65323107587507
1.5120616761999501,0.5123591552734374,1.7381904052734374,9.466673364257812,9.63855395661224
1.5145486197463316,0.3687070556640625,1.6615759521484375,9.5384994140625,9.689156341484283
1.5170355632927133,0.1484405029296875,1.5418658691406248,9.4618849609375,9.587838753094779
1.5195225068390947,-0.0430956298828125,1.5035586425781249,9.5001921875,9.618534057974864
1.5220094503854762,-0.258573779296875,1.4796166259765624,9.548076220703125,9.665499742670454
1.5244963939318577,-0.488417138671875,1.455674609375,9.543287817382812,9.666016875380192
1.5269833374782391,-0.718260498046875,1.4891934326171874,9.5384994140625,9.680731702452835
1.5294702810246206,-0.9193734375,1.5897499023437498,9.600748657226562,9.774810844656798
1.5319572245710023,-1.13006318359375,1.70467158203125,9.605537060546874,9.820859953335983
1.5344441681173837,-1.3311761230468748,1.7429788085937499,9.619902270507811,9.866738300568144
1.5369311116637652,-1.4173673828125,1.9536685546875,9.65342109375,9.950592441291771
1.5394180552101466,-1.5753846923828123,2.0781670410156248,9.595960253906249,9.943996599652788
1.541904998756528,-1.6519991455078125,2.269703173828125,9.648632690429688,10.048719643261645
1.5443919423029095,-1.70467158203125,2.43250888671875,9.600748657226562,10.049745243825251
1.5468788858492912,-1.7669208251953124,2.6479870361328124,9.624690673828125,10.137480708386596
1.5493658293956727,-1.7334020019531249,2.8203695556640622,9.600748657226562,10.155468561820742
1.5518527729420541,-1.6711527587890624,3.0310593017578125,9.610325463867188,10.21461832646893
1.5543397164884356,-1.599326708984375,3.1364041748046874,9.567229833984374,10.194447693037802
1.556826660034817,-1.47482822265625,3.323151904296875,9.552864624023437,10.221334521005259
1.5593136035811985,-1.2785036865234374,3.4859576171874997,9.572018237304688,10.266937484984268
1.5618005471275802,-1.149216796875,3.5625720703124997,9.524134204101562,10.23336461483356
1.5642874906739617,-0.9959878906249999,3.5721488769531247,9.519345800781249,10.216172666524422
1.5667744342203431,-0.7422025146484375,3.6535517333984373,9.481038574218749,10.187708146938302
1.5692613777667246,-0.51714755859375,3.6296097167968746,9.457096557617186,10.142888326000666
1.571748321313106,-0.2920926025390625,3.6104561035156246,9.447519750976562,10.118119430455618
1.5742352648594875,-0.086191259765625,3.5529952636718747,9.4618849609375,10.10734739142521
1.5767222084058692,0.09576806640624999,3.4428619873046875,9.366116894531249,9.979309388339178
1.5792091519522506,0.277727392578125,3.347093920898437,9.404424121093749,9.986158584226141
1.581696095498632,0.45010991210937495,3.2225954345703123,9.394847314453125,9.942377800595771
1.5841830390450136,0.612915625,3.1076737548828124,9.433154541015625,9.950764107586929
1.586669982591395,0.7038952880859375,2.901772412109375,9.390058911132812,9.853372928231904
1.5891569261377765,0.7852981445312499,2.6910826660156246,9.394847314453125,9.804171313936793
1.5916438696841582,0.8092401611328125,2.461239306640625,9.437942944335937,9.787100468651763
1.5941308132305396,0.7948749511718749,2.346317626953125,9.442731347656249,9.76228497323047
1.596617756776921,0.737414111328125,2.1978771240234374,9.418789331054686,9.699898756517047
1.5991047003233025,0.6655880615234374,2.01112939453125,9.423577734375,9.658750759026677
1.601591643869684,0.5793968017578125,1.8770541015625,9.447519750976562,9.649593887784711
1.6040785874160655,0.4261678955078125,1.7429788085937499,9.504980590820312,9.672861532878432
1.6065655309624471,0.2537853759765625,1.6519991455078125,9.5001921875,9.646095572471493
1.6090524745088286,0.047884033203124995,1.5370774658203123,9.548076220703125,9.671125039669628
1.61153941805521,-0.13407529296874998,1.5131354492187499,9.567229833984374,9.687076017465113
1.6140263616015915,-0.373495458984375,1.39821376953125,9.543287817382812,9.652400891415354
1.616513305147973,-0.5889736083984375,1.5035586425781249,9.572018237304688,9.707271070612729
1.6190002486943544,-0.7757213378906249,1.5801730957031248,9.619902270507811,9.779632421546536
1.6214871922407361,-1.0199299072265624,1.618480322265625,9.6151138671875,9.803578440967236
1.6239741357871176,-1.1731588134765625,1.7190367919921874,9.643844287109374,9.865856360593977
1.626461079333499,-1.3455413330078123,1.838746875,9.6151138671875,9.8813909055424
1.6289480228798805,-1.5179238525390624,1.9967641845703124,9.629479077148437,9.950780237153731
1.631434966426262,-1.618480322265625,2.1499930908203124,9.639055883789062,10.007664421579326
1.6339219099726436,-1.7190367919921874,2.384624853515625,9.639055883789062,10.07734694823175
1.636408853519025,-1.7381904052734374,2.5617957763671875,9.619902270507811,10.105771775521092
1.6388957970654066,-1.7956512451171873,2.6958710693359373,9.629479077148437,10.15967280545062
1.641382740611788,-5.7843912109375,-4.0222587890625,10.319009155273436,12.494786808664585
1.6438696841581695,-6.636727001953124,-3.19865341796875,10.24718310546875,12.620708798785474
1.646356627704551,-7.192181787109375,-2.212242333984375,10.256759912109374,12.720951965075347
1.6488435712509326,-7.503428002929687,-1.177947216796875,10.1131078125,12.647685205916433
1.651330514797314,-7.570465649414062,-0.12449848632812499,9.9981861328125,12.541577889899676
1.6538174583436955,-7.431601953125,0.9050082275390624,9.86411083984375,12.383393320989514
1.656304401890077,-7.038952880859375,1.9105729248046874,9.730035546875,12.160211277087512
1.6587913454364585,-6.4739212890625,2.825157958984375,9.6917283203125,11.992613234192818
1.66127828898284,-5.7317187744140625,3.6631285400390623,9.533711010742186,11.71165045782046
1.6637652325292216,-4.92247861328125,4.414907861328125,9.433154541015625,11.519835576817574
1.666252176075603,-3.9839515624999997,5.008669873046875,9.366116894531249,11.343843688606489
1.6687391196219845,-3.0645781249999997,5.468356591796875,9.275137231445312,11.194763667064162
1.671226063168366,-2.1499930908203124,5.755660791015624,9.1554271484375,11.025966973565453
1.6737130067147474,-1.197100830078125,5.990292553710937,9.184157568359375,11.030204237314521
1.676199950261129,-0.277727392578125,6.047753393554687,9.17458076171875,10.992060123886708
1.6786868938075106,0.49320554199218747,5.91846650390625,9.093177905273437,10.860818656135692
1.681173837353892,1.2306196533203124,5.746083984375,9.088389501953124,10.822695118400075
1.6836607809002735,1.8052280517578123,5.473144995117187,9.126696728515624,10.794014898578165
1.686147724446655,2.27927998046875,5.0757075195312495,9.1554271484375,10.713532112405233
1.6886346679930364,2.6479870361328124,4.697423657226563,9.222464794921875,10.68323365150143
1.6911216115394179,2.85388837890625,4.2137949218749995,9.246406811523437,10.554467558672142
1.6936085550857995,2.91134921875,3.687070556640625,9.227253198242186,10.35435392227024
1.696095498632181,2.906560815429687,3.246537451171875,9.265560424804686,10.239077652863058
1.6985824421785625,2.7437551025390623,2.7916391357421872,9.361328491210937,10.146719284935115
1.701069385724944,2.4660277099609376,2.346317626953125,9.370905297851563,9.969973178206079
1.7035563292713254,2.1547814941406247,1.924938134765625,9.485826977539062,9.916117363059683
1.7060432728177068,1.7908628417968748,1.5227122558593749,9.524134204101562,9.809942643563744
1.7085302163640885,1.2785036865234374,1.2114660400390624,9.591171850585937,9.751553676727314
1.71101715991047,0.7852981445312499,1.0630255371093749,9.662997900390625,9.752960826913258
1.7135041034568514,0.26815058593749996,0.9145850341796874,9.701305126953125,9.748009626981863
1.715991047003233,-0.1867477294921875,0.7757213378906249,9.701305126953125,9.734060790583563
1.7184779905496144,-0.6416460449218749,0.7517793212890624,9.6917283203125,9.741995669760334
1.7209649340959958,-1.1348515869140625,0.852335791015625,9.715670336914062,9.818788852020365
1.7234518776423775,-1.5179238525390624,1.005564697265625,9.739612353515625,9.908345067631027
1.725938821188759,-1.8435352783203125,1.158793603515625,9.734823950195311,9.975380808733895
1.7284257647351404,-2.1068974609374997,1.39821376953125,9.777919580078125,10.09959058431018
1.7309127082815219,-2.2936451904296873,1.6424223388671875,9.715670336914062,10.116946648786035
1.7333996518279033,-2.422932080078125,1.8770541015625,9.686939916992188,10.160252798049905
1.7358865953742848,-2.50912333984375,2.1787235107421874,9.634267480468749,10.191253404563497
1.7383735389206665,-2.442085693359375,2.4516625,9.629479077148437,10.232365261505098
1.740860482467048,-2.35589443359375,2.748543505859375,9.610325463867188,10.26952216548043
1.7433474260134294,-2.1883003173828124,2.987963671875,9.600748657226562,10.29033332612409
1.7458343695598109,-1.9728221679687499,3.2561142578125,9.548076220703125,10.279108272740162
1.7483213131061923,-1.7429788085937499,3.380612744140625,9.485826977539062,10.219952597779539
1.7508082566525738,-1.446097802734375,3.5817256835937497,9.447519750976562,10.206644266000483
1.7532952001989555,-1.1252747802734375,3.6918589599609373,9.481038574218749,10.2365110441589
1.755782143745337,-0.7948749511718749,3.768473413085937,9.485826977539062,10.23787729468096
1.7582690872917184,-0.49799394531249996,3.81156904296875,9.399635717773437,10.15525519943875
1.7607560308380998,-0.181959326171875,3.744531396484375,9.404424121093749,10.12412058526804
1.7632429743844813,0.076614453125,3.6679169433593746,9.404424121093749,10.09468560814156
1.765729917930863,0.37828386230468747,3.5817256835937497,9.337386474609374,10.007929042974542
1.7682168614772444,0.584185205078125,3.366247534179687,9.289502441406249,9.897865953027232
1.770703805023626,0.7757213378906249,3.2225954345703123,9.323021264648437,9.894725384267073
1.7731907485700074,0.9337386474609375,3.0933085449218747,9.390058911132812,9.930439666519987
1.7756776921163888,0.9959878906249999,2.825157958984375,9.356540087890625,9.824375389193387
1.7781646356627703,1.0534487304687499,2.6910826660156246,9.390058911132812,9.824707959914162
1.780651579209152,1.0199299072265624,2.4133552734375,9.414000927734374,9.771793804561547
1.7831385227555334,0.9720458740234375,2.2553379638671873,9.481038574218749,9.79395297917498
1.7856254663019149,0.8810662109374999,2.0302830078125,9.471461767578125,9.726608595731713
1.7881124098482963,0.70868369140625,1.867477294921875,9.4618849609375,9.670417314445595
1.7905993533946778,0.488417138671875,1.6807295654296874,9.533711010742186,9.693041256994869
1.7930862969410593,0.3016694091796875,1.5849614990234373,9.533711010742186,9.669268484335733
1.795573240487441,0.08140285644531249,1.5131354492187499,9.572018237304688,9.691219657401922
1.7980601840338224,-0.22026655273437498,1.5131354492187499,9.562441430664062,9.68392391320876
1.8005471275802039,-0.4644751220703125,1.446097802734375,9.595960253906249,9.715420175609694
1.8030340711265853,-0.7278373046875,1.5131354492187499,9.643844287109374,9.788925306885803
1.8055210146729668,-0.9959878906249999,1.5658078857421873,9.619902270507811,9.797258081088065
1.8080079582193482,-1.197100830078125,1.675941162109375,9.643844287109374,9.861316433937123
1.81049490176573,-1.4221557861328125,1.7812860351562498,9.643844287109374,9.90955294920441
1.8129818453121114,-1.5370774658203123,2.001552587890625,9.696516723632811,10.019543725625187
1.8154687888584928,-1.6807295654296874,2.1260510742187497,9.682151513671874,10.054302709586315
1.8179557324048743,-1.8004396484374998,2.2649147705078123,9.662997900390625,10.086870191902136
1.8204426759512558,-1.8243816650390623,2.5330653564453125,9.619902270507811,10.113718814257961
1.8229296194976372,-1.8100164550781248,2.70065947265625,9.619902270507811,10.154419769195227
1.825416563044019,-1.7669208251953124,2.916137622070312,9.581595043945311,10.170193283292118
1.8279035065904004,-1.66636435546875,3.1124621582031247,9.586383447265625,10.21581805091651
1.8303904501367818,-1.5753846923828123,3.2513258544921873,9.548076220703125,10.208756841919584
1.8328773936831633,-1.4413093994140624,3.366247534179687,9.509768994140625,10.190422050539839
1.8353643372295447,-1.20667763671875,3.5146880371093747,9.5384994140625,10.236799987751423
1.8378512807759262,-1.0295067138671874,3.5721488769531247,9.437942944335937,10.143712273795801
1.8403382243223079,-0.8475473876953125,3.5673604736328124,9.4618849609375,10.147495471161449
1.8428251678686893,-0.565031591796875,3.6631285400390623,9.514557397460937,10.211002588882046
1.8453121114150708,-0.3447650390625,3.6296097167968746,9.423577734375,10.104293490602611
1.8477990549614522,-0.08140285644531249,3.5865140869140624,9.437942944335937,10.096755753270996
1.8502859985078337,0.12449848632812499,3.5386300537109374,9.414000927734374,10.057873333737502
1.8527729420542152,0.32561142578124996,3.394977954101562,9.399635717773437,9.999252458872968
1.8552598856005968,0.43574470214843747,3.2417490478515623,9.414000927734374,9.966053572105691
1.8577468291469783,0.6607996582031249,3.1268273681640624,9.380482104492186,9.909952073107082
1.8602337726933598,0.7900865478515624,2.9448680419921875,9.375693701171874,9.859011964494051
1.8627207162397412,0.8667010009765624,2.8012159423828122,9.442731347656249,9.887525306413298
1.8652076597861227,0.8475473876953125,2.5570073730468748,9.3852705078125,9.764216598633007
1.8676946033325041,0.8379705810546875,2.346317626953125,9.452308154296874,9.775148620100426
1.8701815468788858,0.7709329345703124,2.2026655273437497,9.409212524414063,9.694294886403249
1.8726684904252673,0.7278373046875,2.0254946044921875,9.476250170898437,9.717597071106333
1.8751554339716487,0.5793968017578125,1.8722656982421875,9.4618849609375,9.662729765067256
1.8776423775180302,0.44053310546874996,1.7238251953125,9.504980590820312,9.67007232407695
1.8801293210644117,0.258573779296875,1.6041151123046875,9.504980590820312,9.642857549748156
1.8826162646107931,0.047884033203124995,1.5370774658203123,9.528922607421874,9.652215604450829
1.8851032081571748,-0.1484405029296875,1.4939818359375,9.586383447265625,9.703234713590595
1.8875901517035563,-0.4070142822265625,1.4891934326171874,9.576806640625,9.700442419684045
1.8900770952499377,-0.6512228515624999,1.4508862060546874,9.562441430664062,9.693783992858389
1.8925640387963192,-0.852335791015625,1.5131354492187499,9.581595043945311,9.737711167131936
1.8950509823427006,-1.0295067138671874,1.599326708984375,9.619902270507811,9.80613326903575
1.897537925889082,-1.2306196533203124,1.7429788085937499,9.605537060546874,9.839651522278855
1.9000248694354638,-1.39821376953125,1.8914193115234375,9.65342109375,9.935844582649631
1.9025118129818452,-1.5131354492187499,2.0254946044921875,9.639055883789062,9.965119447920227
1.9049987565282267,-1.6615759521484375,2.24097275390625,9.65342109375,10.048449250594123
1.9074857000746082,-1.7477672119140624,2.365471240234375,9.629479077148437,10.068615183462784
1.9099726436209896,-1.8004396484374998,2.528276953125,9.586383447265625,10.076334396861647
1.9124595871673713,-1.7525556152343749,2.73896669921875,9.624690673828125,10.159136790632996
1.9149465307137528,-1.7429788085937499,2.935291235351562,9.605537060546874,10.194128309231647
1.9174334742601342,-1.6519991455078125,3.1364041748046874,9.624690673828125,10.256744263720574
1.9199204178065157,-1.5322890624999999,3.2561142578125,9.557653027343749,10.212684329894863
1.9224073613528971,-1.37906015625,3.4428619873046875,9.581595043945311,10.274340327453691
1.9248943048992786,-1.22583125,3.5146880371093747,9.533711010742186,10.234614789430188
1.9273812484456603,-1.0103531005859374,3.5769372802734374,9.519345800781249,10.219258200560603
1.9298681919920417,-0.8044517578125,3.6391865234374996,9.5001921875,10.205119929841725
1.9323551355384232,-0.5698199951171875,3.6296097167968746,9.509768994140625,10.194825542647605
1.9348420790848047,-0.354341845703125,3.6343981201171873,9.471461767578125,10.151009597760304
1.9373290226311861,-0.17238251953125,3.5673604736328124,9.423577734375,10.077677996328614
1.9398159661775676,0.0526724365234375,3.5098996337890624,9.428366137695312,10.060629098186729
1.9423029097239493,0.2442085693359375,3.394977954101562,9.404424121093749,10.001435206188292
1.9447898532703307,0.45489831542968745,3.265691064453125,9.404424121093749,9.965684304413806
1.9472767968167122,0.612915625,3.2034418212890623,9.409212524414063,9.958463003663939
1.9497637403630936,0.6703764648437499,2.91134921875,9.394847314453125,9.858423552476316
1.952250683909475,0.7996633544921875,2.8012159423828122,9.433154541015625,9.87272388103005
1.9547376274558566,0.842758984375,2.5953145996093747,9.380482104492186,9.769306274725372
1.9572245710022382,0.8188169677734375,2.418143676757812,9.433154541015625,9.772527035666936
1.9597115145486197,0.7996633544921875,2.2026655273437497,9.418789331054686,9.705915174194333
1.9621984580950012,0.7278373046875,2.0542250244140625,9.471461767578125,9.71895959492156
1.9646854016413826,0.612915625,1.8435352783203125,9.4618849609375,9.659273000583218
1.967172345187764,0.44532150878906246,1.7573440185546874,9.481038574218749,9.652805897331822
1.9696592887341455,0.24899697265624998,1.62805712890625,9.495403784179686,9.637181254494923
1.9721462322805272,0.086191259765625,1.5514426757812498,9.519345800781249,9.645327769668944
1.9746331758269087,-0.1197100830078125,1.4987702392578124,9.548076220703125,9.665733404683534
1.9771201193732901,-0.3687070556640625,1.4604630126953124,9.533711010742186,9.651970925189028
1.9796070629196716,-4.912901806640625,-5.204994409179688,10.309432348632813,12.550416977627524
1.982094006466053,-5.971138940429687,-4.467580297851562,10.275913525390624,12.69677804582616
1.9845809500124345,-6.809109521484374,-3.5960908935546874,10.223241088867187,12.798847625914547
1.9870678935588162,-7.378929516601562,-2.5809493896484375,10.1131078125,12.78220834559306
1.9895548371051976,-7.704540942382812,-1.4604630126953124,10.09395419921875,12.78205048966049
1.992041780651579,-7.843404638671874,-0.38786066894531246,9.945513696289062,12.67212195756999
1.9945287241979606,-7.742848168945312,0.679953271484375,9.8449572265625,12.543413291906923
1.997015667744342,-7.369352709960937,1.8052280517578123,9.753977563476562,12.357438488273614
1.9995026112907235,-6.900089184570312,2.829946362304687,9.667786303710937,12.210074495381528
2.001989554837105,-0.22026655273437498,2.528276953125,12.023680737304687,12.288596346962834
2.0044764983834864,-0.24899697265624998,2.437297290039062,12.018892333984374,12.26605847484562
2.006963441929868,-0.296881005859375,2.39420166015625,11.9518546875,12.192914761952974
2.0094503854762498,-0.3495534423828125,2.346317626953125,11.659762084960937,11.89863210178066
2.011937329022631,-0.373495458984375,2.3415292236328122,11.214440576171874,11.462370409278291
2.0144242725690127,-0.469263525390625,2.3415292236328122,10.639832177734375,10.904540161407096
2.016911216115394,-0.507570751953125,2.3319524169921872,9.95987890625,10.24181712248943
2.0193981596617756,-0.55545478515625,2.370259643554687,9.236830004882812,9.552260954105073
2.021885103208157,-0.5889736083984375,2.398990063476562,8.542511523437499,8.892499444144576
2.0243720467545385,-0.6416460449218749,2.446874096679687,7.8529814453124995,8.250346663770458
2.02685899030092,-0.679953271484375,2.5234885498046875,7.3837179199218745,7.832599902546605
2.0293459338473014,-0.7038952880859375,2.6096798095703124,7.072471704101562,7.571377238678957
2.031832877393683,-0.718260498046875,2.6096798095703124,6.861781958007812,7.376339098141775
2.0343198209400644,-0.6655880615234374,2.6815058593749996,6.976703637695312,7.503857327384096
2.036806764486446,-0.612915625,2.7820623291015623,7.201758593749999,7.744731319356864
2.0392937080328277,-0.6081272216796875,2.849099975585937,7.666233715820312,8.201117532032557
2.041780651579209,-0.5506663818359374,2.829946362304687,8.264784130859374,8.753198650054204
2.0442675951255906,-0.44053310546874996,2.806004345703125,8.9255837890625,9.366630972804153
2.046754538671972,-0.3591302490234375,2.8107927490234372,9.677363110351562,10.08369412384765
2.0492414822183536,-0.36391865234375,2.7150246826171873,10.414777221679687,10.769000900267503
2.0517284257647352,-0.26336218261718747,2.6479870361328124,11.075576879882812,11.390768113035882
2.0542153693111165,-0.28730419921875,2.6192566162109374,11.602301245117188,11.897749497568915
2.056702312857498,-0.24899697265624998,2.5378537597656248,12.004527124023436,12.272382518067259
2.0591892564038794,-0.2537853759765625,2.4660277099609376,12.181698046874999,12.431390388391515
2.061676199950261,-0.22505495605468748,2.442085693359375,12.133814013671874,12.379171005577687
2.0641631434966423,-0.3399766357421875,2.3367408203125,11.899182250976562,12.13121923040388
2.066650087043024,-0.316034619140625,2.3223756103515623,11.559205615234374,11.794428380015585
2.0691370305894057,-0.37828386230468747,2.3032219970703123,10.946289990234375,11.19237217030304
2.071623974135787,-0.507570751953125,2.31758720703125,10.304643945312499,10.574238760785512
2.0741109176821686,-0.5602431884765625,2.375048046875,9.5001921875,9.808586914262175
2.07659786122855,-0.5889736083984375,2.4133552734375,8.805873706054687,9.149567493286431
2.0790848047749315,-0.6272808349609375,2.442085693359375,8.058882788085937,8.444101821492183
2.081571748321313,-0.718260498046875,2.480392919921875,7.4794859863281244,7.912708625997289
2.0840586918676944,-0.7278373046875,2.5378537597656248,7.091625317382812,7.567139386201113
2.086545635414076,-0.6943184814453125,2.6767174560546874,6.8569935546875,7.393595546298858
2.0890325789604574,-0.6943184814453125,2.6767174560546874,6.823474731445312,7.362520078335751
2.091519522506839,-0.6607996582031249,2.70065947265625,7.034164477539062,7.563708592522698
2.0940064660532203,-0.6081272216796875,2.77727392578125,7.4220251464843745,7.947925921372106
2.096493409599602,-0.5267243652343749,2.8012159423828122,7.920019091796875,8.41730073878902
2.0989803531459836,-0.469263525390625,2.8012159423828122,8.63827958984375,9.093233378971023
2.101467296692365,-0.3687070556640625,2.8012159423828122,9.394847314453125,9.810500074442851
2.1039542402387466,-0.3687070556640625,2.7629087158203123,10.151415039062499,10.527147607977984
2.106441183785128,-0.277727392578125,2.748543505859375,10.884040747070312,11.229156998282502
2.1089281273315095,-0.2346317626953125,2.6527754394531247,11.487379565429686,11.79203794415888
2.111415070877891,-0.2537853759765625,2.5665841796874997,11.942277880859374,12.217600515328073
2.1139020144242724,-0.2442085693359375,2.50912333984375,12.220005273437499,12.477334116017174
2.116388957970654,-0.28730419921875,2.379836450195312,12.196063256835936,12.429405625262639
2.1188759015170353,-0.32082302246093747,2.4133552734375,12.105083593749999,12.3474799007427
2.121362845063417,-0.3399766357421875,2.3367408203125,11.745953344726562,11.98095829851095
2.1238497886097982,-0.4213794921875,2.288856787109375,11.200075366210937,11.43932315642573
2.12633673215618,-0.47884033203125,2.2936451904296873,10.539275708007812,10.796593387386812
2.1288236757025616,-0.49799394531249996,2.379836450195312,9.821015209960937,10.117507561328047
2.131310619248943,-0.5506663818359374,2.427720483398437,9.064447485351561,9.400067469135148
2.1337975627953245,-0.6560112548828124,2.398990063476562,8.288726147460936,8.653813335102324
2.1362845063417057,-0.6703764648437499,2.50912333984375,7.6470801025390625,8.076071980475032
2.1387714498880874,-0.70868369140625,2.5761609863281247,7.173028173828125,7.6544869968193385
2.141258393434469,-0.679953271484375,2.6384102294921874,6.89530078125,7.414089145296149
2.1437453369808503,-0.6703764648437499,2.7054478759765623,6.789955908203124,7.3397788828809425
2.146232280527232,-0.6655880615234374,2.748543505859375,6.89530078125,7.452695601938344
2.1487192240736133,-0.6560112548828124,2.767697119140625,7.1778165771484375,7.720851567347941
2.151206167619995,-0.5698199951171875,2.786850732421875,7.723694555664062,8.230837710757658
2.153693111166376,-0.4836287353515625,2.7964275390625,8.379705810546875,8.847224039561672
2.156180054712758,-0.4836287353515625,2.7820623291015623,9.112331518554686,9.53982983394929
2.1586669982591395,-0.373495458984375,2.7341782958984373,9.897629663085937,10.275130303759786
2.161153941805521,-0.3112462158203125,2.70065947265625,10.649408984374999,10.990921140222842
2.1636408853519025,-0.277727392578125,2.6527754394531247,11.310208642578125,11.620463397618998
2.1661278288982837,-0.28730419921875,2.6048914062499997,11.832144604492187,12.11889635580969
2.1686147724446654,-0.2154781494140625,2.5522189697265625,12.205640063476562,12.471483546934229
2.171101715991047,-0.27293898925781246,2.4564509033203126,12.334926953124999,12.58010610731125
2.1735886595374283,-0.27293898925781246,2.3415292236328122,12.272677709960936,12.497034567030514
2.17607560308381,-0.33039982910156246,2.360682836914062,11.899182250976562,12.135589221192625
2.178562546630191,-0.373495458984375,2.3032219970703123,11.473014355468749,11.707877212648862
2.181049490176573,-0.43574470214843747,2.2936451904296873,10.807426293945312,11.056723963457358
2.1835364337229546,-0.5219359619140624,2.29843359375,10.103531005859374,10.374803753304418
2.186023377269336,-0.5458779785156249,2.3511060302734372,9.289502441406249,9.59794446441055
2.1885103208157175,-0.6272808349609375,2.528276953125,8.422801440429687,8.816419324335516
2.1909972643620987,-0.6703764648437499,2.43250888671875,7.8338278320312495,8.230149609240984
2.1934842079084804,-0.679953271484375,2.5330653564453125,7.307103466796875,7.763537700423733
2.1959711514548617,-0.737414111328125,2.6096798095703124,6.866570361328125,7.3826822230903755
2.1984580950012433,-0.699106884765625,2.6815058593749996,6.737283471679687,7.284930520461911
2.200945038547625,-0.6607996582031249,2.7246014892578123,6.789955908203124,7.345992832755132
2.2034319820940063,-0.5985504150390625,2.7820623291015623,7.038952880859375,7.592429852248089
2.205918925640388,-0.5793968017578125,2.829946362304687,7.484274389648437,8.02238494507439
2.208405869186769,-0.49320554199218747,2.829946362304687,8.10197841796875,8.596156257619143
2.210892812733151,-0.44532150878906246,2.829946362304687,8.839392529296875,9.292027117195747
2.2133797562795325,-0.39264907226562495,2.7724855224609373,9.595960253906249,9.996164387441567
2.2158666998259138,-0.32561142578124996,2.767697119140625,10.40041201171875,10.767299575910492
2.2183536433722955,-0.2920926025390625,2.6767174560546874,11.085153686523437,11.407487307985491
2.2208405869186767,-0.26815058593749996,2.6288334228515624,11.693280908203125,11.988139484506668
2.2233275304650584,-0.2537853759765625,2.5234885498046875,12.090718383789062,12.353860631970466
2.2258144740114396,-0.229843359375,2.4851813232421875,12.349292163085936,12.59896706514055
2.2283014175578213,-0.24899697265624998,2.39420166015625,12.349292163085936,12.581701713645202
2.230788361104203,-0.296881005859375,2.375048046875,12.109871997070313,12.344148060600721
2.233275304650584,-0.37828386230468747,2.3319524169921872,11.640608471679688,11.877915067322917
2.235762248196966,-0.44532150878906246,2.327164013671875,11.056423266601563,11.307453251858613
2.238249191743347,-0.5219359619140624,2.2649147705078123,10.371681591796875,10.628924456765217
2.240736135289729,-0.59376201171875,2.308010400390625,9.5384994140625,9.831705671293372
2.2432230788361105,-0.6368576416015624,2.360682836914062,8.810662109374999,9.143641392669728
2.2457100223824917,-0.6512228515624999,2.480392919921875,8.10197841796875,8.498146534676085
2.2481969659288734,-0.679953271484375,2.47081611328125,7.484274389648437,7.910855317637913
2.2506839094752547,-0.7134720947265625,2.5953145996093747,7.058106494140625,7.553910747654432
2.2531708530216363,-0.74699091796875,2.6767174560546874,6.7803791015625,7.327779508963214
2.2556577965680176,-0.6943184814453125,2.7581203125,6.775590698242187,7.348328729854678
2.2581447401143993,-0.6272808349609375,2.73896669921875,6.9336080078124995,7.4813327576936555
2.260631683660781,-0.603338818359375,2.81558115234375,7.321468676757812,7.867364141815124
2.263118627207162,-0.5410895751953124,2.786850732421875,7.857769848632812,8.354870551197566
2.265605570753544,-0.45489831542968745,2.868253588867187,8.595183959960938,9.072540902801158
2.268092514299925,-0.4261678955078125,2.7629087158203123,9.337386474609374,9.746900523927362
2.2705794578463068,-0.3447650390625,2.7341782958984373,10.151415039062499,10.518831740322979
2.2730664013926885,-0.27293898925781246,2.73896669921875,10.89840595703125,11.240626614007803
2.2755533449390697,-0.2825157958984375,2.6192566162109374,11.496956372070311,11.79492798696902
2.2780402884854514,-0.2537853759765625,2.5378537597656248,11.975796704101562,12.244378931615353
2.2805272320318326,-0.239420166015625,2.4899697265625,12.27746611328125,12.529702527109816
2.2830141755782143,-0.28730419921875,2.360682836914062,12.334926953124999,12.562077459493668
2.2855011191245955,-0.28730419921875,2.288856787109375,12.186486450195313,12.402897286343192
2.287988062670977,-0.3399766357421875,2.360682836914062,11.812990991210937,12.051355265188308
2.290475006217359,-0.4213794921875,2.308010400390625,11.295843432617186,11.536921233108437
2.29296194976374,-0.44053310546874996,2.308010400390625,10.611101757812499,10.868139764466443
2.295448893310122,-0.51714755859375,2.3367408203125,9.911994873046874,10.19683488254967
2.297935836856503,-0.565031591796875,2.3319524169921872,9.107543115234375,9.418312182694798
2.3004227804028847,-0.6368576416015624,2.370259643554687,8.322244970703125,8.676605314633353
2.3029097239492664,-0.679953271484375,2.47081611328125,7.68059892578125,8.09684312406784
2.3053966674956476,-0.70868369140625,2.5570073730468748,7.187393383789062,7.661536590894548
2.3078836110420293,-0.7326257080078125,2.6001030029296874,6.842628344726562,7.356550735088646
2.3103705545884106,-0.689530078125,2.7341782958984373,6.746860278320312,7.312407694978282
2.3128574981347922,-0.6703764648437499,2.7341782958984373,6.813897924804687,7.372539622683361
2.315344441681174,-0.6560112548828124,2.8107927490234372,7.168239770507812,7.727520174802881
2.317831385227555,-0.5363011718749999,2.806004345703125,7.656656909179687,8.172250262929321
2.320318328773937,-0.507570751953125,2.8107927490234372,8.303091357421874,8.780632667176938
2.322805272320318,-0.43574470214843747,2.8203695556640622,9.093177905273437,9.530490139175432
2.3252922158666998,-0.3447650390625,2.77727392578125,9.878476049804688,10.267249020918358
2.327779159413081,-0.45010991210937495,2.9448680419921875,10.409988818359375,10.827867468531984
2.3302661029594627,-0.2537853759765625,2.6240450195312497,11.329362255859374,11.632044893572123
2.3327530465058444,-0.19153613281249998,2.6527754394531247,11.880028637695311,12.174111222376737
2.3352399900522256,-0.27293898925781246,2.50912333984375,12.181698046874999,12.440416509572493
2.3377269335986073,-0.26336218261718747,2.418143676757812,12.330138549804687,12.567780040168442
2.3402138771449885,-0.3112462158203125,2.3367408203125,12.243947290039062,12.46882019717311
2.34270082069137,-0.33039982910156246,2.3127988037109373,11.975796704101562,12.201553550736355
2.345187764237752,-0.36391865234375,2.346317626953125,11.511321582031249,11.753644871145845
2.347674707784133,-0.44053310546874996,2.2936451904296873,10.855310327148437,11.103721897422085
2.350161651330515,-0.55545478515625,2.3367408203125,10.117896215820313,10.399072627584573
2.352648594876896,-0.603338818359375,2.3319524169921872,9.3086560546875,9.615253368961488
2.3551355384232777,-0.6607996582031249,2.379836450195312,8.571241943359375,8.920003709055427
2.357622481969659,-0.6943184814453125,2.4564509033203126,7.8529814453124995,8.257454012861476
2.3601094255160406,-0.70868369140625,2.5234885498046875,7.259219433593749,7.717933260953071
2.3625963690624223,-0.6943184814453125,2.5905261962890624,6.904877587890625,7.4074448112078874
2.3650833126088036,-0.6847416748046875,2.6479870361328124,6.7085530517578125,7.244680155327137
2.3675702561551852,-0.6847416748046875,2.6431986328124997,6.76122548828125,7.291744666203022
2.3700571997015665,-0.6416460449218749,2.729389892578125,7.038952880859375,7.57681572242786
2.372544143247948,-0.5746083984375,2.834734765625,7.493851196289062,8.032664673389581
2.37503108679433,-0.5410895751953124,2.858676782226562,8.092401611328125,8.599521772322708
2.377518030340711,-0.45010991210937495,2.81558115234375,8.815450512695312,9.265110031736942
2.3800049738870928,-0.4070142822265625,2.7724855224609373,9.567229833984374,9.969163620608931
2.382491917433474,-0.3064578125,2.786850732421875,10.366893188476562,10.739316913888162
2.3849788609798557,-0.27293898925781246,2.6767174560546874,11.099518896484375,11.420973328259667
2.387465804526237,-0.26815058593749996,2.6096798095703124,11.669338891601562,11.96059378175943
2.3899527480726186,-0.2442085693359375,2.5139117431640625,12.114660400390624,12.375151986725173
2.3924396916190003,-0.26815058593749996,2.446874096679687,12.272677709960936,12.517096937961002
2.3949266351653815,-0.296881005859375,2.398990063476562,12.310984936523436,12.546060806627963
2.397413578711763,-0.2825157958984375,2.398990063476562,12.119448803710936,12.357831840794804
2.3999005222581444,-0.3687070556640625,2.29843359375,11.702857714843748,11.9321255680475
2.402387465804526,-0.4165910888671875,2.288856787109375,11.061211669921875,11.303221537864152
2.404874409350908,-0.5027823486328125,2.3127988037109373,10.381258398437499,10.647645483001046
2.407361352897289,-0.565031591796875,2.379836450195312,9.581595043945311,9.888874850839406
2.4098482964436707,-0.6272808349609375,2.346317626953125,8.75320126953125,9.083898949095797
2.412335239990052,-0.6512228515624999,2.427720483398437,8.0828248046875,8.464630811274704
2.4148221835364336,-0.7038952880859375,2.4564509033203126,7.498639599609374,7.922071412316516
2.417309127082815,-0.7326257080078125,2.5665841796874997,7.024587670898437,7.514580941449392
2.4197960706291965,-0.7134720947265625,2.6384102294921874,6.766013891601562,7.297204598364215
2.4222830141755782,-0.6847416748046875,2.6958710693359373,6.7277066650390625,7.280015724880534
2.4247699577219595,-0.6368576416015624,2.8012159423828122,6.900089184570312,7.474197560042826
2.427256901268341,-0.622492431640625,2.7820623291015623,7.326257080078125,7.861387309746971
2.4297438448147224,-0.51714755859375,2.825157958984375,7.881711865234375,8.388703178510285
2.432230788361104,-0.43574470214843747,2.849099975585937,8.595183959960938,9.065562940154573
2.4347177319074857,-0.38786066894531246,2.7581203125,9.323021264648437,9.730179292172716
2.437204675453867,-0.3447650390625,2.748543505859375,10.098742602539062,10.471769501287685
2.4396916190002487,-0.27293898925781246,2.7533319091796873,10.850521923828124,11.197730051820276
2.44217856254663,-0.2825157958984375,2.6192566162109374,11.477802758789062,11.77625902254883
2.4446655060930116,-0.239420166015625,2.5330653564453125,11.980585107421874,12.24778190661873
2.4471524496393933,-0.277727392578125,2.4851813232421875,12.27746611328125,12.529542404922434
2.4496393931857745,-0.24899697265624998,2.403778466796875,12.349292163085936,12.583527619037676
2.452126336732156,-0.3016694091796875,2.35589443359375,12.176909643554687,12.406384303332215
2.4546132802785374,-0.3064578125,2.370259643554687,11.841721411132811,12.0804972226969
2.457100223824919,-0.4213794921875,2.269703173828125,11.238382592773437,11.473027345704125
2.4595871673713003,-0.488417138671875,2.2744915771484373,10.611101757812499,10.863118509457545
2.462074110917682,-0.51714755859375,2.3367408203125,9.8449572265625,10.131682093883493
2.4645610544640637,-0.5985504150390625,2.365471240234375,9.035717065429687,9.359374961727767
2.467047998010445,-0.63206923828125,2.389413256835937,8.317456567382813,8.676917135954696
2.4695349415568266,-0.689530078125,2.418143676757812,7.666233715820312,8.068085891688497
2.472021885103208,-0.7230489013671875,2.5617957763671875,7.115567333984375,7.597163667978107
2.4745088286495895,-0.7326257080078125,2.6048914062499997,6.813897924804687,7.331534941337091
2.4769957721959712,-0.699106884765625,2.6862942626953124,6.7277066650390625,7.277840632559047
2.4794827157423525,-0.6703764648437499,2.73896669921875,6.833051538085937,7.39201843248407
2.481969659288734,-0.59376201171875,2.7629087158203123,7.168239770507812,7.705185222044051
2.4844566028351154,-0.5746083984375,2.806004345703125,7.685387329101562,8.201768931027901
2.486943546381497,-0.469263525390625,2.849099975585937,8.346186987304687,8.831557968682532
2.4894304899278783,-0.44532150878906246,2.767697119140625,9.074024291992187,9.497177235429156
2.49191743347426,-0.3447650390625,2.786850732421875,9.8449572265625,10.237606298828124
2.4944043770206417,-0.33039982910156246,2.6862942626953124,10.644620581054687,10.98331863452359
2.496891320567023,-0.2537853759765625,2.70065947265625,11.295843432617186,11.616972387782813
2.4993782641134046,-0.239420166015625,2.5857377929687497,11.803414184570311,12.085691885961575
2.501865207659786,-0.239420166015625,2.50912333984375,12.181698046874999,12.439726253245357
2.5043521512061675,1.197100830078125,3.5098996337890624,2.3127988037109373,4.37052447002566
2.506839094752549,1.2737152832031249,2.959233251953125,7.134720947265625,7.828387768722316
2.5093260382989304,1.1109095703125,2.4756045166015626,11.903970654296874,12.20931018257752
2.511812981845312,0.9241618408203125,2.0254946044921875,16.136919189453124,16.289777912169207
2.5142999253916933,0.5985504150390625,1.6328455322265625,19.656395629882812,19.733178565297884
2.516786868938075,0.22026655273437498,1.2641384765625,22.132000146484373,22.169167641708235
2.5192738124844563,-0.17238251953125,1.120486376953125,23.482329882812497,23.509679329569902
2.521760756030838,-0.6272808349609375,1.01514150390625,23.630770385742185,23.660881271468572
2.5242476995772196,-1.0199299072265624,1.0821791503906248,22.66351291503906,22.712247497316014
2.526734643123601,-1.3646949462890625,1.2832920898437499,20.72899797363281,20.813471307668877
2.5292215866699825,-1.599326708984375,1.5275006591796874,17.90862841796875,18.044668907983407
2.5317085302163638,-1.7621324218749999,1.8291700683593748,14.628572143554686,14.847427277827936
2.5341954737627455,-1.7669208251953124,2.2457611572265623,11.113884106445312,11.475359354256152
2.536682417309127,-1.7717092285156248,2.6192566162109374,7.704540942382812,8.328229700532114
2.5391693608555084,-1.5801730957031248,2.96881005859375,4.6064439941406246,5.703517024393427
2.54165630440189,-1.3072341064453123,3.2609026611328122,2.0877438476562498,4.086688335053635
2.5441432479482713,-1.0438719238281249,3.5242648437499997,0.296881005859375,3.6875804552428297
2.546630191494653,-0.699106884765625,3.687070556640625,-0.603338818359375,3.800954808428034
2.549117135041034,-0.40222587890625,3.687070556640625,-0.6943184814453125,3.7733742328299003
2.551604078587416,-0.09576806640624999,3.7110125732421873,0.15322890625,3.715409121350617
2.5540910221337976,0.181959326171875,3.5769372802734374,1.5945383056640625,3.9204772555928544
2.556577965680179,0.373495458984375,3.31357509765625,3.6727053466796873,4.960649488647544
2.5590649092265605,0.5267243652343749,3.1172505615234374,6.100425830078125,6.870944980752948
2.5615518527729417,0.5363011718749999,2.7964275390625,8.63827958984375,9.095465914426414
2.5640387963193234,0.4836287353515625,2.47081611328125,11.142614526367186,11.4235146737997
2.566525739865705,0.3399766357421875,2.1787235107421874,13.335703247070311,13.516782211126767
2.5690126834120863,0.229843359375,1.9728221679687499,15.107412475585937,15.237413395447645
2.571499626958468,-0.033518823242187495,1.8004396484374998,16.347608935546873,16.44648972725637
2.5739865705048492,-0.296881005859375,1.637633935546875,16.922217333984374,17.00386493527563
2.576473514051231,-0.5219359619140624,1.6041151123046875,16.87433330078125,16.958441166207418
2.5789604575976126,-0.7709329345703124,1.6998831787109374,16.18959162597656,16.2968345830336
2.581447401143994,-1.0438719238281249,1.7621324218749999,14.9781255859375,15.117507246027543
2.5839343446903755,-1.1923124267578125,1.944091748046875,13.417106103515625,13.609549509106511
2.5864212882367568,-1.2785036865234374,2.1739351074218747,11.678915698242188,11.948122756918059
2.5889082317831384,-1.2928688964843749,2.3511060302734372,9.758765966796874,10.120905233416513
2.5913951753295197,-1.2641384765625,2.6048914062499997,7.9295958984374995,8.441682085864029
2.5938821188759014,-1.1348515869140625,2.863465185546875,6.363788012695312,7.070015478320038
2.596369062422283,-0.9959878906249999,2.9975404785156248,5.137956762695312,6.03123871969414
2.5988560059686643,-0.86191259765625,3.1411925781249996,4.395754248046875,5.471072979598086
2.601342949515046,-0.63206923828125,3.246537451171875,4.103661645507812,5.270631446482945
2.603829893061427,-0.411802685546875,3.2800562744140622,4.276044165039062,5.404896328007715
2.606316836607809,-0.239420166015625,3.2704794677734372,4.88417138671875,5.882897933830293
2.6088037801541906,-0.0383072265625,3.1699229980468746,5.8610056640625,6.663427545289744
2.611290723700572,0.086191259765625,3.0502129150390624,7.125144140624999,7.751058429983214
2.6137776672469535,0.16280571289062498,2.882618798828125,8.437166650390624,8.917498411884965
2.6162646107933347,0.1867477294921875,2.6767174560546874,9.859322436523437,10.217921998202609
2.6187515543397164,0.1580173095703125,2.47081611328125,11.161768139648437,11.433064757056396
2.6212384978860976,0.08140285644531249,2.346317626953125,12.253524096679687,12.476405156113605
2.6237254414324793,-0.033518823242187495,2.1404162841796874,13.053187451171874,13.22755487671565
2.626212384978861,-0.16280571289062498,2.0829554443359375,13.5224509765625,13.682905009418674
2.6286993285252422,-0.316034619140625,2.0302830078125,13.589488623046874,13.743948777852308
2.631186272071624,-0.5123591552734374,1.9488801513671874,13.306972827148437,13.458683872164185
2.633673215618005,-0.6560112548828124,2.039859814453125,12.741941235351561,12.920853117124508
2.636160159164387,-0.8044517578125,2.039859814453125,11.85608662109375,12.057153920397075
2.6386471027107685,-0.9050082275390624,2.1978771240234374,10.864887133789061,11.121846796921544
2.6411340462571498,-0.9816226806640624,2.365471240234375,9.773131176757811,10.103124777695541
2.6436209898035314,-1.005564697265625,2.4947581298828125,8.729259252929687,9.134273128818837
2.6461079333499127,-1.0103531005859374,2.6623522460937497,7.733271362304687,8.240899151984925
2.6485948768962944,-0.8906430175781249,2.7724855224609373,7.029376074218749,7.608682471349107
2.6510818204426756,-0.852335791015625,2.868253588867187,6.497863305664062,7.1537110991282855
2.6535687639890573,-0.6655880615234374,2.987963671875,6.315903979492187,7.0186592345157
2.656055707535439,-0.5315127685546874,3.0214824951171875,6.3973068359375,7.094885273531132
2.65854265108182,-0.47884033203125,3.0406361083984375,6.756437084960937,7.424567198854869
2.661029594628202,-0.27293898925781246,3.0358477050781247,7.369352709960937,7.9748496126318145
2.663516538174583,-0.17238251953125,2.906560815429687,8.130708837890625,8.63633242258448
2.666003481720965,-0.06703764648437499,2.863465185546875,9.02135185546875,9.465131600514312
2.6684904252673465,-0.0430956298828125,2.7054478759765623,9.907206469726562,10.270055767946586
2.6709773688137277,-0.023942016601562498,2.5713725830078125,10.726023437499999,11.029964141492144
2.6734643123601094,-0.08140285644531249,2.4756045166015626,11.425130322265625,11.690545198082464
2.6759512559064906,-0.0909796630859375,2.365471240234375,11.89439384765625,12.127668221493943
2.6784381994528723,-0.16759411621093748,2.2553379638671873,12.23915888671875,12.446350765320558
2.6809251429992536,-0.2442085693359375,2.24097275390625,12.287042919921875,12.492118332176075
2.6834120865456352,-0.39264907226562495,2.1452046874999997,11.961431494140625,12.158615045894093
2.685899030092017,-0.49799394531249996,2.1547814941406247,11.578359228515625,11.787683558766402
2.688385973638398,-0.6177040283203125,2.1739351074218747,10.912771166992187,11.144331593281873
2.69087291718478,-0.7278373046875,2.29843359375,10.199299072265624,10.480374310705306
2.693359860731161,-0.7613561279296874,2.3415292236328122,9.433154541015625,9.749196215757804
2.6958468042775428,-0.86191259765625,2.403778466796875,8.619125976562499,8.989459207499044
2.6983337478239244,-0.8379705810546875,2.5570073730468748,7.953537915039062,8.396382957350928
2.7008206913703057,-0.852335791015625,2.6479870361328124,7.445967163085937,7.948631243046044
2.7033076349166874,-0.7661445312499999,2.767697119140625,7.1395093505859375,7.695434916440242
2.7057945784630686,-0.718260498046875,2.825157958984375,7.019799267578125,7.6009866065766545
2.7082815220094503,-0.622492431640625,2.882618798828125,7.125144140624999,7.711333671388492
2.7107684655558315,-0.5363011718749999,2.978386865234375,7.474697583007812,8.064087748987976
2.713255409102213,-0.44053310546874996,2.916137622070312,7.953537915039062,8.482729125336476
2.715742352648595,-0.3399766357421875,2.868253588867187,8.628702783203124,9.099284284148803
2.718229296194976,-0.26336218261718747,2.849099975585937,9.370905297851563,9.797989406578226
2.720716239741358,-0.2154781494140625,2.7150246826171873,10.036493359375,10.399470602529435
2.723203183287739,-0.12449848632812499,2.6240450195312497,10.773907470703124,11.089553387079992
2.7256901268341207,-0.1580173095703125,2.5522189697265625,11.286266625976562,11.572320661483086
2.7281770703805024,-0.12449848632812499,2.4564509033203126,11.6837041015625,11.939790301608715
2.7306640139268836,-0.16280571289062498,2.384624853515625,11.942277880859374,12.179119113294577
2.7331509574732653,-0.24899697265624998,2.2936451904296873,11.961431494140625,12.18189850314771
2.7356379010196465,-0.3495534423828125,2.1787235107421874,11.698069311523437,11.904362618911978
2.7381248445660282,-0.430956298828125,2.212242333984375,11.281478222656249,11.504411778271825
2.74061178811241,-0.507570751953125,2.2553379638671873,10.754753857421875,11.00040489860394
2.743098731658791,-0.5889736083984375,2.231395947265625,10.05564697265625,10.317075836861632
2.745585675205173,-0.699106884765625,2.3127988037109373,9.318232861328125,9.626383142214358
2.748072618751554,-0.7661445312499999,2.360682836914062,8.623914379882812,8.97394562780578
2.7505595622979357,-0.7805097412109374,2.4947581298828125,8.015787158203125,8.431242930218277
2.753046505844317,-0.7709329345703124,2.5617957763671875,7.52737001953125,7.988644102747089
2.7555334493906987,-0.7996633544921875,2.6575638427734374,7.1586629638671875,7.67779672101171
2.7580203929370803,-0.7134720947265625,2.8012159423828122,7.077260107421875,7.644832490899865
2.7605073364834616,-0.6512228515624999,2.8012159423828122,7.149086157226562,7.705863666176898
2.7629942800298433,-0.6368576416015624,2.8107927490234372,7.3837179199218745,7.926249671477959
2.7654812235762245,-0.5123591552734374,2.858676782226562,7.876923461914062,8.395264622040566
2.767968167122606,-0.45010991210937495,2.868253588867187,8.494627490234375,8.97709161036436
2.770455110668988,-0.3687070556640625,2.844311572265625,9.165003955078124,9.603298949299573
2.772942054215369,-0.32082302246093747,2.767697119140625,9.840168823242188,10.227022891582273
2.775428997761751,-0.229843359375,2.7437551025390623,10.572794531249999,10.925429247063375
2.777915941308132,-0.15322890625,2.6479870361328124,11.180921752929686,11.491228206174231
2.7804028848545137,-0.16759411621093748,2.5426421630859375,11.640608471679688,11.91624448172459
2.782889828400895,-0.201112939453125,2.480392919921875,11.918335864257811,12.17536550682845
2.7853767719472766,-0.19632453613281248,2.375048046875,12.038045947265624,12.271672533804464
2.7878637154936583,-0.2825157958984375,2.3367408203125,11.899182250976562,12.129744889246538
2.7903506590400395,-0.33518823242187495,2.2840683837890623,11.6070896484375,11.834434910034522
2.792837602586421,-0.4213794921875,2.2170307373046874,11.061211669921875,11.289073902380382
2.7953245461328025,-0.5027823486328125,2.2601263671875,10.496180078124999,10.748523504099575
2.797811489679184,-0.565031591796875,2.27927998046875,9.734823950195311,10.014048894947058
2.800298433225566,-0.612915625,2.3319524169921872,9.0021982421875,9.319508615271975
2.802785376771947,-0.679953271484375,2.418143676757812,8.322244970703125,8.693072911533616
2.8052723203183287,-0.7565677246093749,2.480392919921875,7.714117749023437,8.138326388448524
2.80775926386471,-0.74699091796875,2.528276953125,7.287949853515625,7.750122118430731
2.8102462074110917,-0.7326257080078125,2.6288334228515624,7.029376074218749,7.540532712344295
2.812733150957473,-0.7230489013671875,2.767697119140625,6.981492041015625,7.544811341301526
2.8152200945038546,-0.603338818359375,2.806004345703125,7.105990527343749,7.663731434004143
2.8177070380502363,-0.603338818359375,2.85388837890625,7.4699091796875,8.019241844574523
2.8201939815966175,-0.5123591552734374,2.863465185546875,7.967903124999999,8.482300689212584
2.822680925142999,-0.4165910888671875,2.877830395507812,8.628702783203124,9.105491070858811
2.8251678686893804,-0.36391865234375,2.786850732421875,9.351751684570312,9.764949224659988
2.827654812235762,-0.296881005859375,2.7581203125,10.065223779296874,10.440502656346982
2.8301417557821438,-0.2537853759765625,2.73896669921875,10.82179150390625,11.165908693451971
2.832628699328525,-0.22505495605468748,2.6336218261718747,11.348515869140625,11.652271284546643
2.8351156428749067,-0.181959326171875,2.5665841796874997,11.827356201171874,12.104000093241979
2.837602586421288,-0.201112939453125,2.47081611328125,12.081141577148436,12.332856947486675
2.8400895299676696,-0.239420166015625,2.365471240234375,12.129025610351562,12.359855923951338
2.842576473514051,-0.2537853759765625,2.403778466796875,12.033257543945313,12.27362395763422
2.8450634170604325,-0.3399766357421875,2.29843359375,11.645396875,11.874916819666103
2.847550360606814,-0.45010991210937495,2.2744915771484373,11.037269653320312,11.278175041539468
2.8500373041531954,-0.4836287353515625,2.31758720703125,10.429142431640624,10.694490126943855
2.852524247699577,-0.5698199951171875,2.2744915771484373,9.706093530273437,9.98530211760117
2.8550111912459584,-0.6081272216796875,2.346317626953125,8.949525805664061,9.27194894671804
2.85749813479234,-0.6607996582031249,2.4133552734375,8.279149340820313,8.649003044959308
2.8599850783387217,-0.737414111328125,2.4660277099609376,7.594407666015624,8.018734316306901
2.862472021885103,-0.689530078125,2.5617957763671875,7.220912207031249,7.69284228553431
2.8649589654314846,-0.737414111328125,2.6527754394531247,6.928819604492187,7.455839202621449
2.867445908977866,-0.718260498046875,2.6767174560546874,6.861781958007812,7.4003220282528215
2.8699328525242476,-0.6416460449218749,2.806004345703125,7.067683300781249,7.631350946930095
2.8724197960706292,-0.5793968017578125,2.8107927490234372,7.4028715332031245,7.939695426712481
2.8749067396170105,-0.49799394531249996,2.8730419921875,7.881711865234375,8.403793797150009
2.877393683163392,-0.469263525390625,2.839523168945312,8.580818749999999,9.050610504468237
2.8798806267097734,-0.3591302490234375,2.8107927490234372,9.337386474609374,9.757884842010816
2.882367570256155,-0.3495534423828125,2.7724855224609373,10.065223779296874,10.445936688907338
2.8848545138025363,-0.2920926025390625,2.729389892578125,10.764330664062498,11.108811904044547
2.887341457348918,-0.2825157958984375,2.5761609863281247,11.382034692382812,11.673351461384906
2.8898284008952997,-0.2059013427734375,2.5665841796874997,11.846509814453125,12.123099624201405
2.892315344441681,-0.229843359375,2.4660277099609376,12.152967626953124,12.402771576462843
2.8948022879880626,-0.2442085693359375,2.39420166015625,12.196063256835936,12.431242833263923
2.897289231534444,-0.258573779296875,2.346317626953125,12.066776367187499,12.295493430586898
2.8997761750808255,-0.296881005859375,2.360682836914062,11.669338891601562,11.909426180768973
2.902263118627207,-0.4070142822265625,2.288856787109375,11.171344946289063,11.410673684178828
2.9047500621735884,-0.4213794921875,2.346317626953125,10.568006127929687,10.833536846429542
2.90723700571997,-0.565031591796875,2.3032219970703123,9.801861596679688,10.084670695068885
2.9097239492663514,-0.603338818359375,2.3511060302734372,9.050082275390624,9.369936311772186
2.912210892812733,-0.6655880615234374,2.418143676757812,8.288726147460936,8.659873408814295
2.9146978363591143,-0.7230489013671875,2.499546533203125,7.666233715820312,8.095781121732243
2.917184779905496,-0.7038952880859375,2.5426421630859375,7.168239770507812,7.638334841677327
2.9196717234518776,-0.7038952880859375,2.6336218261718747,6.885723974609375,7.4057158434812225
2.922158666998259,-0.70868369140625,2.6767174560546874,6.794744311523437,7.3372746420583965
2.9246456105446406,-0.679953271484375,2.729389892578125,6.976703637695312,7.522386541872263
2.927132554091022,-0.612915625,2.839523168945312,7.264007836914062,7.823322008270865
2.9296194976374035,-0.5458779785156249,2.806004345703125,7.771578588867187,8.280644716353432
2.932106441183785,-0.45968671875,2.858676782226562,8.461108666992187,8.942801837192114
2.9345933847301664,-0.411802685546875,2.806004345703125,9.112331518554686,9.543470414056598
2.937080328276548,-0.3495534423828125,2.748543505859375,9.911994873046874,10.291954205882911
2.9395672718229293,-0.3112462158203125,2.7054478759765623,10.654197387695312,10.996737897779603
2.942054215369311,-0.258573779296875,2.6623522460937497,11.295843432617186,11.608232369134463
2.9445411589156922,-0.19632453613281248,2.5905261962890624,11.822567797851562,12.104646985019611
2.947028102462074,-0.2537853759765625,2.5043349365234375,12.167332836914062,12.424978424753848
2.9495150460084556,-0.2154781494140625,2.408566870117187,12.220005273437499,12.45697210735985
2.952001989554837,-0.2825157958984375,2.3127988037109373,12.16254443359375,12.383712713904549
2.9544889331012185,-0.33518823242187495,2.308010400390625,11.846509814453125,12.07389986472472
2.9569758766475998,-0.3495534423828125,2.370259643554687,11.314997045898437,11.565875519632572
2.9594628201939814,-0.45489831542968745,2.3032219970703123,10.730811840820312,10.984629570825716
2.961949763740363,-0.5267243652343749,2.2936451904296873,9.993397729492187,10.266754355507508
2.9644367072867444,-0.6177040283203125,2.31758720703125,9.208099584960937,9.515349005441463
2.966923650833126,-0.6512228515624999,2.389413256835937,8.465897070312499,8.820702926607735
2.9694105943795073,-0.6703764648437499,2.480392919921875,7.738059765625,8.153485302507107
2.971897537925889,-0.718260498046875,2.5522189697265625,7.235277416992187,7.705774400624755
2.97438448147227,-0.7230489013671875,2.6144682128906247,6.9336080078124995,7.445345106574
2.976871425018652,-0.7134720947265625,2.7198130859375,6.785167504882812,7.344720806246349
2.9793583685650336,-0.6751648681640625,2.7437551025390623,6.828263134765624,7.389804943265513
2.981845312111415,-0.5985504150390625,2.7629087158203123,7.153874560546875,7.6921939912705675
2.9843322556577965,-0.5698199951171875,2.844311572265625,7.589619262695312,8.125092227146425
2.9868191992041777,-0.4836287353515625,2.844311572265625,8.226476904296874,8.717736365061276
2.9893061427505594,-0.4261678955078125,2.81558115234375,8.959102612304687,9.400778474062644
2.991793086296941,-0.38307226562499996,2.7341782958984373,9.696516723632811,10.081910130830563
2.9942800298433223,-0.32082302246093747,2.73896669921875,10.520122094726561,10.875561359264367
2.996766973389704,-0.27293898925781246,2.6671406494140624,11.171344946289063,11.48856313228909
2.9992539169360852,-0.2442085693359375,2.5857377929687497,11.722011328125,12.006299485520708
3.001740860482467,-7.513004809570312,2.0063409912109376,9.782707983398437,12.496880447939295
3.0042278040288486,-6.957550024414062,3.0645781249999997,9.658209497070311,12.291466638109213
3.00671474757523,-6.282385156249999,3.9743747558593747,9.572018237304688,12.119717450781438
3.0092016911216115,-5.487510205078125,4.802768530273437,9.519345800781249,11.991551120729671
3.0116886346679927,-4.6255976074218745,5.45877978515625,9.394847314453125,11.809216148013576
3.0141755782143744,-3.6583401367187496,5.947196923828125,9.303867651367186,11.63247854418287
3.0166625217607557,-2.6527754394531247,6.469132885742187,9.265560424804686,11.607648677112154
3.0191494653071373,-1.7429788085937499,6.679822631835937,9.188945971679686,11.493247303979969
3.021636408853519,-0.814028564453125,6.7803791015625,9.145850341796875,11.414147438122441
3.0241233523999003,0.086191259765625,6.76122548828125,9.165003955078124,11.389420377404711
3.026610295946282,0.7996633544921875,6.617573388671874,9.150638745117186,11.32103919605509
3.029097239492663,1.5131354492187499,6.373364819335937,9.121908325195312,11.230252423756957
3.031584183039045,2.1260510742187497,6.004657763671875,9.117119921875,11.121955030427952
3.0340711265854265,2.5713725830078125,5.540182641601562,9.169792358398437,11.017743533005744
3.036558070131808,2.9496564453125,5.027823486328125,9.184157568359375,10.87787812008845
3.0390450136781895,3.1747114013671873,4.5585599609375,9.188945971679686,10.737597006308333
3.0415319572245707,3.289633081054687,4.00310517578125,9.246406811523437,10.599178070988478
3.0440189007709524,3.2800562744140622,3.4715924072265625,9.303867651367186,10.458139235991887
3.0465058443173336,3.1938650146484373,2.901772412109375,9.356540087890625,10.30368377231069
3.0489927878637153,2.925714428710937,2.3511060302734372,9.342174877929686,10.067955896495377
3.051479731410097,2.6623522460937497,1.8100164550781248,9.418789331054686,9.953786792609312
3.0539666749564782,2.3032219970703123,1.407790576171875,9.485826977539062,9.862434756283804
3.05645361850286,1.9009961181640624,1.0295067138671874,9.524134204101562,9.766411964120177
3.058940562049241,1.4317325927734375,0.699106884765625,9.548076220703125,9.680101661134191
3.061427505595623,0.9864110839843749,0.49320554199218747,9.610325463867188,9.67339723441114
3.0639144491420045,0.4165910888671875,0.32561142578124996,9.634267480468749,9.648765766725841
3.0664013926883857,-0.05746083984375,0.19153613281249998,9.65342109375,9.655492046060923
3.0688883362347674,-0.5458779785156249,0.239420166015625,9.672574707031249,9.690923910877842
3.0713752797811487,-1.005564697265625,0.277727392578125,9.706093530273437,9.76199490285623
3.0738622233275303,-1.426944189453125,0.38307226562499996,9.758765966796874,9.869976052413604
3.0763491668739116,-1.7860744384765623,0.584185205078125,9.710881933593749,9.89103443436575
3.0788361104202933,-2.0973206542968748,0.8092401611328125,9.701305126953125,9.958360544365599
3.081323053966675,-2.389413256835937,1.1061211669921875,9.701305126953125,10.052269440989853
3.083809997513056,-2.5570073730468748,1.3838485595703125,9.696516723632811,10.12303117219994
3.086296941059438,-2.6958710693359373,1.6998831787109374,9.706093530273437,10.21594710548967
3.088783884605819,-2.73896669921875,2.01112939453125,9.634267480468749,10.215952716521086
3.091270828152201,-2.729389892578125,2.403778466796875,9.624690673828125,10.288945070803813
3.0937577716985825,-2.6575638427734374,2.7533319091796873,9.658209497070311,10.388671371730984
3.0962447152449637,-2.5426421630859375,3.0358477050781247,9.610325463867188,10.394217429868615
3.0987316587913454,-2.3319524169921872,3.356670727539062,9.619902270507811,10.452165332712388
3.1012186023377266,-2.1308394775390624,3.5529952636718747,9.5384994140625,10.399385717184662
3.1037055458841083,-1.848323681640625,3.782838623046875,9.552864624023437,10.439511052010396
3.1061924894304895,-1.5370774658203123,3.9695863525390624,9.457096557617186,10.370964190772805
3.108679432976871,-1.216254443359375,4.084508032226562,9.514557397460937,10.42541525340326
3.111166376523253,-0.9193734375,4.199429711914062,9.442731347656249,10.375241333429175
3.113653320069634,-0.55545478515625,4.185064501953125,9.414000927734374,10.317301409343665
3.116140263616016,-0.26336218261718747,4.13718046875,9.394847314453125,10.268825538109335
3.118627207162397,0.05746083984375,4.084508032226562,9.3852705078125,10.235712487084324
3.1211141507087787,0.316034619140625,3.9408559326171875,9.34696328125,10.148691834082618
3.1236010942551604,0.565031591796875,3.83072265625,9.361328491210937,10.130556149056833
3.1260880378015417,0.7757213378906249,3.6631285400390623,9.366116894531249,10.086842914258714
3.1285749813479233,0.9528922607421875,3.418919970703125,9.3852705078125,10.033958338137055
3.1310619248943046,1.0773907470703123,3.189076611328125,9.399635717773437,9.984194112778205
3.1335488684406863,1.149216796875,2.940079638671875,9.375693701171874,9.892845895198537
3.136035811987068,1.177947216796875,2.70065947265625,9.404424121093749,9.855166882514846
3.138522755533449,1.1827356201171875,2.47081611328125,9.351751684570312,9.744693703888691
3.141009699079831,1.1109095703125,2.2026655273437497,9.394847314453125,9.713341935742173
3.143496642626212,1.0103531005859374,1.9967641845703124,9.399635717773437,9.662351278208039
3.1459835861725938,0.833182177734375,1.8004396484374998,9.447519750976562,9.653569542612319
3.148470529718975,0.6655880615234374,1.618480322265625,9.457096557617186,9.617648429907302
3.1509574732653567,0.411802685546875,1.465251416015625,9.466673364257812,9.58824529043285
3.1534444168117384,0.2346317626953125,1.35990654296875,9.5384994140625,9.637809343504642
3.1559313603581196,-0.0,1.2880804931640624,9.557653027343749,9.644059453775826
3.1584183039045013,-0.3112462158203125,1.24498486328125,9.5384994140625,9.62443933892944
3.1609052474508825,-0.565031591796875,1.2976572998046874,9.567229833984374,9.67135263878562
3.163392190997264,-0.8092401611328125,1.3215993164062498,9.576806640625,9.701377212717523
3.165879134543646,-1.0199299072265624,1.3646949462890625,9.6151138671875,9.764889348633883
3.168366078090027,-1.2785036865234374,1.5322890624999999,9.648632690429688,9.852847012023458
3.170853021636409,-1.4796166259765624,1.66636435546875,9.639055883789062,9.893302474697293
3.17333996518279,-1.6519991455078125,1.8004396484374998,9.624690673828125,9.93002289379528
3.1758269087291717,-1.7286135986328124,2.001552587890625,9.672574707031249,10.027612836491574
3.178313852275553,-1.8626888916015625,2.2170307373046874,9.605537060546874,10.032506038801527
3.1808007958219346,-1.915361328125,2.384624853515625,9.634267480468749,10.10812319842308
3.1832877393683163,-1.9393033447265624,2.6001030029296874,9.595960253906249,10.129357644157901
3.1857746829146976,-1.89620771484375,2.85388837890625,9.586383447265625,10.180325641898568
3.1882616264610792,-1.8339584716796873,3.0023288818359375,9.567229833984374,10.193589607534365
3.1907485700074605,-1.6807295654296874,3.1364041748046874,9.543287817382812,10.185098202042479
3.193235513553842,-1.5466542724609373,3.361459130859375,9.605537060546874,10.293584854097187
3.195722457100224,-1.37906015625,3.4524387939453125,9.543287817382812,10.241849584225596
3.198209400646605,-1.1875240234375,3.6104561035156246,9.504980590820312,10.236711513641735
3.2006963441929868,-0.9576806640625,3.6631285400390623,9.481038574218749,10.209101596173475
3.203183287739368,-0.7326257080078125,3.749319799804687,9.471461767578125,10.212870674004227
3.2056702312857497,-0.47884033203125,3.749319799804687,9.509768994140625,10.233395983089174
3.208157174832131,-0.2920926025390625,3.6918589599609373,9.423577734375,10.125164590489883
3.2106441183785126,-0.009576806640625,3.6631285400390623,9.409212524414063,10.097122498299433
3.2131310619248943,0.17238251953125,3.5386300537109374,9.404424121093749,10.04961747727127
